PE UV       SUBTECH     SPECTRUM    ASCII       PEDS        4.00        
   -1
CICIMAUCR0003-2.Sample.ASC
24/05/03
14:40:28.00
24/05/03
14:40:28.00
Vinicio Soto Monge
C. kalinini
250,000000
1
Lambda 1050
1050L1511233
PerkinElmer UV WinLab 6.3.2.0749 / 2.02.05 Lambda 900 UV/VIS/NIR, Aug  7 2015 09:38:08

0
0
3350/servo 860,8/2
0
0
UV/VIS
1
1
1
DoubleDePol,CommonBeamDepol,RBeamAtt,SBeamAtt,60mm sphere, WB InGaAs Detector
0
0
0
0
Program
Program
3350/servo 860,8/2
3350/0,2 860,8/0,2
3350/0,2 860,8/0,2
0
15.00
 
 
 
0
 
860,8
319,2
860,8
Front
100
on
S:100 R:100
0
0
0
0
 
0
 
 
 
0
 
 
0
0
0
0
0
 
 
 
 
0
0


0
0
#HDR
-1
-1
#GR
nm
%R
1.0
0.0
2500,000000
-1,000000
2251
8
99,737200
5,267900
#DATA
2500.000000	8.092000
2499.000000	8.148800
2498.000000	7.963700
2497.000000	8.016100
2496.000000	7.928100
2495.000000	7.944500
2494.000000	7.841900
2493.000000	7.811100
2492.000000	7.832900
2491.000000	7.859500
2490.000000	7.794600
2489.000000	7.761500
2488.000000	7.774300
2487.000000	7.797300
2486.000000	7.664100
2485.000000	7.785400
2484.000000	7.703900
2483.000000	7.703300
2482.000000	7.772900
2481.000000	7.736000
2480.000000	7.687600
2479.000000	7.702500
2478.000000	7.679200
2477.000000	7.714200
2476.000000	7.754800
2475.000000	7.694400
2474.000000	7.740200
2473.000000	7.753400
2472.000000	7.724300
2471.000000	7.719600
2470.000000	7.746000
2469.000000	7.736000
2468.000000	7.770300
2467.000000	7.780000
2466.000000	7.812400
2465.000000	7.789800
2464.000000	7.828700
2463.000000	7.858800
2462.000000	7.873300
2461.000000	7.910800
2460.000000	7.964400
2459.000000	7.996000
2458.000000	8.079900
2457.000000	8.122000
2456.000000	8.168700
2455.000000	8.253500
2454.000000	8.315600
2453.000000	8.389200
2452.000000	8.461700
2451.000000	8.523300
2450.000000	8.596800
2449.000000	8.695000
2448.000000	8.762100
2447.000000	8.850700
2446.000000	8.921700
2445.000000	8.972000
2444.000000	9.064900
2443.000000	9.147400
2442.000000	9.214300
2441.000000	9.287000
2440.000000	9.337300
2439.000000	9.440700
2438.000000	9.468000
2437.000000	9.552200
2436.000000	9.618700
2435.000000	9.698900
2434.000000	9.734300
2433.000000	9.783500
2432.000000	9.846200
2431.000000	9.909300
2430.000000	9.948900
2429.000000	9.987800
2428.000000	10.040700
2427.000000	10.064800
2426.000000	10.088200
2425.000000	10.148700
2424.000000	10.183600
2423.000000	10.227200
2422.000000	10.237100
2421.000000	10.254900
2420.000000	10.274100
2419.000000	10.300800
2418.000000	10.350700
2417.000000	10.369100
2416.000000	10.400500
2415.000000	10.435300
2414.000000	10.457200
2413.000000	10.472800
2412.000000	10.505600
2411.000000	10.529500
2410.000000	10.557700
2409.000000	10.577600
2408.000000	10.602800
2407.000000	10.637000
2406.000000	10.653800
2405.000000	10.680500
2404.000000	10.705000
2403.000000	10.726700
2402.000000	10.761000
2401.000000	10.779500
2400.000000	10.802400
2399.000000	10.848100
2398.000000	10.922400
2397.000000	11.006100
2396.000000	11.067800
2395.000000	11.097700
2394.000000	11.108600
2393.000000	11.126500
2392.000000	11.150800
2391.000000	11.188800
2390.000000	11.240900
2389.000000	11.270900
2388.000000	11.268400
2387.000000	11.261700
2386.000000	11.282200
2385.000000	11.308700
2384.000000	11.303300
2383.000000	11.301600
2382.000000	11.307700
2381.000000	11.294200
2380.000000	11.290500
2379.000000	11.285200
2378.000000	11.263800
2377.000000	11.271100
2376.000000	11.279800
2375.000000	11.247600
2374.000000	11.228600
2373.000000	11.211900
2372.000000	11.166700
2371.000000	11.151500
2370.000000	11.130000
2369.000000	11.072300
2368.000000	11.022000
2367.000000	10.971800
2366.000000	10.914000
2365.000000	10.853200
2364.000000	10.805100
2363.000000	10.760400
2362.000000	10.687200
2361.000000	10.622200
2360.000000	10.587600
2359.000000	10.531900
2358.000000	10.467700
2357.000000	10.413300
2356.000000	10.383600
2355.000000	10.372000
2354.000000	10.363600
2353.000000	10.360600
2352.000000	10.369500
2351.000000	10.381600
2350.000000	10.425200
2349.000000	10.480200
2348.000000	10.531400
2347.000000	10.575300
2346.000000	10.614800
2345.000000	10.661600
2344.000000	10.723100
2343.000000	10.794500
2342.000000	10.827200
2341.000000	10.844300
2340.000000	10.881200
2339.000000	10.918400
2338.000000	10.934700
2337.000000	10.946000
2336.000000	10.952800
2335.000000	10.937700
2334.000000	10.909500
2333.000000	10.878000
2332.000000	10.846900
2331.000000	10.811400
2330.000000	10.758600
2329.000000	10.701100
2328.000000	10.639100
2327.000000	10.563000
2326.000000	10.504400
2325.000000	10.412400
2324.000000	10.303900
2323.000000	10.217500
2322.000000	10.122500
2321.000000	10.005200
2320.000000	9.890900
2319.000000	9.772100
2318.000000	9.629400
2317.000000	9.512600
2316.000000	9.419400
2315.000000	9.310600
2314.000000	9.186200
2313.000000	9.066000
2312.000000	8.968700
2311.000000	8.889900
2310.000000	8.836400
2309.000000	8.812900
2308.000000	8.775700
2307.000000	8.753200
2306.000000	8.757000
2305.000000	8.782200
2304.000000	8.820700
2303.000000	8.882400
2302.000000	8.969200
2301.000000	9.042400
2300.000000	9.138500
2299.000000	9.236700
2298.000000	9.337100
2297.000000	9.431000
2296.000000	9.498000
2295.000000	9.605600
2294.000000	9.681000
2293.000000	9.754700
2292.000000	9.791800
2291.000000	9.822300
2290.000000	9.849300
2289.000000	9.863700
2288.000000	9.872700
2287.000000	9.841100
2286.000000	9.805900
2285.000000	9.790900
2284.000000	9.771500
2283.000000	9.706500
2282.000000	9.679800
2281.000000	9.615700
2280.000000	9.558000
2279.000000	9.523100
2278.000000	9.471200
2277.000000	9.432800
2276.000000	9.386300
2275.000000	9.353700
2274.000000	9.372200
2273.000000	9.353300
2272.000000	9.367800
2271.000000	9.385800
2270.000000	9.438400
2269.000000	9.493000
2268.000000	9.580300
2267.000000	9.672900
2266.000000	9.790600
2265.000000	9.969900
2264.000000	10.140300
2263.000000	10.314300
2262.000000	10.521500
2261.000000	10.781200
2260.000000	11.026400
2259.000000	11.278400
2258.000000	11.576200
2257.000000	11.847400
2256.000000	12.126400
2255.000000	12.398200
2254.000000	12.680600
2253.000000	12.947400
2252.000000	13.228100
2251.000000	13.472800
2250.000000	13.684900
2249.000000	13.911700
2248.000000	14.114500
2247.000000	14.353500
2246.000000	14.524800
2245.000000	14.685600
2244.000000	14.870800
2243.000000	15.016300
2242.000000	15.159700
2241.000000	15.292200
2240.000000	15.378700
2239.000000	15.521100
2238.000000	15.620200
2237.000000	15.713100
2236.000000	15.779900
2235.000000	15.860600
2234.000000	15.934200
2233.000000	16.007800
2232.000000	16.060300
2231.000000	16.089500
2230.000000	16.111400
2229.000000	16.132300
2228.000000	16.162300
2227.000000	16.161500
2226.000000	16.193000
2225.000000	16.186200
2224.000000	16.185600
2223.000000	16.160500
2222.000000	16.163000
2221.000000	16.135600
2220.000000	16.099600
2219.000000	16.059000
2218.000000	16.042900
2217.000000	16.014700
2216.000000	15.973900
2215.000000	15.943900
2214.000000	15.914500
2213.000000	15.888400
2212.000000	15.893800
2211.000000	15.856400
2210.000000	15.849400
2209.000000	15.810500
2208.000000	15.815200
2207.000000	15.787900
2206.000000	15.779900
2205.000000	15.762800
2204.000000	15.740300
2203.000000	15.722200
2202.000000	15.730300
2201.000000	15.701900
2200.000000	15.704800
2199.000000	15.710100
2198.000000	15.716800
2197.000000	15.700900
2196.000000	15.696100
2195.000000	15.696700
2194.000000	15.682100
2193.000000	15.680600
2192.000000	15.672700
2191.000000	15.669500
2190.000000	15.651700
2189.000000	15.632200
2188.000000	15.636500
2187.000000	15.624700
2186.000000	15.614800
2185.000000	15.616600
2184.000000	15.601200
2183.000000	15.587400
2182.000000	15.567900
2181.000000	15.557700
2180.000000	15.558200
2179.000000	15.547000
2178.000000	15.541400
2177.000000	15.530800
2176.000000	15.533500
2175.000000	15.544400
2174.000000	15.528700
2173.000000	15.543200
2172.000000	15.546200
2171.000000	15.549800
2170.000000	15.548300
2169.000000	15.575500
2168.000000	15.597000
2167.000000	15.616500
2166.000000	15.632700
2165.000000	15.649200
2164.000000	15.682700
2163.000000	15.694400
2162.000000	15.708900
2161.000000	15.749300
2160.000000	15.792700
2159.000000	15.854600
2158.000000	15.886400
2157.000000	15.901300
2156.000000	15.940300
2155.000000	16.007700
2154.000000	16.045800
2153.000000	16.103300
2152.000000	16.151500
2151.000000	16.207600
2150.000000	16.266700
2149.000000	16.317300
2148.000000	16.347200
2147.000000	16.383900
2146.000000	16.439500
2145.000000	16.496600
2144.000000	16.547200
2143.000000	16.578200
2142.000000	16.617500
2141.000000	16.654500
2140.000000	16.703600
2139.000000	16.748800
2138.000000	16.779600
2137.000000	16.825500
2136.000000	16.840200
2135.000000	16.859700
2134.000000	16.893700
2133.000000	16.926600
2132.000000	16.931300
2131.000000	16.951300
2130.000000	16.988900
2129.000000	17.005600
2128.000000	17.002900
2127.000000	17.005500
2126.000000	17.013400
2125.000000	17.020000
2124.000000	17.016300
2123.000000	17.029100
2122.000000	17.020000
2121.000000	17.003700
2120.000000	16.988200
2119.000000	16.981100
2118.000000	16.982900
2117.000000	16.949000
2116.000000	16.930400
2115.000000	16.902000
2114.000000	16.866500
2113.000000	16.859600
2112.000000	16.847100
2111.000000	16.815400
2110.000000	16.778500
2109.000000	16.746200
2108.000000	16.722600
2107.000000	16.703900
2106.000000	16.680300
2105.000000	16.649600
2104.000000	16.617400
2103.000000	16.587400
2102.000000	16.559900
2101.000000	16.546000
2100.000000	16.521200
2099.000000	16.491200
2098.000000	16.465000
2097.000000	16.444300
2096.000000	16.439700
2095.000000	16.429500
2094.000000	16.421400
2093.000000	16.385300
2092.000000	16.352900
2091.000000	16.357200
2090.000000	16.356800
2089.000000	16.348100
2088.000000	16.332100
2087.000000	16.315400
2086.000000	16.289400
2085.000000	16.274400
2084.000000	16.263800
2083.000000	16.244100
2082.000000	16.217100
2081.000000	16.189300
2080.000000	16.157600
2079.000000	16.151800
2078.000000	16.136500
2077.000000	16.099100
2076.000000	16.058500
2075.000000	16.020400
2074.000000	16.002700
2073.000000	15.970700
2072.000000	15.929800
2071.000000	15.898500
2070.000000	15.864500
2069.000000	15.833400
2068.000000	15.800000
2067.000000	15.751100
2066.000000	15.709700
2065.000000	15.685900
2064.000000	15.674800
2063.000000	15.653000
2062.000000	15.621500
2061.000000	15.604600
2060.000000	15.597900
2059.000000	15.602700
2058.000000	15.611500
2057.000000	15.633000
2056.000000	15.678900
2055.000000	15.733900
2054.000000	15.781100
2053.000000	15.839300
2052.000000	15.923400
2051.000000	16.026400
2050.000000	16.145700
2049.000000	16.262300
2048.000000	16.392600
2047.000000	16.535700
2046.000000	16.704800
2045.000000	16.881500
2044.000000	17.020300
2043.000000	17.169300
2042.000000	17.321000
2041.000000	17.491600
2040.000000	17.652000
2039.000000	17.822200
2038.000000	17.948200
2037.000000	18.095700
2036.000000	18.257900
2035.000000	18.384700
2034.000000	18.508500
2033.000000	18.641600
2032.000000	18.772200
2031.000000	18.885800
2030.000000	19.004600
2029.000000	19.090000
2028.000000	19.197700
2027.000000	19.300100
2026.000000	19.396200
2025.000000	19.477700
2024.000000	19.569700
2023.000000	19.660800
2022.000000	19.735700
2021.000000	19.809300
2020.000000	19.889800
2019.000000	19.959800
2018.000000	20.022100
2017.000000	20.078300
2016.000000	20.142800
2015.000000	20.200900
2014.000000	20.234200
2013.000000	20.290500
2012.000000	20.325800
2011.000000	20.361200
2010.000000	20.397100
2009.000000	20.408800
2008.000000	20.407700
2007.000000	20.454700
2006.000000	20.445900
2005.000000	20.437800
2004.000000	20.464600
2003.000000	20.430100
2002.000000	20.427700
2001.000000	20.407500
2000.000000	20.391400
1999.000000	20.356000
1998.000000	20.312100
1997.000000	20.271300
1996.000000	20.247000
1995.000000	20.190000
1994.000000	20.149900
1993.000000	20.103600
1992.000000	20.038100
1991.000000	19.978700
1990.000000	19.920100
1989.000000	19.842400
1988.000000	19.781100
1987.000000	19.694200
1986.000000	19.651000
1985.000000	19.545700
1984.000000	19.457700
1983.000000	19.419800
1982.000000	19.329900
1981.000000	19.252900
1980.000000	19.166800
1979.000000	19.070700
1978.000000	19.004200
1977.000000	18.901500
1976.000000	18.839000
1975.000000	18.757600
1974.000000	18.679400
1973.000000	18.589600
1972.000000	18.525100
1971.000000	18.431200
1970.000000	18.363100
1969.000000	18.254600
1968.000000	18.208100
1967.000000	18.112800
1966.000000	18.047500
1965.000000	17.973000
1964.000000	17.883800
1963.000000	17.823800
1962.000000	17.744700
1961.000000	17.666700
1960.000000	17.570800
1959.000000	17.505900
1958.000000	17.450600
1957.000000	17.399900
1956.000000	17.283400
1955.000000	17.206300
1954.000000	17.145500
1953.000000	17.068300
1952.000000	16.993200
1951.000000	16.927900
1950.000000	16.863700
1949.000000	16.796400
1948.000000	16.754700
1947.000000	16.682800
1946.000000	16.644500
1945.000000	16.596700
1944.000000	16.554400
1943.000000	16.524600
1942.000000	16.506200
1941.000000	16.492100
1940.000000	16.475100
1939.000000	16.478100
1938.000000	16.473200
1937.000000	16.494700
1936.000000	16.517800
1935.000000	16.559900
1934.000000	16.592400
1933.000000	16.660800
1932.000000	16.704000
1931.000000	16.781200
1930.000000	16.870800
1929.000000	16.968300
1928.000000	17.079300
1927.000000	17.210500
1926.000000	17.317000
1925.000000	17.438600
1924.000000	17.575800
1923.000000	17.727100
1922.000000	17.901800
1921.000000	18.089800
1920.000000	18.284700
1919.000000	18.471200
1918.000000	18.670400
1917.000000	18.883400
1916.000000	19.087900
1915.000000	19.293700
1914.000000	19.570200
1913.000000	19.844700
1912.000000	20.096900
1911.000000	20.335300
1910.000000	20.576700
1909.000000	20.812600
1908.000000	21.055400
1907.000000	21.375300
1906.000000	21.692300
1905.000000	22.006300
1904.000000	22.318500
1903.000000	22.625600
1902.000000	22.921500
1901.000000	23.253700
1900.000000	23.609900
1899.000000	23.976200
1898.000000	24.302700
1897.000000	24.618800
1896.000000	24.896600
1895.000000	25.190300
1894.000000	25.481500
1893.000000	25.813000
1892.000000	26.183800
1891.000000	26.498500
1890.000000	26.832700
1889.000000	27.184000
1888.000000	27.503900
1887.000000	27.842300
1886.000000	28.237500
1885.000000	28.680000
1884.000000	29.154900
1883.000000	29.618800
1882.000000	30.117700
1881.000000	30.613900
1880.000000	31.049200
1879.000000	31.497900
1878.000000	31.936200
1877.000000	32.319900
1876.000000	32.692200
1875.000000	33.053100
1874.000000	33.369100
1873.000000	33.681100
1872.000000	33.949400
1871.000000	34.179000
1870.000000	34.381500
1869.000000	34.584000
1868.000000	34.705300
1867.000000	34.800200
1866.000000	34.872100
1865.000000	34.926400
1864.000000	34.977100
1863.000000	35.044600
1862.000000	35.113900
1861.000000	35.146500
1860.000000	35.178600
1859.000000	35.188700
1858.000000	35.187400
1857.000000	35.178700
1856.000000	35.148700
1855.000000	35.121600
1854.000000	35.084500
1853.000000	34.993300
1852.000000	34.940200
1851.000000	34.899300
1850.000000	34.848100
1849.000000	34.813200
1848.000000	34.769400
1847.000000	34.667400
1846.000000	34.569300
1845.000000	34.505300
1844.000000	34.452400
1843.000000	34.433400
1842.000000	34.432000
1841.000000	34.402000
1840.000000	34.345400
1839.000000	34.293700
1838.000000	34.249600
1837.000000	34.193600
1836.000000	34.114300
1835.000000	34.016200
1834.000000	33.914000
1833.000000	33.830000
1832.000000	33.762000
1831.000000	33.696900
1830.000000	33.616600
1829.000000	33.522500
1828.000000	33.430600
1827.000000	33.359900
1826.000000	33.281700
1825.000000	33.212100
1824.000000	33.173400
1823.000000	33.158400
1822.000000	33.145700
1821.000000	33.131800
1820.000000	33.096500
1819.000000	33.053000
1818.000000	33.025400
1817.000000	33.018500
1816.000000	33.026200
1815.000000	33.004300
1814.000000	32.994700
1813.000000	32.977800
1812.000000	32.948100
1811.000000	32.908100
1810.000000	32.865200
1809.000000	32.814600
1808.000000	32.775900
1807.000000	32.732700
1806.000000	32.679300
1805.000000	32.615900
1804.000000	32.567600
1803.000000	32.518200
1802.000000	32.459100
1801.000000	32.399800
1800.000000	32.343400
1799.000000	32.273500
1798.000000	32.210300
1797.000000	32.164700
1796.000000	32.114800
1795.000000	32.043000
1794.000000	31.998900
1793.000000	31.934800
1792.000000	31.871400
1791.000000	31.800200
1790.000000	31.744300
1789.000000	31.664100
1788.000000	31.597100
1787.000000	31.523200
1786.000000	31.448300
1785.000000	31.350400
1784.000000	31.265400
1783.000000	31.167100
1782.000000	31.076200
1781.000000	30.992300
1780.000000	30.881200
1779.000000	30.790900
1778.000000	30.677800
1777.000000	30.544800
1776.000000	30.414400
1775.000000	30.287400
1774.000000	30.143000
1773.000000	29.962200
1772.000000	29.821500
1771.000000	29.671400
1770.000000	29.527400
1769.000000	29.378400
1768.000000	29.229900
1767.000000	29.128800
1766.000000	29.035000
1765.000000	28.945900
1764.000000	28.903700
1763.000000	28.883600
1762.000000	28.909400
1761.000000	28.957300
1760.000000	29.022100
1759.000000	29.088700
1758.000000	29.151000
1757.000000	29.203100
1756.000000	29.250900
1755.000000	29.269000
1754.000000	29.279800
1753.000000	29.261200
1752.000000	29.239700
1751.000000	29.196100
1750.000000	29.139000
1749.000000	29.040300
1748.000000	28.942400
1747.000000	28.822600
1746.000000	28.665800
1745.000000	28.503600
1744.000000	28.317500
1743.000000	28.091600
1742.000000	27.855100
1741.000000	27.584000
1740.000000	27.319200
1739.000000	27.080800
1738.000000	26.846100
1737.000000	26.670300
1736.000000	26.520500
1735.000000	26.435700
1734.000000	26.409600
1733.000000	26.437200
1732.000000	26.497500
1731.000000	26.579900
1730.000000	26.691900
1729.000000	26.818900
1728.000000	26.943000
1727.000000	27.039800
1726.000000	27.144700
1725.000000	27.217900
1724.000000	27.264900
1723.000000	27.308000
1722.000000	27.343000
1721.000000	27.357600
1720.000000	27.378500
1719.000000	27.440300
1718.000000	27.493200
1717.000000	27.558200
1716.000000	27.658800
1715.000000	27.755600
1714.000000	27.815600
1713.000000	27.913500
1712.000000	27.966700
1711.000000	27.998300
1710.000000	28.038600
1709.000000	28.003000
1708.000000	28.005000
1707.000000	27.969300
1706.000000	27.949100
1705.000000	27.906100
1704.000000	27.840000
1703.000000	27.731800
1702.000000	27.610800
1701.000000	27.437100
1700.000000	27.271900
1699.000000	27.102300
1698.000000	26.974800
1697.000000	26.848800
1696.000000	26.814000
1695.000000	26.828800
1694.000000	26.887300
1693.000000	27.032200
1692.000000	27.185500
1691.000000	27.362500
1690.000000	27.510500
1689.000000	27.630100
1688.000000	27.648700
1687.000000	27.692500
1686.000000	27.728700
1685.000000	27.808200
1684.000000	27.935200
1683.000000	28.232100
1682.000000	28.645400
1681.000000	29.183100
1680.000000	29.781300
1679.000000	30.371000
1678.000000	30.964100
1677.000000	31.482800
1676.000000	31.983200
1675.000000	32.393100
1674.000000	32.748900
1673.000000	33.050800
1672.000000	33.308900
1671.000000	33.586600
1670.000000	33.763900
1669.000000	33.972400
1668.000000	34.106600
1667.000000	34.255800
1666.000000	34.373400
1665.000000	34.459300
1664.000000	34.568100
1663.000000	34.656100
1662.000000	34.703300
1661.000000	34.777900
1660.000000	34.825800
1659.000000	34.855100
1658.000000	34.885100
1657.000000	34.903900
1656.000000	34.919600
1655.000000	34.908900
1654.000000	34.927100
1653.000000	34.894000
1652.000000	34.865400
1651.000000	34.851000
1650.000000	34.812500
1649.000000	34.759300
1648.000000	34.723000
1647.000000	34.679800
1646.000000	34.627900
1645.000000	34.576200
1644.000000	34.512400
1643.000000	34.453400
1642.000000	34.382500
1641.000000	34.317100
1640.000000	34.263000
1639.000000	34.202800
1638.000000	34.122300
1637.000000	34.064300
1636.000000	33.973500
1635.000000	33.910000
1634.000000	33.831800
1633.000000	33.745800
1632.000000	33.644500
1631.000000	33.566100
1630.000000	33.484000
1629.000000	33.394600
1628.000000	33.304200
1627.000000	33.225300
1626.000000	33.137600
1625.000000	33.045700
1624.000000	32.956200
1623.000000	32.860600
1622.000000	32.786900
1621.000000	32.713500
1620.000000	32.613300
1619.000000	32.538800
1618.000000	32.459300
1617.000000	32.390000
1616.000000	32.305700
1615.000000	32.236400
1614.000000	32.169700
1613.000000	32.079800
1612.000000	32.006500
1611.000000	31.935500
1610.000000	31.864200
1609.000000	31.795400
1608.000000	31.730700
1607.000000	31.657500
1606.000000	31.575500
1605.000000	31.500200
1604.000000	31.427100
1603.000000	31.362900
1602.000000	31.289200
1601.000000	31.216700
1600.000000	31.150800
1599.000000	31.077400
1598.000000	31.000800
1597.000000	30.952800
1596.000000	30.899300
1595.000000	30.843000
1594.000000	30.788400
1593.000000	30.744700
1592.000000	30.700700
1591.000000	30.652700
1590.000000	30.619300
1589.000000	30.584400
1588.000000	30.543100
1587.000000	30.511200
1586.000000	30.472400
1585.000000	30.436300
1584.000000	30.408200
1583.000000	30.396300
1582.000000	30.383300
1581.000000	30.366400
1580.000000	30.357300
1579.000000	30.348100
1578.000000	30.354400
1577.000000	30.358000
1576.000000	30.362200
1575.000000	30.377700
1574.000000	30.397300
1573.000000	30.413300
1572.000000	30.428200
1571.000000	30.454600
1570.000000	30.494800
1569.000000	30.531300
1568.000000	30.559100
1567.000000	30.604800
1566.000000	30.639700
1565.000000	30.670000
1564.000000	30.713200
1563.000000	30.737400
1562.000000	30.760600
1561.000000	30.784600
1560.000000	30.802600
1559.000000	30.821900
1558.000000	30.835600
1557.000000	30.841200
1556.000000	30.853700
1555.000000	30.858800
1554.000000	30.852300
1553.000000	30.843100
1552.000000	30.833200
1551.000000	30.819900
1550.000000	30.811600
1549.000000	30.797900
1548.000000	30.769800
1547.000000	30.766400
1546.000000	30.755600
1545.000000	30.736400
1544.000000	30.731500
1543.000000	30.733800
1542.000000	30.731400
1541.000000	30.715800
1540.000000	30.720700
1539.000000	30.730100
1538.000000	30.729900
1537.000000	30.733400
1536.000000	30.729400
1535.000000	30.716100
1534.000000	30.700300
1533.000000	30.682700
1532.000000	30.674300
1531.000000	30.666200
1530.000000	30.648700
1529.000000	30.632800
1528.000000	30.619600
1527.000000	30.598600
1526.000000	30.570600
1525.000000	30.542200
1524.000000	30.513900
1523.000000	30.496000
1522.000000	30.466600
1521.000000	30.427900
1520.000000	30.391800
1519.000000	30.366500
1518.000000	30.348100
1517.000000	30.320900
1516.000000	30.291100
1515.000000	30.251000
1514.000000	30.219000
1513.000000	30.180700
1512.000000	30.153100
1511.000000	30.118200
1510.000000	30.082100
1509.000000	30.054600
1508.000000	30.013300
1507.000000	29.978900
1506.000000	29.956400
1505.000000	29.920600
1504.000000	29.899300
1503.000000	29.889200
1502.000000	29.855400
1501.000000	29.831500
1500.000000	29.835200
1499.000000	29.823400
1498.000000	29.810400
1497.000000	29.803400
1496.000000	29.807200
1495.000000	29.809600
1494.000000	29.829300
1493.000000	29.833500
1492.000000	29.842000
1491.000000	29.862200
1490.000000	29.878300
1489.000000	29.903900
1488.000000	29.943700
1487.000000	29.945700
1486.000000	29.963000
1485.000000	29.998000
1484.000000	30.033800
1483.000000	30.068000
1482.000000	30.115100
1481.000000	30.148900
1480.000000	30.182600
1479.000000	30.236600
1478.000000	30.275400
1477.000000	30.329900
1476.000000	30.396100
1475.000000	30.446000
1474.000000	30.505000
1473.000000	30.570300
1472.000000	30.656000
1471.000000	30.695100
1470.000000	30.752600
1469.000000	30.796200
1468.000000	30.851200
1467.000000	30.927500
1466.000000	30.989400
1465.000000	31.075000
1464.000000	31.143600
1463.000000	31.217900
1462.000000	31.315800
1461.000000	31.403100
1460.000000	31.481600
1459.000000	31.592100
1458.000000	31.693100
1457.000000	31.804900
1456.000000	31.924700
1455.000000	32.021100
1454.000000	32.141000
1453.000000	32.260600
1452.000000	32.390700
1451.000000	32.516700
1450.000000	32.641700
1449.000000	32.745500
1448.000000	32.891500
1447.000000	33.032300
1446.000000	33.172900
1445.000000	33.309000
1444.000000	33.439600
1443.000000	33.576800
1442.000000	33.713400
1441.000000	33.861800
1440.000000	34.005700
1439.000000	34.132800
1438.000000	34.267100
1437.000000	34.382000
1436.000000	34.538100
1435.000000	34.665300
1434.000000	34.803500
1433.000000	34.958400
1432.000000	35.105800
1431.000000	35.242300
1430.000000	35.401400
1429.000000	35.563700
1428.000000	35.782800
1427.000000	35.976900
1426.000000	36.209700
1425.000000	36.441900
1424.000000	36.690200
1423.000000	36.925800
1422.000000	37.126300
1421.000000	37.374100
1420.000000	37.653200
1419.000000	37.887500
1418.000000	38.102600
1417.000000	38.300600
1416.000000	38.572200
1415.000000	38.863700
1414.000000	39.085200
1413.000000	39.293400
1412.000000	39.513700
1411.000000	39.837700
1410.000000	40.171300
1409.000000	40.509500
1408.000000	40.899100
1407.000000	41.257300
1406.000000	41.680900
1405.000000	42.065800
1404.000000	42.448200
1403.000000	42.831200
1402.000000	43.239100
1401.000000	43.705800
1400.000000	44.019700
1399.000000	44.228700
1398.000000	44.438700
1397.000000	44.717500
1396.000000	44.986200
1395.000000	45.137200
1394.000000	45.247900
1393.000000	45.394700
1392.000000	45.574900
1391.000000	45.744800
1390.000000	45.925900
1389.000000	46.224100
1388.000000	46.498600
1387.000000	46.791200
1386.000000	47.157700
1385.000000	47.583700
1384.000000	47.987900
1383.000000	48.373100
1382.000000	48.677200
1381.000000	48.862000
1380.000000	48.966400
1379.000000	49.055700
1378.000000	49.116900
1377.000000	49.227600
1376.000000	49.381800
1375.000000	49.601900
1374.000000	49.903300
1373.000000	50.279600
1372.000000	50.654500
1371.000000	51.034700
1370.000000	51.358200
1369.000000	51.698300
1368.000000	51.985900
1367.000000	52.209600
1366.000000	52.425100
1365.000000	52.640900
1364.000000	52.817400
1363.000000	52.997300
1362.000000	53.148000
1361.000000	53.225600
1360.000000	53.241600
1359.000000	53.339100
1358.000000	53.463400
1357.000000	53.672600
1356.000000	54.027500
1355.000000	54.523500
1354.000000	55.062300
1353.000000	55.588900
1352.000000	56.215000
1351.000000	56.798100
1350.000000	57.316500
1349.000000	57.791700
1348.000000	58.249700
1347.000000	58.640300
1346.000000	58.988700
1345.000000	59.384100
1344.000000	59.766700
1343.000000	60.075100
1342.000000	60.369400
1341.000000	60.670000
1340.000000	60.964000
1339.000000	61.242800
1338.000000	61.485700
1337.000000	61.735100
1336.000000	61.971900
1335.000000	62.196400
1334.000000	62.408000
1333.000000	62.610900
1332.000000	62.811200
1331.000000	62.983100
1330.000000	63.162100
1329.000000	63.330600
1328.000000	63.483900
1327.000000	63.622500
1326.000000	63.761000
1325.000000	63.890500
1324.000000	64.020200
1323.000000	64.131500
1322.000000	64.236400
1321.000000	64.341800
1320.000000	64.447500
1319.000000	64.530800
1318.000000	64.621500
1317.000000	64.709500
1316.000000	64.782900
1315.000000	64.863700
1314.000000	64.940200
1313.000000	65.004200
1312.000000	65.071300
1311.000000	65.128200
1310.000000	65.175200
1309.000000	65.219500
1308.000000	65.255600
1307.000000	65.282600
1306.000000	65.314100
1305.000000	65.333700
1304.000000	65.342900
1303.000000	65.343800
1302.000000	65.338500
1301.000000	65.334400
1300.000000	65.317400
1299.000000	65.299800
1298.000000	65.294000
1297.000000	65.277400
1296.000000	65.245800
1295.000000	65.217300
1294.000000	65.184500
1293.000000	65.158200
1292.000000	65.125100
1291.000000	65.082800
1290.000000	65.030500
1289.000000	64.952600
1288.000000	64.889000
1287.000000	64.820000
1286.000000	64.730400
1285.000000	64.642000
1284.000000	64.563700
1283.000000	64.476900
1282.000000	64.378100
1281.000000	64.294600
1280.000000	64.210900
1279.000000	64.112300
1278.000000	64.030500
1277.000000	63.953700
1276.000000	63.873700
1275.000000	63.797000
1274.000000	63.730900
1273.000000	63.670800
1272.000000	63.600200
1271.000000	63.537600
1270.000000	63.476500
1269.000000	63.408900
1268.000000	63.357700
1267.000000	63.295100
1266.000000	63.227400
1265.000000	63.158000
1264.000000	63.102300
1263.000000	63.034300
1262.000000	62.973100
1261.000000	62.907300
1260.000000	62.836200
1259.000000	62.777000
1258.000000	62.725100
1257.000000	62.646100
1256.000000	62.574200
1255.000000	62.498600
1254.000000	62.407500
1253.000000	62.333300
1252.000000	62.241000
1251.000000	62.146600
1250.000000	62.043900
1249.000000	61.940900
1248.000000	61.825900
1247.000000	61.700900
1246.000000	61.562900
1245.000000	61.409900
1244.000000	61.278900
1243.000000	61.120100
1242.000000	60.957900
1241.000000	60.783300
1240.000000	60.610800
1239.000000	60.437200
1238.000000	60.238200
1237.000000	60.068800
1236.000000	59.873500
1235.000000	59.685500
1234.000000	59.494200
1233.000000	59.293700
1232.000000	59.106800
1231.000000	58.890600
1230.000000	58.689600
1229.000000	58.480400
1228.000000	58.278100
1227.000000	58.074600
1226.000000	57.877300
1225.000000	57.661900
1224.000000	57.466800
1223.000000	57.273500
1222.000000	57.071500
1221.000000	56.887500
1220.000000	56.708500
1219.000000	56.537700
1218.000000	56.376100
1217.000000	56.211100
1216.000000	56.067300
1215.000000	55.936700
1214.000000	55.796200
1213.000000	55.665400
1212.000000	55.523700
1211.000000	55.397600
1210.000000	55.282600
1209.000000	55.181300
1208.000000	55.088600
1207.000000	54.993900
1206.000000	54.958600
1205.000000	54.908900
1204.000000	54.867000
1203.000000	54.825600
1202.000000	54.805000
1201.000000	54.734800
1200.000000	54.677000
1199.000000	54.559400
1198.000000	54.401000
1197.000000	54.224500
1196.000000	53.993800
1195.000000	53.693000
1194.000000	53.318400
1193.000000	52.882900
1192.000000	52.402800
1191.000000	51.941200
1190.000000	51.502100
1189.000000	51.139800
1188.000000	50.899200
1187.000000	50.763200
1186.000000	50.776300
1185.000000	50.937300
1184.000000	51.222200
1183.000000	51.636500
1182.000000	52.129000
1181.000000	52.636900
1180.000000	53.152300
1179.000000	53.635500
1178.000000	54.053700
1177.000000	54.424200
1176.000000	54.758500
1175.000000	55.063400
1174.000000	55.387500
1173.000000	55.720500
1172.000000	56.053800
1171.000000	56.411700
1170.000000	56.791500
1169.000000	57.148300
1168.000000	57.517100
1167.000000	57.876800
1166.000000	58.241700
1165.000000	58.661500
1164.000000	59.015700
1163.000000	59.401900
1162.000000	59.797600
1161.000000	60.142500
1160.000000	60.495300
1159.000000	60.831200
1158.000000	61.148800
1157.000000	61.406200
1156.000000	61.618100
1155.000000	61.787500
1154.000000	61.857000
1153.000000	61.915400
1152.000000	61.931600
1151.000000	61.890200
1150.000000	61.848600
1149.000000	61.826400
1148.000000	61.806800
1147.000000	61.847100
1146.000000	61.995800
1145.000000	62.193100
1144.000000	62.429000
1143.000000	62.735600
1142.000000	63.035600
1141.000000	63.382900
1140.000000	63.701700
1139.000000	64.065100
1138.000000	64.430500
1137.000000	64.799600
1136.000000	65.180600
1135.000000	65.564800
1134.000000	65.868200
1133.000000	66.134700
1132.000000	66.402600
1131.000000	66.674600
1130.000000	66.901500
1129.000000	67.085900
1128.000000	67.220100
1127.000000	67.311300
1126.000000	67.404200
1125.000000	67.467100
1124.000000	67.539900
1123.000000	67.588200
1122.000000	67.644500
1121.000000	67.657600
1120.000000	67.676200
1119.000000	67.684200
1118.000000	67.682000
1117.000000	67.668900
1116.000000	67.648100
1115.000000	67.607200
1114.000000	67.576100
1113.000000	67.561400
1112.000000	67.532300
1111.000000	67.493400
1110.000000	67.461800
1109.000000	67.430200
1108.000000	67.394900
1107.000000	67.354000
1106.000000	67.325100
1105.000000	67.270800
1104.000000	67.223100
1103.000000	67.170700
1102.000000	67.125300
1101.000000	67.065100
1100.000000	67.004400
1099.000000	66.947400
1098.000000	66.885500
1097.000000	66.832700
1096.000000	66.744500
1095.000000	66.667000
1094.000000	66.616600
1093.000000	66.544600
1092.000000	66.463100
1091.000000	66.358900
1090.000000	66.296500
1089.000000	66.200100
1088.000000	66.112000
1087.000000	66.023100
1086.000000	65.934300
1085.000000	65.844300
1084.000000	65.757800
1083.000000	65.674500
1082.000000	65.590100
1081.000000	65.507700
1080.000000	65.436000
1079.000000	65.352900
1078.000000	65.268200
1077.000000	65.185600
1076.000000	65.116100
1075.000000	65.050800
1074.000000	64.973000
1073.000000	64.895200
1072.000000	64.805100
1071.000000	64.746500
1070.000000	64.671300
1069.000000	64.604900
1068.000000	64.527700
1067.000000	64.445100
1066.000000	64.365500
1065.000000	64.285200
1064.000000	64.211700
1063.000000	64.136300
1062.000000	64.065900
1061.000000	63.986300
1060.000000	63.909000
1059.000000	63.826800
1058.000000	63.747800
1057.000000	63.674600
1056.000000	63.584300
1055.000000	63.499300
1054.000000	63.420000
1053.000000	63.333500
1052.000000	63.261400
1051.000000	63.201700
1050.000000	63.141100
1049.000000	63.060400
1048.000000	62.978400
1047.000000	62.927200
1046.000000	62.869500
1045.000000	62.813400
1044.000000	62.749200
1043.000000	62.689500
1042.000000	62.624700
1041.000000	62.550500
1040.000000	62.490200
1039.000000	62.440300
1038.000000	62.388700
1037.000000	62.309300
1036.000000	62.245800
1035.000000	62.201300
1034.000000	62.124300
1033.000000	62.038300
1032.000000	61.979100
1031.000000	61.925200
1030.000000	61.848000
1029.000000	61.773200
1028.000000	61.711800
1027.000000	61.640400
1026.000000	61.570200
1025.000000	61.509800
1024.000000	61.446300
1023.000000	61.375800
1022.000000	61.310500
1021.000000	61.266300
1020.000000	61.210500
1019.000000	61.158000
1018.000000	61.110200
1017.000000	61.065500
1016.000000	61.033700
1015.000000	61.000900
1014.000000	60.980100
1013.000000	60.958000
1012.000000	60.959200
1011.000000	60.965800
1010.000000	60.956500
1009.000000	60.966200
1008.000000	60.985500
1007.000000	60.996300
1006.000000	61.006600
1005.000000	61.023400
1004.000000	61.043400
1003.000000	61.079900
1002.000000	61.093700
1001.000000	61.110100
1000.000000	61.138000
999.000000	61.148800
998.000000	61.164600
997.000000	61.193400
996.000000	61.224200
995.000000	61.289100
994.000000	61.317300
993.000000	61.342700
992.000000	61.386400
991.000000	61.423000
990.000000	61.465700
989.000000	61.507200
988.000000	61.558400
987.000000	61.599500
986.000000	61.665400
985.000000	61.724300
984.000000	61.773800
983.000000	61.820300
982.000000	61.894400
981.000000	61.938900
980.000000	62.011100
979.000000	62.092100
978.000000	62.127600
977.000000	62.197100
976.000000	62.261500
975.000000	62.334200
974.000000	62.426500
973.000000	62.469300
972.000000	62.512900
971.000000	62.597100
970.000000	62.682000
969.000000	62.741000
968.000000	62.793900
967.000000	62.863300
966.000000	62.937800
965.000000	63.012100
964.000000	63.079200
963.000000	63.159300
962.000000	63.226800
961.000000	63.329000
960.000000	63.410300
959.000000	63.488100
958.000000	63.559400
957.000000	63.627600
956.000000	63.725600
955.000000	63.790400
954.000000	63.890200
953.000000	63.960300
952.000000	64.022600
951.000000	64.091100
950.000000	64.177800
949.000000	64.236400
948.000000	64.342500
947.000000	64.404200
946.000000	64.467500
945.000000	64.557600
944.000000	64.642400
943.000000	64.770000
942.000000	64.845500
941.000000	64.899800
940.000000	65.030500
939.000000	65.093700
938.000000	65.161800
937.000000	65.263400
936.000000	65.349500
935.000000	65.507900
934.000000	65.580100
933.000000	65.658600
932.000000	65.749100
931.000000	65.835100
930.000000	65.953700
929.000000	66.024000
928.000000	66.107200
927.000000	66.174300
926.000000	66.307900
925.000000	66.394700
924.000000	66.444500
923.000000	66.515600
922.000000	66.598000
921.000000	66.670500
920.000000	66.709600
919.000000	66.856100
918.000000	66.911600
917.000000	66.946500
916.000000	66.923100
915.000000	66.992100
914.000000	67.129000
913.000000	67.157700
912.000000	67.196500
911.000000	67.236400
910.000000	67.223200
909.000000	67.252400
908.000000	67.427400
907.000000	67.483800
906.000000	67.504800
905.000000	67.470800
904.000000	67.550100
903.000000	67.601200
902.000000	67.655600
901.000000	67.700800
900.000000	67.723600
899.000000	67.744900
898.000000	67.658600
897.000000	67.675200
896.000000	67.702400
895.000000	67.753200
894.000000	67.712400
893.000000	67.577800
892.000000	67.594400
891.000000	67.530600
890.000000	67.368500
889.000000	67.362700
888.000000	67.292800
887.000000	67.113000
886.000000	66.972900
885.000000	66.777000
884.000000	66.642900
883.000000	66.402600
882.000000	66.229700
881.000000	65.968900
880.000000	65.806200
879.000000	65.541500
878.000000	65.337000
877.000000	64.920300
876.000000	64.553500
875.000000	64.204900
874.000000	63.769300
873.000000	63.355000
872.000000	63.206200
871.000000	63.348600
870.000000	63.510700
869.000000	63.728500
868.000000	63.914300
867.000000	64.117200
866.000000	64.311900
865.000000	64.518500
864.000000	64.717000
863.000000	64.925300
862.000000	65.130000
861.000000	65.345000
860.000000	65.538800
859.000000	65.754200
858.000000	67.765000
857.000000	66.027120
856.000000	66.741674
855.000000	66.901998
854.000000	67.168335
853.000000	67.025946
852.000000	67.299609
851.000000	67.239740
850.000000	67.949579
849.000000	68.004732
848.000000	68.053402
847.000000	68.562667
846.000000	68.841382
845.000000	68.741179
844.000000	69.130791
843.000000	69.655044
842.000000	69.791707
841.000000	69.974008
840.000000	70.308213
839.000000	70.810489
838.000000	70.999275
837.000000	71.469637
836.000000	71.525044
835.000000	71.799801
834.000000	72.282542
833.000000	72.502735
832.000000	72.991538
831.000000	73.043829
830.000000	73.736490
829.000000	73.763772
828.000000	73.912897
827.000000	74.322044
826.000000	74.810510
825.000000	75.041313
824.000000	75.377876
823.000000	75.760162
822.000000	76.009994
821.000000	76.362135
820.000000	76.658954
819.000000	76.782228
818.000000	76.997453
817.000000	77.372834
816.000000	77.773055
815.000000	77.928580
814.000000	78.145826
813.000000	78.449717
812.000000	78.683299
811.000000	78.974981
810.000000	79.158293
809.000000	79.375876
808.000000	79.639097
807.000000	79.944926
806.000000	80.147773
805.000000	80.497556
804.000000	80.704445
803.000000	81.004968
802.000000	81.036545
801.000000	81.308860
800.000000	81.456385
799.000000	81.603826
798.000000	81.839429
797.000000	81.932053
796.000000	82.239397
795.000000	82.480220
794.000000	82.492093
793.000000	82.603831
792.000000	82.781670
791.000000	82.869074
790.000000	83.052722
789.000000	83.094487
788.000000	83.205468
787.000000	83.221635
786.000000	83.254811
785.000000	83.429450
784.000000	83.600300
783.000000	83.605100
782.000000	83.639371
781.000000	83.725680
780.000000	83.814094
779.000000	83.850806
778.000000	83.827229
777.000000	83.926422
776.000000	83.937621
775.000000	83.977954
774.000000	83.982586
773.000000	83.847354
772.000000	83.867900
771.000000	83.892824
770.000000	83.856617
769.000000	83.874720
768.000000	83.807105
767.000000	83.675326
766.000000	83.635076
765.000000	83.569650
764.000000	83.500097
763.000000	83.602994
762.000000	83.533695
761.000000	83.333710
760.000000	83.285546
759.000000	83.147536
758.000000	83.135074
757.000000	83.120338
756.000000	82.911175
755.000000	82.732411
754.000000	82.626398
753.000000	82.621851
752.000000	82.559035
751.000000	82.387933
750.000000	82.199232
749.000000	82.029982
748.000000	81.879425
747.000000	81.702176
746.000000	81.596837
745.000000	81.477183
744.000000	81.305997
743.000000	81.171860
742.000000	80.973981
741.000000	80.805405
740.000000	80.636660
739.000000	80.452170
738.000000	80.322243
737.000000	80.117796
736.000000	79.867626
735.000000	79.706460
734.000000	79.559356
733.000000	79.346657
732.000000	79.094214
731.000000	78.865853
730.000000	78.714454
729.000000	78.476242
728.000000	78.130080
727.000000	77.916117
726.000000	77.670326
725.000000	77.381591
724.000000	77.068184
723.000000	76.752841
722.000000	76.484652
721.000000	76.222525
720.000000	75.914676
719.000000	75.632256
718.000000	75.316744
717.000000	74.968814
716.000000	74.690604
715.000000	74.387470
714.000000	74.031203
713.000000	73.748868
712.000000	73.442029
711.000000	73.116581
710.000000	72.775471
709.000000	72.399669
708.000000	72.055865
707.000000	71.740774
706.000000	71.433430
705.000000	71.192859
704.000000	70.861854
703.000000	70.536743
702.000000	70.240177
701.000000	69.889552
700.000000	69.608227
699.000000	69.392749
698.000000	69.146200
697.000000	68.820415
696.000000	68.510797
695.000000	68.213726
694.000000	67.950505
693.000000	67.673979
692.000000	67.367982
691.000000	67.070069
690.000000	66.752621
689.000000	66.513566
688.000000	66.233756
687.000000	65.877742
686.000000	65.603069
685.000000	65.249834
684.000000	64.926239
683.000000	64.607106
682.000000	64.275679
681.000000	63.897267
680.000000	63.582513
679.000000	63.248561
678.000000	62.954100
677.000000	62.566930
676.000000	62.241651
675.000000	61.886226
674.000000	61.525834
673.000000	61.206364
672.000000	60.868959
671.000000	60.559594
670.000000	60.218653
669.000000	59.919645
668.000000	59.618279
667.000000	59.309251
666.000000	59.029526
665.000000	58.769420
664.000000	58.528681
663.000000	58.282974
662.000000	58.054108
661.000000	57.832652
660.000000	57.624584
659.000000	57.428305
658.000000	57.268317
657.000000	57.113803
656.000000	56.962741
655.000000	56.777661
654.000000	56.654724
653.000000	56.532712
652.000000	56.344685
651.000000	56.169962
650.000000	55.986145
649.000000	55.791213
648.000000	55.601333
647.000000	55.400423
646.000000	55.135181
645.000000	54.925092
644.000000	54.673996
643.000000	54.508199
642.000000	54.340801
641.000000	54.093073
640.000000	53.837009
639.000000	53.615132
638.000000	53.376246
637.000000	53.152095
636.000000	52.989413
635.000000	52.791871
634.000000	52.542796
633.000000	52.378009
632.000000	52.214064
631.000000	52.092726
630.000000	51.951180
629.000000	51.888363
628.000000	51.856787
627.000000	51.843230
626.000000	51.895100
625.000000	51.956232
624.000000	52.104852
623.000000	52.310814
622.000000	52.535133
621.000000	52.810648
620.000000	53.131802
619.000000	53.509625
618.000000	53.850566
617.000000	54.227547
616.000000	54.643683
615.000000	55.077164
614.000000	55.544748
613.000000	55.990692
612.000000	56.378703
611.000000	56.816479
610.000000	57.263939
609.000000	57.692368
608.000000	58.083327
607.000000	58.566404
606.000000	58.981529
605.000000	59.388402
604.000000	59.826599
603.000000	60.226231
602.000000	60.609359
601.000000	61.031978
600.000000	61.414179
599.000000	61.812716
598.000000	62.218326
597.000000	62.542511
596.000000	62.852802
595.000000	63.247466
594.000000	63.463280
593.000000	63.788392
592.000000	64.052792
591.000000	64.324686
590.000000	64.542606
589.000000	64.734170
588.000000	64.994191
587.000000	65.168493
586.000000	65.357278
585.000000	65.573598
584.000000	65.739059
583.000000	65.880268
582.000000	66.062907
581.000000	66.260954
580.000000	66.425068
579.000000	66.518029
578.000000	66.667069
577.000000	66.749758
576.000000	66.807521
575.000000	66.842887
574.000000	66.915134
573.000000	66.933069
572.000000	66.909492
571.000000	66.894167
570.000000	66.869243
569.000000	66.828572
568.000000	66.759104
567.000000	66.650060
566.000000	66.589602
565.000000	66.508008
564.000000	66.359810
563.000000	66.258007
562.000000	66.078990
561.000000	65.961020
560.000000	65.806590
559.000000	65.688620
558.000000	65.496046
557.000000	65.327638
556.000000	65.090520
555.000000	64.891041
554.000000	64.610979
553.000000	64.297993
552.000000	63.988797
551.000000	63.713450
550.000000	63.418905
549.000000	63.013211
548.000000	62.644819
547.000000	62.270112
546.000000	61.827283
545.000000	61.407274
544.000000	60.965709
543.000000	60.487600
542.000000	59.956694
541.000000	59.445408
540.000000	58.918545
539.000000	58.371641
538.000000	57.815558
537.000000	57.237667
536.000000	56.653208
535.000000	56.064455
534.000000	55.413053
533.000000	54.796176
532.000000	54.148059
531.000000	53.471817
530.000000	52.804081
529.000000	52.122787
528.000000	51.460018
527.000000	50.754390
526.000000	50.073265
525.000000	49.397023
524.000000	48.695521
523.000000	47.952674
522.000000	47.258077
521.000000	46.536955
520.000000	45.834947
519.000000	45.160642
518.000000	44.481286
517.000000	43.800245
516.000000	43.144044
515.000000	42.486917
514.000000	41.837031
513.000000	41.189503
512.000000	40.585846
511.000000	39.971242
510.000000	39.386109
509.000000	38.806450
508.000000	38.234284
507.000000	37.701526
506.000000	37.144518
505.000000	36.633653
504.000000	36.150575
503.000000	35.658488
502.000000	35.186694
501.000000	34.722141
500.000000	34.283270
499.000000	33.863682
498.000000	33.459756
497.000000	33.038063
496.000000	32.694512
495.000000	32.336056
494.000000	31.972632
493.000000	31.627143
492.000000	31.261783
491.000000	30.942482
490.000000	30.632948
489.000000	30.312973
488.000000	30.001251
487.000000	29.695506
486.000000	29.388583
485.000000	29.098501
484.000000	28.761012
483.000000	28.423607
482.000000	28.118620
481.000000	27.800667
480.000000	27.476566
479.000000	27.150023
478.000000	26.824491
477.000000	26.494496
476.000000	26.169385
475.000000	25.836695
474.000000	25.515037
473.000000	25.195651
472.000000	24.880055
471.000000	24.549050
470.000000	24.219139
469.000000	23.899249
468.000000	23.588368
467.000000	23.296012
466.000000	23.002140
465.000000	22.731762
464.000000	22.447321
463.000000	22.177195
462.000000	21.940582
461.000000	21.719042
460.000000	21.514932
459.000000	21.322694
458.000000	21.152434
457.000000	21.022423
456.000000	20.896538
455.000000	20.764507
454.000000	20.663125
453.000000	20.595846
452.000000	20.520147
451.000000	20.450426
450.000000	20.397378
449.000000	20.358812
448.000000	20.338098
447.000000	20.336835
446.000000	20.311322
445.000000	20.288755
444.000000	20.282861
443.000000	20.248337
442.000000	20.191415
441.000000	20.154029
440.000000	20.109569
439.000000	20.070835
438.000000	20.033365
437.000000	19.971980
436.000000	19.920531
435.000000	19.863273
434.000000	19.774690
433.000000	19.686866
432.000000	19.594326
431.000000	19.481913
430.000000	19.368743
429.000000	19.256247
428.000000	19.128931
427.000000	18.989152
426.000000	18.827144
425.000000	18.652421
424.000000	18.478287
423.000000	18.269125
422.000000	18.059036
421.000000	17.874798
420.000000	17.664373
419.000000	17.442496
418.000000	17.198810
417.000000	16.959586
416.000000	16.745456
415.000000	16.488971
414.000000	16.228949
413.000000	15.968254
412.000000	15.677667
411.000000	15.384469
410.000000	15.092197
409.000000	14.790158
408.000000	14.491655
407.000000	14.183721
406.000000	13.862568
405.000000	13.546382
404.000000	13.239291
403.000000	12.930263
402.000000	12.580059
401.000000	12.241643
400.000000	11.926047
399.000000	11.600936
398.000000	11.285424
397.000000	10.970754
396.000000	10.653979
395.000000	10.330300
394.000000	10.025818
393.000000	9.722263
392.000000	9.433697
391.000000	9.151024
390.000000	8.856984
389.000000	8.583827
388.000000	8.328437
387.000000	8.075404
386.000000	7.852937
385.000000	7.609841
384.000000	7.390153
383.000000	7.206083
382.000000	6.985974
381.000000	6.809820
380.000000	6.637539
379.000000	6.500707
378.000000	6.390737
377.000000	6.250117
376.000000	6.054258
375.000000	5.764345
374.000000	5.506596
373.000000	5.483861
372.000000	5.448748
371.000000	5.505081
370.000000	5.357387
369.000000	5.343662
368.000000	5.447149
367.000000	5.295918
366.000000	5.223503
365.000000	5.260469
364.000000	5.203042
363.000000	5.084230
362.000000	5.009625
361.000000	4.973502
360.000000	5.026382
359.000000	5.109154
358.000000	5.001963
357.000000	5.024277
356.000000	4.882309
355.000000	4.888119
354.000000	4.910012
353.000000	4.780506
352.000000	4.896876
351.000000	4.842902
350.000000	4.837934
349.000000	4.859406
348.000000	4.834144
347.000000	4.689903
346.000000	4.763076
345.000000	4.919443
344.000000	4.691840
343.000000	4.641823
342.000000	4.811073
341.000000	4.696892
340.000000	4.791285
339.000000	4.812757
338.000000	4.476362
337.000000	4.822693
336.000000	4.710870
335.000000	4.674073
334.000000	4.813262
333.000000	4.754235
332.000000	4.749267
331.000000	4.435776
330.000000	4.898645
329.000000	4.813346
328.000000	4.825135
327.000000	4.893677
326.000000	5.026129
325.000000	5.179885
324.000000	4.805262
323.000000	4.809052
322.000000	4.830945
321.000000	4.863110
320.000000	5.349051
319.000000	5.216093
318.000000	5.209273
317.000000	4.895192
316.000000	4.639802
315.000000	4.634244
314.000000	4.597700
313.000000	4.620098
312.000000	4.629192
311.000000	4.615130
310.000000	4.691840
309.000000	4.649906
308.000000	4.608731
307.000000	4.674662
306.000000	4.663042
305.000000	4.647464
304.000000	4.653190
303.000000	4.655801
302.000000	4.653864
301.000000	4.674325
300.000000	4.704891
299.000000	4.712301
298.000000	4.760466
297.000000	4.683756
296.000000	4.684682
295.000000	4.682156
294.000000	4.710028
293.000000	4.773770
292.000000	4.780338
291.000000	4.773770
290.000000	4.796842
289.000000	4.776465
288.000000	4.774360
287.000000	4.760213
286.000000	4.799789
285.000000	4.801389
284.000000	4.823282
283.000000	4.838439
282.000000	4.851996
281.000000	4.827745
280.000000	4.824040
279.000000	4.887951
278.000000	4.853680
277.000000	4.895613
276.000000	4.906475
275.000000	4.857300
274.000000	4.878267
273.000000	4.925421
272.000000	4.966850
271.000000	4.896708
270.000000	4.953714
269.000000	4.974681
268.000000	4.964913
267.000000	4.974091
266.000000	5.014930
265.000000	5.024698
264.000000	5.056022
263.000000	5.064610
262.000000	5.099471
261.000000	5.099723
260.000000	5.141489
259.000000	5.172728
258.000000	5.141994
257.000000	5.193863
256.000000	5.173318
255.000000	5.195211
254.000000	5.177359
253.000000	5.202284
252.000000	5.246407
251.000000	5.281520
250.000000	5.255837
