PE UV       SUBTECH     SPECTRUM    ASCII       PEDS        4.00        
   -1
CICIMAUCR0002-2.Sample.ASC
24/05/03
14:12:31.00
24/05/03
14:12:31.00
Vinicio Soto Monge
C. kalinini
250,000000
1
Lambda 1050
1050L1511233
PerkinElmer UV WinLab 6.3.2.0749 / 2.02.05 Lambda 900 UV/VIS/NIR, Aug  7 2015 09:38:08

0
0
3350/servo 860,8/2
0
0
UV/VIS
1
1
1
DoubleDePol,CommonBeamDepol,RBeamAtt,SBeamAtt,60mm sphere, WB InGaAs Detector
0
0
0
0
Program
Program
3350/servo 860,8/2
3350/0,2 860,8/0,2
3350/0,2 860,8/0,2
0
15.00
 
 
 
0
 
860,8
319,2
860,8
Front
100
on
S:100 R:100
0
0
0
0
 
0
 
 
 
0
 
 
0
0
0
0
0
 
 
 
 
0
0


0
0
#HDR
-1
-1
#GR
nm
%R
1.0
0.0
2500,000000
-1,000000
2251
8
99,661500
5,320700
#DATA
2500.000000	8.147200
2499.000000	7.973000
2498.000000	8.147400
2497.000000	8.052500
2496.000000	8.101000
2495.000000	8.019900
2494.000000	8.008000
2493.000000	7.813500
2492.000000	7.975100
2491.000000	7.905000
2490.000000	7.775800
2489.000000	7.870200
2488.000000	7.845300
2487.000000	7.817200
2486.000000	7.846700
2485.000000	7.814200
2484.000000	7.856300
2483.000000	7.755500
2482.000000	7.761300
2481.000000	7.796100
2480.000000	7.763100
2479.000000	7.831700
2478.000000	7.784600
2477.000000	7.812400
2476.000000	7.809900
2475.000000	7.786100
2474.000000	7.790200
2473.000000	7.819500
2472.000000	7.820500
2471.000000	7.791000
2470.000000	7.803600
2469.000000	7.874900
2468.000000	7.873400
2467.000000	7.864400
2466.000000	7.909600
2465.000000	7.879800
2464.000000	7.912900
2463.000000	7.968800
2462.000000	7.997100
2461.000000	8.058100
2460.000000	8.119100
2459.000000	8.133900
2458.000000	8.178800
2457.000000	8.227900
2456.000000	8.300300
2455.000000	8.356300
2454.000000	8.417300
2453.000000	8.526600
2452.000000	8.550800
2451.000000	8.631800
2450.000000	8.711500
2449.000000	8.769900
2448.000000	8.823400
2447.000000	8.926900
2446.000000	8.981500
2445.000000	9.074300
2444.000000	9.148500
2443.000000	9.256600
2442.000000	9.298500
2441.000000	9.371800
2440.000000	9.450300
2439.000000	9.511300
2438.000000	9.583500
2437.000000	9.662000
2436.000000	9.719600
2435.000000	9.785700
2434.000000	9.848600
2433.000000	9.906100
2432.000000	9.961900
2431.000000	10.032200
2430.000000	10.084500
2429.000000	10.126400
2428.000000	10.162100
2427.000000	10.213100
2426.000000	10.251400
2425.000000	10.292600
2424.000000	10.323300
2423.000000	10.359500
2422.000000	10.390600
2421.000000	10.421300
2420.000000	10.465400
2419.000000	10.492200
2418.000000	10.499300
2417.000000	10.537500
2416.000000	10.571200
2415.000000	10.591100
2414.000000	10.602900
2413.000000	10.637100
2412.000000	10.649500
2411.000000	10.673300
2410.000000	10.708500
2409.000000	10.739000
2408.000000	10.753300
2407.000000	10.771100
2406.000000	10.785700
2405.000000	10.806300
2404.000000	10.833100
2403.000000	10.863200
2402.000000	10.890900
2401.000000	10.908100
2400.000000	10.934500
2399.000000	10.970500
2398.000000	11.008400
2397.000000	11.067500
2396.000000	11.102800
2395.000000	11.108400
2394.000000	11.129400
2393.000000	11.159200
2392.000000	11.175400
2391.000000	11.195800
2390.000000	11.192400
2389.000000	11.214700
2388.000000	11.246600
2387.000000	11.228900
2386.000000	11.218500
2385.000000	11.226500
2384.000000	11.226100
2383.000000	11.220300
2382.000000	11.215700
2381.000000	11.201700
2380.000000	11.176900
2379.000000	11.164800
2378.000000	11.141600
2377.000000	11.115300
2376.000000	11.093300
2375.000000	11.070800
2374.000000	11.044500
2373.000000	11.015900
2372.000000	10.972300
2371.000000	10.933300
2370.000000	10.903400
2369.000000	10.848500
2368.000000	10.786600
2367.000000	10.734500
2366.000000	10.682600
2365.000000	10.619900
2364.000000	10.553400
2363.000000	10.497500
2362.000000	10.433700
2361.000000	10.360100
2360.000000	10.290500
2359.000000	10.226100
2358.000000	10.174700
2357.000000	10.135600
2356.000000	10.105800
2355.000000	10.073700
2354.000000	10.039000
2353.000000	10.025100
2352.000000	10.035800
2351.000000	10.041900
2350.000000	10.050400
2349.000000	10.062600
2348.000000	10.103200
2347.000000	10.127000
2346.000000	10.153100
2345.000000	10.195100
2344.000000	10.235500
2343.000000	10.264600
2342.000000	10.294300
2341.000000	10.328900
2340.000000	10.359900
2339.000000	10.375600
2338.000000	10.363900
2337.000000	10.346900
2336.000000	10.336100
2335.000000	10.321700
2334.000000	10.291900
2333.000000	10.271700
2332.000000	10.248000
2331.000000	10.186200
2330.000000	10.122500
2329.000000	10.072400
2328.000000	10.014100
2327.000000	9.944300
2326.000000	9.868300
2325.000000	9.776400
2324.000000	9.689300
2323.000000	9.599700
2322.000000	9.506200
2321.000000	9.413000
2320.000000	9.309600
2319.000000	9.193200
2318.000000	9.079600
2317.000000	8.967500
2316.000000	8.849100
2315.000000	8.752100
2314.000000	8.655900
2313.000000	8.564900
2312.000000	8.480600
2311.000000	8.410900
2310.000000	8.345500
2309.000000	8.310500
2308.000000	8.279600
2307.000000	8.263100
2306.000000	8.272100
2305.000000	8.274000
2304.000000	8.307200
2303.000000	8.353100
2302.000000	8.423700
2301.000000	8.476700
2300.000000	8.549500
2299.000000	8.642800
2298.000000	8.724800
2297.000000	8.803900
2296.000000	8.892800
2295.000000	8.940000
2294.000000	9.004600
2293.000000	9.077700
2292.000000	9.132100
2291.000000	9.165300
2290.000000	9.182600
2289.000000	9.204000
2288.000000	9.194800
2287.000000	9.200900
2286.000000	9.186400
2285.000000	9.169200
2284.000000	9.145700
2283.000000	9.102700
2282.000000	9.075900
2281.000000	9.042700
2280.000000	9.011000
2279.000000	8.965800
2278.000000	8.917400
2277.000000	8.891500
2276.000000	8.879600
2275.000000	8.866200
2274.000000	8.855900
2273.000000	8.856900
2272.000000	8.861900
2271.000000	8.895700
2270.000000	8.923900
2269.000000	8.981300
2268.000000	9.055200
2267.000000	9.131800
2266.000000	9.251000
2265.000000	9.364300
2264.000000	9.509900
2263.000000	9.694300
2262.000000	9.876200
2261.000000	10.071400
2260.000000	10.287400
2259.000000	10.504400
2258.000000	10.752300
2257.000000	10.996000
2256.000000	11.229100
2255.000000	11.510000
2254.000000	11.734900
2253.000000	11.988700
2252.000000	12.220200
2251.000000	12.445500
2250.000000	12.647100
2249.000000	12.858400
2248.000000	13.050300
2247.000000	13.236100
2246.000000	13.417600
2245.000000	13.561900
2244.000000	13.706500
2243.000000	13.836500
2242.000000	13.962700
2241.000000	14.073200
2240.000000	14.190400
2239.000000	14.280200
2238.000000	14.371800
2237.000000	14.431000
2236.000000	14.506000
2235.000000	14.571800
2234.000000	14.611300
2233.000000	14.659000
2232.000000	14.707200
2231.000000	14.738100
2230.000000	14.775900
2229.000000	14.774600
2228.000000	14.782600
2227.000000	14.762700
2226.000000	14.759900
2225.000000	14.741900
2224.000000	14.743700
2223.000000	14.698200
2222.000000	14.670500
2221.000000	14.649300
2220.000000	14.601200
2219.000000	14.581000
2218.000000	14.550500
2217.000000	14.508000
2216.000000	14.463700
2215.000000	14.430800
2214.000000	14.396900
2213.000000	14.352800
2212.000000	14.303600
2211.000000	14.260400
2210.000000	14.234200
2209.000000	14.219200
2208.000000	14.175800
2207.000000	14.146600
2206.000000	14.136900
2205.000000	14.108900
2204.000000	14.086800
2203.000000	14.051200
2202.000000	14.052000
2201.000000	14.033200
2200.000000	14.005700
2199.000000	13.994800
2198.000000	13.968200
2197.000000	13.972600
2196.000000	13.944900
2195.000000	13.934600
2194.000000	13.927300
2193.000000	13.910600
2192.000000	13.891100
2191.000000	13.881900
2190.000000	13.865200
2189.000000	13.848500
2188.000000	13.830600
2187.000000	13.821700
2186.000000	13.810200
2185.000000	13.811100
2184.000000	13.774100
2183.000000	13.756700
2182.000000	13.748600
2181.000000	13.721300
2180.000000	13.729100
2179.000000	13.716400
2178.000000	13.699900
2177.000000	13.691800
2176.000000	13.689800
2175.000000	13.700000
2174.000000	13.703300
2173.000000	13.717100
2172.000000	13.738500
2171.000000	13.742000
2170.000000	13.738300
2169.000000	13.770600
2168.000000	13.805700
2167.000000	13.818500
2166.000000	13.849900
2165.000000	13.879100
2164.000000	13.896000
2163.000000	13.918900
2162.000000	13.952100
2161.000000	13.995300
2160.000000	14.035900
2159.000000	14.077300
2158.000000	14.117800
2157.000000	14.165500
2156.000000	14.218600
2155.000000	14.258400
2154.000000	14.320000
2153.000000	14.376000
2152.000000	14.443900
2151.000000	14.494300
2150.000000	14.537700
2149.000000	14.590700
2148.000000	14.656000
2147.000000	14.722400
2146.000000	14.787100
2145.000000	14.839200
2144.000000	14.880700
2143.000000	14.935400
2142.000000	14.970000
2141.000000	15.019000
2140.000000	15.056800
2139.000000	15.087100
2138.000000	15.141700
2137.000000	15.193300
2136.000000	15.227400
2135.000000	15.262600
2134.000000	15.284700
2133.000000	15.302800
2132.000000	15.325600
2131.000000	15.348400
2130.000000	15.366700
2129.000000	15.377300
2128.000000	15.395000
2127.000000	15.404900
2126.000000	15.402300
2125.000000	15.412800
2124.000000	15.412600
2123.000000	15.410200
2122.000000	15.398000
2121.000000	15.377100
2120.000000	15.370700
2119.000000	15.363000
2118.000000	15.340300
2117.000000	15.316200
2116.000000	15.295600
2115.000000	15.274200
2114.000000	15.239000
2113.000000	15.207400
2112.000000	15.188100
2111.000000	15.159900
2110.000000	15.121200
2109.000000	15.085400
2108.000000	15.055800
2107.000000	15.031500
2106.000000	15.009800
2105.000000	14.978800
2104.000000	14.949800
2103.000000	14.919400
2102.000000	14.898900
2101.000000	14.864600
2100.000000	14.819100
2099.000000	14.795400
2098.000000	14.771200
2097.000000	14.763200
2096.000000	14.752200
2095.000000	14.721600
2094.000000	14.701700
2093.000000	14.700200
2092.000000	14.675900
2091.000000	14.654100
2090.000000	14.656700
2089.000000	14.637200
2088.000000	14.617600
2087.000000	14.610400
2086.000000	14.595500
2085.000000	14.574100
2084.000000	14.544100
2083.000000	14.521700
2082.000000	14.510400
2081.000000	14.476000
2080.000000	14.438400
2079.000000	14.407000
2078.000000	14.380100
2077.000000	14.330600
2076.000000	14.283900
2075.000000	14.255200
2074.000000	14.213000
2073.000000	14.165800
2072.000000	14.117900
2071.000000	14.067300
2070.000000	14.017800
2069.000000	13.963600
2068.000000	13.896300
2067.000000	13.848900
2066.000000	13.799700
2065.000000	13.758100
2064.000000	13.710800
2063.000000	13.671500
2062.000000	13.622700
2061.000000	13.590500
2060.000000	13.563000
2059.000000	13.530300
2058.000000	13.519100
2057.000000	13.536700
2056.000000	13.546200
2055.000000	13.567900
2054.000000	13.606700
2053.000000	13.659900
2052.000000	13.707900
2051.000000	13.791700
2050.000000	13.886900
2049.000000	14.004100
2048.000000	14.128200
2047.000000	14.249400
2046.000000	14.391600
2045.000000	14.533300
2044.000000	14.699000
2043.000000	14.853300
2042.000000	15.010200
2041.000000	15.167700
2040.000000	15.326300
2039.000000	15.483900
2038.000000	15.639800
2037.000000	15.790600
2036.000000	15.930900
2035.000000	16.069500
2034.000000	16.213100
2033.000000	16.337000
2032.000000	16.467100
2031.000000	16.589300
2030.000000	16.686700
2029.000000	16.784300
2028.000000	16.888200
2027.000000	17.003600
2026.000000	17.091300
2025.000000	17.187100
2024.000000	17.281100
2023.000000	17.371100
2022.000000	17.453900
2021.000000	17.550700
2020.000000	17.617100
2019.000000	17.673000
2018.000000	17.765100
2017.000000	17.826400
2016.000000	17.878800
2015.000000	17.942800
2014.000000	17.971800
2013.000000	18.014700
2012.000000	18.079700
2011.000000	18.104000
2010.000000	18.148700
2009.000000	18.190700
2008.000000	18.202700
2007.000000	18.210100
2006.000000	18.222600
2005.000000	18.224100
2004.000000	18.231900
2003.000000	18.226200
2002.000000	18.206900
2001.000000	18.197600
2000.000000	18.168500
1999.000000	18.162600
1998.000000	18.115300
1997.000000	18.105600
1996.000000	18.054300
1995.000000	18.019400
1994.000000	17.970100
1993.000000	17.937000
1992.000000	17.866200
1991.000000	17.820500
1990.000000	17.750700
1989.000000	17.686600
1988.000000	17.623300
1987.000000	17.537400
1986.000000	17.472600
1985.000000	17.402100
1984.000000	17.311500
1983.000000	17.240800
1982.000000	17.184000
1981.000000	17.104500
1980.000000	17.018500
1979.000000	16.941300
1978.000000	16.850600
1977.000000	16.787900
1976.000000	16.700800
1975.000000	16.650200
1974.000000	16.573400
1973.000000	16.488000
1972.000000	16.414800
1971.000000	16.368900
1970.000000	16.248700
1969.000000	16.197400
1968.000000	16.123000
1967.000000	16.056500
1966.000000	15.999600
1965.000000	15.931300
1964.000000	15.868200
1963.000000	15.783200
1962.000000	15.712400
1961.000000	15.653100
1960.000000	15.571900
1959.000000	15.499500
1958.000000	15.436000
1957.000000	15.374400
1956.000000	15.304000
1955.000000	15.236100
1954.000000	15.147000
1953.000000	15.093200
1952.000000	15.015800
1951.000000	14.954600
1950.000000	14.901500
1949.000000	14.824300
1948.000000	14.782300
1947.000000	14.715600
1946.000000	14.707300
1945.000000	14.665600
1944.000000	14.639100
1943.000000	14.609600
1942.000000	14.590400
1941.000000	14.600000
1940.000000	14.565500
1939.000000	14.565300
1938.000000	14.593000
1937.000000	14.601000
1936.000000	14.620900
1935.000000	14.645000
1934.000000	14.703300
1933.000000	14.749500
1932.000000	14.832500
1931.000000	14.903500
1930.000000	14.995300
1929.000000	15.073300
1928.000000	15.179600
1927.000000	15.263500
1926.000000	15.375700
1925.000000	15.510100
1924.000000	15.640800
1923.000000	15.775700
1922.000000	15.958900
1921.000000	16.139200
1920.000000	16.308500
1919.000000	16.466300
1918.000000	16.653800
1917.000000	16.850000
1916.000000	17.041900
1915.000000	17.253300
1914.000000	17.471600
1913.000000	17.743800
1912.000000	17.977300
1911.000000	18.219200
1910.000000	18.461800
1909.000000	18.709900
1908.000000	18.962300
1907.000000	19.245100
1906.000000	19.560600
1905.000000	19.851700
1904.000000	20.183700
1903.000000	20.481900
1902.000000	20.776000
1901.000000	21.076500
1900.000000	21.432600
1899.000000	21.741700
1898.000000	22.040400
1897.000000	22.347500
1896.000000	22.630300
1895.000000	22.912300
1894.000000	23.209800
1893.000000	23.546200
1892.000000	23.881600
1891.000000	24.206500
1890.000000	24.515900
1889.000000	24.826900
1888.000000	25.149500
1887.000000	25.488800
1886.000000	25.845900
1885.000000	26.222900
1884.000000	26.644200
1883.000000	27.088200
1882.000000	27.505200
1881.000000	27.949000
1880.000000	28.358100
1879.000000	28.746900
1878.000000	29.133900
1877.000000	29.484100
1876.000000	29.811900
1875.000000	30.128500
1874.000000	30.414100
1873.000000	30.674100
1872.000000	30.915700
1871.000000	31.099100
1870.000000	31.246200
1869.000000	31.389700
1868.000000	31.470800
1867.000000	31.527900
1866.000000	31.569200
1865.000000	31.613500
1864.000000	31.650100
1863.000000	31.692200
1862.000000	31.746000
1861.000000	31.777500
1860.000000	31.785600
1859.000000	31.781100
1858.000000	31.774200
1857.000000	31.743600
1856.000000	31.701200
1855.000000	31.663200
1854.000000	31.599300
1853.000000	31.517100
1852.000000	31.462000
1851.000000	31.418300
1850.000000	31.367300
1849.000000	31.324100
1848.000000	31.252300
1847.000000	31.152400
1846.000000	31.064900
1845.000000	30.998800
1844.000000	30.944800
1843.000000	30.935300
1842.000000	30.920800
1841.000000	30.874600
1840.000000	30.836000
1839.000000	30.786500
1838.000000	30.715900
1837.000000	30.638600
1836.000000	30.570900
1835.000000	30.489100
1834.000000	30.389100
1833.000000	30.309700
1832.000000	30.231900
1831.000000	30.165800
1830.000000	30.099400
1829.000000	30.017700
1828.000000	29.927300
1827.000000	29.863200
1826.000000	29.811900
1825.000000	29.741300
1824.000000	29.718400
1823.000000	29.736600
1822.000000	29.736500
1821.000000	29.716000
1820.000000	29.686000
1819.000000	29.652200
1818.000000	29.632800
1817.000000	29.645100
1816.000000	29.642400
1815.000000	29.618900
1814.000000	29.608700
1813.000000	29.594200
1812.000000	29.590500
1811.000000	29.573200
1810.000000	29.513400
1809.000000	29.467600
1808.000000	29.441100
1807.000000	29.389000
1806.000000	29.331500
1805.000000	29.284400
1804.000000	29.242900
1803.000000	29.213800
1802.000000	29.166100
1801.000000	29.116600
1800.000000	29.054200
1799.000000	28.994000
1798.000000	28.953200
1797.000000	28.920300
1796.000000	28.875800
1795.000000	28.816400
1794.000000	28.760500
1793.000000	28.707000
1792.000000	28.657400
1791.000000	28.613900
1790.000000	28.544100
1789.000000	28.482600
1788.000000	28.422800
1787.000000	28.354900
1786.000000	28.288800
1785.000000	28.223700
1784.000000	28.134200
1783.000000	28.055700
1782.000000	27.954600
1781.000000	27.887100
1780.000000	27.799900
1779.000000	27.701900
1778.000000	27.576900
1777.000000	27.466600
1776.000000	27.338300
1775.000000	27.205800
1774.000000	27.067000
1773.000000	26.925500
1772.000000	26.771200
1771.000000	26.631900
1770.000000	26.476300
1769.000000	26.327900
1768.000000	26.201300
1767.000000	26.095100
1766.000000	25.998500
1765.000000	25.934800
1764.000000	25.904300
1763.000000	25.893100
1762.000000	25.919900
1761.000000	25.957900
1760.000000	26.021600
1759.000000	26.075300
1758.000000	26.140400
1757.000000	26.211700
1756.000000	26.269700
1755.000000	26.267600
1754.000000	26.301900
1753.000000	26.278800
1752.000000	26.247300
1751.000000	26.204600
1750.000000	26.146700
1749.000000	26.065600
1748.000000	25.978000
1747.000000	25.844200
1746.000000	25.692800
1745.000000	25.520000
1744.000000	25.319700
1743.000000	25.102600
1742.000000	24.853200
1741.000000	24.597700
1740.000000	24.343800
1739.000000	24.085700
1738.000000	23.861900
1737.000000	23.659800
1736.000000	23.531500
1735.000000	23.451300
1734.000000	23.397900
1733.000000	23.391800
1732.000000	23.431800
1731.000000	23.502900
1730.000000	23.606900
1729.000000	23.712600
1728.000000	23.796800
1727.000000	23.876800
1726.000000	23.971500
1725.000000	24.037300
1724.000000	24.065800
1723.000000	24.109800
1722.000000	24.141600
1721.000000	24.193200
1720.000000	24.269000
1719.000000	24.361100
1718.000000	24.452300
1717.000000	24.557100
1716.000000	24.674900
1715.000000	24.774300
1714.000000	24.872700
1713.000000	24.990900
1712.000000	25.066700
1711.000000	25.135300
1710.000000	25.169900
1709.000000	25.194400
1708.000000	25.209100
1707.000000	25.207200
1706.000000	25.207600
1705.000000	25.152300
1704.000000	25.105800
1703.000000	25.040300
1702.000000	24.943200
1701.000000	24.824500
1700.000000	24.650500
1699.000000	24.514000
1698.000000	24.382600
1697.000000	24.303600
1696.000000	24.239200
1695.000000	24.255400
1694.000000	24.299100
1693.000000	24.420300
1692.000000	24.544300
1691.000000	24.695900
1690.000000	24.840700
1689.000000	24.894300
1688.000000	24.922800
1687.000000	24.959300
1686.000000	25.008200
1685.000000	25.088300
1684.000000	25.245300
1683.000000	25.558900
1682.000000	25.965000
1681.000000	26.481800
1680.000000	27.047800
1679.000000	27.617000
1678.000000	28.180600
1677.000000	28.645100
1676.000000	29.100100
1675.000000	29.476200
1674.000000	29.835900
1673.000000	30.126000
1672.000000	30.408600
1671.000000	30.645800
1670.000000	30.874200
1669.000000	31.051400
1668.000000	31.232200
1667.000000	31.383500
1666.000000	31.502100
1665.000000	31.623000
1664.000000	31.746700
1663.000000	31.833400
1662.000000	31.931300
1661.000000	32.025800
1660.000000	32.086800
1659.000000	32.145800
1658.000000	32.199400
1657.000000	32.211000
1656.000000	32.234100
1655.000000	32.267800
1654.000000	32.271800
1653.000000	32.258300
1652.000000	32.258500
1651.000000	32.244300
1650.000000	32.211900
1649.000000	32.188300
1648.000000	32.146500
1647.000000	32.101100
1646.000000	32.050400
1645.000000	32.013100
1644.000000	31.947400
1643.000000	31.918000
1642.000000	31.859900
1641.000000	31.801100
1640.000000	31.754400
1639.000000	31.685700
1638.000000	31.621900
1637.000000	31.554400
1636.000000	31.490400
1635.000000	31.427800
1634.000000	31.353300
1633.000000	31.281500
1632.000000	31.201500
1631.000000	31.108900
1630.000000	31.026500
1629.000000	30.941500
1628.000000	30.873500
1627.000000	30.795800
1626.000000	30.706000
1625.000000	30.613500
1624.000000	30.536100
1623.000000	30.450200
1622.000000	30.370300
1621.000000	30.307700
1620.000000	30.216700
1619.000000	30.143500
1618.000000	30.060200
1617.000000	29.960900
1616.000000	29.903000
1615.000000	29.841200
1614.000000	29.758900
1613.000000	29.684900
1612.000000	29.617600
1611.000000	29.538600
1610.000000	29.464300
1609.000000	29.398300
1608.000000	29.322500
1607.000000	29.260400
1606.000000	29.179300
1605.000000	29.110400
1604.000000	29.036900
1603.000000	28.965100
1602.000000	28.898900
1601.000000	28.828400
1600.000000	28.754400
1599.000000	28.691900
1598.000000	28.631500
1597.000000	28.572000
1596.000000	28.510000
1595.000000	28.454500
1594.000000	28.407300
1593.000000	28.361200
1592.000000	28.312700
1591.000000	28.272600
1590.000000	28.236900
1589.000000	28.201400
1588.000000	28.161400
1587.000000	28.130600
1586.000000	28.113900
1585.000000	28.096600
1584.000000	28.057800
1583.000000	28.040500
1582.000000	28.030200
1581.000000	28.010700
1580.000000	28.001800
1579.000000	28.002300
1578.000000	28.000900
1577.000000	28.003700
1576.000000	28.030200
1575.000000	28.043200
1574.000000	28.053000
1573.000000	28.086200
1572.000000	28.118000
1571.000000	28.144600
1570.000000	28.184600
1569.000000	28.224100
1568.000000	28.261700
1567.000000	28.300100
1566.000000	28.337000
1565.000000	28.371800
1564.000000	28.393800
1563.000000	28.427400
1562.000000	28.461000
1561.000000	28.493200
1560.000000	28.518000
1559.000000	28.531100
1558.000000	28.537200
1557.000000	28.552600
1556.000000	28.570700
1555.000000	28.559900
1554.000000	28.542600
1553.000000	28.533800
1552.000000	28.526900
1551.000000	28.502400
1550.000000	28.475000
1549.000000	28.454500
1548.000000	28.433100
1547.000000	28.400000
1546.000000	28.377000
1545.000000	28.366100
1544.000000	28.355800
1543.000000	28.335900
1542.000000	28.332000
1541.000000	28.328500
1540.000000	28.309700
1539.000000	28.319500
1538.000000	28.326300
1537.000000	28.311200
1536.000000	28.300600
1535.000000	28.297500
1534.000000	28.279100
1533.000000	28.255800
1532.000000	28.234100
1531.000000	28.217400
1530.000000	28.199600
1529.000000	28.169400
1528.000000	28.158900
1527.000000	28.126700
1526.000000	28.106800
1525.000000	28.079300
1524.000000	28.036000
1523.000000	28.007000
1522.000000	27.974300
1521.000000	27.933200
1520.000000	27.901900
1519.000000	27.874500
1518.000000	27.833400
1517.000000	27.800700
1516.000000	27.772200
1515.000000	27.744200
1514.000000	27.698700
1513.000000	27.653200
1512.000000	27.622300
1511.000000	27.580100
1510.000000	27.531800
1509.000000	27.493600
1508.000000	27.461300
1507.000000	27.410100
1506.000000	27.360300
1505.000000	27.334900
1504.000000	27.300500
1503.000000	27.266500
1502.000000	27.241900
1501.000000	27.218700
1500.000000	27.217100
1499.000000	27.196100
1498.000000	27.177600
1497.000000	27.166600
1496.000000	27.158300
1495.000000	27.167100
1494.000000	27.168300
1493.000000	27.183300
1492.000000	27.196100
1491.000000	27.223900
1490.000000	27.227400
1489.000000	27.245300
1488.000000	27.263300
1487.000000	27.269000
1486.000000	27.291800
1485.000000	27.311800
1484.000000	27.332600
1483.000000	27.378400
1482.000000	27.402200
1481.000000	27.453700
1480.000000	27.495400
1479.000000	27.549500
1478.000000	27.585900
1477.000000	27.640100
1476.000000	27.687500
1475.000000	27.744100
1474.000000	27.837000
1473.000000	27.909600
1472.000000	27.969800
1471.000000	28.015800
1470.000000	28.095700
1469.000000	28.135200
1468.000000	28.198400
1467.000000	28.286500
1466.000000	28.351600
1465.000000	28.402500
1464.000000	28.486300
1463.000000	28.563400
1462.000000	28.653700
1461.000000	28.728900
1460.000000	28.818400
1459.000000	28.911700
1458.000000	29.035900
1457.000000	29.144500
1456.000000	29.240700
1455.000000	29.347000
1454.000000	29.463900
1453.000000	29.590800
1452.000000	29.716200
1451.000000	29.852600
1450.000000	29.950600
1449.000000	30.054300
1448.000000	30.210700
1447.000000	30.340500
1446.000000	30.482000
1445.000000	30.611700
1444.000000	30.731000
1443.000000	30.879400
1442.000000	31.003100
1441.000000	31.141800
1440.000000	31.299000
1439.000000	31.436000
1438.000000	31.572300
1437.000000	31.700500
1436.000000	31.827300
1435.000000	31.965500
1434.000000	32.122700
1433.000000	32.267400
1432.000000	32.389800
1431.000000	32.562600
1430.000000	32.727600
1429.000000	32.926700
1428.000000	33.125700
1427.000000	33.320300
1426.000000	33.577200
1425.000000	33.796500
1424.000000	34.047300
1423.000000	34.273700
1422.000000	34.509300
1421.000000	34.759800
1420.000000	35.041200
1419.000000	35.245900
1418.000000	35.464200
1417.000000	35.705700
1416.000000	35.964200
1415.000000	36.243400
1414.000000	36.493100
1413.000000	36.707800
1412.000000	36.922100
1411.000000	37.234500
1410.000000	37.574000
1409.000000	37.917300
1408.000000	38.297900
1407.000000	38.656600
1406.000000	39.046600
1405.000000	39.434000
1404.000000	39.850300
1403.000000	40.209900
1402.000000	40.582700
1401.000000	41.010400
1400.000000	41.322300
1399.000000	41.524000
1398.000000	41.735600
1397.000000	41.990600
1396.000000	42.229100
1395.000000	42.360700
1394.000000	42.456000
1393.000000	42.584900
1392.000000	42.755700
1391.000000	42.912600
1390.000000	43.079400
1389.000000	43.342500
1388.000000	43.615200
1387.000000	43.886600
1386.000000	44.223500
1385.000000	44.592500
1384.000000	44.967600
1383.000000	45.329200
1382.000000	45.582000
1381.000000	45.756800
1380.000000	45.820500
1379.000000	45.886400
1378.000000	45.930000
1377.000000	46.033600
1376.000000	46.167300
1375.000000	46.374800
1374.000000	46.660400
1373.000000	47.021500
1372.000000	47.378500
1371.000000	47.746600
1370.000000	48.069900
1369.000000	48.396800
1368.000000	48.681900
1367.000000	48.920900
1366.000000	49.131200
1365.000000	49.333200
1364.000000	49.498300
1363.000000	49.670500
1362.000000	49.820900
1361.000000	49.894100
1360.000000	49.906000
1359.000000	49.996400
1358.000000	50.125500
1357.000000	50.367900
1356.000000	50.742700
1355.000000	51.250700
1354.000000	51.831500
1353.000000	52.426900
1352.000000	53.044400
1351.000000	53.652000
1350.000000	54.198400
1349.000000	54.695800
1348.000000	55.179100
1347.000000	55.617900
1346.000000	56.035800
1345.000000	56.443200
1344.000000	56.815000
1343.000000	57.167500
1342.000000	57.513000
1341.000000	57.834700
1340.000000	58.131100
1339.000000	58.418000
1338.000000	58.706300
1337.000000	58.978400
1336.000000	59.219400
1335.000000	59.449400
1334.000000	59.689900
1333.000000	59.900900
1332.000000	60.097100
1331.000000	60.291300
1330.000000	60.478800
1329.000000	60.653000
1328.000000	60.807800
1327.000000	60.964400
1326.000000	61.107700
1325.000000	61.241400
1324.000000	61.362900
1323.000000	61.491300
1322.000000	61.622200
1321.000000	61.742500
1320.000000	61.838900
1319.000000	61.935800
1318.000000	62.029500
1317.000000	62.123100
1316.000000	62.197800
1315.000000	62.287900
1314.000000	62.375900
1313.000000	62.427900
1312.000000	62.492800
1311.000000	62.559100
1310.000000	62.617600
1309.000000	62.674200
1308.000000	62.713200
1307.000000	62.742300
1306.000000	62.772700
1305.000000	62.794300
1304.000000	62.810900
1303.000000	62.811900
1302.000000	62.806800
1301.000000	62.807900
1300.000000	62.801900
1299.000000	62.793900
1298.000000	62.792800
1297.000000	62.771300
1296.000000	62.748800
1295.000000	62.723600
1294.000000	62.696600
1293.000000	62.672500
1292.000000	62.638700
1291.000000	62.582300
1290.000000	62.525400
1289.000000	62.477000
1288.000000	62.409300
1287.000000	62.328800
1286.000000	62.248400
1285.000000	62.163900
1284.000000	62.083500
1283.000000	62.000000
1282.000000	61.907200
1281.000000	61.818800
1280.000000	61.726500
1279.000000	61.637500
1278.000000	61.556900
1277.000000	61.484800
1276.000000	61.422200
1275.000000	61.350400
1274.000000	61.285900
1273.000000	61.230200
1272.000000	61.178100
1271.000000	61.128400
1270.000000	61.063900
1269.000000	61.013000
1268.000000	60.963700
1267.000000	60.912300
1266.000000	60.859300
1265.000000	60.794300
1264.000000	60.738800
1263.000000	60.688700
1262.000000	60.639600
1261.000000	60.577900
1260.000000	60.525700
1259.000000	60.472400
1258.000000	60.417000
1257.000000	60.363400
1256.000000	60.304100
1255.000000	60.240300
1254.000000	60.155400
1253.000000	60.092200
1252.000000	60.012300
1251.000000	59.910000
1250.000000	59.827600
1249.000000	59.727100
1248.000000	59.589600
1247.000000	59.473900
1246.000000	59.344200
1245.000000	59.181900
1244.000000	59.028000
1243.000000	58.873400
1242.000000	58.701300
1241.000000	58.544300
1240.000000	58.375000
1239.000000	58.186600
1238.000000	57.979800
1237.000000	57.796200
1236.000000	57.601900
1235.000000	57.399800
1234.000000	57.207400
1233.000000	57.006000
1232.000000	56.801500
1231.000000	56.604900
1230.000000	56.397900
1229.000000	56.195500
1228.000000	55.982900
1227.000000	55.784100
1226.000000	55.586900
1225.000000	55.370100
1224.000000	55.179500
1223.000000	54.993900
1222.000000	54.802300
1221.000000	54.601300
1220.000000	54.434300
1219.000000	54.270600
1218.000000	54.127900
1217.000000	53.979400
1216.000000	53.841500
1215.000000	53.712400
1214.000000	53.594300
1213.000000	53.492500
1212.000000	53.399500
1211.000000	53.291700
1210.000000	53.192400
1209.000000	53.104100
1208.000000	53.022100
1207.000000	52.949400
1206.000000	52.917000
1205.000000	52.904900
1204.000000	52.882200
1203.000000	52.851000
1202.000000	52.821500
1201.000000	52.797300
1200.000000	52.734400
1199.000000	52.642000
1198.000000	52.482000
1197.000000	52.307300
1196.000000	52.076600
1195.000000	51.778900
1194.000000	51.402000
1193.000000	50.972700
1192.000000	50.474800
1191.000000	49.987200
1190.000000	49.539600
1189.000000	49.194900
1188.000000	48.925000
1187.000000	48.810900
1186.000000	48.841600
1185.000000	48.991700
1184.000000	49.284800
1183.000000	49.692900
1182.000000	50.184000
1181.000000	50.720300
1180.000000	51.241700
1179.000000	51.738900
1178.000000	52.162900
1177.000000	52.531500
1176.000000	52.864500
1175.000000	53.190500
1174.000000	53.520800
1173.000000	53.856400
1172.000000	54.223500
1171.000000	54.580300
1170.000000	54.960400
1169.000000	55.360400
1168.000000	55.772200
1167.000000	56.164200
1166.000000	56.560600
1165.000000	57.006300
1164.000000	57.421100
1163.000000	57.863600
1162.000000	58.259200
1161.000000	58.670300
1160.000000	59.060000
1159.000000	59.461200
1158.000000	59.796500
1157.000000	60.100000
1156.000000	60.357100
1155.000000	60.571300
1154.000000	60.675900
1153.000000	60.730000
1152.000000	60.749900
1151.000000	60.746900
1150.000000	60.716000
1149.000000	60.707000
1148.000000	60.706400
1147.000000	60.780000
1146.000000	60.926800
1145.000000	61.159400
1144.000000	61.465200
1143.000000	61.808500
1142.000000	62.177800
1141.000000	62.557700
1140.000000	62.960000
1139.000000	63.371000
1138.000000	63.802200
1137.000000	64.237300
1136.000000	64.684600
1135.000000	65.097100
1134.000000	65.460900
1133.000000	65.810200
1132.000000	66.139300
1131.000000	66.433900
1130.000000	66.693600
1129.000000	66.925300
1128.000000	67.111300
1127.000000	67.252500
1126.000000	67.392900
1125.000000	67.481300
1124.000000	67.566000
1123.000000	67.646500
1122.000000	67.718700
1121.000000	67.750700
1120.000000	67.790800
1119.000000	67.827800
1118.000000	67.852100
1117.000000	67.845000
1116.000000	67.846900
1115.000000	67.836200
1114.000000	67.840300
1113.000000	67.813800
1112.000000	67.808900
1111.000000	67.810600
1110.000000	67.801400
1109.000000	67.791700
1108.000000	67.767100
1107.000000	67.753000
1106.000000	67.734300
1105.000000	67.711900
1104.000000	67.702300
1103.000000	67.676200
1102.000000	67.652700
1101.000000	67.635800
1100.000000	67.599000
1099.000000	67.566800
1098.000000	67.539000
1097.000000	67.517500
1096.000000	67.466100
1095.000000	67.439100
1094.000000	67.404100
1093.000000	67.369500
1092.000000	67.325200
1091.000000	67.274900
1090.000000	67.216500
1089.000000	67.179200
1088.000000	67.139700
1087.000000	67.082400
1086.000000	67.025800
1085.000000	66.984400
1084.000000	66.935200
1083.000000	66.895000
1082.000000	66.843800
1081.000000	66.795800
1080.000000	66.761500
1079.000000	66.715300
1078.000000	66.678500
1077.000000	66.646800
1076.000000	66.614700
1075.000000	66.588800
1074.000000	66.555800
1073.000000	66.515500
1072.000000	66.474700
1071.000000	66.448200
1070.000000	66.429600
1069.000000	66.407600
1068.000000	66.368100
1067.000000	66.342200
1066.000000	66.314200
1065.000000	66.274800
1064.000000	66.252700
1063.000000	66.231500
1062.000000	66.211500
1061.000000	66.190500
1060.000000	66.165700
1059.000000	66.135500
1058.000000	66.117800
1057.000000	66.081900
1056.000000	66.055100
1055.000000	66.045500
1054.000000	66.036400
1053.000000	66.014400
1052.000000	66.005100
1051.000000	65.994100
1050.000000	66.000100
1049.000000	66.000300
1048.000000	65.993900
1047.000000	65.994700
1046.000000	66.017600
1045.000000	66.035500
1044.000000	66.037900
1043.000000	66.046100
1042.000000	66.069400
1041.000000	66.098700
1040.000000	66.106700
1039.000000	66.112000
1038.000000	66.138000
1037.000000	66.150800
1036.000000	66.151700
1035.000000	66.153700
1034.000000	66.169500
1033.000000	66.170800
1032.000000	66.182900
1031.000000	66.197000
1030.000000	66.197300
1029.000000	66.203400
1028.000000	66.218800
1027.000000	66.228300
1026.000000	66.224400
1025.000000	66.231100
1024.000000	66.251900
1023.000000	66.248600
1022.000000	66.264100
1021.000000	66.289200
1020.000000	66.299100
1019.000000	66.334200
1018.000000	66.356400
1017.000000	66.405000
1016.000000	66.472800
1015.000000	66.532200
1014.000000	66.584200
1013.000000	66.649800
1012.000000	66.743200
1011.000000	66.824500
1010.000000	66.923200
1009.000000	67.016700
1008.000000	67.109800
1007.000000	67.222600
1006.000000	67.329900
1005.000000	67.428000
1004.000000	67.521500
1003.000000	67.632300
1002.000000	67.741200
1001.000000	67.850600
1000.000000	67.951400
999.000000	68.040900
998.000000	68.144000
997.000000	68.248500
996.000000	68.361700
995.000000	68.467700
994.000000	68.564600
993.000000	68.680400
992.000000	68.796700
991.000000	68.906000
990.000000	69.001500
989.000000	69.105100
988.000000	69.224500
987.000000	69.334300
986.000000	69.434900
985.000000	69.544200
984.000000	69.646800
983.000000	69.748600
982.000000	69.842600
981.000000	69.955300
980.000000	70.056800
979.000000	70.145500
978.000000	70.251100
977.000000	70.358200
976.000000	70.445600
975.000000	70.536700
974.000000	70.632900
973.000000	70.720000
972.000000	70.815600
971.000000	70.895400
970.000000	70.988500
969.000000	71.058700
968.000000	71.159900
967.000000	71.244500
966.000000	71.313700
965.000000	71.386700
964.000000	71.457700
963.000000	71.535300
962.000000	71.629000
961.000000	71.727000
960.000000	71.782300
959.000000	71.846600
958.000000	71.932600
957.000000	72.008400
956.000000	72.071500
955.000000	72.143000
954.000000	72.196700
953.000000	72.238700
952.000000	72.300100
951.000000	72.351900
950.000000	72.394800
949.000000	72.453500
948.000000	72.476300
947.000000	72.521600
946.000000	72.560200
945.000000	72.625200
944.000000	72.641500
943.000000	72.672000
942.000000	72.702900
941.000000	72.753100
940.000000	72.773200
939.000000	72.805000
938.000000	72.827000
937.000000	72.878100
936.000000	72.890200
935.000000	72.926200
934.000000	72.960400
933.000000	72.990400
932.000000	73.043800
931.000000	73.050400
930.000000	73.059300
929.000000	73.072100
928.000000	73.139500
927.000000	73.132200
926.000000	73.144000
925.000000	73.149500
924.000000	73.155400
923.000000	73.162200
922.000000	73.206700
921.000000	73.184100
920.000000	73.183100
919.000000	73.188000
918.000000	73.158500
917.000000	73.119000
916.000000	73.109200
915.000000	73.084200
914.000000	73.063300
913.000000	73.034900
912.000000	73.030300
911.000000	73.005100
910.000000	72.990500
909.000000	72.989500
908.000000	72.950100
907.000000	72.948700
906.000000	72.950900
905.000000	72.965700
904.000000	72.960800
903.000000	72.969300
902.000000	72.986900
901.000000	72.975500
900.000000	72.985600
899.000000	73.039200
898.000000	73.038000
897.000000	73.031200
896.000000	73.034900
895.000000	73.002300
894.000000	72.993300
893.000000	72.989100
892.000000	72.948900
891.000000	72.943800
890.000000	72.944000
889.000000	72.938300
888.000000	72.881200
887.000000	72.880100
886.000000	72.810900
885.000000	72.771100
884.000000	72.709700
883.000000	72.675100
882.000000	72.574200
881.000000	72.528800
880.000000	72.414200
879.000000	72.318900
878.000000	72.175000
877.000000	72.065300
876.000000	71.823000
875.000000	71.529600
874.000000	71.229800
873.000000	70.870000
872.000000	70.596600
871.000000	70.557000
870.000000	70.641500
869.000000	70.743500
868.000000	70.849800
867.000000	70.938600
866.000000	71.000900
865.000000	71.090400
864.000000	71.185800
863.000000	71.292400
862.000000	71.364600
861.000000	71.487400
860.000000	71.592500
859.000000	71.682500
858.000000	72.404600
857.000000	71.772920
856.000000	71.255253
855.000000	71.504500
854.000000	71.304554
853.000000	71.743075
852.000000	72.080064
851.000000	72.204546
850.000000	72.115765
849.000000	72.366240
848.000000	72.341967
847.000000	72.614071
846.000000	72.608215
845.000000	72.838761
844.000000	73.098870
843.000000	73.071669
842.000000	73.283799
841.000000	73.354540
840.000000	73.750653
839.000000	73.958721
838.000000	74.029179
837.000000	74.408859
836.000000	74.467700
835.000000	74.670951
834.000000	74.794583
833.000000	75.038258
832.000000	75.300728
831.000000	75.356074
830.000000	75.603621
829.000000	75.887531
828.000000	75.985189
827.000000	76.308861
826.000000	76.628378
825.000000	77.007774
824.000000	77.042625
823.000000	77.187697
822.000000	77.546314
821.000000	77.867531
820.000000	78.051987
819.000000	78.367158
818.000000	78.518841
817.000000	78.801240
816.000000	79.288023
815.000000	79.468796
814.000000	79.754972
813.000000	80.002614
812.000000	80.372848
811.000000	80.622095
810.000000	80.974291
809.000000	81.419800
808.000000	81.578000
807.000000	81.997158
806.000000	82.331314
805.000000	82.623346
804.000000	82.955991
803.000000	83.388089
802.000000	83.819620
801.000000	84.133564
800.000000	84.484248
799.000000	84.636497
798.000000	85.043755
797.000000	85.509571
796.000000	85.775535
795.000000	86.095996
794.000000	86.403896
793.000000	86.706789
792.000000	87.156454
791.000000	87.459253
790.000000	87.720968
789.000000	88.078830
788.000000	88.370578
787.000000	88.633048
786.000000	88.864917
785.000000	89.188211
784.000000	89.557313
783.000000	89.862567
782.000000	89.979871
781.000000	90.191623
780.000000	90.483844
779.000000	90.675006
778.000000	90.910936
777.000000	91.213641
776.000000	91.466477
775.000000	91.639316
774.000000	91.847951
773.000000	92.021735
772.000000	92.244064
771.000000	92.539119
770.000000	92.737836
769.000000	92.884986
768.000000	93.090032
767.000000	93.212152
766.000000	93.327945
765.000000	93.527607
764.000000	93.585787
763.000000	93.705547
762.000000	93.850524
761.000000	93.893403
760.000000	93.955550
759.000000	94.069170
758.000000	94.127916
757.000000	94.111671
756.000000	94.050469
755.000000	93.991817
754.000000	94.016846
753.000000	94.099488
752.000000	94.058781
751.000000	93.988984
750.000000	93.979728
749.000000	93.912765
748.000000	93.885186
747.000000	93.833240
746.000000	93.721319
745.000000	93.705074
744.000000	93.727931
743.000000	93.653506
742.000000	93.504090
741.000000	93.401992
740.000000	93.322656
739.000000	93.205730
738.000000	93.076998
737.000000	92.959883
736.000000	92.855613
735.000000	92.681357
734.000000	92.541574
733.000000	92.394614
732.000000	92.189662
731.000000	92.011062
730.000000	91.810644
729.000000	91.626377
728.000000	91.482155
727.000000	91.255292
726.000000	91.066586
725.000000	90.900075
724.000000	90.659989
723.000000	90.502356
722.000000	90.263403
721.000000	90.012550
720.000000	89.783609
719.000000	89.459843
718.000000	89.225235
717.000000	89.007155
716.000000	88.681405
715.000000	88.331477
714.000000	87.975221
713.000000	87.627748
712.000000	87.277630
711.000000	86.931480
710.000000	86.526866
709.000000	86.154270
708.000000	85.766091
707.000000	85.362988
706.000000	84.985953
705.000000	84.534966
704.000000	84.119869
703.000000	83.673131
702.000000	83.188426
701.000000	82.767662
700.000000	82.349259
699.000000	81.932934
698.000000	81.531721
697.000000	81.079505
696.000000	80.665164
695.000000	80.221826
694.000000	79.764794
693.000000	79.399093
692.000000	78.923549
691.000000	78.503824
690.000000	78.110261
689.000000	77.606194
688.000000	77.138584
687.000000	76.726131
686.000000	76.286383
685.000000	75.785149
684.000000	75.305544
683.000000	74.881852
682.000000	74.380241
681.000000	73.917070
680.000000	73.477511
679.000000	73.130605
678.000000	72.684906
677.000000	72.306927
676.000000	71.865573
675.000000	71.450570
674.000000	71.129165
673.000000	70.744574
672.000000	70.307282
671.000000	69.928264
670.000000	69.524878
669.000000	69.106097
668.000000	68.689488
667.000000	68.231795
666.000000	67.795825
665.000000	67.371755
664.000000	66.912834
663.000000	66.432190
662.000000	65.949280
661.000000	65.443607
660.000000	64.960319
659.000000	64.516698
658.000000	64.047766
657.000000	63.611890
656.000000	63.216438
655.000000	62.783773
654.000000	62.385488
653.000000	62.066066
652.000000	61.674864
651.000000	61.366681
650.000000	61.092216
649.000000	60.888020
648.000000	60.659741
647.000000	60.455923
646.000000	60.314346
645.000000	60.164079
644.000000	60.065760
643.000000	59.923521
642.000000	59.804423
641.000000	59.678430
640.000000	59.596355
639.000000	59.477634
638.000000	59.339741
637.000000	59.286378
636.000000	59.133561
635.000000	59.058003
634.000000	58.926155
633.000000	58.766349
632.000000	58.705997
631.000000	58.516630
630.000000	58.412171
629.000000	58.324334
628.000000	58.210903
627.000000	58.105027
626.000000	58.049869
625.000000	57.992823
624.000000	57.899509
623.000000	57.841424
622.000000	57.855591
621.000000	57.809973
620.000000	57.779560
619.000000	57.794294
618.000000	57.860124
617.000000	57.861069
616.000000	57.863997
615.000000	57.924915
614.000000	57.944371
613.000000	58.080187
612.000000	58.238576
611.000000	58.350213
610.000000	58.526169
609.000000	58.723942
608.000000	58.939849
607.000000	59.219698
606.000000	59.452511
605.000000	59.761355
604.000000	60.036292
603.000000	60.394154
602.000000	60.693931
601.000000	61.040365
600.000000	61.395488
599.000000	61.710376
598.000000	62.070599
597.000000	62.415805
596.000000	62.815696
595.000000	63.097339
594.000000	63.438956
593.000000	63.751106
592.000000	64.040682
591.000000	64.266034
590.000000	64.590178
589.000000	64.833098
588.000000	65.096607
587.000000	65.306469
586.000000	65.558455
585.000000	65.796558
584.000000	65.931240
583.000000	66.211938
582.000000	66.388083
581.000000	66.582268
580.000000	66.706655
579.000000	66.872977
578.000000	67.029288
577.000000	67.163120
576.000000	67.286375
575.000000	67.369961
574.000000	67.484242
573.000000	67.504832
572.000000	67.606741
571.000000	67.621191
570.000000	67.592196
569.000000	67.562728
568.000000	67.572929
567.000000	67.524383
566.000000	67.436263
565.000000	67.345215
564.000000	67.263896
563.000000	67.136203
562.000000	66.978192
561.000000	66.833782
560.000000	66.690505
559.000000	66.509354
558.000000	66.286080
557.000000	66.108707
556.000000	65.882316
555.000000	65.658570
554.000000	65.390055
553.000000	65.102084
552.000000	64.805519
551.000000	64.518587
550.000000	64.185943
549.000000	63.842059
548.000000	63.506486
547.000000	63.096867
546.000000	62.695842
545.000000	62.286129
544.000000	61.827302
543.000000	61.345997
542.000000	60.846558
541.000000	60.315668
540.000000	59.778544
539.000000	59.261255
538.000000	58.684935
537.000000	58.131944
536.000000	57.567148
535.000000	56.970239
534.000000	56.372007
533.000000	55.798710
532.000000	55.211246
531.000000	54.638705
530.000000	54.042362
529.000000	53.453954
528.000000	52.826633
527.000000	52.266747
526.000000	51.640559
525.000000	51.026272
524.000000	50.377606
523.000000	49.698244
522.000000	49.046744
521.000000	48.372105
520.000000	47.681221
519.000000	46.985803
518.000000	46.314186
517.000000	45.624813
516.000000	44.909089
515.000000	44.207437
514.000000	43.476601
513.000000	42.765411
512.000000	42.038920
511.000000	41.324990
510.000000	40.587638
509.000000	39.824501
508.000000	39.068259
507.000000	38.309372
506.000000	37.534902
505.000000	36.764587
504.000000	36.002206
503.000000	35.235858
502.000000	34.510878
501.000000	33.780514
500.000000	33.066585
499.000000	32.384767
498.000000	31.748190
497.000000	31.161387
496.000000	30.623130
495.000000	30.143053
494.000000	29.660048
493.000000	29.211044
492.000000	28.830609
491.000000	28.467363
490.000000	28.175709
489.000000	27.939118
488.000000	27.739078
487.000000	27.552827
486.000000	27.404072
485.000000	27.290829
484.000000	27.184292
483.000000	27.109962
482.000000	27.039504
481.000000	26.987180
480.000000	26.958374
479.000000	26.918517
478.000000	26.888577
477.000000	26.891977
476.000000	26.876393
475.000000	26.892921
474.000000	26.910205
473.000000	26.922767
472.000000	26.940617
471.000000	26.958185
470.000000	26.970180
469.000000	26.969141
468.000000	26.991336
467.000000	26.993225
466.000000	26.974335
465.000000	26.957051
464.000000	26.930511
463.000000	26.884988
462.000000	26.816985
461.000000	26.745583
460.000000	26.654063
459.000000	26.574161
458.000000	26.455723
457.000000	26.316130
456.000000	26.186831
455.000000	26.046387
454.000000	25.871659
453.000000	25.683992
452.000000	25.498024
451.000000	25.298362
450.000000	25.088688
449.000000	24.855969
448.000000	24.593311
447.000000	24.333485
446.000000	24.084994
445.000000	23.798062
444.000000	23.517269
443.000000	23.231754
442.000000	22.890609
441.000000	22.578082
440.000000	22.268482
439.000000	21.930360
438.000000	21.572876
437.000000	21.228142
436.000000	20.876702
435.000000	20.505995
434.000000	20.135572
433.000000	19.764865
432.000000	19.369318
431.000000	18.960643
430.000000	18.570102
429.000000	18.148394
428.000000	17.732447
427.000000	17.328966
426.000000	16.906124
425.000000	16.478654
424.000000	16.060440
423.000000	15.628815
422.000000	15.210506
421.000000	14.826388
420.000000	14.398729
419.000000	13.968142
418.000000	13.562962
417.000000	13.177993
416.000000	12.810025
415.000000	12.461325
414.000000	12.089012
413.000000	11.706216
412.000000	11.366960
411.000000	11.053016
410.000000	10.724811
409.000000	10.415211
408.000000	10.117418
407.000000	9.835870
406.000000	9.568677
405.000000	9.316786
404.000000	9.056016
403.000000	8.835008
402.000000	8.611640
401.000000	8.377787
400.000000	8.209482
399.000000	8.028520
398.000000	7.871737
397.000000	7.701826
396.000000	7.540131
395.000000	7.417633
394.000000	7.281723
393.000000	7.171502
392.000000	7.067893
391.000000	6.932928
390.000000	6.838480
389.000000	6.742427
388.000000	6.666680
387.000000	6.606517
386.000000	6.540876
385.000000	6.470134
384.000000	6.406477
383.000000	6.354153
382.000000	6.297673
381.000000	6.246293
380.000000	6.184619
379.000000	6.177724
378.000000	6.154585
377.000000	6.105661
376.000000	6.094233
375.000000	5.798990
374.000000	5.619728
373.000000	5.508185
372.000000	5.804184
371.000000	5.785389
370.000000	5.755544
369.000000	5.890320
368.000000	5.680552
367.000000	5.901560
366.000000	5.977684
365.000000	5.671107
364.000000	5.703975
363.000000	5.771600
362.000000	5.674413
361.000000	5.680930
360.000000	5.868786
359.000000	5.622372
358.000000	5.721354
357.000000	5.702842
356.000000	5.631062
355.000000	5.753277
354.000000	5.746193
353.000000	5.707470
352.000000	5.670352
351.000000	5.794834
350.000000	5.709831
349.000000	5.703125
348.000000	5.694719
347.000000	5.583366
346.000000	5.461717
345.000000	5.620672
344.000000	5.520086
343.000000	5.327035
342.000000	5.754221
341.000000	5.406465
340.000000	5.074860
339.000000	5.529247
338.000000	5.460961
337.000000	5.668935
336.000000	5.829685
335.000000	5.744965
334.000000	5.569482
333.000000	5.664591
332.000000	5.620295
331.000000	5.348569
330.000000	5.025275
329.000000	5.261110
328.000000	5.500913
327.000000	5.520463
326.000000	5.657413
325.000000	5.155423
324.000000	5.477301
323.000000	6.284828
322.000000	6.163557
321.000000	5.532553
320.000000	6.059665
319.000000	6.539081
318.000000	5.782933
317.000000	5.422616
316.000000	5.277733
315.000000	5.313623
314.000000	5.361980
313.000000	5.293411
312.000000	5.351686
311.000000	5.364153
310.000000	5.480512
309.000000	5.361130
308.000000	5.337896
307.000000	5.380870
306.000000	5.375770
305.000000	5.336952
304.000000	5.378509
303.000000	5.398343
302.000000	5.357164
301.000000	5.251477
300.000000	5.352630
299.000000	5.426488
298.000000	5.358769
297.000000	5.399854
296.000000	5.362547
295.000000	5.394470
294.000000	5.385592
293.000000	5.400704
292.000000	5.400704
291.000000	5.420443
290.000000	5.366703
289.000000	5.464456
288.000000	5.443772
287.000000	5.405143
286.000000	5.437822
285.000000	5.442261
284.000000	5.478434
283.000000	5.435461
282.000000	5.478434
281.000000	5.477395
280.000000	5.473617
279.000000	5.440939
278.000000	5.532081
277.000000	5.496946
276.000000	5.497135
275.000000	5.510735
274.000000	5.551631
273.000000	5.524336
272.000000	5.591771
271.000000	5.501385
270.000000	5.575526
269.000000	5.616800
268.000000	5.585349
267.000000	5.598005
266.000000	5.711720
265.000000	5.690280
264.000000	5.700858
263.000000	5.738165
262.000000	5.762722
261.000000	5.822318
260.000000	5.806829
259.000000	5.829685
258.000000	5.805129
257.000000	5.776228
256.000000	5.852541
255.000000	5.926116
254.000000	5.918938
253.000000	5.807868
252.000000	5.886920
251.000000	5.915443
250.000000	5.987790
