PE UV       SUBTECH     SPECTRUM    ASCII       PEDS        4.00        
   -1
CICIMAUCR0004-3.Sample.ASC
24/05/03
16:17:29.00
24/05/03
16:17:29.00
Vinicio Soto Monge
C. kalinini
250,000000
1
Lambda 1050
1050L1511233
PerkinElmer UV WinLab 6.3.2.0749 / 2.02.05 Lambda 900 UV/VIS/NIR, Aug  7 2015 09:38:08

0
0
3350/servo 860,8/2
0
0
UV/VIS
1
1
1
DoubleDePol,CommonBeamDepol,RBeamAtt,SBeamAtt,60mm sphere, WB InGaAs Detector
0
0
0
0
Program
Program
3350/servo 860,8/2
3350/0,2 860,8/0,2
3350/0,2 860,8/0,2
0
15.00
 
 
 
0
 
860,8
319,2
860,8
Front
100
on
S:100 R:100
0
0
0
0
 
0
 
 
 
0
 
 
0
0
0
0
0
 
 
 
 
0
0


0
0
#HDR
-1
-1
#GR
nm
%R
1.0
0.0
2500,000000
-1,000000
2251
8
98,738200
4,896700
#DATA
2500.000000	9.008200
2499.000000	9.131100
2498.000000	9.070700
2497.000000	9.083700
2496.000000	8.913200
2495.000000	8.990100
2494.000000	8.889600
2493.000000	8.980000
2492.000000	8.873500
2491.000000	8.871200
2490.000000	8.868700
2489.000000	8.814100
2488.000000	8.841400
2487.000000	8.773600
2486.000000	8.759900
2485.000000	8.747600
2484.000000	8.739200
2483.000000	8.769500
2482.000000	8.732400
2481.000000	8.784100
2480.000000	8.756000
2479.000000	8.709300
2478.000000	8.700200
2477.000000	8.709100
2476.000000	8.737100
2475.000000	8.715400
2474.000000	8.713800
2473.000000	8.794200
2472.000000	8.765200
2471.000000	8.751600
2470.000000	8.774900
2469.000000	8.828800
2468.000000	8.780200
2467.000000	8.816500
2466.000000	8.849800
2465.000000	8.842200
2464.000000	8.878900
2463.000000	8.909000
2462.000000	8.974500
2461.000000	8.994600
2460.000000	9.040200
2459.000000	9.118600
2458.000000	9.178700
2457.000000	9.261700
2456.000000	9.301800
2455.000000	9.374600
2454.000000	9.455100
2453.000000	9.520500
2452.000000	9.628700
2451.000000	9.708000
2450.000000	9.807100
2449.000000	9.876600
2448.000000	9.971300
2447.000000	10.069200
2446.000000	10.168000
2445.000000	10.252000
2444.000000	10.322900
2443.000000	10.416600
2442.000000	10.503200
2441.000000	10.611300
2440.000000	10.677200
2439.000000	10.782900
2438.000000	10.879600
2437.000000	10.931000
2436.000000	11.004400
2435.000000	11.071100
2434.000000	11.153200
2433.000000	11.238700
2432.000000	11.287300
2431.000000	11.351700
2430.000000	11.391600
2429.000000	11.454500
2428.000000	11.519800
2427.000000	11.568200
2426.000000	11.636100
2425.000000	11.688500
2424.000000	11.717900
2423.000000	11.757100
2422.000000	11.798400
2421.000000	11.834800
2420.000000	11.876600
2419.000000	11.910500
2418.000000	11.930400
2417.000000	11.971500
2416.000000	11.993200
2415.000000	12.028400
2414.000000	12.059300
2413.000000	12.093000
2412.000000	12.125500
2411.000000	12.172400
2410.000000	12.201000
2409.000000	12.209000
2408.000000	12.238000
2407.000000	12.270100
2406.000000	12.296900
2405.000000	12.319400
2404.000000	12.358400
2403.000000	12.392500
2402.000000	12.409200
2401.000000	12.447800
2400.000000	12.479700
2399.000000	12.519300
2398.000000	12.563400
2397.000000	12.620000
2396.000000	12.683300
2395.000000	12.714900
2394.000000	12.738500
2393.000000	12.770600
2392.000000	12.791300
2391.000000	12.835500
2390.000000	12.845900
2389.000000	12.844700
2388.000000	12.868100
2387.000000	12.884600
2386.000000	12.892500
2385.000000	12.892100
2384.000000	12.899800
2383.000000	12.891700
2382.000000	12.894400
2381.000000	12.900700
2380.000000	12.885900
2379.000000	12.865900
2378.000000	12.844600
2377.000000	12.831700
2376.000000	12.813100
2375.000000	12.765000
2374.000000	12.731700
2373.000000	12.715900
2372.000000	12.676400
2371.000000	12.637400
2370.000000	12.607100
2369.000000	12.556600
2368.000000	12.489400
2367.000000	12.432100
2366.000000	12.381000
2365.000000	12.324800
2364.000000	12.258400
2363.000000	12.164500
2362.000000	12.081900
2361.000000	12.020200
2360.000000	11.954800
2359.000000	11.882900
2358.000000	11.803500
2357.000000	11.746300
2356.000000	11.706900
2355.000000	11.680400
2354.000000	11.653300
2353.000000	11.634900
2352.000000	11.642900
2351.000000	11.656900
2350.000000	11.666500
2349.000000	11.694200
2348.000000	11.734600
2347.000000	11.768100
2346.000000	11.807300
2345.000000	11.860700
2344.000000	11.911700
2343.000000	11.949100
2342.000000	12.003300
2341.000000	12.054600
2340.000000	12.091500
2339.000000	12.105700
2338.000000	12.112700
2337.000000	12.107100
2336.000000	12.101100
2335.000000	12.070300
2334.000000	12.050400
2333.000000	12.024200
2332.000000	11.992100
2331.000000	11.945600
2330.000000	11.885400
2329.000000	11.807600
2328.000000	11.726300
2327.000000	11.660000
2326.000000	11.579500
2325.000000	11.482600
2324.000000	11.374900
2323.000000	11.262100
2322.000000	11.148200
2321.000000	11.019600
2320.000000	10.880700
2319.000000	10.757500
2318.000000	10.625500
2317.000000	10.488700
2316.000000	10.339000
2315.000000	10.219700
2314.000000	10.094600
2313.000000	9.970200
2312.000000	9.849100
2311.000000	9.764600
2310.000000	9.663100
2309.000000	9.614500
2308.000000	9.580000
2307.000000	9.543400
2306.000000	9.535900
2305.000000	9.540900
2304.000000	9.584700
2303.000000	9.647000
2302.000000	9.732400
2301.000000	9.813600
2300.000000	9.909100
2299.000000	10.022100
2298.000000	10.128800
2297.000000	10.223700
2296.000000	10.320700
2295.000000	10.409600
2294.000000	10.501500
2293.000000	10.578900
2292.000000	10.628300
2291.000000	10.681500
2290.000000	10.697400
2289.000000	10.728600
2288.000000	10.721000
2287.000000	10.703900
2286.000000	10.687500
2285.000000	10.642700
2284.000000	10.572100
2283.000000	10.550200
2282.000000	10.507500
2281.000000	10.453200
2280.000000	10.408500
2279.000000	10.342200
2278.000000	10.289700
2277.000000	10.240000
2276.000000	10.194200
2275.000000	10.153300
2274.000000	10.109200
2273.000000	10.113900
2272.000000	10.122500
2271.000000	10.133500
2270.000000	10.171000
2269.000000	10.251000
2268.000000	10.325900
2267.000000	10.447800
2266.000000	10.564700
2265.000000	10.755900
2264.000000	10.923600
2263.000000	11.126100
2262.000000	11.386800
2261.000000	11.643700
2260.000000	11.922900
2259.000000	12.197100
2258.000000	12.486400
2257.000000	12.805000
2256.000000	13.114800
2255.000000	13.414000
2254.000000	13.717800
2253.000000	14.016600
2252.000000	14.341600
2251.000000	14.610300
2250.000000	14.851000
2249.000000	15.109000
2248.000000	15.334200
2247.000000	15.574600
2246.000000	15.764500
2245.000000	15.963200
2244.000000	16.126900
2243.000000	16.311700
2242.000000	16.442700
2241.000000	16.578500
2240.000000	16.710700
2239.000000	16.826300
2238.000000	16.937400
2237.000000	17.040300
2236.000000	17.128100
2235.000000	17.199500
2234.000000	17.259900
2233.000000	17.334600
2232.000000	17.367000
2231.000000	17.406200
2230.000000	17.421100
2229.000000	17.459300
2228.000000	17.458600
2227.000000	17.471700
2226.000000	17.478200
2225.000000	17.455700
2224.000000	17.458800
2223.000000	17.440800
2222.000000	17.404100
2221.000000	17.374500
2220.000000	17.332900
2219.000000	17.290000
2218.000000	17.275600
2217.000000	17.226400
2216.000000	17.156000
2215.000000	17.130900
2214.000000	17.084200
2213.000000	17.074300
2212.000000	17.033600
2211.000000	17.006000
2210.000000	16.959200
2209.000000	16.939400
2208.000000	16.920800
2207.000000	16.879300
2206.000000	16.849300
2205.000000	16.836500
2204.000000	16.806000
2203.000000	16.792200
2202.000000	16.769000
2201.000000	16.763900
2200.000000	16.741200
2199.000000	16.757100
2198.000000	16.741300
2197.000000	16.720500
2196.000000	16.718700
2195.000000	16.689400
2194.000000	16.686200
2193.000000	16.671200
2192.000000	16.672400
2191.000000	16.660600
2190.000000	16.673300
2189.000000	16.636400
2188.000000	16.624700
2187.000000	16.615900
2186.000000	16.593700
2185.000000	16.589500
2184.000000	16.578600
2183.000000	16.550200
2182.000000	16.541100
2181.000000	16.508200
2180.000000	16.497500
2179.000000	16.500700
2178.000000	16.484200
2177.000000	16.491300
2176.000000	16.489000
2175.000000	16.482200
2174.000000	16.469200
2173.000000	16.475800
2172.000000	16.474200
2171.000000	16.505000
2170.000000	16.521200
2169.000000	16.518500
2168.000000	16.545300
2167.000000	16.579200
2166.000000	16.589500
2165.000000	16.606100
2164.000000	16.643500
2163.000000	16.674600
2162.000000	16.703800
2161.000000	16.746100
2160.000000	16.777200
2159.000000	16.833700
2158.000000	16.868700
2157.000000	16.900400
2156.000000	16.966000
2155.000000	17.024300
2154.000000	17.086100
2153.000000	17.148100
2152.000000	17.205400
2151.000000	17.268100
2150.000000	17.334800
2149.000000	17.393300
2148.000000	17.446700
2147.000000	17.501700
2146.000000	17.551800
2145.000000	17.622100
2144.000000	17.674800
2143.000000	17.717700
2142.000000	17.769100
2141.000000	17.811800
2140.000000	17.862600
2139.000000	17.915700
2138.000000	17.967600
2137.000000	18.013800
2136.000000	18.034100
2135.000000	18.074100
2134.000000	18.104300
2133.000000	18.133100
2132.000000	18.165600
2131.000000	18.192300
2130.000000	18.210900
2129.000000	18.241500
2128.000000	18.246400
2127.000000	18.235300
2126.000000	18.253600
2125.000000	18.276600
2124.000000	18.277100
2123.000000	18.278000
2122.000000	18.255300
2121.000000	18.238300
2120.000000	18.229400
2119.000000	18.230200
2118.000000	18.218200
2117.000000	18.190100
2116.000000	18.155700
2115.000000	18.134600
2114.000000	18.106300
2113.000000	18.074300
2112.000000	18.054600
2111.000000	18.022500
2110.000000	17.999400
2109.000000	17.977100
2108.000000	17.937000
2107.000000	17.903600
2106.000000	17.876400
2105.000000	17.851000
2104.000000	17.820400
2103.000000	17.794200
2102.000000	17.762100
2101.000000	17.734300
2100.000000	17.704600
2099.000000	17.663900
2098.000000	17.639700
2097.000000	17.619400
2096.000000	17.589700
2095.000000	17.576200
2094.000000	17.565200
2093.000000	17.541100
2092.000000	17.522800
2091.000000	17.509200
2090.000000	17.493800
2089.000000	17.478300
2088.000000	17.460500
2087.000000	17.449900
2086.000000	17.428100
2085.000000	17.402900
2084.000000	17.382600
2083.000000	17.370500
2082.000000	17.351000
2081.000000	17.313900
2080.000000	17.273500
2079.000000	17.229300
2078.000000	17.215000
2077.000000	17.179100
2076.000000	17.139700
2075.000000	17.099900
2074.000000	17.059100
2073.000000	17.021600
2072.000000	16.985400
2071.000000	16.929700
2070.000000	16.875400
2069.000000	16.824300
2068.000000	16.777700
2067.000000	16.744800
2066.000000	16.697900
2065.000000	16.651100
2064.000000	16.618000
2063.000000	16.573000
2062.000000	16.568800
2061.000000	16.540900
2060.000000	16.523800
2059.000000	16.527000
2058.000000	16.521100
2057.000000	16.539700
2056.000000	16.564500
2055.000000	16.611100
2054.000000	16.666800
2053.000000	16.733000
2052.000000	16.823700
2051.000000	16.930800
2050.000000	17.057300
2049.000000	17.190100
2048.000000	17.336900
2047.000000	17.480600
2046.000000	17.640900
2045.000000	17.802400
2044.000000	17.985600
2043.000000	18.144800
2042.000000	18.320800
2041.000000	18.513800
2040.000000	18.706100
2039.000000	18.854200
2038.000000	19.003200
2037.000000	19.161900
2036.000000	19.322100
2035.000000	19.481700
2034.000000	19.611100
2033.000000	19.751500
2032.000000	19.873400
2031.000000	19.987600
2030.000000	20.107700
2029.000000	20.215500
2028.000000	20.348300
2027.000000	20.470300
2026.000000	20.553500
2025.000000	20.627000
2024.000000	20.718200
2023.000000	20.813600
2022.000000	20.897900
2021.000000	20.989800
2020.000000	21.055400
2019.000000	21.134800
2018.000000	21.203700
2017.000000	21.264900
2016.000000	21.332300
2015.000000	21.387000
2014.000000	21.424600
2013.000000	21.459700
2012.000000	21.506100
2011.000000	21.533600
2010.000000	21.584600
2009.000000	21.583100
2008.000000	21.604400
2007.000000	21.618300
2006.000000	21.608800
2005.000000	21.620400
2004.000000	21.598700
2003.000000	21.574900
2002.000000	21.565400
2001.000000	21.552200
2000.000000	21.519300
1999.000000	21.485000
1998.000000	21.449000
1997.000000	21.405500
1996.000000	21.347800
1995.000000	21.297100
1994.000000	21.245100
1993.000000	21.198300
1992.000000	21.124500
1991.000000	21.063400
1990.000000	21.001100
1989.000000	20.919900
1988.000000	20.833700
1987.000000	20.740600
1986.000000	20.658900
1985.000000	20.594200
1984.000000	20.498900
1983.000000	20.438100
1982.000000	20.326200
1981.000000	20.236200
1980.000000	20.153600
1979.000000	20.043900
1978.000000	19.949200
1977.000000	19.859500
1976.000000	19.767400
1975.000000	19.673600
1974.000000	19.608900
1973.000000	19.499400
1972.000000	19.415200
1971.000000	19.350000
1970.000000	19.228200
1969.000000	19.172300
1968.000000	19.098400
1967.000000	18.986300
1966.000000	18.907700
1965.000000	18.827200
1964.000000	18.714400
1963.000000	18.644200
1962.000000	18.558100
1961.000000	18.479600
1960.000000	18.392700
1959.000000	18.293000
1958.000000	18.235300
1957.000000	18.135000
1956.000000	18.053100
1955.000000	17.986100
1954.000000	17.876500
1953.000000	17.790900
1952.000000	17.733500
1951.000000	17.631100
1950.000000	17.591900
1949.000000	17.507400
1948.000000	17.446800
1947.000000	17.388400
1946.000000	17.333600
1945.000000	17.271900
1944.000000	17.218800
1943.000000	17.172100
1942.000000	17.148300
1941.000000	17.133700
1940.000000	17.141000
1939.000000	17.112700
1938.000000	17.128300
1937.000000	17.132100
1936.000000	17.146600
1935.000000	17.169000
1934.000000	17.224900
1933.000000	17.289800
1932.000000	17.346200
1931.000000	17.416300
1930.000000	17.500200
1929.000000	17.613300
1928.000000	17.723800
1927.000000	17.849900
1926.000000	17.981300
1925.000000	18.119600
1924.000000	18.292600
1923.000000	18.449200
1922.000000	18.625600
1921.000000	18.832100
1920.000000	19.045500
1919.000000	19.252900
1918.000000	19.454600
1917.000000	19.687700
1916.000000	19.894100
1915.000000	20.138000
1914.000000	20.417400
1913.000000	20.707000
1912.000000	20.999300
1911.000000	21.260900
1910.000000	21.533100
1909.000000	21.804100
1908.000000	22.092100
1907.000000	22.435100
1906.000000	22.783800
1905.000000	23.152100
1904.000000	23.474100
1903.000000	23.816600
1902.000000	24.148300
1901.000000	24.527000
1900.000000	24.905100
1899.000000	25.310200
1898.000000	25.655600
1897.000000	26.035800
1896.000000	26.362200
1895.000000	26.665800
1894.000000	27.016400
1893.000000	27.378700
1892.000000	27.783000
1891.000000	28.166300
1890.000000	28.518800
1889.000000	28.877800
1888.000000	29.266100
1887.000000	29.652400
1886.000000	30.094200
1885.000000	30.574200
1884.000000	31.085700
1883.000000	31.586000
1882.000000	32.110300
1881.000000	32.626100
1880.000000	33.096400
1879.000000	33.561000
1878.000000	34.009700
1877.000000	34.420600
1876.000000	34.811600
1875.000000	35.190000
1874.000000	35.541500
1873.000000	35.854100
1872.000000	36.142200
1871.000000	36.411100
1870.000000	36.627400
1869.000000	36.844400
1868.000000	36.980700
1867.000000	37.086000
1866.000000	37.155000
1865.000000	37.238400
1864.000000	37.291700
1863.000000	37.337500
1862.000000	37.412000
1861.000000	37.457200
1860.000000	37.496700
1859.000000	37.514000
1858.000000	37.526300
1857.000000	37.518700
1856.000000	37.476700
1855.000000	37.466600
1854.000000	37.444900
1853.000000	37.364300
1852.000000	37.321800
1851.000000	37.281900
1850.000000	37.228100
1849.000000	37.183900
1848.000000	37.139400
1847.000000	37.081300
1846.000000	36.993900
1845.000000	36.908100
1844.000000	36.840600
1843.000000	36.823000
1842.000000	36.817500
1841.000000	36.784400
1840.000000	36.732800
1839.000000	36.676200
1838.000000	36.608000
1837.000000	36.550500
1836.000000	36.512300
1835.000000	36.421100
1834.000000	36.313800
1833.000000	36.225900
1832.000000	36.158700
1831.000000	36.094600
1830.000000	36.007800
1829.000000	35.909500
1828.000000	35.808100
1827.000000	35.740200
1826.000000	35.684500
1825.000000	35.620800
1824.000000	35.571500
1823.000000	35.535500
1822.000000	35.528400
1821.000000	35.527300
1820.000000	35.489800
1819.000000	35.433500
1818.000000	35.405500
1817.000000	35.405400
1816.000000	35.407100
1815.000000	35.392200
1814.000000	35.370300
1813.000000	35.348700
1812.000000	35.322000
1811.000000	35.286600
1810.000000	35.234800
1809.000000	35.176200
1808.000000	35.126100
1807.000000	35.084900
1806.000000	35.012900
1805.000000	34.955100
1804.000000	34.915100
1803.000000	34.857100
1802.000000	34.804000
1801.000000	34.743300
1800.000000	34.675900
1799.000000	34.610000
1798.000000	34.548500
1797.000000	34.493200
1796.000000	34.430600
1795.000000	34.376500
1794.000000	34.313500
1793.000000	34.258500
1792.000000	34.191900
1791.000000	34.116000
1790.000000	34.057000
1789.000000	33.988200
1788.000000	33.897700
1787.000000	33.826900
1786.000000	33.758600
1785.000000	33.678200
1784.000000	33.578400
1783.000000	33.478200
1782.000000	33.380600
1781.000000	33.292200
1780.000000	33.200100
1779.000000	33.094300
1778.000000	32.970500
1777.000000	32.838600
1776.000000	32.722900
1775.000000	32.573700
1774.000000	32.420700
1773.000000	32.265800
1772.000000	32.115700
1771.000000	31.959600
1770.000000	31.808100
1769.000000	31.674300
1768.000000	31.524700
1767.000000	31.405700
1766.000000	31.300100
1765.000000	31.234700
1764.000000	31.186900
1763.000000	31.180200
1762.000000	31.206000
1761.000000	31.245000
1760.000000	31.313400
1759.000000	31.386300
1758.000000	31.470400
1757.000000	31.528800
1756.000000	31.579400
1755.000000	31.608700
1754.000000	31.618900
1753.000000	31.615000
1752.000000	31.590200
1751.000000	31.539600
1750.000000	31.468000
1749.000000	31.392600
1748.000000	31.285600
1747.000000	31.171700
1746.000000	31.007900
1745.000000	30.845000
1744.000000	30.636600
1743.000000	30.400100
1742.000000	30.179700
1741.000000	29.894300
1740.000000	29.624300
1739.000000	29.347000
1738.000000	29.114600
1737.000000	28.908900
1736.000000	28.787400
1735.000000	28.702700
1734.000000	28.658400
1733.000000	28.670500
1732.000000	28.729800
1731.000000	28.819500
1730.000000	28.939800
1729.000000	29.066400
1728.000000	29.206100
1727.000000	29.321300
1726.000000	29.405600
1725.000000	29.465700
1724.000000	29.527700
1723.000000	29.585600
1722.000000	29.627800
1721.000000	29.657400
1720.000000	29.716500
1719.000000	29.734000
1718.000000	29.838700
1717.000000	29.928300
1716.000000	30.030300
1715.000000	30.107400
1714.000000	30.175400
1713.000000	30.281800
1712.000000	30.348300
1711.000000	30.402600
1710.000000	30.425400
1709.000000	30.436700
1708.000000	30.423200
1707.000000	30.392200
1706.000000	30.376700
1705.000000	30.311500
1704.000000	30.229600
1703.000000	30.140600
1702.000000	30.013000
1701.000000	29.845200
1700.000000	29.647900
1699.000000	29.471000
1698.000000	29.326300
1697.000000	29.200600
1696.000000	29.150700
1695.000000	29.155700
1694.000000	29.232200
1693.000000	29.352000
1692.000000	29.520400
1691.000000	29.702700
1690.000000	29.844700
1689.000000	29.935900
1688.000000	29.996300
1687.000000	30.038200
1686.000000	30.064700
1685.000000	30.115100
1684.000000	30.292000
1683.000000	30.598800
1682.000000	31.032100
1681.000000	31.582100
1680.000000	32.223100
1679.000000	32.820600
1678.000000	33.416100
1677.000000	33.959900
1676.000000	34.437900
1675.000000	34.895500
1674.000000	35.258000
1673.000000	35.566100
1672.000000	35.853800
1671.000000	36.133000
1670.000000	36.327000
1669.000000	36.531900
1668.000000	36.700900
1667.000000	36.827300
1666.000000	36.955800
1665.000000	37.069700
1664.000000	37.164100
1663.000000	37.257500
1662.000000	37.345800
1661.000000	37.415700
1660.000000	37.454500
1659.000000	37.502000
1658.000000	37.532800
1657.000000	37.549600
1656.000000	37.583300
1655.000000	37.579300
1654.000000	37.566400
1653.000000	37.558800
1652.000000	37.556600
1651.000000	37.535500
1650.000000	37.500500
1649.000000	37.456700
1648.000000	37.406900
1647.000000	37.362900
1646.000000	37.301200
1645.000000	37.243900
1644.000000	37.183100
1643.000000	37.141300
1642.000000	37.089800
1641.000000	37.022400
1640.000000	36.964400
1639.000000	36.892900
1638.000000	36.828700
1637.000000	36.749900
1636.000000	36.667800
1635.000000	36.603000
1634.000000	36.530500
1633.000000	36.445900
1632.000000	36.354600
1631.000000	36.270400
1630.000000	36.193500
1629.000000	36.103400
1628.000000	36.008100
1627.000000	35.932200
1626.000000	35.836000
1625.000000	35.741100
1624.000000	35.651400
1623.000000	35.582900
1622.000000	35.494600
1621.000000	35.400300
1620.000000	35.328000
1619.000000	35.249100
1618.000000	35.165500
1617.000000	35.071200
1616.000000	34.990700
1615.000000	34.926700
1614.000000	34.854600
1613.000000	34.779300
1612.000000	34.699100
1611.000000	34.617500
1610.000000	34.561900
1609.000000	34.484400
1608.000000	34.410500
1607.000000	34.343100
1606.000000	34.272800
1605.000000	34.188600
1604.000000	34.103900
1603.000000	34.035600
1602.000000	33.962300
1601.000000	33.880500
1600.000000	33.816700
1599.000000	33.732600
1598.000000	33.660600
1597.000000	33.600300
1596.000000	33.546100
1595.000000	33.482500
1594.000000	33.422600
1593.000000	33.363200
1592.000000	33.312500
1591.000000	33.274600
1590.000000	33.224000
1589.000000	33.180800
1588.000000	33.137400
1587.000000	33.103900
1586.000000	33.073400
1585.000000	33.037800
1584.000000	32.998500
1583.000000	32.970100
1582.000000	32.944600
1581.000000	32.920500
1580.000000	32.896500
1579.000000	32.882600
1578.000000	32.886100
1577.000000	32.887900
1576.000000	32.887600
1575.000000	32.900500
1574.000000	32.915900
1573.000000	32.924600
1572.000000	32.948700
1571.000000	32.974400
1570.000000	32.991300
1569.000000	33.022500
1568.000000	33.061200
1567.000000	33.094200
1566.000000	33.131200
1565.000000	33.164800
1564.000000	33.191600
1563.000000	33.217700
1562.000000	33.246500
1561.000000	33.261900
1560.000000	33.272700
1559.000000	33.288000
1558.000000	33.301000
1557.000000	33.316100
1556.000000	33.320000
1555.000000	33.309400
1554.000000	33.302800
1553.000000	33.287200
1552.000000	33.262400
1551.000000	33.247500
1550.000000	33.223000
1549.000000	33.196400
1548.000000	33.168800
1547.000000	33.148900
1546.000000	33.135300
1545.000000	33.125600
1544.000000	33.121400
1543.000000	33.108800
1542.000000	33.104700
1541.000000	33.109700
1540.000000	33.113000
1539.000000	33.110800
1538.000000	33.112900
1537.000000	33.104800
1536.000000	33.117000
1535.000000	33.097700
1534.000000	33.070300
1533.000000	33.070100
1532.000000	33.058900
1531.000000	33.043300
1530.000000	33.027100
1529.000000	32.998300
1528.000000	32.987300
1527.000000	32.970200
1526.000000	32.952900
1525.000000	32.931400
1524.000000	32.887800
1523.000000	32.860700
1522.000000	32.835400
1521.000000	32.814900
1520.000000	32.779400
1519.000000	32.744900
1518.000000	32.711800
1517.000000	32.702000
1516.000000	32.677900
1515.000000	32.636200
1514.000000	32.584500
1513.000000	32.526900
1512.000000	32.515000
1511.000000	32.479500
1510.000000	32.443600
1509.000000	32.417500
1508.000000	32.372800
1507.000000	32.347100
1506.000000	32.308200
1505.000000	32.262500
1504.000000	32.237000
1503.000000	32.211500
1502.000000	32.188900
1501.000000	32.154000
1500.000000	32.141000
1499.000000	32.126500
1498.000000	32.111300
1497.000000	32.102400
1496.000000	32.101100
1495.000000	32.109700
1494.000000	32.114900
1493.000000	32.126100
1492.000000	32.125800
1491.000000	32.150400
1490.000000	32.146200
1489.000000	32.167800
1488.000000	32.176400
1487.000000	32.188300
1486.000000	32.200600
1485.000000	32.214100
1484.000000	32.241000
1483.000000	32.261000
1482.000000	32.296000
1481.000000	32.348400
1480.000000	32.390300
1479.000000	32.412800
1478.000000	32.451700
1477.000000	32.502400
1476.000000	32.536700
1475.000000	32.597800
1474.000000	32.631400
1473.000000	32.695400
1472.000000	32.779100
1471.000000	32.825300
1470.000000	32.858300
1469.000000	32.912400
1468.000000	32.969000
1467.000000	33.034100
1466.000000	33.070600
1465.000000	33.151400
1464.000000	33.223500
1463.000000	33.283600
1462.000000	33.391600
1461.000000	33.460300
1460.000000	33.554600
1459.000000	33.652200
1458.000000	33.759600
1457.000000	33.889000
1456.000000	33.994700
1455.000000	34.109600
1454.000000	34.226100
1453.000000	34.344400
1452.000000	34.466000
1451.000000	34.615600
1450.000000	34.758000
1449.000000	34.850100
1448.000000	34.984400
1447.000000	35.145400
1446.000000	35.332900
1445.000000	35.447600
1444.000000	35.563400
1443.000000	35.719000
1442.000000	35.875800
1441.000000	36.005900
1440.000000	36.162200
1439.000000	36.310500
1438.000000	36.486200
1437.000000	36.612700
1436.000000	36.752500
1435.000000	36.922500
1434.000000	37.060500
1433.000000	37.246900
1432.000000	37.395500
1431.000000	37.536400
1430.000000	37.728600
1429.000000	37.925500
1428.000000	38.139300
1427.000000	38.363200
1426.000000	38.605400
1425.000000	38.836800
1424.000000	39.121900
1423.000000	39.365900
1422.000000	39.599400
1421.000000	39.861400
1420.000000	40.143800
1419.000000	40.401300
1418.000000	40.626800
1417.000000	40.858700
1416.000000	41.140100
1415.000000	41.437100
1414.000000	41.708500
1413.000000	41.927800
1412.000000	42.158200
1411.000000	42.479400
1410.000000	42.857100
1409.000000	43.214900
1408.000000	43.601500
1407.000000	43.954800
1406.000000	44.370600
1405.000000	44.777400
1404.000000	45.174300
1403.000000	45.592500
1402.000000	46.001600
1401.000000	46.419400
1400.000000	46.778000
1399.000000	46.983200
1398.000000	47.165300
1397.000000	47.422600
1396.000000	47.714400
1395.000000	47.897700
1394.000000	47.977600
1393.000000	48.123400
1392.000000	48.312600
1391.000000	48.492600
1390.000000	48.672200
1389.000000	48.967100
1388.000000	49.238900
1387.000000	49.520100
1386.000000	49.852800
1385.000000	50.257400
1384.000000	50.634200
1383.000000	51.037400
1382.000000	51.331900
1381.000000	51.537800
1380.000000	51.638900
1379.000000	51.725800
1378.000000	51.791700
1377.000000	51.903700
1376.000000	52.031300
1375.000000	52.223900
1374.000000	52.504400
1373.000000	52.815200
1372.000000	53.173700
1371.000000	53.550100
1370.000000	53.855600
1369.000000	54.153300
1368.000000	54.442300
1367.000000	54.665400
1366.000000	54.862200
1365.000000	55.066600
1364.000000	55.236500
1363.000000	55.393700
1362.000000	55.547600
1361.000000	55.653200
1360.000000	55.690800
1359.000000	55.740400
1358.000000	55.852800
1357.000000	56.065700
1356.000000	56.402600
1355.000000	56.881000
1354.000000	57.381100
1353.000000	57.868800
1352.000000	58.470300
1351.000000	59.042400
1350.000000	59.542300
1349.000000	59.997800
1348.000000	60.432700
1347.000000	60.825900
1346.000000	61.158300
1345.000000	61.517400
1344.000000	61.876700
1343.000000	62.186300
1342.000000	62.474700
1341.000000	62.763200
1340.000000	63.031400
1339.000000	63.305600
1338.000000	63.550800
1337.000000	63.805000
1336.000000	64.043000
1335.000000	64.252900
1334.000000	64.456700
1333.000000	64.648600
1332.000000	64.840400
1331.000000	65.021500
1330.000000	65.193000
1329.000000	65.332600
1328.000000	65.478900
1327.000000	65.630200
1326.000000	65.770900
1325.000000	65.896700
1324.000000	66.014000
1323.000000	66.119500
1322.000000	66.222000
1321.000000	66.324900
1320.000000	66.414800
1319.000000	66.489200
1318.000000	66.574400
1317.000000	66.651000
1316.000000	66.713100
1315.000000	66.780700
1314.000000	66.850100
1313.000000	66.896500
1312.000000	66.953400
1311.000000	66.999400
1310.000000	67.029000
1309.000000	67.073400
1308.000000	67.108500
1307.000000	67.120400
1306.000000	67.132100
1305.000000	67.139900
1304.000000	67.140500
1303.000000	67.136700
1302.000000	67.126900
1301.000000	67.115600
1300.000000	67.104200
1299.000000	67.069200
1298.000000	67.038200
1297.000000	67.010800
1296.000000	66.985300
1295.000000	66.964700
1294.000000	66.926000
1293.000000	66.888900
1292.000000	66.848500
1291.000000	66.786400
1290.000000	66.730000
1289.000000	66.653600
1288.000000	66.586500
1287.000000	66.525400
1286.000000	66.434300
1285.000000	66.337300
1284.000000	66.247900
1283.000000	66.177000
1282.000000	66.092100
1281.000000	65.998700
1280.000000	65.918300
1279.000000	65.833600
1278.000000	65.749000
1277.000000	65.679000
1276.000000	65.611100
1275.000000	65.557600
1274.000000	65.492600
1273.000000	65.438900
1272.000000	65.389600
1271.000000	65.344200
1270.000000	65.295500
1269.000000	65.244700
1268.000000	65.199200
1267.000000	65.150600
1266.000000	65.083400
1265.000000	65.018600
1264.000000	64.963700
1263.000000	64.910200
1262.000000	64.869800
1261.000000	64.821200
1260.000000	64.762300
1259.000000	64.707500
1258.000000	64.656000
1257.000000	64.584100
1256.000000	64.531800
1255.000000	64.472800
1254.000000	64.391400
1253.000000	64.321700
1252.000000	64.241900
1251.000000	64.147000
1250.000000	64.058400
1249.000000	63.944800
1248.000000	63.818400
1247.000000	63.715400
1246.000000	63.596200
1245.000000	63.451500
1244.000000	63.289200
1243.000000	63.150900
1242.000000	62.994000
1241.000000	62.833200
1240.000000	62.661400
1239.000000	62.504000
1238.000000	62.337200
1237.000000	62.158500
1236.000000	61.981100
1235.000000	61.787900
1234.000000	61.582700
1233.000000	61.391900
1232.000000	61.208400
1231.000000	61.024200
1230.000000	60.829900
1229.000000	60.626200
1228.000000	60.426700
1227.000000	60.225900
1226.000000	60.043300
1225.000000	59.845400
1224.000000	59.667200
1223.000000	59.463800
1222.000000	59.269900
1221.000000	59.092000
1220.000000	58.927600
1219.000000	58.753000
1218.000000	58.601400
1217.000000	58.441000
1216.000000	58.315700
1215.000000	58.185400
1214.000000	58.061700
1213.000000	57.929100
1212.000000	57.793200
1211.000000	57.666800
1210.000000	57.558100
1209.000000	57.450700
1208.000000	57.365700
1207.000000	57.284700
1206.000000	57.225300
1205.000000	57.177700
1204.000000	57.137300
1203.000000	57.100900
1202.000000	57.071700
1201.000000	57.017100
1200.000000	56.943600
1199.000000	56.843800
1198.000000	56.731500
1197.000000	56.543400
1196.000000	56.316000
1195.000000	56.041600
1194.000000	55.701200
1193.000000	55.304100
1192.000000	54.855600
1191.000000	54.399800
1190.000000	53.997400
1189.000000	53.646000
1188.000000	53.399900
1187.000000	53.290000
1186.000000	53.290600
1185.000000	53.422200
1184.000000	53.694000
1183.000000	54.042200
1182.000000	54.500900
1181.000000	54.980200
1180.000000	55.450700
1179.000000	55.879400
1178.000000	56.266600
1177.000000	56.609600
1176.000000	56.902200
1175.000000	57.196300
1174.000000	57.481100
1173.000000	57.747400
1172.000000	58.071600
1171.000000	58.398100
1170.000000	58.727900
1169.000000	59.044300
1168.000000	59.385800
1167.000000	59.722800
1166.000000	60.069700
1165.000000	60.405200
1164.000000	60.790100
1163.000000	61.103900
1162.000000	61.457500
1161.000000	61.773000
1160.000000	62.104900
1159.000000	62.406100
1158.000000	62.706800
1157.000000	62.940800
1156.000000	63.142100
1155.000000	63.302900
1154.000000	63.375500
1153.000000	63.440800
1152.000000	63.444500
1151.000000	63.422400
1150.000000	63.393300
1149.000000	63.369000
1148.000000	63.384400
1147.000000	63.417000
1146.000000	63.524200
1145.000000	63.691600
1144.000000	63.928800
1143.000000	64.201900
1142.000000	64.488700
1141.000000	64.793900
1140.000000	65.108700
1139.000000	65.414300
1138.000000	65.743200
1137.000000	66.070500
1136.000000	66.412300
1135.000000	66.741100
1134.000000	67.057300
1133.000000	67.283500
1132.000000	67.507800
1131.000000	67.725600
1130.000000	67.921600
1129.000000	68.096800
1128.000000	68.221800
1127.000000	68.298900
1126.000000	68.371700
1125.000000	68.411800
1124.000000	68.461200
1123.000000	68.496800
1122.000000	68.517000
1121.000000	68.527600
1120.000000	68.514900
1119.000000	68.507600
1118.000000	68.499300
1117.000000	68.465900
1116.000000	68.432800
1115.000000	68.380600
1114.000000	68.341900
1113.000000	68.301000
1112.000000	68.242700
1111.000000	68.215900
1110.000000	68.170700
1109.000000	68.125600
1108.000000	68.062800
1107.000000	68.036300
1106.000000	67.970500
1105.000000	67.899100
1104.000000	67.873600
1103.000000	67.827000
1102.000000	67.777400
1101.000000	67.722900
1100.000000	67.648800
1099.000000	67.603400
1098.000000	67.555700
1097.000000	67.497900
1096.000000	67.415600
1095.000000	67.341000
1094.000000	67.285700
1093.000000	67.223600
1092.000000	67.151400
1091.000000	67.076300
1090.000000	66.982400
1089.000000	66.920900
1088.000000	66.839500
1087.000000	66.754000
1086.000000	66.676600
1085.000000	66.610100
1084.000000	66.523200
1083.000000	66.445200
1082.000000	66.358300
1081.000000	66.278600
1080.000000	66.198300
1079.000000	66.113500
1078.000000	66.035900
1077.000000	65.951700
1076.000000	65.871100
1075.000000	65.790400
1074.000000	65.701700
1073.000000	65.606900
1072.000000	65.514800
1071.000000	65.446700
1070.000000	65.354100
1069.000000	65.267600
1068.000000	65.178300
1067.000000	65.081000
1066.000000	64.995900
1065.000000	64.902100
1064.000000	64.809400
1063.000000	64.705700
1062.000000	64.613200
1061.000000	64.510600
1060.000000	64.424000
1059.000000	64.325500
1058.000000	64.226300
1057.000000	64.139100
1056.000000	64.045300
1055.000000	63.952900
1054.000000	63.873400
1053.000000	63.791500
1052.000000	63.689700
1051.000000	63.603100
1050.000000	63.536800
1049.000000	63.456300
1048.000000	63.391000
1047.000000	63.329200
1046.000000	63.271300
1045.000000	63.195500
1044.000000	63.131600
1043.000000	63.081700
1042.000000	63.006700
1041.000000	62.950400
1040.000000	62.906200
1039.000000	62.854600
1038.000000	62.805900
1037.000000	62.756100
1036.000000	62.684500
1035.000000	62.615800
1034.000000	62.574200
1033.000000	62.501400
1032.000000	62.433600
1031.000000	62.383200
1030.000000	62.312300
1029.000000	62.261800
1028.000000	62.218500
1027.000000	62.153800
1026.000000	62.077800
1025.000000	62.010500
1024.000000	61.941400
1023.000000	61.863800
1022.000000	61.808500
1021.000000	61.760800
1020.000000	61.699100
1019.000000	61.621100
1018.000000	61.564800
1017.000000	61.529500
1016.000000	61.484200
1015.000000	61.441900
1014.000000	61.390100
1013.000000	61.357800
1012.000000	61.348700
1011.000000	61.331400
1010.000000	61.313800
1009.000000	61.296200
1008.000000	61.292600
1007.000000	61.285900
1006.000000	61.289500
1005.000000	61.300100
1004.000000	61.306600
1003.000000	61.313500
1002.000000	61.299800
1001.000000	61.297300
1000.000000	61.318100
999.000000	61.341000
998.000000	61.356800
997.000000	61.359400
996.000000	61.362000
995.000000	61.390800
994.000000	61.428300
993.000000	61.461300
992.000000	61.501100
991.000000	61.534000
990.000000	61.587900
989.000000	61.650300
988.000000	61.696500
987.000000	61.730600
986.000000	61.793400
985.000000	61.861500
984.000000	61.923900
983.000000	61.982100
982.000000	62.040700
981.000000	62.127800
980.000000	62.187500
979.000000	62.235800
978.000000	62.317800
977.000000	62.383500
976.000000	62.454500
975.000000	62.508300
974.000000	62.590900
973.000000	62.648200
972.000000	62.717400
971.000000	62.794100
970.000000	62.855900
969.000000	62.893000
968.000000	62.948900
967.000000	63.039500
966.000000	63.107700
965.000000	63.191000
964.000000	63.266300
963.000000	63.318400
962.000000	63.402700
961.000000	63.481000
960.000000	63.533900
959.000000	63.617300
958.000000	63.712700
957.000000	63.770300
956.000000	63.824500
955.000000	63.911700
954.000000	63.970200
953.000000	64.053600
952.000000	64.125000
951.000000	64.164900
950.000000	64.237800
949.000000	64.297700
948.000000	64.358200
947.000000	64.460900
946.000000	64.535900
945.000000	64.610200
944.000000	64.730500
943.000000	64.803700
942.000000	64.896700
941.000000	64.970300
940.000000	65.099400
939.000000	65.188600
938.000000	65.254100
937.000000	65.341600
936.000000	65.412700
935.000000	65.562100
934.000000	65.639200
933.000000	65.731000
932.000000	65.812500
931.000000	65.936800
930.000000	66.015500
929.000000	66.089800
928.000000	66.167900
927.000000	66.312700
926.000000	66.375100
925.000000	66.427800
924.000000	66.520100
923.000000	66.595500
922.000000	66.666100
921.000000	66.765400
920.000000	66.890300
919.000000	66.959900
918.000000	67.054300
917.000000	67.102600
916.000000	67.165100
915.000000	67.252900
914.000000	67.285300
913.000000	67.366300
912.000000	67.434600
911.000000	67.507300
910.000000	67.598000
909.000000	67.667900
908.000000	67.725600
907.000000	67.825900
906.000000	67.890800
905.000000	67.972600
904.000000	67.994500
903.000000	68.095800
902.000000	68.166500
901.000000	68.248500
900.000000	68.324400
899.000000	68.396700
898.000000	68.422400
897.000000	68.404700
896.000000	68.470800
895.000000	68.527900
894.000000	68.604700
893.000000	68.626700
892.000000	68.613300
891.000000	68.669400
890.000000	68.630900
889.000000	68.692700
888.000000	68.749800
887.000000	68.769600
886.000000	68.701600
885.000000	68.709600
884.000000	68.640600
883.000000	68.640000
882.000000	68.568000
881.000000	68.531100
880.000000	68.431800
879.000000	68.399600
878.000000	68.186100
877.000000	67.961300
876.000000	67.790300
875.000000	67.693200
874.000000	67.394000
873.000000	67.093300
872.000000	66.932800
871.000000	67.013100
870.000000	67.184300
869.000000	67.406100
868.000000	67.601300
867.000000	67.816300
866.000000	68.028800
865.000000	68.221200
864.000000	68.419000
863.000000	68.619300
862.000000	68.831400
861.000000	69.023200
860.000000	69.224400
859.000000	69.478400
858.000000	70.930400
857.000000	69.616400
856.000000	69.325603
855.000000	70.015065
854.000000	69.371246
853.000000	70.055538
852.000000	70.523381
851.000000	70.208069
850.000000	70.774241
849.000000	70.554672
848.000000	71.148213
847.000000	71.379460
846.000000	71.530564
845.000000	71.897939
844.000000	72.029163
843.000000	72.377550
842.000000	72.519472
841.000000	72.722549
840.000000	73.060683
839.000000	73.492779
838.000000	73.602162
837.000000	73.745065
836.000000	74.501120
835.000000	74.802348
834.000000	75.012111
833.000000	75.242021
832.000000	75.419780
831.000000	75.804895
830.000000	76.171824
829.000000	76.394246
828.000000	76.729617
827.000000	77.117852
826.000000	77.560556
825.000000	77.938361
824.000000	78.187170
823.000000	78.654657
822.000000	78.944474
821.000000	79.414724
820.000000	79.721835
819.000000	79.910292
818.000000	80.370112
817.000000	80.794184
816.000000	81.093362
815.000000	81.335842
814.000000	81.741906
813.000000	82.027266
812.000000	82.252718
811.000000	82.492791
810.000000	82.825934
809.000000	83.036142
808.000000	83.352347
807.000000	83.766078
806.000000	84.015065
805.000000	84.317452
804.000000	84.493517
803.000000	84.717633
802.000000	84.991671
801.000000	85.373576
800.000000	85.426619
799.000000	85.565153
798.000000	85.892323
797.000000	86.046458
796.000000	86.228674
795.000000	86.453859
794.000000	86.602913
793.000000	86.712831
792.000000	86.780137
791.000000	86.946575
790.000000	87.067904
789.000000	87.258144
788.000000	87.358701
787.000000	87.450790
786.000000	87.560708
785.000000	87.654313
784.000000	87.696568
783.000000	87.663852
782.000000	87.693003
781.000000	87.891176
780.000000	87.963653
779.000000	88.022133
778.000000	87.933699
777.000000	87.775107
776.000000	88.005909
775.000000	87.985494
774.000000	87.889572
773.000000	87.883153
772.000000	87.975688
771.000000	87.928796
770.000000	87.863452
769.000000	87.916048
768.000000	87.941812
767.000000	87.845177
766.000000	87.705572
765.000000	87.614375
764.000000	87.639247
763.000000	87.598953
762.000000	87.607511
761.000000	87.541096
760.000000	87.418341
759.000000	87.351035
758.000000	87.306996
757.000000	87.240403
756.000000	87.167749
755.000000	87.094470
754.000000	86.907350
753.000000	86.776304
752.000000	86.720766
751.000000	86.667366
750.000000	86.565917
749.000000	86.399926
748.000000	86.300883
747.000000	86.132485
746.000000	85.956241
745.000000	85.758691
744.000000	85.557576
743.000000	85.336134
742.000000	85.117189
741.000000	85.045337
740.000000	84.839675
739.000000	84.622156
738.000000	84.438603
737.000000	84.255940
736.000000	84.046356
735.000000	83.766256
734.000000	83.541160
733.000000	83.342808
732.000000	83.140177
731.000000	82.862662
730.000000	82.613407
729.000000	82.370392
728.000000	82.107587
727.000000	81.852003
726.000000	81.584383
725.000000	81.367221
724.000000	81.021688
723.000000	80.708603
722.000000	80.551259
721.000000	80.313415
720.000000	79.940602
719.000000	79.685731
718.000000	79.412406
717.000000	79.121074
716.000000	78.845877
715.000000	78.561498
714.000000	78.240658
713.000000	78.016453
712.000000	77.690443
711.000000	77.329487
710.000000	76.982081
709.000000	76.646710
708.000000	76.356091
707.000000	76.004317
706.000000	75.647640
705.000000	75.308524
704.000000	75.008456
703.000000	74.708209
702.000000	74.403861
701.000000	74.093005
700.000000	73.767975
699.000000	73.406663
698.000000	73.111943
697.000000	72.780227
696.000000	72.406879
695.000000	72.089605
694.000000	71.805672
693.000000	71.495440
692.000000	71.115585
691.000000	70.772904
690.000000	70.439494
689.000000	70.088255
688.000000	69.767772
687.000000	69.411184
686.000000	69.065115
685.000000	68.741601
684.000000	68.380020
683.000000	68.047324
682.000000	67.676561
681.000000	67.314268
680.000000	67.056098
679.000000	66.753444
678.000000	66.389725
677.000000	66.062734
676.000000	65.728700
675.000000	65.398499
674.000000	65.077748
673.000000	64.747281
672.000000	64.479572
671.000000	64.153740
670.000000	63.805175
669.000000	63.508494
668.000000	63.224115
667.000000	62.904077
666.000000	62.554710
665.000000	62.263467
664.000000	61.961081
663.000000	61.704961
662.000000	61.440997
661.000000	61.143335
660.000000	60.834352
659.000000	60.655879
658.000000	60.404663
657.000000	60.186431
656.000000	59.987990
655.000000	59.781972
654.000000	59.623379
653.000000	59.432961
652.000000	59.249764
651.000000	59.072272
650.000000	58.873385
649.000000	58.627251
648.000000	58.447798
647.000000	58.194085
646.000000	57.996179
645.000000	57.764040
644.000000	57.549820
643.000000	57.284875
642.000000	57.047655
641.000000	56.813733
640.000000	56.606467
639.000000	56.383064
638.000000	56.200937
637.000000	55.992333
636.000000	55.753330
635.000000	55.591885
634.000000	55.455401
633.000000	55.245014
632.000000	55.133758
631.000000	55.013410
630.000000	54.907503
629.000000	54.826469
628.000000	54.796426
627.000000	54.789205
626.000000	54.775477
625.000000	54.832174
624.000000	54.888872
623.000000	55.059142
622.000000	55.295649
621.000000	55.503094
620.000000	55.863694
619.000000	56.241945
618.000000	56.607893
617.000000	57.073151
616.000000	57.590293
615.000000	58.117508
614.000000	58.714169
613.000000	59.242008
612.000000	59.806844
611.000000	60.468492
610.000000	61.007386
609.000000	61.608058
608.000000	62.190277
607.000000	62.776151
606.000000	63.294095
605.000000	63.842171
604.000000	64.366266
603.000000	64.925753
602.000000	65.372736
601.000000	65.841114
600.000000	66.257609
599.000000	66.678472
598.000000	67.096749
597.000000	67.485252
596.000000	67.852805
595.000000	68.231145
594.000000	68.597896
593.000000	68.919003
592.000000	69.200529
591.000000	69.495606
590.000000	69.761620
589.000000	69.979139
588.000000	70.230979
587.000000	70.386363
586.000000	70.552622
585.000000	70.766931
584.000000	70.902880
583.000000	71.021981
582.000000	71.131988
581.000000	71.217034
580.000000	71.319286
579.000000	71.393456
578.000000	71.505246
577.000000	71.506584
576.000000	71.557754
575.000000	71.610440
574.000000	71.599118
573.000000	71.602506
572.000000	71.595017
571.000000	71.564262
570.000000	71.496153
569.000000	71.370456
568.000000	71.283270
567.000000	71.174689
566.000000	71.056302
565.000000	70.904752
564.000000	70.763633
563.000000	70.536486
562.000000	70.310409
561.000000	70.155828
560.000000	69.956496
559.000000	69.736303
558.000000	69.487137
557.000000	69.243409
556.000000	68.990142
555.000000	68.730457
554.000000	68.425842
553.000000	68.124525
552.000000	67.758488
551.000000	67.409031
550.000000	67.048254
549.000000	66.649232
548.000000	66.216601
547.000000	65.786913
546.000000	65.314701
545.000000	64.807455
544.000000	64.287906
543.000000	63.762474
542.000000	63.200580
541.000000	62.609447
540.000000	62.016530
539.000000	61.403734
538.000000	60.732992
537.000000	60.083467
536.000000	59.450523
535.000000	58.771580
534.000000	58.066338
533.000000	57.319375
532.000000	56.628575
531.000000	55.871004
530.000000	55.137859
529.000000	54.380020
528.000000	53.617992
527.000000	52.882529
526.000000	52.108377
525.000000	51.331461
524.000000	50.571572
523.000000	49.759086
522.000000	48.989391
521.000000	48.211405
520.000000	47.434222
519.000000	46.666755
518.000000	45.921308
517.000000	45.221683
516.000000	44.512251
515.000000	43.798451
514.000000	43.073419
513.000000	42.380746
512.000000	41.726408
511.000000	41.096852
510.000000	40.452943
509.000000	39.866980
508.000000	39.309187
507.000000	38.741142
506.000000	38.167125
505.000000	37.656937
504.000000	37.136407
503.000000	36.663215
502.000000	36.196531
501.000000	35.755342
500.000000	35.320127
499.000000	34.882593
498.000000	34.476083
497.000000	34.102824
496.000000	33.752833
495.000000	33.382338
494.000000	33.062033
493.000000	32.734507
492.000000	32.393520
491.000000	32.076424
490.000000	31.759685
489.000000	31.463093
488.000000	31.173187
487.000000	30.876862
486.000000	30.566631
485.000000	30.268612
484.000000	29.965423
483.000000	29.643335
482.000000	29.327398
481.000000	29.007539
480.000000	28.695703
479.000000	28.383243
478.000000	28.053488
477.000000	27.710361
476.000000	27.388184
475.000000	27.061817
474.000000	26.737500
473.000000	26.393304
472.000000	26.047770
471.000000	25.719887
470.000000	25.413400
469.000000	25.094610
468.000000	24.766906
467.000000	24.455961
466.000000	24.147156
465.000000	23.874723
464.000000	23.598991
463.000000	23.334225
462.000000	23.089160
461.000000	22.840796
460.000000	22.629696
459.000000	22.449886
458.000000	22.307786
457.000000	22.167112
456.000000	22.052380
455.000000	21.974733
454.000000	21.880861
453.000000	21.831296
452.000000	21.798044
451.000000	21.781195
450.000000	21.777986
449.000000	21.760869
448.000000	21.766040
447.000000	21.760602
446.000000	21.788238
445.000000	21.822113
444.000000	21.827016
443.000000	21.805889
442.000000	21.775579
441.000000	21.757928
440.000000	21.708094
439.000000	21.660846
438.000000	21.633746
437.000000	21.588013
436.000000	21.497529
435.000000	21.397774
434.000000	21.301852
433.000000	21.175887
432.000000	21.054647
431.000000	20.935457
430.000000	20.774101
429.000000	20.591796
428.000000	20.438641
427.000000	20.274522
426.000000	20.083836
425.000000	19.898143
424.000000	19.690163
423.000000	19.480489
422.000000	19.258513
421.000000	18.998382
420.000000	18.733438
419.000000	18.476873
418.000000	18.218435
417.000000	17.952510
416.000000	17.667061
415.000000	17.398640
414.000000	17.104990
413.000000	16.757673
412.000000	16.450740
411.000000	16.124194
410.000000	15.785258
409.000000	15.452739
408.000000	15.119864
407.000000	14.785296
406.000000	14.428797
405.000000	14.092445
404.000000	13.758412
403.000000	13.394959
402.000000	13.037569
401.000000	12.668946
400.000000	12.303622
399.000000	11.940972
398.000000	11.593744
397.000000	11.262296
396.000000	10.920952
395.000000	10.569624
394.000000	10.226675
393.000000	9.908242
392.000000	9.595247
391.000000	9.284213
390.000000	8.998943
389.000000	8.711622
388.000000	8.437139
387.000000	8.212488
386.000000	7.979458
385.000000	7.737513
384.000000	7.539339
383.000000	7.321642
382.000000	7.132116
381.000000	6.944996
380.000000	6.779807
379.000000	6.643769
378.000000	6.498548
377.000000	6.361886
376.000000	6.334250
375.000000	6.064491
374.000000	5.798655
373.000000	5.664043
372.000000	5.566695
371.000000	5.717977
370.000000	5.590051
369.000000	5.483966
368.000000	5.446346
367.000000	5.623838
366.000000	5.549757
365.000000	5.432707
364.000000	5.347393
363.000000	5.336785
362.000000	5.425397
361.000000	5.282316
360.000000	5.258513
359.000000	5.373870
358.000000	5.280800
357.000000	5.278215
356.000000	4.985278
355.000000	5.000968
354.000000	5.159471
353.000000	5.152518
352.000000	5.119890
351.000000	4.963615
350.000000	5.173556
349.000000	5.258513
348.000000	5.035379
347.000000	4.827577
346.000000	4.829092
345.000000	5.056328
344.000000	5.099564
343.000000	4.844693
342.000000	4.985189
341.000000	5.155370
340.000000	5.308882
339.000000	5.043402
338.000000	4.798515
337.000000	5.036359
336.000000	5.417997
335.000000	5.290517
334.000000	4.936604
333.000000	4.733081
332.000000	5.129874
331.000000	5.067561
330.000000	5.158401
329.000000	4.998115
328.000000	5.083251
327.000000	5.403377
326.000000	5.345164
325.000000	5.114095
324.000000	4.998650
323.000000	4.605779
322.000000	5.320649
321.000000	5.375474
320.000000	5.287130
319.000000	4.365261
318.000000	5.142712
317.000000	5.720117
316.000000	4.978859
315.000000	4.873844
314.000000	4.958890
313.000000	4.925639
312.000000	4.909681
311.000000	4.949530
310.000000	4.894081
309.000000	4.945875
308.000000	4.912980
307.000000	4.972976
306.000000	4.970747
305.000000	4.932057
304.000000	4.951313
303.000000	4.993479
302.000000	4.977166
301.000000	4.981890
300.000000	5.012468
299.000000	4.972441
298.000000	4.960406
297.000000	4.959336
296.000000	4.975739
295.000000	5.032704
294.000000	4.975383
293.000000	5.028247
292.000000	4.985278
291.000000	4.998293
290.000000	5.013270
289.000000	5.012022
288.000000	5.048127
287.000000	5.055615
286.000000	5.015053
285.000000	5.115789
284.000000	5.071037
283.000000	5.120514
282.000000	5.111778
281.000000	5.122475
280.000000	5.148328
279.000000	5.098673
278.000000	5.128359
277.000000	5.211444
276.000000	5.164107
275.000000	5.169812
274.000000	5.181669
273.000000	5.149665
272.000000	5.134599
271.000000	5.181669
270.000000	5.246746
269.000000	5.238545
268.000000	5.246924
267.000000	5.266626
266.000000	5.237029
265.000000	5.310397
264.000000	5.338122
263.000000	5.413273
262.000000	5.423970
261.000000	5.415056
260.000000	5.426466
259.000000	5.411757
258.000000	5.438947
257.000000	5.468544
256.000000	5.514009
255.000000	5.507412
254.000000	5.524706
253.000000	5.565892
252.000000	5.530768
251.000000	5.529253
250.000000	5.542268
