PE UV       SUBTECH     SPECTRUM    ASCII       PEDS        4.00        
   -1
CICIMAUCR0004-2.Sample.ASC
24/05/03
14:52:45.00
24/05/03
14:52:45.00
Vinicio Soto Monge
C. kalinini
250,000000
1
Lambda 1050
1050L1511233
PerkinElmer UV WinLab 6.3.2.0749 / 2.02.05 Lambda 900 UV/VIS/NIR, Aug  7 2015 09:38:08

0
0
3350/servo 860,8/2
0
0
UV/VIS
1
1
1
DoubleDePol,CommonBeamDepol,RBeamAtt,SBeamAtt,60mm sphere, WB InGaAs Detector
0
0
0
0
Program
Program
3350/servo 860,8/2
3350/0,2 860,8/0,2
3350/0,2 860,8/0,2
0
15.00
 
 
 
0
 
860,8
319,2
860,8
Front
100
on
S:100 R:100
0
0
0
0
 
0
 
 
 
0
 
 
0
0
0
0
0
 
 
 
 
0
0


0
0
#HDR
-1
-1
#GR
nm
%R
1.0
0.0
2500,000000
-1,000000
2251
8
96,189800
5,469500
#DATA
2500.000000	8.561200
2499.000000	8.530300
2498.000000	8.566600
2497.000000	8.576200
2496.000000	8.502700
2495.000000	8.385800
2494.000000	8.480900
2493.000000	8.409800
2492.000000	8.403900
2491.000000	8.354400
2490.000000	8.251300
2489.000000	8.302700
2488.000000	8.324100
2487.000000	8.374200
2486.000000	8.405200
2485.000000	8.260800
2484.000000	8.280900
2483.000000	8.200300
2482.000000	8.253800
2481.000000	8.255400
2480.000000	8.248400
2479.000000	8.289400
2478.000000	8.281000
2477.000000	8.253000
2476.000000	8.249800
2475.000000	8.232800
2474.000000	8.249700
2473.000000	8.263400
2472.000000	8.304200
2471.000000	8.303600
2470.000000	8.298800
2469.000000	8.312000
2468.000000	8.316500
2467.000000	8.384900
2466.000000	8.364900
2465.000000	8.410200
2464.000000	8.429100
2463.000000	8.451900
2462.000000	8.487900
2461.000000	8.549300
2460.000000	8.587400
2459.000000	8.671500
2458.000000	8.729500
2457.000000	8.785500
2456.000000	8.859800
2455.000000	8.923700
2454.000000	8.983400
2453.000000	9.082200
2452.000000	9.176700
2451.000000	9.261700
2450.000000	9.362700
2449.000000	9.414000
2448.000000	9.490400
2447.000000	9.594400
2446.000000	9.666400
2445.000000	9.756700
2444.000000	9.825700
2443.000000	9.929600
2442.000000	9.996500
2441.000000	10.086600
2440.000000	10.168000
2439.000000	10.241900
2438.000000	10.323900
2437.000000	10.391600
2436.000000	10.469800
2435.000000	10.540600
2434.000000	10.610900
2433.000000	10.686200
2432.000000	10.750200
2431.000000	10.775000
2430.000000	10.839400
2429.000000	10.914800
2428.000000	10.963600
2427.000000	11.025400
2426.000000	11.043200
2425.000000	11.090800
2424.000000	11.123000
2423.000000	11.166600
2422.000000	11.196300
2421.000000	11.238100
2420.000000	11.266000
2419.000000	11.293400
2418.000000	11.317000
2417.000000	11.345300
2416.000000	11.374800
2415.000000	11.408300
2414.000000	11.422700
2413.000000	11.451000
2412.000000	11.485500
2411.000000	11.526300
2410.000000	11.553600
2409.000000	11.565000
2408.000000	11.584100
2407.000000	11.596500
2406.000000	11.622000
2405.000000	11.646900
2404.000000	11.669700
2403.000000	11.703600
2402.000000	11.721400
2401.000000	11.739100
2400.000000	11.770000
2399.000000	11.806100
2398.000000	11.845900
2397.000000	11.899700
2396.000000	11.936100
2395.000000	11.941200
2394.000000	11.957200
2393.000000	11.976700
2392.000000	12.003700
2391.000000	12.016500
2390.000000	12.047800
2389.000000	12.063600
2388.000000	12.052500
2387.000000	12.051200
2386.000000	12.068000
2385.000000	12.067900
2384.000000	12.067100
2383.000000	12.062400
2382.000000	12.039300
2381.000000	12.016500
2380.000000	12.004700
2379.000000	12.002000
2378.000000	11.980900
2377.000000	11.951400
2376.000000	11.923700
2375.000000	11.892900
2374.000000	11.873900
2373.000000	11.840200
2372.000000	11.784600
2371.000000	11.752700
2370.000000	11.719800
2369.000000	11.662400
2368.000000	11.604300
2367.000000	11.551700
2366.000000	11.488600
2365.000000	11.422700
2364.000000	11.362200
2363.000000	11.308700
2362.000000	11.245600
2361.000000	11.174100
2360.000000	11.116700
2359.000000	11.054800
2358.000000	11.001300
2357.000000	10.971000
2356.000000	10.931400
2355.000000	10.898000
2354.000000	10.884400
2353.000000	10.875400
2352.000000	10.862100
2351.000000	10.864600
2350.000000	10.896400
2349.000000	10.939500
2348.000000	10.967300
2347.000000	10.993200
2346.000000	11.036200
2345.000000	11.069100
2344.000000	11.095400
2343.000000	11.141500
2342.000000	11.166300
2341.000000	11.193900
2340.000000	11.205500
2339.000000	11.212000
2338.000000	11.232700
2337.000000	11.223400
2336.000000	11.187200
2335.000000	11.170000
2334.000000	11.151000
2333.000000	11.111600
2332.000000	11.054400
2331.000000	11.008700
2330.000000	10.957000
2329.000000	10.911500
2328.000000	10.847800
2327.000000	10.772300
2326.000000	10.684500
2325.000000	10.599200
2324.000000	10.521400
2323.000000	10.417600
2322.000000	10.330100
2321.000000	10.218200
2320.000000	10.099300
2319.000000	9.990500
2318.000000	9.892300
2317.000000	9.761100
2316.000000	9.638900
2315.000000	9.538500
2314.000000	9.439300
2313.000000	9.353600
2312.000000	9.280000
2311.000000	9.190800
2310.000000	9.124500
2309.000000	9.047800
2308.000000	9.021500
2307.000000	9.017500
2306.000000	9.036100
2305.000000	9.036200
2304.000000	9.076500
2303.000000	9.140200
2302.000000	9.217800
2301.000000	9.299700
2300.000000	9.355700
2299.000000	9.445800
2298.000000	9.527100
2297.000000	9.607700
2296.000000	9.698000
2295.000000	9.779900
2294.000000	9.853000
2293.000000	9.909400
2292.000000	9.949900
2291.000000	9.979000
2290.000000	10.002300
2289.000000	10.027300
2288.000000	10.022000
2287.000000	10.015400
2286.000000	10.004400
2285.000000	9.971400
2284.000000	9.939600
2283.000000	9.902800
2282.000000	9.857900
2281.000000	9.838600
2280.000000	9.795600
2279.000000	9.752600
2278.000000	9.729300
2277.000000	9.680000
2276.000000	9.658800
2275.000000	9.658000
2274.000000	9.621800
2273.000000	9.631300
2272.000000	9.638500
2271.000000	9.670400
2270.000000	9.700300
2269.000000	9.777500
2268.000000	9.863400
2267.000000	9.958100
2266.000000	10.085400
2265.000000	10.223100
2264.000000	10.396700
2263.000000	10.575200
2262.000000	10.786500
2261.000000	11.014700
2260.000000	11.265800
2259.000000	11.499400
2258.000000	11.775100
2257.000000	12.032100
2256.000000	12.348200
2255.000000	12.591100
2254.000000	12.847900
2253.000000	13.104200
2252.000000	13.370000
2251.000000	13.591500
2250.000000	13.837500
2249.000000	14.051500
2248.000000	14.259400
2247.000000	14.480000
2246.000000	14.648000
2245.000000	14.796300
2244.000000	14.955100
2243.000000	15.141100
2242.000000	15.251900
2241.000000	15.366700
2240.000000	15.523600
2239.000000	15.607300
2238.000000	15.694200
2237.000000	15.809100
2236.000000	15.872500
2235.000000	15.933100
2234.000000	15.996200
2233.000000	16.061200
2232.000000	16.084000
2231.000000	16.129800
2230.000000	16.160400
2229.000000	16.156300
2228.000000	16.170400
2227.000000	16.173900
2226.000000	16.167500
2225.000000	16.150300
2224.000000	16.135600
2223.000000	16.121200
2222.000000	16.097200
2221.000000	16.054100
2220.000000	16.024300
2219.000000	15.961300
2218.000000	15.933700
2217.000000	15.902100
2216.000000	15.860500
2215.000000	15.831600
2214.000000	15.750100
2213.000000	15.734100
2212.000000	15.715900
2211.000000	15.665000
2210.000000	15.632500
2209.000000	15.603500
2208.000000	15.579700
2207.000000	15.561500
2206.000000	15.531700
2205.000000	15.537300
2204.000000	15.505600
2203.000000	15.495800
2202.000000	15.444300
2201.000000	15.444900
2200.000000	15.436700
2199.000000	15.433300
2198.000000	15.421100
2197.000000	15.407500
2196.000000	15.388200
2195.000000	15.409800
2194.000000	15.403200
2193.000000	15.385100
2192.000000	15.370300
2191.000000	15.371900
2190.000000	15.355500
2189.000000	15.349600
2188.000000	15.354000
2187.000000	15.325500
2186.000000	15.307000
2185.000000	15.292900
2184.000000	15.284400
2183.000000	15.269600
2182.000000	15.258400
2181.000000	15.258700
2180.000000	15.236100
2179.000000	15.242000
2178.000000	15.217100
2177.000000	15.209200
2176.000000	15.217800
2175.000000	15.209500
2174.000000	15.213900
2173.000000	15.220000
2172.000000	15.230000
2171.000000	15.236400
2170.000000	15.254700
2169.000000	15.279900
2168.000000	15.299400
2167.000000	15.308200
2166.000000	15.353000
2165.000000	15.361100
2164.000000	15.391300
2163.000000	15.418800
2162.000000	15.455400
2161.000000	15.485700
2160.000000	15.531000
2159.000000	15.569400
2158.000000	15.610500
2157.000000	15.675600
2156.000000	15.726900
2155.000000	15.785200
2154.000000	15.839700
2153.000000	15.903300
2152.000000	15.964600
2151.000000	16.038300
2150.000000	16.088800
2149.000000	16.142300
2148.000000	16.190100
2147.000000	16.257600
2146.000000	16.314700
2145.000000	16.373500
2144.000000	16.423600
2143.000000	16.484700
2142.000000	16.548900
2141.000000	16.590000
2140.000000	16.642700
2139.000000	16.698200
2138.000000	16.735800
2137.000000	16.782300
2136.000000	16.821500
2135.000000	16.851100
2134.000000	16.904000
2133.000000	16.944500
2132.000000	16.964900
2131.000000	16.988000
2130.000000	17.015100
2129.000000	17.032200
2128.000000	17.054800
2127.000000	17.062300
2126.000000	17.072800
2125.000000	17.087700
2124.000000	17.090000
2123.000000	17.081100
2122.000000	17.081900
2121.000000	17.078000
2120.000000	17.073200
2119.000000	17.073100
2118.000000	17.061900
2117.000000	17.040300
2116.000000	17.016800
2115.000000	17.001100
2114.000000	16.975400
2113.000000	16.952900
2112.000000	16.941700
2111.000000	16.924500
2110.000000	16.901000
2109.000000	16.870800
2108.000000	16.844600
2107.000000	16.810200
2106.000000	16.785300
2105.000000	16.765300
2104.000000	16.743500
2103.000000	16.721500
2102.000000	16.705500
2101.000000	16.685500
2100.000000	16.668400
2099.000000	16.638200
2098.000000	16.608200
2097.000000	16.600500
2096.000000	16.569200
2095.000000	16.559500
2094.000000	16.568300
2093.000000	16.546100
2092.000000	16.536900
2091.000000	16.543100
2090.000000	16.542200
2089.000000	16.525900
2088.000000	16.507900
2087.000000	16.509800
2086.000000	16.508000
2085.000000	16.494300
2084.000000	16.483400
2083.000000	16.477400
2082.000000	16.462000
2081.000000	16.424700
2080.000000	16.381900
2079.000000	16.360600
2078.000000	16.333500
2077.000000	16.303700
2076.000000	16.274800
2075.000000	16.251100
2074.000000	16.213000
2073.000000	16.179000
2072.000000	16.141400
2071.000000	16.089500
2070.000000	16.047500
2069.000000	16.006800
2068.000000	15.951800
2067.000000	15.902500
2066.000000	15.854700
2065.000000	15.833700
2064.000000	15.797500
2063.000000	15.762200
2062.000000	15.726100
2061.000000	15.704800
2060.000000	15.695200
2059.000000	15.685100
2058.000000	15.703400
2057.000000	15.722000
2056.000000	15.775400
2055.000000	15.814400
2054.000000	15.871300
2053.000000	15.951200
2052.000000	16.045900
2051.000000	16.160800
2050.000000	16.275400
2049.000000	16.413200
2048.000000	16.564900
2047.000000	16.746000
2046.000000	16.914400
2045.000000	17.081900
2044.000000	17.290700
2043.000000	17.487500
2042.000000	17.677200
2041.000000	17.873700
2040.000000	18.057500
2039.000000	18.242200
2038.000000	18.425100
2037.000000	18.606300
2036.000000	18.776300
2035.000000	18.923100
2034.000000	19.090900
2033.000000	19.270500
2032.000000	19.422200
2031.000000	19.549600
2030.000000	19.685100
2029.000000	19.820900
2028.000000	19.952600
2027.000000	20.077300
2026.000000	20.186300
2025.000000	20.296200
2024.000000	20.431200
2023.000000	20.511400
2022.000000	20.610000
2021.000000	20.713400
2020.000000	20.828900
2019.000000	20.918800
2018.000000	20.999800
2017.000000	21.075500
2016.000000	21.165700
2015.000000	21.222800
2014.000000	21.303100
2013.000000	21.354800
2012.000000	21.418000
2011.000000	21.479200
2010.000000	21.536200
2009.000000	21.571400
2008.000000	21.593000
2007.000000	21.612300
2006.000000	21.651200
2005.000000	21.665900
2004.000000	21.674400
2003.000000	21.663000
2002.000000	21.663900
2001.000000	21.660700
2000.000000	21.659500
1999.000000	21.654900
1998.000000	21.636900
1997.000000	21.579800
1996.000000	21.581000
1995.000000	21.536300
1994.000000	21.502900
1993.000000	21.447500
1992.000000	21.403300
1991.000000	21.356500
1990.000000	21.301200
1989.000000	21.227900
1988.000000	21.152200
1987.000000	21.097800
1986.000000	21.015800
1985.000000	20.947200
1984.000000	20.871000
1983.000000	20.797000
1982.000000	20.724900
1981.000000	20.657700
1980.000000	20.561400
1979.000000	20.499500
1978.000000	20.414500
1977.000000	20.328800
1976.000000	20.245200
1975.000000	20.160000
1974.000000	20.109900
1973.000000	20.035200
1972.000000	19.961000
1971.000000	19.882600
1970.000000	19.812100
1969.000000	19.757400
1968.000000	19.662800
1967.000000	19.583300
1966.000000	19.523100
1965.000000	19.467200
1964.000000	19.387500
1963.000000	19.308000
1962.000000	19.240400
1961.000000	19.178500
1960.000000	19.087400
1959.000000	19.021700
1958.000000	18.947900
1957.000000	18.864000
1956.000000	18.794500
1955.000000	18.722700
1954.000000	18.662700
1953.000000	18.585700
1952.000000	18.507500
1951.000000	18.442200
1950.000000	18.381000
1949.000000	18.344000
1948.000000	18.301100
1947.000000	18.244700
1946.000000	18.185500
1945.000000	18.161300
1944.000000	18.110200
1943.000000	18.106700
1942.000000	18.093000
1941.000000	18.094700
1940.000000	18.077600
1939.000000	18.090900
1938.000000	18.113100
1937.000000	18.125700
1936.000000	18.165300
1935.000000	18.204700
1934.000000	18.264100
1933.000000	18.329000
1932.000000	18.431800
1931.000000	18.508800
1930.000000	18.601400
1929.000000	18.730800
1928.000000	18.840700
1927.000000	18.967300
1926.000000	19.119800
1925.000000	19.276400
1924.000000	19.417300
1923.000000	19.578800
1922.000000	19.771300
1921.000000	20.008500
1920.000000	20.201400
1919.000000	20.388500
1918.000000	20.608400
1917.000000	20.811400
1916.000000	21.031800
1915.000000	21.300800
1914.000000	21.556600
1913.000000	21.833300
1912.000000	22.132400
1911.000000	22.392200
1910.000000	22.668000
1909.000000	22.921200
1908.000000	23.203800
1907.000000	23.554700
1906.000000	23.886600
1905.000000	24.238900
1904.000000	24.548700
1903.000000	24.867500
1902.000000	25.173900
1901.000000	25.540100
1900.000000	25.905000
1899.000000	26.262700
1898.000000	26.574800
1897.000000	26.910300
1896.000000	27.193900
1895.000000	27.478300
1894.000000	27.776700
1893.000000	28.082900
1892.000000	28.436800
1891.000000	28.772000
1890.000000	29.065500
1889.000000	29.376400
1888.000000	29.700000
1887.000000	30.006500
1886.000000	30.363400
1885.000000	30.750300
1884.000000	31.178200
1883.000000	31.584900
1882.000000	31.966900
1881.000000	32.388900
1880.000000	32.739700
1879.000000	33.077700
1878.000000	33.438600
1877.000000	33.760700
1876.000000	34.049400
1875.000000	34.338900
1874.000000	34.616800
1873.000000	34.852100
1872.000000	35.054000
1871.000000	35.224200
1870.000000	35.372000
1869.000000	35.497100
1868.000000	35.568000
1867.000000	35.623600
1866.000000	35.636000
1865.000000	35.635900
1864.000000	35.624500
1863.000000	35.636100
1862.000000	35.670100
1861.000000	35.689400
1860.000000	35.691300
1859.000000	35.691900
1858.000000	35.673700
1857.000000	35.626600
1856.000000	35.571500
1855.000000	35.519700
1854.000000	35.453800
1853.000000	35.374700
1852.000000	35.299400
1851.000000	35.226600
1850.000000	35.166600
1849.000000	35.116400
1848.000000	35.072200
1847.000000	34.976500
1846.000000	34.866200
1845.000000	34.782800
1844.000000	34.693800
1843.000000	34.646400
1842.000000	34.634800
1841.000000	34.620100
1840.000000	34.577200
1839.000000	34.505300
1838.000000	34.424600
1837.000000	34.357400
1836.000000	34.281400
1835.000000	34.184200
1834.000000	34.075900
1833.000000	33.984000
1832.000000	33.892700
1831.000000	33.799700
1830.000000	33.732100
1829.000000	33.649200
1828.000000	33.548300
1827.000000	33.470900
1826.000000	33.406300
1825.000000	33.335800
1824.000000	33.289800
1823.000000	33.263500
1822.000000	33.254500
1821.000000	33.263600
1820.000000	33.244300
1819.000000	33.194300
1818.000000	33.158300
1817.000000	33.137800
1816.000000	33.144700
1815.000000	33.133900
1814.000000	33.100400
1813.000000	33.075200
1812.000000	33.048400
1811.000000	33.004400
1810.000000	32.962500
1809.000000	32.906600
1808.000000	32.869000
1807.000000	32.835600
1806.000000	32.763900
1805.000000	32.702400
1804.000000	32.651300
1803.000000	32.594200
1802.000000	32.548200
1801.000000	32.488000
1800.000000	32.425300
1799.000000	32.385000
1798.000000	32.321900
1797.000000	32.257500
1796.000000	32.210300
1795.000000	32.163200
1794.000000	32.110200
1793.000000	32.040500
1792.000000	31.985500
1791.000000	31.926500
1790.000000	31.855000
1789.000000	31.796600
1788.000000	31.744100
1787.000000	31.667300
1786.000000	31.599400
1785.000000	31.515600
1784.000000	31.430500
1783.000000	31.348000
1782.000000	31.266000
1781.000000	31.186100
1780.000000	31.095000
1779.000000	30.990700
1778.000000	30.863300
1777.000000	30.742700
1776.000000	30.624500
1775.000000	30.486100
1774.000000	30.347500
1773.000000	30.196000
1772.000000	30.055600
1771.000000	29.892000
1770.000000	29.752300
1769.000000	29.627500
1768.000000	29.489600
1767.000000	29.378600
1766.000000	29.295200
1765.000000	29.235500
1764.000000	29.203000
1763.000000	29.195800
1762.000000	29.230500
1761.000000	29.284300
1760.000000	29.346700
1759.000000	29.410300
1758.000000	29.464600
1757.000000	29.520300
1756.000000	29.574900
1755.000000	29.592100
1754.000000	29.587800
1753.000000	29.577900
1752.000000	29.546900
1751.000000	29.500100
1750.000000	29.438900
1749.000000	29.352500
1748.000000	29.256500
1747.000000	29.113900
1746.000000	28.967000
1745.000000	28.780900
1744.000000	28.591600
1743.000000	28.367000
1742.000000	28.115300
1741.000000	27.850700
1740.000000	27.585500
1739.000000	27.332400
1738.000000	27.122600
1737.000000	26.936200
1736.000000	26.825200
1735.000000	26.741200
1734.000000	26.697600
1733.000000	26.703300
1732.000000	26.755200
1731.000000	26.820300
1730.000000	26.928900
1729.000000	27.034200
1728.000000	27.144700
1727.000000	27.232000
1726.000000	27.287300
1725.000000	27.371500
1724.000000	27.401300
1723.000000	27.427700
1722.000000	27.464100
1721.000000	27.498200
1720.000000	27.552800
1719.000000	27.615900
1718.000000	27.701000
1717.000000	27.790100
1716.000000	27.904500
1715.000000	28.005700
1714.000000	28.105100
1713.000000	28.177500
1712.000000	28.237000
1711.000000	28.297700
1710.000000	28.308200
1709.000000	28.332500
1708.000000	28.342900
1707.000000	28.330000
1706.000000	28.285500
1705.000000	28.252500
1704.000000	28.177400
1703.000000	28.076500
1702.000000	27.953100
1701.000000	27.804700
1700.000000	27.635800
1699.000000	27.463800
1698.000000	27.334100
1697.000000	27.241600
1696.000000	27.189500
1695.000000	27.212500
1694.000000	27.267200
1693.000000	27.367100
1692.000000	27.498500
1691.000000	27.630300
1690.000000	27.741300
1689.000000	27.812400
1688.000000	27.847300
1687.000000	27.877000
1686.000000	27.891300
1685.000000	27.969900
1684.000000	28.159400
1683.000000	28.457500
1682.000000	28.880100
1681.000000	29.385900
1680.000000	29.986900
1679.000000	30.541900
1678.000000	31.108500
1677.000000	31.585800
1676.000000	32.030900
1675.000000	32.417800
1674.000000	32.778200
1673.000000	33.060000
1672.000000	33.326000
1671.000000	33.561100
1670.000000	33.770000
1669.000000	33.951000
1668.000000	34.138200
1667.000000	34.271300
1666.000000	34.402700
1665.000000	34.497500
1664.000000	34.625500
1663.000000	34.720400
1662.000000	34.792900
1661.000000	34.877200
1660.000000	34.941200
1659.000000	34.998400
1658.000000	35.037300
1657.000000	35.067300
1656.000000	35.073200
1655.000000	35.076200
1654.000000	35.095000
1653.000000	35.076300
1652.000000	35.081000
1651.000000	35.073000
1650.000000	35.034500
1649.000000	35.002100
1648.000000	34.958500
1647.000000	34.930000
1646.000000	34.881900
1645.000000	34.831700
1644.000000	34.791300
1643.000000	34.748700
1642.000000	34.691600
1641.000000	34.636900
1640.000000	34.576800
1639.000000	34.529900
1638.000000	34.479600
1637.000000	34.397500
1636.000000	34.327800
1635.000000	34.276500
1634.000000	34.211500
1633.000000	34.139000
1632.000000	34.076400
1631.000000	33.991200
1630.000000	33.912500
1629.000000	33.842500
1628.000000	33.749500
1627.000000	33.667700
1626.000000	33.591400
1625.000000	33.516400
1624.000000	33.437200
1623.000000	33.360100
1622.000000	33.279900
1621.000000	33.204300
1620.000000	33.135700
1619.000000	33.061000
1618.000000	32.989600
1617.000000	32.919600
1616.000000	32.850000
1615.000000	32.773200
1614.000000	32.703800
1613.000000	32.624700
1612.000000	32.567000
1611.000000	32.498000
1610.000000	32.431800
1609.000000	32.360900
1608.000000	32.287900
1607.000000	32.208000
1606.000000	32.141000
1605.000000	32.073500
1604.000000	31.990400
1603.000000	31.924900
1602.000000	31.850100
1601.000000	31.774000
1600.000000	31.710700
1599.000000	31.644400
1598.000000	31.582600
1597.000000	31.524400
1596.000000	31.458600
1595.000000	31.399400
1594.000000	31.350100
1593.000000	31.304700
1592.000000	31.252200
1591.000000	31.208100
1590.000000	31.171500
1589.000000	31.123900
1588.000000	31.073900
1587.000000	31.049400
1586.000000	31.014700
1585.000000	30.987000
1584.000000	30.971200
1583.000000	30.936300
1582.000000	30.905800
1581.000000	30.890900
1580.000000	30.885200
1579.000000	30.879900
1578.000000	30.875900
1577.000000	30.891700
1576.000000	30.898100
1575.000000	30.902800
1574.000000	30.929800
1573.000000	30.940800
1572.000000	30.959200
1571.000000	30.992900
1570.000000	31.026200
1569.000000	31.068600
1568.000000	31.112400
1567.000000	31.139100
1566.000000	31.163400
1565.000000	31.213800
1564.000000	31.252500
1563.000000	31.282200
1562.000000	31.319000
1561.000000	31.346500
1560.000000	31.365200
1559.000000	31.388500
1558.000000	31.414600
1557.000000	31.423600
1556.000000	31.415100
1555.000000	31.418500
1554.000000	31.430900
1553.000000	31.412000
1552.000000	31.381300
1551.000000	31.358800
1550.000000	31.339400
1549.000000	31.320800
1548.000000	31.310300
1547.000000	31.291800
1546.000000	31.281000
1545.000000	31.295100
1544.000000	31.297300
1543.000000	31.284500
1542.000000	31.282500
1541.000000	31.281400
1540.000000	31.287500
1539.000000	31.305500
1538.000000	31.316100
1537.000000	31.323900
1536.000000	31.326900
1535.000000	31.336300
1534.000000	31.342400
1533.000000	31.334100
1532.000000	31.331300
1531.000000	31.328900
1530.000000	31.324100
1529.000000	31.302100
1528.000000	31.298300
1527.000000	31.296700
1526.000000	31.277000
1525.000000	31.268000
1524.000000	31.239700
1523.000000	31.234400
1522.000000	31.221500
1521.000000	31.201400
1520.000000	31.183100
1519.000000	31.158100
1518.000000	31.132700
1517.000000	31.123300
1516.000000	31.101300
1515.000000	31.088000
1514.000000	31.062500
1513.000000	31.037000
1512.000000	31.008800
1511.000000	30.988600
1510.000000	30.962800
1509.000000	30.930200
1508.000000	30.901100
1507.000000	30.863700
1506.000000	30.836100
1505.000000	30.823300
1504.000000	30.805200
1503.000000	30.795100
1502.000000	30.786600
1501.000000	30.769700
1500.000000	30.766400
1499.000000	30.757400
1498.000000	30.738100
1497.000000	30.743000
1496.000000	30.760400
1495.000000	30.773900
1494.000000	30.787200
1493.000000	30.804000
1492.000000	30.833800
1491.000000	30.850400
1490.000000	30.860100
1489.000000	30.903500
1488.000000	30.918500
1487.000000	30.967900
1486.000000	30.977200
1485.000000	30.981300
1484.000000	31.018800
1483.000000	31.073500
1482.000000	31.112200
1481.000000	31.163000
1480.000000	31.224000
1479.000000	31.269700
1478.000000	31.322900
1477.000000	31.369500
1476.000000	31.438400
1475.000000	31.523300
1474.000000	31.603100
1473.000000	31.670900
1472.000000	31.739400
1471.000000	31.818300
1470.000000	31.891200
1469.000000	31.945200
1468.000000	32.017100
1467.000000	32.104400
1466.000000	32.167700
1465.000000	32.253500
1464.000000	32.338200
1463.000000	32.427700
1462.000000	32.544200
1461.000000	32.641500
1460.000000	32.741100
1459.000000	32.855100
1458.000000	32.956300
1457.000000	33.076500
1456.000000	33.222100
1455.000000	33.340000
1454.000000	33.459200
1453.000000	33.603400
1452.000000	33.762300
1451.000000	33.874400
1450.000000	33.989200
1449.000000	34.122400
1448.000000	34.300100
1447.000000	34.446900
1446.000000	34.613000
1445.000000	34.768100
1444.000000	34.888300
1443.000000	35.048200
1442.000000	35.232800
1441.000000	35.360500
1440.000000	35.521200
1439.000000	35.668800
1438.000000	35.834600
1437.000000	35.950700
1436.000000	36.113700
1435.000000	36.273600
1434.000000	36.430500
1433.000000	36.594000
1432.000000	36.741300
1431.000000	36.908100
1430.000000	37.093500
1429.000000	37.313400
1428.000000	37.514800
1427.000000	37.718000
1426.000000	37.969700
1425.000000	38.224100
1424.000000	38.486800
1423.000000	38.702200
1422.000000	38.940600
1421.000000	39.205300
1420.000000	39.477300
1419.000000	39.712700
1418.000000	39.910200
1417.000000	40.137100
1416.000000	40.386600
1415.000000	40.671600
1414.000000	40.871900
1413.000000	41.048200
1412.000000	41.250200
1411.000000	41.518100
1410.000000	41.872800
1409.000000	42.215200
1408.000000	42.552500
1407.000000	42.895100
1406.000000	43.278500
1405.000000	43.640800
1404.000000	44.001400
1403.000000	44.385900
1402.000000	44.745400
1401.000000	45.154400
1400.000000	45.445400
1399.000000	45.645200
1398.000000	45.805300
1397.000000	46.023000
1396.000000	46.242800
1395.000000	46.354200
1394.000000	46.403400
1393.000000	46.520400
1392.000000	46.663700
1391.000000	46.804200
1390.000000	46.938100
1389.000000	47.173500
1388.000000	47.423200
1387.000000	47.673000
1386.000000	47.968800
1385.000000	48.310500
1384.000000	48.606200
1383.000000	48.920700
1382.000000	49.135800
1381.000000	49.248200
1380.000000	49.271400
1379.000000	49.294300
1378.000000	49.300100
1377.000000	49.384300
1376.000000	49.516700
1375.000000	49.714700
1374.000000	50.001600
1373.000000	50.345500
1372.000000	50.705600
1371.000000	51.063500
1370.000000	51.383400
1369.000000	51.688700
1368.000000	51.978300
1367.000000	52.204900
1366.000000	52.403800
1365.000000	52.626100
1364.000000	52.778400
1363.000000	52.950700
1362.000000	53.081800
1361.000000	53.150900
1360.000000	53.147600
1359.000000	53.245000
1358.000000	53.371200
1357.000000	53.592500
1356.000000	53.990100
1355.000000	54.517200
1354.000000	55.076800
1353.000000	55.626500
1352.000000	56.301300
1351.000000	56.934200
1350.000000	57.492800
1349.000000	58.012100
1348.000000	58.488100
1347.000000	58.909800
1346.000000	59.287400
1345.000000	59.695600
1344.000000	60.082300
1343.000000	60.416100
1342.000000	60.746500
1341.000000	61.057800
1340.000000	61.344500
1339.000000	61.629200
1338.000000	61.898000
1337.000000	62.144600
1336.000000	62.379100
1335.000000	62.593300
1334.000000	62.814000
1333.000000	63.008900
1332.000000	63.192300
1331.000000	63.379700
1330.000000	63.539200
1329.000000	63.688000
1328.000000	63.820500
1327.000000	63.952700
1326.000000	64.089600
1325.000000	64.209000
1324.000000	64.306000
1323.000000	64.409700
1322.000000	64.513700
1321.000000	64.606100
1320.000000	64.682100
1319.000000	64.754300
1318.000000	64.816000
1317.000000	64.893700
1316.000000	64.973000
1315.000000	65.047100
1314.000000	65.095300
1313.000000	65.134400
1312.000000	65.183900
1311.000000	65.238300
1310.000000	65.278000
1309.000000	65.303900
1308.000000	65.324200
1307.000000	65.338200
1306.000000	65.342400
1305.000000	65.344400
1304.000000	65.338500
1303.000000	65.318900
1302.000000	65.301700
1301.000000	65.279800
1300.000000	65.254300
1299.000000	65.231000
1298.000000	65.196000
1297.000000	65.153800
1296.000000	65.129000
1295.000000	65.092500
1294.000000	65.047500
1293.000000	65.012800
1292.000000	64.966200
1291.000000	64.901400
1290.000000	64.836600
1289.000000	64.759100
1288.000000	64.685700
1287.000000	64.612300
1286.000000	64.518800
1285.000000	64.417300
1284.000000	64.317900
1283.000000	64.223700
1282.000000	64.124100
1281.000000	64.026900
1280.000000	63.929000
1279.000000	63.822100
1278.000000	63.731900
1277.000000	63.653200
1276.000000	63.566600
1275.000000	63.484000
1274.000000	63.413800
1273.000000	63.345000
1272.000000	63.283600
1271.000000	63.214300
1270.000000	63.140900
1269.000000	63.083000
1268.000000	63.022200
1267.000000	62.946100
1266.000000	62.874300
1265.000000	62.795700
1264.000000	62.743500
1263.000000	62.686400
1262.000000	62.624400
1261.000000	62.561100
1260.000000	62.498500
1259.000000	62.431000
1258.000000	62.350100
1257.000000	62.266900
1256.000000	62.193200
1255.000000	62.121800
1254.000000	62.036900
1253.000000	61.942700
1252.000000	61.861900
1251.000000	61.754200
1250.000000	61.653300
1249.000000	61.519100
1248.000000	61.400200
1247.000000	61.281200
1246.000000	61.139200
1245.000000	60.982300
1244.000000	60.800500
1243.000000	60.631100
1242.000000	60.461200
1241.000000	60.277500
1240.000000	60.078700
1239.000000	59.898800
1238.000000	59.697400
1237.000000	59.507300
1236.000000	59.303500
1235.000000	59.089000
1234.000000	58.890700
1233.000000	58.656700
1232.000000	58.459200
1231.000000	58.258800
1230.000000	58.050100
1229.000000	57.821500
1228.000000	57.621400
1227.000000	57.416700
1226.000000	57.215400
1225.000000	57.015100
1224.000000	56.817000
1223.000000	56.625500
1222.000000	56.432200
1221.000000	56.253200
1220.000000	56.086900
1219.000000	55.913200
1218.000000	55.785700
1217.000000	55.655300
1216.000000	55.515400
1215.000000	55.387000
1214.000000	55.261700
1213.000000	55.156200
1212.000000	55.037600
1211.000000	54.914200
1210.000000	54.843000
1209.000000	54.758400
1208.000000	54.681800
1207.000000	54.624000
1206.000000	54.589300
1205.000000	54.549300
1204.000000	54.533700
1203.000000	54.508900
1202.000000	54.469200
1201.000000	54.416900
1200.000000	54.363500
1199.000000	54.260300
1198.000000	54.126800
1197.000000	53.929500
1196.000000	53.703500
1195.000000	53.395900
1194.000000	53.041100
1193.000000	52.619900
1192.000000	52.159000
1191.000000	51.673000
1190.000000	51.254500
1189.000000	50.921500
1188.000000	50.691200
1187.000000	50.578400
1186.000000	50.597200
1185.000000	50.748300
1184.000000	51.025000
1183.000000	51.418100
1182.000000	51.885900
1181.000000	52.359200
1180.000000	52.860000
1179.000000	53.272500
1178.000000	53.672400
1177.000000	54.006600
1176.000000	54.320900
1175.000000	54.592600
1174.000000	54.896900
1173.000000	55.218300
1172.000000	55.557000
1171.000000	55.889500
1170.000000	56.259300
1169.000000	56.592000
1168.000000	56.944800
1167.000000	57.306800
1166.000000	57.695000
1165.000000	58.089900
1164.000000	58.469100
1163.000000	58.851500
1162.000000	59.222100
1161.000000	59.576600
1160.000000	59.933700
1159.000000	60.276800
1158.000000	60.577900
1157.000000	60.851000
1156.000000	61.076000
1155.000000	61.213900
1154.000000	61.285100
1153.000000	61.323700
1152.000000	61.317400
1151.000000	61.266600
1150.000000	61.206000
1149.000000	61.164400
1148.000000	61.133700
1147.000000	61.177400
1146.000000	61.315000
1145.000000	61.492700
1144.000000	61.750300
1143.000000	62.058000
1142.000000	62.361000
1141.000000	62.711700
1140.000000	63.062400
1139.000000	63.416000
1138.000000	63.791300
1137.000000	64.178000
1136.000000	64.564000
1135.000000	64.941700
1134.000000	65.280700
1133.000000	65.532700
1132.000000	65.790200
1131.000000	66.052600
1130.000000	66.283800
1129.000000	66.432600
1128.000000	66.568100
1127.000000	66.658600
1126.000000	66.744500
1125.000000	66.809300
1124.000000	66.868200
1123.000000	66.917200
1122.000000	66.961800
1121.000000	66.965400
1120.000000	66.990000
1119.000000	66.974700
1118.000000	66.963700
1117.000000	66.948200
1116.000000	66.908900
1115.000000	66.873700
1114.000000	66.841200
1113.000000	66.805300
1112.000000	66.766800
1111.000000	66.729300
1110.000000	66.692700
1109.000000	66.650600
1108.000000	66.608800
1107.000000	66.558100
1106.000000	66.505900
1105.000000	66.474000
1104.000000	66.415300
1103.000000	66.366100
1102.000000	66.301100
1101.000000	66.239400
1100.000000	66.169700
1099.000000	66.103400
1098.000000	66.020600
1097.000000	65.953100
1096.000000	65.870000
1095.000000	65.789300
1094.000000	65.707700
1093.000000	65.617600
1092.000000	65.520900
1091.000000	65.410800
1090.000000	65.333700
1089.000000	65.228300
1088.000000	65.136500
1087.000000	65.033300
1086.000000	64.924700
1085.000000	64.834800
1084.000000	64.723700
1083.000000	64.621200
1082.000000	64.518000
1081.000000	64.430600
1080.000000	64.334900
1079.000000	64.243900
1078.000000	64.154400
1077.000000	64.058800
1076.000000	63.971300
1075.000000	63.884400
1074.000000	63.805300
1073.000000	63.708100
1072.000000	63.624000
1071.000000	63.550900
1070.000000	63.459000
1069.000000	63.384800
1068.000000	63.305400
1067.000000	63.219100
1066.000000	63.134500
1065.000000	63.052100
1064.000000	62.965000
1063.000000	62.906800
1062.000000	62.824800
1061.000000	62.743700
1060.000000	62.659800
1059.000000	62.577100
1058.000000	62.501600
1057.000000	62.418600
1056.000000	62.321000
1055.000000	62.236800
1054.000000	62.161200
1053.000000	62.072200
1052.000000	61.998700
1051.000000	61.932500
1050.000000	61.845000
1049.000000	61.767800
1048.000000	61.699600
1047.000000	61.639500
1046.000000	61.560100
1045.000000	61.482600
1044.000000	61.424500
1043.000000	61.351700
1042.000000	61.268600
1041.000000	61.197600
1040.000000	61.132700
1039.000000	61.065700
1038.000000	60.978800
1037.000000	60.894300
1036.000000	60.817600
1035.000000	60.741800
1034.000000	60.663300
1033.000000	60.562200
1032.000000	60.462800
1031.000000	60.377400
1030.000000	60.279400
1029.000000	60.186800
1028.000000	60.101300
1027.000000	59.999200
1026.000000	59.899400
1025.000000	59.804700
1024.000000	59.712300
1023.000000	59.615000
1022.000000	59.525300
1021.000000	59.441400
1020.000000	59.364800
1019.000000	59.277100
1018.000000	59.187600
1017.000000	59.132000
1016.000000	59.069400
1015.000000	59.001500
1014.000000	58.969200
1013.000000	58.924800
1012.000000	58.883500
1011.000000	58.863600
1010.000000	58.837600
1009.000000	58.823300
1008.000000	58.810500
1007.000000	58.789900
1006.000000	58.769600
1005.000000	58.758900
1004.000000	58.745600
1003.000000	58.738300
1002.000000	58.728500
1001.000000	58.706700
1000.000000	58.705400
999.000000	58.695800
998.000000	58.685500
997.000000	58.693800
996.000000	58.695900
995.000000	58.694800
994.000000	58.696400
993.000000	58.693300
992.000000	58.702000
991.000000	58.702700
990.000000	58.699300
989.000000	58.694300
988.000000	58.717200
987.000000	58.730700
986.000000	58.729600
985.000000	58.748700
984.000000	58.774100
983.000000	58.784500
982.000000	58.791700
981.000000	58.805100
980.000000	58.828400
979.000000	58.826000
978.000000	58.845900
977.000000	58.855500
976.000000	58.886100
975.000000	58.889200
974.000000	58.899600
973.000000	58.921600
972.000000	58.944600
971.000000	58.941500
970.000000	58.940900
969.000000	58.972700
968.000000	59.015700
967.000000	59.025100
966.000000	59.051600
965.000000	59.074000
964.000000	59.113300
963.000000	59.148700
962.000000	59.201900
961.000000	59.258900
960.000000	59.304000
959.000000	59.364100
958.000000	59.428400
957.000000	59.471200
956.000000	59.509400
955.000000	59.555700
954.000000	59.600900
953.000000	59.683400
952.000000	59.725400
951.000000	59.766400
950.000000	59.812200
949.000000	59.867000
948.000000	59.916300
947.000000	59.994600
946.000000	60.045900
945.000000	60.092200
944.000000	60.170700
943.000000	60.235000
942.000000	60.269400
941.000000	60.337800
940.000000	60.422400
939.000000	60.493600
938.000000	60.550400
937.000000	60.630800
936.000000	60.685900
935.000000	60.806600
934.000000	60.885800
933.000000	60.953600
932.000000	61.017200
931.000000	61.098300
930.000000	61.214000
929.000000	61.268500
928.000000	61.314400
927.000000	61.423700
926.000000	61.466200
925.000000	61.522800
924.000000	61.578200
923.000000	61.643600
922.000000	61.684300
921.000000	61.755400
920.000000	61.804700
919.000000	61.930900
918.000000	61.961600
917.000000	61.999600
916.000000	62.025400
915.000000	62.101900
914.000000	62.118000
913.000000	62.190200
912.000000	62.230100
911.000000	62.284100
910.000000	62.330600
909.000000	62.372600
908.000000	62.453300
907.000000	62.527500
906.000000	62.559600
905.000000	62.641600
904.000000	62.730500
903.000000	62.807600
902.000000	62.877900
901.000000	62.970000
900.000000	63.073600
899.000000	63.167600
898.000000	63.222600
897.000000	63.224100
896.000000	63.318800
895.000000	63.376300
894.000000	63.437200
893.000000	63.414600
892.000000	63.489400
891.000000	63.522600
890.000000	63.543300
889.000000	63.515700
888.000000	63.529400
887.000000	63.520500
886.000000	63.504500
885.000000	63.478900
884.000000	63.444500
883.000000	63.388500
882.000000	63.346300
881.000000	63.254400
880.000000	63.205600
879.000000	63.099700
878.000000	63.071600
877.000000	62.907200
876.000000	62.721900
875.000000	62.465400
874.000000	62.260700
873.000000	62.102100
872.000000	62.056800
871.000000	62.253700
870.000000	62.470600
869.000000	62.690300
868.000000	62.919000
867.000000	63.157100
866.000000	63.385100
865.000000	63.625200
864.000000	63.904600
863.000000	64.137700
862.000000	64.410900
861.000000	64.654000
860.000000	64.938000
859.000000	65.212600
858.000000	66.513100
857.000000	65.307940
856.000000	65.209983
855.000000	65.413820
854.000000	66.033343
853.000000	66.125988
852.000000	66.722282
851.000000	67.030828
850.000000	67.093671
849.000000	67.360532
848.000000	67.729760
847.000000	68.206400
846.000000	68.576529
845.000000	69.030029
844.000000	69.475967
843.000000	69.726981
842.000000	69.725721
841.000000	70.126912
840.000000	70.555022
839.000000	70.992317
838.000000	71.478950
837.000000	71.679365
836.000000	72.057507
835.000000	72.420704
834.000000	72.648489
833.000000	73.197066
832.000000	73.672084
831.000000	73.928050
830.000000	74.278642
829.000000	74.653003
828.000000	75.264693
827.000000	75.688662
826.000000	76.031781
825.000000	76.615201
824.000000	76.913303
823.000000	77.423794
822.000000	77.667606
821.000000	77.982094
820.000000	78.584511
819.000000	78.944646
818.000000	79.377079
817.000000	79.699490
816.000000	80.051072
815.000000	80.440919
814.000000	81.060081
813.000000	81.290568
812.000000	81.740467
811.000000	82.076654
810.000000	82.341083
809.000000	82.658182
808.000000	82.951692
807.000000	83.332896
806.000000	83.626316
805.000000	83.749662
804.000000	84.196951
803.000000	84.335513
802.000000	84.470924
801.000000	84.728781
800.000000	84.941621
799.000000	85.279247
798.000000	85.481734
797.000000	85.590765
796.000000	85.655319
795.000000	85.769752
794.000000	85.876622
793.000000	85.920649
792.000000	86.136010
791.000000	86.250983
790.000000	86.253774
789.000000	86.301042
788.000000	86.276372
787.000000	86.345068
786.000000	86.370458
785.000000	86.463373
784.000000	86.449057
783.000000	86.414484
782.000000	86.522345
781.000000	86.483270
780.000000	86.452388
779.000000	86.501187
778.000000	86.518473
777.000000	86.529367
776.000000	86.567182
775.000000	86.603375
774.000000	86.539181
773.000000	86.534949
772.000000	86.551426
771.000000	86.518653
770.000000	86.484080
769.000000	86.381892
768.000000	86.424748
767.000000	86.463283
766.000000	86.423758
765.000000	86.405211
764.000000	86.389185
763.000000	86.365596
762.000000	86.247021
761.000000	86.202094
760.000000	86.216500
759.000000	86.126556
758.000000	86.052458
757.000000	85.880944
756.000000	85.849252
755.000000	85.856725
754.000000	85.675937
753.000000	85.614083
752.000000	85.558352
751.000000	85.461836
750.000000	85.382966
749.000000	85.305357
748.000000	85.183001
747.000000	85.016529
746.000000	84.890931
745.000000	84.718607
744.000000	84.550784
743.000000	84.350008
742.000000	84.209105
741.000000	84.065141
740.000000	83.779374
739.000000	83.546816
738.000000	83.380884
737.000000	83.095296
736.000000	82.835189
735.000000	82.628291
734.000000	82.316594
733.000000	81.937641
732.000000	81.633867
731.000000	81.376640
730.000000	80.981572
729.000000	80.541667
728.000000	80.206561
727.000000	79.808521
726.000000	79.396526
725.000000	78.936273
724.000000	78.449550
723.000000	77.964718
722.000000	77.497622
721.000000	77.076534
720.000000	76.608718
719.000000	76.175655
718.000000	75.686051
717.000000	75.200949
716.000000	74.739886
715.000000	74.256404
714.000000	73.781745
713.000000	73.320772
712.000000	72.919761
711.000000	72.533786
710.000000	72.168879
709.000000	71.831072
708.000000	71.428261
707.000000	71.068756
706.000000	70.708260
705.000000	70.387019
704.000000	70.027604
703.000000	69.731573
702.000000	69.446346
701.000000	69.139961
700.000000	68.795311
699.000000	68.525119
698.000000	68.240973
697.000000	67.993109
696.000000	67.774867
695.000000	67.595970
694.000000	67.326049
693.000000	66.989502
692.000000	66.738038
691.000000	66.453891
690.000000	66.255366
689.000000	66.058552
688.000000	65.769994
687.000000	65.556433
686.000000	65.311631
685.000000	65.134355
684.000000	64.939251
683.000000	64.716598
682.000000	64.510150
681.000000	64.346649
680.000000	64.138941
679.000000	63.926191
678.000000	63.795732
677.000000	63.623317
676.000000	63.472510
675.000000	63.309999
674.000000	63.121738
673.000000	62.984707
672.000000	62.873065
671.000000	62.719827
670.000000	62.602243
669.000000	62.511849
668.000000	62.417043
667.000000	62.266957
666.000000	62.183315
665.000000	62.022605
664.000000	61.937343
663.000000	61.850190
662.000000	61.735667
661.000000	61.626726
660.000000	61.505541
659.000000	61.354194
658.000000	61.239671
657.000000	61.147476
656.000000	60.990097
655.000000	60.838750
654.000000	60.730709
653.000000	60.564147
652.000000	60.466010
651.000000	60.304219
650.000000	60.113347
649.000000	59.987480
648.000000	59.852159
647.000000	59.628335
646.000000	59.465914
645.000000	59.244071
644.000000	59.092183
643.000000	58.870970
642.000000	58.732588
641.000000	58.530822
640.000000	58.350395
639.000000	58.199228
638.000000	58.028253
637.000000	57.888341
636.000000	57.746898
635.000000	57.642278
634.000000	57.548643
633.000000	57.446995
632.000000	57.451947
631.000000	57.364884
630.000000	57.335983
629.000000	57.421425
628.000000	57.394685
627.000000	57.483999
626.000000	57.627873
625.000000	57.756621
624.000000	57.892212
623.000000	58.078853
622.000000	58.325725
621.000000	58.554951
620.000000	58.838198
619.000000	59.161870
618.000000	59.422878
617.000000	59.846487
616.000000	60.248398
615.000000	60.593408
614.000000	61.007293
613.000000	61.513103
612.000000	61.919246
611.000000	62.415063
610.000000	62.843714
609.000000	63.347813
608.000000	63.766561
607.000000	64.226183
606.000000	64.741897
605.000000	65.141738
604.000000	65.641695
603.000000	66.115003
602.000000	66.531590
601.000000	66.997785
600.000000	67.364493
599.000000	67.805659
598.000000	68.146977
597.000000	68.541416
596.000000	68.828533
595.000000	69.150855
594.000000	69.489652
593.000000	69.805311
592.000000	70.066949
591.000000	70.308600
590.000000	70.500912
589.000000	70.605531
588.000000	70.767862
587.000000	70.946039
586.000000	71.025899
585.000000	71.094415
584.000000	71.138352
583.000000	71.171574
582.000000	71.203266
581.000000	71.166622
580.000000	71.117104
579.000000	71.065334
578.000000	71.032382
577.000000	70.886167
576.000000	70.760570
575.000000	70.642085
574.000000	70.483806
573.000000	70.344883
572.000000	70.150590
571.000000	70.012569
570.000000	69.808192
569.000000	69.619121
568.000000	69.375129
567.000000	69.210817
566.000000	68.976819
565.000000	68.693393
564.000000	68.451202
563.000000	68.190284
562.000000	67.906227
561.000000	67.547712
560.000000	67.216748
559.000000	66.778283
558.000000	66.377452
557.000000	65.985715
556.000000	65.635753
555.000000	65.177391
554.000000	64.733434
553.000000	64.224293
552.000000	63.729106
551.000000	63.232750
550.000000	62.699479
549.000000	62.155945
548.000000	61.609710
547.000000	61.092645
546.000000	60.527413
545.000000	59.913382
544.000000	59.277833
543.000000	58.692523
542.000000	58.036987
541.000000	57.380460
540.000000	56.719972
539.000000	56.074969
538.000000	55.372705
537.000000	54.682596
536.000000	53.951341
535.000000	53.238903
534.000000	52.496754
533.000000	51.735518
532.000000	50.988957
531.000000	50.224210
530.000000	49.457392
529.000000	48.686342
528.000000	47.907099
527.000000	47.138480
526.000000	46.343211
525.000000	45.562708
524.000000	44.806963
523.000000	44.020878
522.000000	43.251269
521.000000	42.484991
520.000000	41.726906
519.000000	40.956486
518.000000	40.215958
517.000000	39.495237
516.000000	38.803417
515.000000	38.121140
514.000000	37.448677
513.000000	36.792961
512.000000	36.149219
511.000000	35.531227
510.000000	34.923768
509.000000	34.380504
508.000000	33.858578
507.000000	33.346375
506.000000	32.852900
505.000000	32.367527
504.000000	31.901512
503.000000	31.475832
502.000000	31.070860
501.000000	30.688396
500.000000	30.331862
499.000000	29.973978
498.000000	29.608080
497.000000	29.289630
496.000000	28.988107
495.000000	28.701709
494.000000	28.441602
493.000000	28.168259
492.000000	27.943984
491.000000	27.714668
490.000000	27.494085
489.000000	27.265489
488.000000	27.080290
487.000000	26.894910
486.000000	26.710701
485.000000	26.531714
484.000000	26.357948
483.000000	26.188415
482.000000	26.025543
481.000000	25.892923
480.000000	25.734014
479.000000	25.592300
478.000000	25.446176
477.000000	25.310495
476.000000	25.179135
475.000000	25.045345
474.000000	24.917137
473.000000	24.790189
472.000000	24.683949
471.000000	24.571137
470.000000	24.444909
469.000000	24.323994
468.000000	24.223606
467.000000	24.126279
466.000000	24.040117
465.000000	23.949093
464.000000	23.865091
463.000000	23.783160
462.000000	23.698889
461.000000	23.614707
460.000000	23.527734
459.000000	23.460749
458.000000	23.398716
457.000000	23.351808
456.000000	23.294367
455.000000	23.240977
454.000000	23.217118
453.000000	23.170300
452.000000	23.126634
451.000000	23.083147
450.000000	23.034529
449.000000	22.965563
448.000000	22.883722
447.000000	22.841136
446.000000	22.797830
445.000000	22.720761
444.000000	22.633068
443.000000	22.540243
442.000000	22.433643
441.000000	22.325062
440.000000	22.193433
439.000000	22.052080
438.000000	21.922161
437.000000	21.760190
436.000000	21.590746
435.000000	21.391231
434.000000	21.213774
433.000000	21.028845
432.000000	20.797278
431.000000	20.562019
430.000000	20.327841
429.000000	20.092583
428.000000	19.858315
427.000000	19.575159
426.000000	19.290922
425.000000	19.020190
424.000000	18.728300
423.000000	18.429298
422.000000	18.120662
421.000000	17.779253
420.000000	17.457202
419.000000	17.154238
418.000000	16.815351
417.000000	16.485107
416.000000	16.161525
415.000000	15.821017
414.000000	15.468175
413.000000	15.129467
412.000000	14.796072
411.000000	14.475552
410.000000	14.126940
409.000000	13.797777
408.000000	13.468073
407.000000	13.112169
406.000000	12.805244
405.000000	12.492466
404.000000	12.183920
403.000000	11.882397
402.000000	11.579613
401.000000	11.277639
400.000000	10.980258
399.000000	10.681075
398.000000	10.400170
397.000000	10.132589
396.000000	9.880584
395.000000	9.637043
394.000000	9.389630
393.000000	9.158963
392.000000	8.936129
391.000000	8.697720
390.000000	8.486320
389.000000	8.287615
388.000000	8.100435
387.000000	7.915235
386.000000	7.753625
385.000000	7.594895
384.000000	7.439226
383.000000	7.302105
382.000000	7.135632
381.000000	7.006434
380.000000	6.873274
379.000000	6.768204
378.000000	6.662595
377.000000	6.567609
376.000000	6.338113
375.000000	6.236644
374.000000	6.153003
373.000000	6.090159
372.000000	6.084577
371.000000	6.026055
370.000000	5.976357
369.000000	5.970234
368.000000	5.901989
367.000000	5.800430
366.000000	5.773330
365.000000	5.773330
364.000000	5.686448
363.000000	5.649354
362.000000	5.635488
361.000000	5.651965
360.000000	5.570934
359.000000	5.557609
358.000000	5.482521
357.000000	5.488733
356.000000	5.448218
355.000000	5.383034
354.000000	5.379702
353.000000	5.410224
352.000000	5.255996
351.000000	5.193962
350.000000	5.290569
349.000000	5.284446
348.000000	5.225384
347.000000	5.188470
346.000000	5.148405
345.000000	5.251404
344.000000	5.168303
343.000000	5.244291
342.000000	5.258607
341.000000	5.144084
340.000000	5.069626
339.000000	5.083761
338.000000	5.148585
337.000000	5.003181
336.000000	5.028390
335.000000	5.143183
334.000000	5.101858
333.000000	5.159029
332.000000	5.099697
331.000000	4.989496
330.000000	5.022268
329.000000	5.017676
328.000000	5.014795
327.000000	5.055580
326.000000	5.042976
325.000000	5.011194
324.000000	5.144444
323.000000	4.957263
322.000000	4.935835
321.000000	5.044326
320.000000	4.924401
319.000000	4.992467
318.000000	5.166502
317.000000	5.250504
316.000000	5.106720
315.000000	5.055490
314.000000	5.052609
313.000000	5.055310
312.000000	5.083221
311.000000	5.058462
310.000000	5.046847
309.000000	5.062153
308.000000	5.050178
307.000000	5.118874
306.000000	5.081780
305.000000	5.052519
304.000000	5.057381
303.000000	5.084751
302.000000	5.095826
301.000000	5.111672
300.000000	5.097176
299.000000	5.114913
298.000000	5.080430
297.000000	5.101228
296.000000	5.140752
295.000000	5.127427
294.000000	5.105819
293.000000	5.113112
292.000000	5.117344
291.000000	5.153627
290.000000	5.153267
289.000000	5.123556
288.000000	5.165242
287.000000	5.124546
286.000000	5.142643
285.000000	5.153807
284.000000	5.148315
283.000000	5.188741
282.000000	5.171904
281.000000	5.189191
280.000000	5.190541
279.000000	5.217011
278.000000	5.253745
277.000000	5.206927
276.000000	5.212149
275.000000	5.227095
274.000000	5.292910
273.000000	5.267430
272.000000	5.291199
271.000000	5.280125
270.000000	5.336846
269.000000	5.321540
268.000000	5.349901
267.000000	5.384924
266.000000	5.351522
265.000000	5.392667
264.000000	5.446417
263.000000	5.446687
262.000000	5.460373
261.000000	5.465415
260.000000	5.512952
259.000000	5.492065
258.000000	5.515113
257.000000	5.557609
256.000000	5.569494
255.000000	5.557609
254.000000	5.566432
253.000000	5.592182
252.000000	5.586330
251.000000	5.584889
250.000000	5.596864
