PE UV       SUBTECH     SPECTRUM    ASCII       PEDS        4.00        
   -1
CICIMAUCR0070-1.Sample.ASC
24/04/17
15:12:00.00
24/04/17
15:12:00.00
Vinicio Soto Monge
C. resplendens
250,000000
1
Lambda 1050
1050L1511233
PerkinElmer UV WinLab 6.3.2.0749 / 2.02.05 Lambda 900 UV/VIS/NIR, Aug  7 2015 09:38:08

0
0
3350/servo 860,8/2
0
0
UV/VIS
1
1
1
DoubleDePol,CommonBeamDepol,RBeamAtt,SBeamAtt,60mm sphere, WB InGaAs Detector
0
0
0
0
Program
Program
3350/servo 860,8/2
3350/0,2 860,8/0,2
3350/0,2 860,8/0,2
0
15.00
 
 
 
0
 
860,8
319,2
860,8
Front
100
on
S:100 R:100
0
0
0
0
 
0
 
 
 
0
 
 
0
0
0
0
0
 
 
 
 
0
0


0
0
#HDR
-1
-1
#GR
nm
%R
1.0
0.0
2500,000000
-1,000000
2251
8
86,954100
5,179600
#DATA
2482.000000	22.913014
2481.000000	23.033186
2480.000000	22.987925
2479.000000	23.007804
2478.000000	23.052166
2477.000000	23.059578
2476.000000	23.107423
2475.000000	23.177167
2474.000000	23.225685
2473.000000	23.289589
2472.000000	23.360344
2471.000000	23.385389
2470.000000	23.438287
2469.000000	23.482762
2468.000000	23.572273
2467.000000	23.679080
2466.000000	23.734112
2465.000000	23.789817
2464.000000	23.873488
2463.000000	23.939190
2462.000000	24.002757
2461.000000	24.124725
2460.000000	24.200647
2459.000000	24.284430
2458.000000	24.410779
2457.000000	24.469966
2456.000000	24.607096
2455.000000	24.720305
2454.000000	24.832390
2453.000000	24.948631
2452.000000	25.060267
2451.000000	25.224464
2450.000000	25.344074
2449.000000	25.483114
2448.000000	25.627769
2447.000000	25.779612
2446.000000	25.930332
2445.000000	26.062071
2444.000000	26.199089
2443.000000	26.338241
2442.000000	26.504684
2441.000000	26.643836
2440.000000	26.791524
2439.000000	26.943704
2438.000000	27.079262
2437.000000	27.218975
2436.000000	27.354421
2435.000000	27.475491
2434.000000	27.632500
2433.000000	27.788723
2432.000000	27.895081
2431.000000	28.043891
2430.000000	28.170914
2429.000000	28.270757
2428.000000	28.401486
2427.000000	28.544793
2426.000000	28.663730
2425.000000	28.758631
2424.000000	28.885317
2423.000000	29.000322
2422.000000	29.092641
2421.000000	29.213150
2420.000000	29.413735
2419.000000	29.619487
2418.000000	29.844893
2417.000000	30.026049
2416.000000	30.099387
2415.000000	30.205295
2414.000000	30.285597
2413.000000	30.385777
2412.000000	30.525715
2411.000000	30.629153
2410.000000	30.695640
2409.000000	30.786386
2408.000000	30.896450
2407.000000	30.972709
2406.000000	31.073900
2405.000000	31.136906
2404.000000	31.205639
2403.000000	31.296835
2402.000000	31.360627
2401.000000	31.447106
2400.000000	31.471589
2399.000000	31.544029
2398.000000	31.635898
2397.000000	31.663077
2396.000000	31.722489
2395.000000	31.810990
2394.000000	31.840527
2393.000000	31.893537
2392.000000	31.949917
2391.000000	31.978331
2390.000000	32.027411
2389.000000	32.082555
2388.000000	32.103445
2387.000000	32.119954
2386.000000	32.161284
2385.000000	32.215979
2384.000000	32.224065
2383.000000	32.249447
2382.000000	32.284713
2381.000000	32.301335
2380.000000	32.316721
2379.000000	32.335252
2378.000000	32.327615
2377.000000	32.309758
2376.000000	32.341654
2375.000000	32.369394
2374.000000	32.351312
2373.000000	32.334803
2372.000000	32.360634
2371.000000	32.388038
2370.000000	32.384219
2369.000000	32.408703
2368.000000	32.431277
2367.000000	32.434534
2366.000000	32.441497
2365.000000	32.449247
2364.000000	32.477436
2363.000000	32.509220
2362.000000	32.522810
2361.000000	32.557176
2360.000000	32.576606
2359.000000	32.571103
2358.000000	32.552572
2357.000000	32.573461
2356.000000	32.597159
2355.000000	32.567509
2354.000000	32.552010
2353.000000	32.573461
2352.000000	32.574585
2351.000000	32.566386
2350.000000	32.591656
2349.000000	32.589409
2348.000000	32.579414
2347.000000	32.564252
2346.000000	32.579751
2345.000000	32.585029
2344.000000	32.561220
2343.000000	32.583120
2342.000000	32.595362
2341.000000	32.582222
2340.000000	32.626472
2339.000000	32.631526
2338.000000	32.643543
2337.000000	32.664095
2336.000000	32.664095
2335.000000	32.700821
2334.000000	32.726427
2333.000000	32.747991
2332.000000	32.785278
2331.000000	32.818634
2330.000000	32.861873
2329.000000	32.890625
2328.000000	32.960706
2327.000000	32.991479
2326.000000	33.012144
2325.000000	33.078519
2324.000000	33.113672
2323.000000	33.116143
2322.000000	33.172410
2321.000000	33.184090
2320.000000	33.177239
2319.000000	33.213965
2318.000000	33.218569
2317.000000	33.200488
2316.000000	33.184989
2315.000000	33.170950
2314.000000	33.145905
2313.000000	33.125015
2312.000000	33.087841
2311.000000	33.039884
2310.000000	33.006079
2309.000000	32.982943
2308.000000	32.936672
2307.000000	32.887480
2306.000000	32.869286
2305.000000	32.852551
2304.000000	32.836491
2303.000000	32.810548
2302.000000	32.797520
2301.000000	32.794487
2300.000000	32.784267
2299.000000	32.774271
2298.000000	32.793589
2297.000000	32.821105
2296.000000	32.812120
2295.000000	32.851990
2294.000000	32.852664
2293.000000	32.892983
2292.000000	32.943747
2291.000000	32.962952
2290.000000	32.974969
2289.000000	33.013492
2288.000000	33.077733
2287.000000	33.126812
2286.000000	33.164773
2285.000000	33.213403
2284.000000	33.300331
2283.000000	33.358058
2282.000000	33.411855
2281.000000	33.467673
2280.000000	33.524614
2279.000000	33.575715
2278.000000	33.633667
2277.000000	33.707567
2276.000000	33.742720
2275.000000	33.796291
2274.000000	33.834589
2273.000000	33.871427
2272.000000	33.942631
2271.000000	34.005974
2270.000000	34.076617
2269.000000	34.141981
2268.000000	34.196452
2267.000000	34.247777
2266.000000	34.345375
2265.000000	34.418151
2264.000000	34.552474
2263.000000	34.651531
2262.000000	34.790346
2261.000000	34.917256
2260.000000	35.092684
2259.000000	35.243854
2258.000000	35.434443
2257.000000	35.596282
2256.000000	35.810682
2255.000000	36.016658
2254.000000	36.210280
2253.000000	36.416032
2252.000000	36.653567
2251.000000	36.844494
2250.000000	37.015991
2249.000000	37.213432
2248.000000	37.423789
2247.000000	37.619545
2246.000000	37.753418
2245.000000	37.915032
2244.000000	38.052162
2243.000000	38.193561
2242.000000	38.296099
2241.000000	38.401221
2240.000000	38.491856
2239.000000	38.589902
2238.000000	38.655042
2237.000000	38.702324
2236.000000	38.717037
2235.000000	38.769149
2234.000000	38.779369
2233.000000	38.787455
2232.000000	38.770159
2231.000000	38.751853
2230.000000	38.732648
2229.000000	38.675370
2228.000000	38.646956
2227.000000	38.593945
2226.000000	38.499493
2225.000000	38.443225
2224.000000	38.356185
2223.000000	38.284082
2222.000000	38.191202
2221.000000	38.097311
2220.000000	37.993874
2219.000000	37.879767
2218.000000	37.796545
2217.000000	37.663458
2216.000000	37.564625
2215.000000	37.465006
2214.000000	37.355616
2213.000000	37.242745
2212.000000	37.147955
2211.000000	37.058108
2210.000000	36.973650
2209.000000	36.890204
2208.000000	36.809903
2207.000000	36.731847
2206.000000	36.649861
2205.000000	36.588091
2204.000000	36.531037
2203.000000	36.469267
2202.000000	36.422883
2201.000000	36.365829
2200.000000	36.325622
2199.000000	36.269917
2198.000000	36.219827
2197.000000	36.182540
2196.000000	36.135931
2195.000000	36.105158
2194.000000	36.069893
2193.000000	36.038558
2192.000000	36.010481
2191.000000	35.991950
2190.000000	35.950058
2189.000000	35.927259
2188.000000	35.916590
2187.000000	35.891320
2186.000000	35.875260
2185.000000	35.814163
2184.000000	35.789904
2183.000000	35.768790
2182.000000	35.741611
2181.000000	35.735771
2180.000000	35.684782
2179.000000	35.670519
2178.000000	35.641318
2177.000000	35.638061
2176.000000	35.622338
2175.000000	35.624921
2174.000000	35.622899
2173.000000	35.638061
2172.000000	35.602234
2171.000000	35.629750
2170.000000	35.651426
2169.000000	35.688938
2168.000000	35.719374
2167.000000	35.754077
2166.000000	35.800686
2165.000000	35.857852
2164.000000	35.901316
2163.000000	35.938603
2162.000000	36.016546
2161.000000	36.106281
2160.000000	36.194557
2159.000000	36.282832
2158.000000	36.384361
2157.000000	36.481284
2156.000000	36.585732
2155.000000	36.716236
2154.000000	36.842809
2153.000000	36.962307
2152.000000	37.091801
2151.000000	37.231626
2150.000000	37.375383
2149.000000	37.510155
2148.000000	37.650430
2147.000000	37.784753
2146.000000	37.930418
2145.000000	38.068784
2144.000000	38.199962
2143.000000	38.318561
2142.000000	38.459623
2141.000000	38.589902
2140.000000	38.715801
2139.000000	38.844509
2138.000000	38.952663
2137.000000	39.074632
2136.000000	39.197948
2135.000000	39.322949
2134.000000	39.435483
2133.000000	39.529711
2132.000000	39.620907
2131.000000	39.714686
2130.000000	39.813406
2129.000000	39.879107
2128.000000	39.960195
2127.000000	40.045551
2126.000000	40.113273
2125.000000	40.168081
2124.000000	40.224573
2123.000000	40.294092
2122.000000	40.348450
2121.000000	40.381020
2120.000000	40.409996
2119.000000	40.439871
2118.000000	40.476034
2117.000000	40.493892
2116.000000	40.521632
2115.000000	40.559705
2114.000000	40.564984
2113.000000	40.563187
2112.000000	40.577562
2111.000000	40.584863
2110.000000	40.583515
2109.000000	40.593735
2108.000000	40.598677
2107.000000	40.578798
2106.000000	40.587558
2105.000000	40.599463
2104.000000	40.584189
2103.000000	40.571049
2102.000000	40.563861
2101.000000	40.553416
2100.000000	40.551731
2099.000000	40.558919
2098.000000	40.550608
2097.000000	40.540276
2096.000000	40.541960
2095.000000	40.558133
2094.000000	40.577338
2093.000000	40.581943
2092.000000	40.593286
2091.000000	40.606314
2090.000000	40.613839
2089.000000	40.637087
2088.000000	40.635514
2087.000000	40.624171
2086.000000	40.626193
2085.000000	40.612940
2084.000000	40.585536
2083.000000	40.549260
2082.000000	40.519498
2081.000000	40.483559
2080.000000	40.430661
2079.000000	40.373158
2078.000000	40.295440
2077.000000	40.218395
2076.000000	40.139329
2075.000000	40.039037
2074.000000	39.939642
2073.000000	39.819471
2072.000000	39.691101
2071.000000	39.567897
2070.000000	39.442896
2069.000000	39.310595
2068.000000	39.158976
2067.000000	39.016455
2066.000000	38.870452
2065.000000	38.717598
2064.000000	38.556209
2063.000000	38.412340
2062.000000	38.283071
2061.000000	38.134036
2060.000000	38.013977
2059.000000	37.887404
2058.000000	37.785763
2057.000000	37.710965
2056.000000	37.653575
2055.000000	37.605506
2054.000000	37.596521
2053.000000	37.589895
2052.000000	37.619769
2051.000000	37.660875
2050.000000	37.723768
2049.000000	37.815188
2048.000000	37.935135
2047.000000	38.064516
2046.000000	38.200861
2045.000000	38.379770
2044.000000	38.533073
2043.000000	38.713668
2042.000000	38.882919
2041.000000	39.037120
2040.000000	39.189300
2039.000000	39.350802
2038.000000	39.526903
2037.000000	39.690427
2036.000000	39.844179
2035.000000	39.951772
2034.000000	40.075313
2033.000000	40.188970
2032.000000	40.316330
2031.000000	40.417746
2030.000000	40.519386
2029.000000	40.619566
2028.000000	40.698408
2027.000000	40.759954
2026.000000	40.841154
2025.000000	40.893827
2024.000000	40.933248
2023.000000	41.018266
2022.000000	41.072175
2021.000000	41.107665
2020.000000	41.131699
2019.000000	41.160002
2018.000000	41.179880
2017.000000	41.195604
2016.000000	41.198524
2015.000000	41.223344
2014.000000	41.206835
2013.000000	41.206498
2012.000000	41.174826
2011.000000	41.157755
2010.000000	41.129903
2009.000000	41.093402
2008.000000	41.035001
2007.000000	40.994232
2006.000000	40.921118
2005.000000	40.870467
2004.000000	40.789042
2003.000000	40.729405
2002.000000	40.640231
2001.000000	40.560154
2000.000000	40.478954
1999.000000	40.365409
1998.000000	40.267812
1997.000000	40.170551
1996.000000	40.054086
1995.000000	39.921224
1994.000000	39.818685
1993.000000	39.687170
1992.000000	39.552959
1991.000000	39.452330
1990.000000	39.295208
1989.000000	39.157404
1988.000000	39.018364
1987.000000	38.886513
1986.000000	38.747361
1985.000000	38.616407
1984.000000	38.482309
1983.000000	38.347650
1982.000000	38.196930
1981.000000	38.067212
1980.000000	37.907395
1979.000000	37.774195
1978.000000	37.614715
1977.000000	37.481516
1976.000000	37.338321
1975.000000	37.206357
1974.000000	37.090340
1973.000000	36.961633
1972.000000	36.809453
1971.000000	36.664124
1970.000000	36.530476
1969.000000	36.421310
1968.000000	36.279351
1967.000000	36.149745
1966.000000	36.043388
1965.000000	35.915017
1964.000000	35.773507
1963.000000	35.671642
1962.000000	35.523842
1961.000000	35.376379
1960.000000	35.262385
1959.000000	35.128511
1958.000000	35.001264
1957.000000	34.869076
1956.000000	34.749465
1955.000000	34.608292
1954.000000	34.515636
1953.000000	34.389625
1952.000000	34.250248
1951.000000	34.117273
1950.000000	33.997326
1949.000000	33.907478
1948.000000	33.807298
1947.000000	33.715990
1946.000000	33.600423
1945.000000	33.530679
1944.000000	33.469919
1943.000000	33.373557
1942.000000	33.342672
1941.000000	33.280115
1940.000000	33.234293
1939.000000	33.208125
1938.000000	33.178026
1937.000000	33.152082
1936.000000	33.151071
1935.000000	33.152419
1934.000000	33.166795
1933.000000	33.216772
1932.000000	33.282474
1931.000000	33.343233
1930.000000	33.420840
1929.000000	33.527197
1928.000000	33.671964
1927.000000	33.800110
1926.000000	33.934770
1925.000000	34.096608
1924.000000	34.246879
1923.000000	34.439602
1922.000000	34.657708
1921.000000	34.916920
1920.000000	35.212519
1919.000000	35.453424
1918.000000	35.705784
1917.000000	36.008684
1916.000000	36.306305
1915.000000	36.614708
1914.000000	37.020259
1913.000000	37.445689
1912.000000	37.898073
1911.000000	38.308678
1910.000000	38.756682
1909.000000	39.139210
1908.000000	39.554644
1907.000000	40.086207
1906.000000	40.686391
1905.000000	41.374064
1904.000000	42.018386
1903.000000	42.611158
1902.000000	43.215834
1901.000000	43.875542
1900.000000	44.612969
1899.000000	45.407449
1898.000000	46.137913
1897.000000	46.905551
1896.000000	47.571773
1895.000000	48.210367
1894.000000	48.907362
1893.000000	49.656918
1892.000000	50.448703
1891.000000	51.281706
1890.000000	52.038113
1889.000000	52.704447
1888.000000	53.409866
1887.000000	54.037341
1886.000000	54.655382
1885.000000	55.282521
1884.000000	55.927292
1883.000000	56.539942
1882.000000	57.077570
1881.000000	57.568813
1880.000000	58.022882
1879.000000	58.448873
1878.000000	58.905975
1877.000000	59.313996
1876.000000	59.702926
1875.000000	60.095224
1874.000000	60.490779
1873.000000	60.867916
1872.000000	61.203498
1871.000000	61.506173
1870.000000	61.780995
1869.000000	61.999326
1868.000000	62.218218
1867.000000	62.374666
1866.000000	62.460246
1865.000000	62.562785
1864.000000	62.661730
1863.000000	62.758653
1862.000000	62.896345
1861.000000	63.057397
1860.000000	63.199582
1859.000000	63.334915
1858.000000	63.444305
1857.000000	63.517531
1856.000000	63.567397
1855.000000	63.631750
1854.000000	63.716432
1853.000000	63.739118
1852.000000	63.742375
1851.000000	63.790219
1850.000000	63.845251
1849.000000	63.910616
1848.000000	63.984740
1847.000000	64.032135
1846.000000	63.957673
1845.000000	63.862547
1844.000000	63.844016
1843.000000	63.853450
1842.000000	63.943972
1841.000000	63.984179
1840.000000	63.945881
1839.000000	63.911402
1838.000000	63.859739
1837.000000	63.834919
1836.000000	63.813131
1835.000000	63.752371
1834.000000	63.648934
1833.000000	63.573237
1832.000000	63.512477
1831.000000	63.490352
1830.000000	63.481143
1829.000000	63.447225
1828.000000	63.396236
1827.000000	63.345585
1826.000000	63.331321
1825.000000	63.292574
1824.000000	63.241810
1823.000000	63.217551
1822.000000	63.301896
1821.000000	63.376470
1820.000000	63.358276
1819.000000	63.304479
1818.000000	63.246864
1817.000000	63.222268
1816.000000	63.214182
1815.000000	63.209240
1814.000000	63.180152
1813.000000	63.166899
1812.000000	63.155556
1811.000000	63.119842
1810.000000	63.059419
1809.000000	63.016067
1808.000000	62.989562
1807.000000	62.978107
1806.000000	62.952163
1805.000000	62.907913
1804.000000	62.875455
1803.000000	62.862427
1802.000000	62.848838
1801.000000	62.824579
1800.000000	62.791560
1799.000000	62.764493
1798.000000	62.729789
1797.000000	62.685539
1796.000000	62.667233
1795.000000	62.658023
1794.000000	62.629609
1793.000000	62.606473
1792.000000	62.582327
1791.000000	62.581653
1790.000000	62.561774
1789.000000	62.560314
1788.000000	62.568625
1787.000000	62.572780
1786.000000	62.588054
1785.000000	62.599735
1784.000000	62.594568
1783.000000	62.595354
1782.000000	62.584573
1781.000000	62.586707
1780.000000	62.580866
1779.000000	62.571545
1778.000000	62.555934
1777.000000	62.532349
1776.000000	62.497645
1775.000000	62.469118
1774.000000	62.437222
1773.000000	62.404203
1772.000000	62.379495
1771.000000	62.352765
1770.000000	62.310537
1769.000000	62.298295
1768.000000	62.261682
1767.000000	62.232369
1766.000000	62.198227
1765.000000	62.184750
1764.000000	62.177674
1763.000000	62.165657
1762.000000	62.152067
1761.000000	62.153752
1760.000000	62.168015
1759.000000	62.189803
1758.000000	62.186883
1757.000000	62.207324
1756.000000	62.226641
1755.000000	62.222149
1754.000000	62.232818
1753.000000	62.230909
1752.000000	62.236749
1751.000000	62.239107
1750.000000	62.236749
1749.000000	62.197777
1748.000000	62.175428
1747.000000	62.152067
1746.000000	62.115454
1745.000000	62.064466
1744.000000	61.997529
1743.000000	61.939689
1742.000000	61.883647
1741.000000	61.793574
1740.000000	61.733376
1739.000000	61.675200
1738.000000	61.628029
1737.000000	61.579512
1736.000000	61.535037
1735.000000	61.463383
1734.000000	61.436429
1733.000000	61.399366
1732.000000	61.364438
1731.000000	61.334114
1730.000000	61.317043
1729.000000	61.281441
1728.000000	61.260888
1727.000000	61.234159
1726.000000	61.213718
1725.000000	61.209900
1724.000000	61.225174
1723.000000	61.274141
1722.000000	61.357363
1721.000000	61.498761
1720.000000	61.679243
1719.000000	61.906221
1718.000000	62.132975
1717.000000	62.357931
1716.000000	62.621747
1715.000000	62.867818
1714.000000	63.083678
1713.000000	63.287071
1712.000000	63.474741
1711.000000	63.641858
1710.000000	63.812007
1709.000000	63.951946
1708.000000	64.062683
1707.000000	64.188807
1706.000000	64.260798
1705.000000	64.332901
1704.000000	64.369514
1703.000000	64.437012
1702.000000	64.460597
1701.000000	64.469694
1700.000000	64.499456
1699.000000	64.502489
1698.000000	64.512933
1697.000000	64.520234
1696.000000	64.507655
1695.000000	64.472165
1694.000000	64.424883
1693.000000	64.414438
1692.000000	64.322793
1691.000000	64.267986
1690.000000	64.239122
1689.000000	64.191278
1688.000000	64.209809
1687.000000	64.279890
1686.000000	64.403768
1685.000000	64.550670
1684.000000	64.741259
1683.000000	64.959478
1682.000000	65.216555
1681.000000	65.413659
1680.000000	65.655574
1679.000000	65.882216
1678.000000	66.098412
1677.000000	66.310229
1676.000000	66.494305
1675.000000	66.689162
1674.000000	66.899182
1673.000000	67.057651
1672.000000	67.245882
1671.000000	67.422995
1670.000000	67.594380
1669.000000	67.785307
1668.000000	67.949841
1667.000000	68.147955
1666.000000	68.300023
1665.000000	68.431650
1664.000000	68.579675
1663.000000	68.711189
1662.000000	68.844389
1661.000000	68.975679
1660.000000	69.073838
1659.000000	69.185474
1658.000000	69.265214
1657.000000	69.343157
1656.000000	69.408297
1655.000000	69.468158
1654.000000	69.513082
1653.000000	69.547561
1652.000000	69.570248
1651.000000	69.596191
1650.000000	69.609219
1649.000000	69.596865
1648.000000	69.601919
1647.000000	69.594394
1646.000000	69.583613
1645.000000	69.565755
1644.000000	69.555984
1643.000000	69.542844
1642.000000	69.524088
1641.000000	69.531389
1640.000000	69.513419
1639.000000	69.501963
1638.000000	69.480288
1637.000000	69.459847
1636.000000	69.424470
1635.000000	69.405377
1634.000000	69.363373
1633.000000	69.342483
1632.000000	69.313058
1631.000000	69.272065
1630.000000	69.210407
1629.000000	69.175254
1628.000000	69.131116
1627.000000	69.077207
1626.000000	69.029813
1625.000000	68.980845
1624.000000	68.922781
1623.000000	68.870108
1622.000000	68.828441
1621.000000	68.776329
1620.000000	68.741625
1619.000000	68.709056
1618.000000	68.667613
1617.000000	68.622689
1616.000000	68.574396
1615.000000	68.538344
1614.000000	68.504090
1613.000000	68.454224
1612.000000	68.411097
1611.000000	68.352359
1610.000000	68.320239
1609.000000	68.269250
1608.000000	68.200966
1607.000000	68.139869
1606.000000	68.076189
1605.000000	68.013183
1604.000000	67.928614
1603.000000	67.849323
1602.000000	67.775311
1601.000000	67.694785
1600.000000	67.625040
1599.000000	67.550467
1598.000000	67.476230
1597.000000	67.417155
1596.000000	67.347074
1595.000000	67.277217
1594.000000	67.220725
1593.000000	67.163447
1592.000000	67.104933
1591.000000	67.046308
1590.000000	66.988131
1589.000000	66.945678
1588.000000	66.900305
1587.000000	66.839321
1586.000000	66.786423
1585.000000	66.727797
1584.000000	66.683322
1583.000000	66.644575
1582.000000	66.594148
1581.000000	66.542261
1580.000000	66.502728
1579.000000	66.476223
1578.000000	66.447022
1577.000000	66.423549
1576.000000	66.398617
1575.000000	66.379187
1574.000000	66.363576
1573.000000	66.355826
1572.000000	66.357736
1571.000000	66.358073
1570.000000	66.368181
1569.000000	66.376379
1568.000000	66.386150
1567.000000	66.402210
1566.000000	66.409623
1565.000000	66.413441
1564.000000	66.433994
1563.000000	66.450167
1562.000000	66.454996
1561.000000	66.439834
1560.000000	66.424448
1559.000000	66.405130
1558.000000	66.378401
1557.000000	66.346280
1556.000000	66.297538
1555.000000	66.246661
1554.000000	66.182195
1553.000000	66.119302
1552.000000	66.044503
1551.000000	65.969256
1550.000000	65.893110
1549.000000	65.804497
1548.000000	65.718468
1547.000000	65.636032
1546.000000	65.565277
1545.000000	65.492163
1544.000000	65.427698
1543.000000	65.368286
1542.000000	65.314265
1541.000000	65.276865
1540.000000	65.232503
1539.000000	65.194767
1538.000000	65.151640
1537.000000	65.105256
1536.000000	65.046518
1535.000000	65.008557
1534.000000	64.968575
1533.000000	64.905906
1532.000000	64.848965
1531.000000	64.788991
1530.000000	64.716888
1529.000000	64.652198
1528.000000	64.615809
1527.000000	64.569538
1526.000000	64.506644
1525.000000	64.439034
1524.000000	64.362663
1523.000000	64.293592
1522.000000	64.229688
1521.000000	64.158708
1520.000000	64.091210
1519.000000	64.025846
1518.000000	63.960369
1517.000000	63.890287
1516.000000	63.814478
1515.000000	63.750686
1514.000000	63.665443
1513.000000	63.582109
1512.000000	63.516183
1511.000000	63.433186
1510.000000	63.352997
1509.000000	63.293810
1508.000000	63.201940
1507.000000	63.119842
1506.000000	63.046391
1505.000000	62.996862
1504.000000	62.925546
1503.000000	62.865235
1502.000000	62.801780
1501.000000	62.730239
1500.000000	62.683855
1499.000000	62.653194
1498.000000	62.607147
1497.000000	62.579294
1496.000000	62.563908
1495.000000	62.548858
1494.000000	62.518422
1493.000000	62.511908
1492.000000	62.523027
1491.000000	62.535943
1490.000000	62.541895
1489.000000	62.553800
1488.000000	62.560988
1487.000000	62.586370
1486.000000	62.592659
1485.000000	62.602542
1484.000000	62.621747
1483.000000	62.636572
1482.000000	62.660719
1481.000000	62.682619
1480.000000	62.689358
1479.000000	62.707440
1478.000000	62.735293
1477.000000	62.762135
1476.000000	62.773927
1475.000000	62.814134
1474.000000	62.878488
1473.000000	62.941606
1472.000000	63.015506
1471.000000	63.080309
1470.000000	63.130286
1469.000000	63.140507
1468.000000	63.200705
1467.000000	63.289991
1466.000000	63.368720
1465.000000	63.434422
1464.000000	63.484400
1463.000000	63.577055
1462.000000	63.646126
1461.000000	63.735749
1460.000000	63.836266
1459.000000	63.895341
1458.000000	63.999228
1457.000000	64.094355
1456.000000	64.188583
1455.000000	64.303139
1454.000000	64.372546
1453.000000	64.450377
1452.000000	64.585373
1451.000000	64.699817
1450.000000	64.773717
1449.000000	64.821449
1448.000000	64.876930
1447.000000	65.006985
1446.000000	65.154560
1445.000000	65.263837
1444.000000	65.304718
1443.000000	65.396812
1442.000000	65.520465
1441.000000	65.633898
1440.000000	65.743288
1439.000000	65.872557
1438.000000	66.005644
1437.000000	66.124917
1436.000000	66.275525
1435.000000	66.405804
1434.000000	66.600774
1433.000000	66.766544
1432.000000	66.932987
1431.000000	67.069219
1430.000000	67.212302
1429.000000	67.452757
1428.000000	67.663900
1427.000000	67.865384
1426.000000	68.062151
1425.000000	68.334502
1424.000000	68.623925
1423.000000	68.882574
1422.000000	69.115954
1421.000000	69.406949
1420.000000	69.779144
1419.000000	70.143140
1418.000000	70.430878
1417.000000	70.705139
1416.000000	71.009499
1415.000000	71.448743
1414.000000	71.928082
1413.000000	72.263327
1412.000000	72.600930
1411.000000	73.000866
1410.000000	73.498398
1409.000000	74.072077
1408.000000	74.483131
1407.000000	74.915075
1406.000000	75.353758
1405.000000	75.835792
1404.000000	76.233144
1403.000000	76.723938
1402.000000	77.113317
1401.000000	77.687220
1400.000000	78.232934
1399.000000	78.587833
1398.000000	78.831433
1397.000000	79.208458
1396.000000	79.749679
1395.000000	80.241035
1394.000000	80.506086
1393.000000	80.766645
1392.000000	81.151868
1391.000000	81.477117
1390.000000	81.752277
1389.000000	82.078088
1388.000000	82.518005
1387.000000	82.811134
1386.000000	83.074613
1385.000000	83.376615
1384.000000	83.751954
1383.000000	83.964894
1382.000000	84.236796
1381.000000	84.413010
1380.000000	84.470401
1379.000000	84.611799
1378.000000	84.736912
1377.000000	84.844729
1376.000000	84.958612
1375.000000	85.089116
1374.000000	85.184804
1373.000000	85.362703
1372.000000	85.523418
1371.000000	85.654708
1370.000000	85.784988
1369.000000	85.888650
1368.000000	86.081261
1367.000000	86.175826
1366.000000	86.257925
1365.000000	86.414372
1364.000000	86.507590
1363.000000	86.595528
1362.000000	86.794766
1361.000000	86.824977
1360.000000	86.823630
1359.000000	86.782637
1358.000000	86.895620
1357.000000	86.959075
1356.000000	87.043420
1355.000000	87.197622
1354.000000	87.292186
1353.000000	87.349577
1352.000000	87.449533
1351.000000	87.616874
1350.000000	87.752095
1349.000000	87.892707
1348.000000	88.063418
1347.000000	88.195832
1346.000000	88.303537
1345.000000	88.455268
1344.000000	88.616994
1343.000000	88.739075
1342.000000	88.849138
1341.000000	88.999971
1340.000000	89.129689
1339.000000	89.229420
1338.000000	89.358352
1337.000000	89.473694
1336.000000	89.580725
1335.000000	89.673268
1334.000000	89.762779
1333.000000	89.865206
1332.000000	89.954829
1331.000000	90.030302
1330.000000	90.100495
1329.000000	90.181021
1328.000000	90.253574
1327.000000	90.328934
1326.000000	90.393512
1325.000000	90.446185
1324.000000	90.519973
1323.000000	90.565234
1322.000000	90.610607
1321.000000	90.672040
1320.000000	90.704498
1319.000000	90.749309
1318.000000	90.810069
1317.000000	90.854881
1316.000000	90.888911
1315.000000	90.934958
1314.000000	90.984374
1313.000000	91.021436
1312.000000	91.052434
1311.000000	91.077591
1310.000000	91.107690
1309.000000	91.140036
1308.000000	91.165418
1307.000000	91.185184
1306.000000	91.201694
1305.000000	91.227974
1304.000000	91.253019
1303.000000	91.258859
1302.000000	91.275706
1301.000000	91.286038
1300.000000	91.288622
1299.000000	91.290755
1298.000000	91.293114
1297.000000	91.289745
1296.000000	91.289071
1295.000000	91.297045
1294.000000	91.290868
1293.000000	91.281546
1292.000000	91.270877
1291.000000	91.266047
1290.000000	91.257736
1289.000000	91.245382
1288.000000	91.235274
1287.000000	91.217192
1286.000000	91.185184
1285.000000	91.153737
1284.000000	91.136666
1283.000000	91.127569
1282.000000	91.112520
1281.000000	91.091181
1280.000000	91.072650
1279.000000	91.056140
1278.000000	91.036710
1277.000000	91.027389
1276.000000	91.025592
1275.000000	91.027613
1274.000000	91.029635
1273.000000	91.015484
1272.000000	91.015821
1271.000000	91.019078
1270.000000	91.021661
1269.000000	91.035812
1268.000000	91.048503
1267.000000	91.058274
1266.000000	91.065799
1265.000000	91.082308
1264.000000	91.090170
1263.000000	91.079164
1262.000000	91.080174
1261.000000	91.090844
1260.000000	91.093876
1259.000000	91.108027
1258.000000	91.103086
1257.000000	91.107241
1256.000000	91.106567
1255.000000	91.113306
1254.000000	91.100502
1253.000000	91.095561
1252.000000	91.084330
1251.000000	91.056252
1250.000000	91.046931
1249.000000	91.024693
1248.000000	91.001670
1247.000000	90.969661
1246.000000	90.948435
1245.000000	90.935744
1244.000000	90.895762
1243.000000	90.855330
1242.000000	90.825231
1241.000000	90.813214
1240.000000	90.786259
1239.000000	90.761664
1238.000000	90.731565
1237.000000	90.706856
1236.000000	90.674174
1235.000000	90.663729
1234.000000	90.649241
1233.000000	90.641492
1232.000000	90.608922
1231.000000	90.597354
1230.000000	90.583652
1229.000000	90.556024
1228.000000	90.544344
1227.000000	90.517165
1226.000000	90.494591
1225.000000	90.487290
1224.000000	90.462245
1223.000000	90.444950
1222.000000	90.425071
1221.000000	90.406315
1220.000000	90.375654
1219.000000	90.366445
1218.000000	90.328709
1217.000000	90.319500
1216.000000	90.302091
1215.000000	90.287267
1214.000000	90.249980
1213.000000	90.236166
1212.000000	90.180235
1211.000000	90.145981
1210.000000	90.122733
1209.000000	90.072081
1208.000000	90.035917
1207.000000	90.004133
1206.000000	89.953931
1205.000000	89.912488
1204.000000	89.877223
1203.000000	89.832187
1202.000000	89.788611
1201.000000	89.745933
1200.000000	89.690227
1199.000000	89.658107
1198.000000	89.599593
1197.000000	89.534341
1196.000000	89.486048
1195.000000	89.444718
1194.000000	89.369021
1193.000000	89.312304
1192.000000	89.240314
1191.000000	89.189101
1190.000000	89.150354
1189.000000	89.095209
1188.000000	89.061180
1187.000000	89.053430
1186.000000	89.046018
1185.000000	89.047927
1184.000000	89.059383
1183.000000	89.074207
1182.000000	89.103520
1181.000000	89.144963
1180.000000	89.167088
1179.000000	89.226387
1178.000000	89.270974
1177.000000	89.323423
1176.000000	89.360148
1175.000000	89.407880
1174.000000	89.445729
1173.000000	89.498963
1172.000000	89.565002
1171.000000	89.633848
1170.000000	89.704266
1169.000000	89.780637
1168.000000	89.871720
1167.000000	89.962466
1166.000000	90.047934
1165.000000	90.143173
1164.000000	90.250766
1163.000000	90.349599
1162.000000	90.443153
1161.000000	90.562426
1160.000000	90.681587
1159.000000	90.789629
1158.000000	90.859598
1157.000000	90.965281
1156.000000	91.056477
1155.000000	91.119483
1154.000000	91.204726
1153.000000	91.293114
1152.000000	91.350055
1151.000000	91.392284
1150.000000	91.461803
1149.000000	91.520092
1148.000000	91.568610
1147.000000	91.634424
1146.000000	91.696082
1145.000000	91.762457
1144.000000	91.792668
1143.000000	91.826361
1142.000000	91.901384
1141.000000	91.984494
1140.000000	92.024139
1139.000000	92.104216
1138.000000	92.202262
1137.000000	92.292897
1136.000000	92.445750
1135.000000	92.541888
1134.000000	92.621066
1133.000000	92.639822
1132.000000	92.662284
1131.000000	92.733937
1130.000000	92.817945
1129.000000	92.909253
1128.000000	92.954514
1127.000000	92.966644
1126.000000	93.026392
1125.000000	93.060759
1124.000000	93.109502
1123.000000	93.138141
1122.000000	93.146564
1121.000000	93.140836
1120.000000	93.149035
1119.000000	93.168015
1118.000000	93.147463
1117.000000	93.137692
1116.000000	93.142970
1115.000000	93.137467
1114.000000	93.138590
1113.000000	93.131627
1112.000000	93.132525
1111.000000	93.135558
1110.000000	93.132638
1109.000000	93.135221
1108.000000	93.125899
1107.000000	93.096811
1106.000000	93.097372
1105.000000	93.097260
1104.000000	93.078504
1103.000000	93.083334
1102.000000	93.088051
1101.000000	93.076146
1100.000000	93.043351
1099.000000	93.043464
1098.000000	93.045934
1097.000000	93.019542
1096.000000	93.006289
1095.000000	92.991015
1094.000000	92.985736
1093.000000	92.960467
1092.000000	92.934186
1091.000000	92.910489
1090.000000	92.883197
1089.000000	92.869383
1088.000000	92.851975
1087.000000	92.834230
1086.000000	92.801997
1085.000000	92.782568
1084.000000	92.740901
1083.000000	92.728884
1082.000000	92.695977
1081.000000	92.657005
1080.000000	92.629826
1079.000000	92.595684
1078.000000	92.568056
1077.000000	92.525940
1076.000000	92.493370
1075.000000	92.462372
1074.000000	92.422390
1073.000000	92.386226
1072.000000	92.348041
1071.000000	92.305812
1070.000000	92.274702
1069.000000	92.226746
1068.000000	92.180362
1067.000000	92.135550
1066.000000	92.099836
1065.000000	92.071534
1064.000000	92.042333
1063.000000	91.991681
1062.000000	91.945859
1061.000000	91.910481
1060.000000	91.875778
1059.000000	91.829169
1058.000000	91.793567
1057.000000	91.759088
1056.000000	91.730673
1055.000000	91.690691
1054.000000	91.656661
1053.000000	91.633188
1052.000000	91.606009
1051.000000	91.568049
1050.000000	91.528179
1049.000000	91.511444
1048.000000	91.493138
1047.000000	91.454728
1046.000000	91.441363
1045.000000	91.413286
1044.000000	91.394979
1043.000000	91.388465
1042.000000	91.373303
1041.000000	91.346012
1040.000000	91.330176
1039.000000	91.323662
1038.000000	91.304120
1037.000000	91.286263
1036.000000	91.276604
1035.000000	91.256950
1034.000000	91.231905
1033.000000	91.223482
1032.000000	91.224268
1031.000000	91.206298
1030.000000	91.186532
1029.000000	91.171033
1028.000000	91.173167
1027.000000	91.161262
1026.000000	91.140372
1025.000000	91.142956
1024.000000	91.134645
1023.000000	91.125548
1022.000000	91.131275
1021.000000	91.107803
1020.000000	91.099829
1019.000000	91.101064
1018.000000	91.081185
1017.000000	91.078939
1016.000000	91.086239
1015.000000	91.077928
1014.000000	91.073548
1013.000000	91.076693
1012.000000	91.061980
1011.000000	91.047380
1010.000000	91.040641
1009.000000	91.061756
1008.000000	91.072874
1007.000000	91.042663
1006.000000	91.049177
1005.000000	91.045246
1004.000000	91.014922
1003.000000	91.018292
1002.000000	91.022559
1001.000000	91.001670
1000.000000	91.003018
999.000000	91.000210
998.000000	90.971009
997.000000	90.961800
996.000000	90.939338
995.000000	90.937653
994.000000	90.941696
993.000000	90.928668
992.000000	90.935182
991.000000	90.920133
990.000000	90.915416
989.000000	90.910586
988.000000	90.922604
987.000000	90.911373
986.000000	90.903848
985.000000	90.887338
984.000000	90.905982
983.000000	90.925074
982.000000	90.926759
981.000000	90.934059
980.000000	90.959778
979.000000	90.971571
978.000000	90.967303
977.000000	90.978759
976.000000	90.995605
975.000000	91.022335
974.000000	91.044909
973.000000	91.062991
972.000000	91.102187
971.000000	91.115215
970.000000	91.148908
969.000000	91.171033
968.000000	91.212925
967.000000	91.236847
966.000000	91.273572
965.000000	91.318384
964.000000	91.354997
963.000000	91.382962
962.000000	91.420698
961.000000	91.469665
960.000000	91.528515
959.000000	91.587927
958.000000	91.614657
957.000000	91.660704
956.000000	91.684177
955.000000	91.728315
954.000000	91.796262
953.000000	91.839614
952.000000	91.888469
951.000000	91.929799
950.000000	91.966636
949.000000	92.027621
948.000000	92.039413
947.000000	92.078609
946.000000	92.147231
945.000000	92.186651
944.000000	92.255947
943.000000	92.268188
942.000000	92.299186
941.000000	92.346244
940.000000	92.428904
939.000000	92.454510
938.000000	92.491460
937.000000	92.550648
936.000000	92.654871
935.000000	92.674750
934.000000	92.719450
933.000000	92.764486
932.000000	92.852424
931.000000	92.873651
930.000000	92.924415
929.000000	92.954177
928.000000	93.040319
927.000000	93.045822
926.000000	93.070530
925.000000	93.177112
924.000000	93.212378
923.000000	93.256066
922.000000	93.309413
921.000000	93.333672
920.000000	93.379944
919.000000	93.455416
918.000000	93.497645
917.000000	93.494837
916.000000	93.539199
915.000000	93.643648
914.000000	93.659259
913.000000	93.690818
912.000000	93.699353
911.000000	93.731025
910.000000	93.766065
909.000000	93.758091
908.000000	93.782013
907.000000	93.807957
906.000000	93.804700
905.000000	93.822445
904.000000	93.827723
903.000000	93.829408
902.000000	93.817166
901.000000	93.820311
900.000000	93.824691
899.000000	93.796164
898.000000	93.782575
897.000000	93.770558
896.000000	93.732035
895.000000	93.720580
894.000000	93.672624
893.000000	93.628037
892.000000	93.500452
891.000000	93.470241
890.000000	93.434077
889.000000	93.397240
888.000000	93.321094
887.000000	93.246520
886.000000	93.119273
885.000000	92.970125
884.000000	92.871068
883.000000	92.763250
882.000000	92.604557
881.000000	92.385215
880.000000	92.255610
879.000000	92.122747
878.000000	91.958775
877.000000	91.680471
876.000000	91.485164
875.000000	91.325908
874.000000	91.041764
873.000000	90.749197
872.000000	90.390816
871.000000	90.222688
870.000000	89.925180
869.000000	89.537037
868.000000	89.248625
867.000000	88.849363
866.000000	88.529280
865.000000	88.100818
864.000000	87.756813
863.000000	87.271185
862.000000	86.877426
861.000000	86.288024
860.000000	85.709066
859.000000	85.209849
858.000000	86.750067
857.000000	86.892600
856.000000	86.575000
855.000000	86.782600
854.000000	86.204200
853.000000	86.595200
852.000000	86.954100
851.000000	86.632400
850.000000	86.400200
849.000000	86.621500
848.000000	86.314700
847.000000	86.422000
846.000000	86.733800
845.000000	86.396900
844.000000	86.127400
843.000000	86.014500
842.000000	85.958500
841.000000	85.521700
840.000000	85.614800
839.000000	85.411900
838.000000	85.234200
837.000000	85.251500
836.000000	85.197600
835.000000	85.065200
834.000000	84.894200
833.000000	84.844700
832.000000	84.797100
831.000000	84.664700
830.000000	84.583900
829.000000	84.491300
828.000000	84.347200
827.000000	83.997100
826.000000	83.981300
825.000000	83.879100
824.000000	83.790200
823.000000	83.569800
822.000000	83.491200
821.000000	83.293900
820.000000	83.141100
819.000000	82.996200
818.000000	82.819200
817.000000	82.666500
816.000000	82.448900
815.000000	82.266300
814.000000	82.124600
813.000000	82.033800
812.000000	81.887600
811.000000	81.749000
810.000000	81.584900
809.000000	81.416900
808.000000	81.281400
807.000000	81.013700
806.000000	80.853900
805.000000	80.706200
804.000000	80.498300
803.000000	80.354500
802.000000	80.275700
801.000000	80.072900
800.000000	79.864000
799.000000	79.604700
798.000000	79.357400
797.000000	79.152500
796.000000	79.032500
795.000000	78.882400
794.000000	78.761800
793.000000	78.595900
792.000000	78.351800
791.000000	78.093000
790.000000	77.954900
789.000000	77.827700
788.000000	77.638900
787.000000	77.419500
786.000000	77.360500
785.000000	77.260200
784.000000	77.087400
783.000000	76.927000
782.000000	76.725900
781.000000	76.473300
780.000000	76.285600
779.000000	76.102700
778.000000	76.044400
777.000000	75.954500
776.000000	75.744100
775.000000	75.544600
774.000000	75.379300
773.000000	75.195100
772.000000	75.070400
771.000000	74.859200
770.000000	74.715600
769.000000	74.550500
768.000000	74.376500
767.000000	74.122700
766.000000	73.974300
765.000000	73.799400
764.000000	73.626400
763.000000	73.427100
762.000000	73.285300
761.000000	73.215100
760.000000	72.986900
759.000000	72.708900
758.000000	72.568200
757.000000	72.407400
756.000000	72.178200
755.000000	71.934500
754.000000	71.761500
753.000000	71.641300
752.000000	71.471500
751.000000	71.266800
750.000000	71.117300
749.000000	70.903800
748.000000	70.684000
747.000000	70.552300
746.000000	70.337000
745.000000	70.095400
744.000000	69.949900
743.000000	69.712300
742.000000	69.436600
741.000000	69.189800
740.000000	68.864800
739.000000	68.656700
738.000000	68.467000
737.000000	68.212100
736.000000	67.976400
735.000000	67.716800
734.000000	67.470700
733.000000	67.127800
732.000000	66.885800
731.000000	66.646000
730.000000	66.350900
729.000000	66.054800
728.000000	65.731400
727.000000	65.494100
726.000000	65.208100
725.000000	64.935100
724.000000	64.674400
723.000000	64.376600
722.000000	64.125900
721.000000	63.874200
720.000000	63.579600
719.000000	63.327300
718.000000	63.078800
717.000000	62.831500
716.000000	62.586000
715.000000	62.366600
714.000000	62.152600
713.000000	61.887000
712.000000	61.565900
711.000000	61.277000
710.000000	61.070200
709.000000	60.790500
708.000000	60.470200
707.000000	60.178700
706.000000	59.900100
705.000000	59.595800
704.000000	59.273600
703.000000	58.956800
702.000000	58.663700
701.000000	58.350700
700.000000	58.099200
699.000000	57.793400
698.000000	57.504100
697.000000	57.183800
696.000000	56.959200
695.000000	56.719100
694.000000	56.449500
693.000000	56.223800
692.000000	56.028800
691.000000	55.915000
690.000000	55.778400
689.000000	55.665500
688.000000	55.576100
687.000000	55.435900
686.000000	55.364900
685.000000	55.323100
684.000000	55.305700
683.000000	55.213300
682.000000	55.143300
681.000000	55.093500
680.000000	55.002200
679.000000	54.871900
678.000000	54.703100
677.000000	54.599300
676.000000	54.408600
675.000000	54.223200
674.000000	53.969300
673.000000	53.717200
672.000000	53.465000
671.000000	53.205300
670.000000	52.875900
669.000000	52.597800
668.000000	52.307800
667.000000	52.016100
666.000000	51.725500
665.000000	51.414600
664.000000	51.123900
663.000000	50.839000
662.000000	50.630400
661.000000	50.390400
660.000000	50.173000
659.000000	49.991500
658.000000	49.836300
657.000000	49.647600
656.000000	49.524100
655.000000	49.401500
654.000000	49.269700
653.000000	49.143500
652.000000	49.082900
651.000000	48.993100
650.000000	48.930300
649.000000	48.825600
648.000000	48.725800
647.000000	48.696000
646.000000	48.654400
645.000000	48.614700
644.000000	48.630000
643.000000	48.601600
642.000000	48.656900
641.000000	48.701500
640.000000	48.753800
639.000000	48.861700
638.000000	48.935100
637.000000	49.098100
636.000000	49.242900
635.000000	49.406200
634.000000	49.619900
633.000000	49.818300
632.000000	50.003300
631.000000	50.274400
630.000000	50.546400
629.000000	50.855400
628.000000	51.173700
627.000000	51.494300
626.000000	51.812700
625.000000	52.138000
624.000000	52.526500
623.000000	52.950600
622.000000	53.316900
621.000000	53.781000
620.000000	54.153900
619.000000	54.566400
618.000000	55.031500
617.000000	55.478500
616.000000	55.959800
615.000000	56.439900
614.000000	56.876300
613.000000	57.316400
612.000000	57.792600
611.000000	58.183400
610.000000	58.585100
609.000000	58.952000
608.000000	59.290300
607.000000	59.621700
606.000000	59.992100
605.000000	60.310900
604.000000	60.614100
603.000000	60.945000
602.000000	61.247100
601.000000	61.527000
600.000000	61.920500
599.000000	62.184200
598.000000	62.539000
597.000000	62.841600
596.000000	63.153900
595.000000	63.458000
594.000000	63.741800
593.000000	64.053800
592.000000	64.331100
591.000000	64.525800
590.000000	64.737700
589.000000	64.952500
588.000000	65.103100
587.000000	65.201300
586.000000	65.285000
585.000000	65.414000
584.000000	65.432000
583.000000	65.432400
582.000000	65.469500
581.000000	65.485000
580.000000	65.484200
579.000000	65.441600
578.000000	65.433900
577.000000	65.404200
576.000000	65.381300
575.000000	65.354800
574.000000	65.364700
573.000000	65.332500
572.000000	65.336300
571.000000	65.312900
570.000000	65.315400
569.000000	65.284000
568.000000	65.279200
567.000000	65.270400
566.000000	65.238000
565.000000	65.121800
564.000000	64.999600
563.000000	64.864200
562.000000	64.698300
561.000000	64.502700
560.000000	64.301800
559.000000	64.088800
558.000000	63.862600
557.000000	63.588400
556.000000	63.284800
555.000000	62.984300
554.000000	62.675100
553.000000	62.316200
552.000000	61.977900
551.000000	61.571200
550.000000	61.135000
549.000000	60.675900
548.000000	60.179400
547.000000	59.623400
546.000000	58.991400
545.000000	58.363300
544.000000	57.667600
543.000000	56.932900
542.000000	56.116600
541.000000	55.322400
540.000000	54.497300
539.000000	53.604400
538.000000	52.729500
537.000000	51.827000
536.000000	50.910800
535.000000	49.971200
534.000000	49.017200
533.000000	48.054400
532.000000	47.095300
531.000000	46.104100
530.000000	45.167800
529.000000	44.267100
528.000000	43.374900
527.000000	42.502500
526.000000	41.644200
525.000000	40.800900
524.000000	39.987000
523.000000	39.186000
522.000000	38.419000
521.000000	37.671100
520.000000	36.976000
519.000000	36.310800
518.000000	35.680700
517.000000	35.062000
516.000000	34.478600
515.000000	33.935700
514.000000	33.385000
513.000000	32.848400
512.000000	32.348600
511.000000	31.864800
510.000000	31.402500
509.000000	30.962300
508.000000	30.535200
507.000000	30.122300
506.000000	29.714400
505.000000	29.328100
504.000000	28.918800
503.000000	28.537000
502.000000	28.166800
501.000000	27.803900
500.000000	27.467400
499.000000	27.145500
498.000000	26.812300
497.000000	26.508600
496.000000	26.197800
495.000000	25.880400
494.000000	25.580800
493.000000	25.258400
492.000000	24.952200
491.000000	24.658600
490.000000	24.371500
489.000000	24.093100
488.000000	23.802900
487.000000	23.516100
486.000000	23.238600
485.000000	22.949200
484.000000	22.663900
483.000000	22.377000
482.000000	22.101700
481.000000	21.803900
480.000000	21.521100
479.000000	21.232600
478.000000	20.962000
477.000000	20.689500
476.000000	20.412300
475.000000	20.151300
474.000000	19.885900
473.000000	19.616900
472.000000	19.355400
471.000000	19.102300
470.000000	18.843000
469.000000	18.574100
468.000000	18.312400
467.000000	18.045200
466.000000	17.796200
465.000000	17.531000
464.000000	17.255900
463.000000	16.989900
462.000000	16.728200
461.000000	16.437600
460.000000	16.125400
459.000000	15.833100
458.000000	15.551400
457.000000	15.261100
456.000000	14.960500
455.000000	14.662000
454.000000	14.343400
453.000000	14.034100
452.000000	13.721500
451.000000	13.401800
450.000000	13.074700
449.000000	12.753700
448.000000	12.442900
447.000000	12.131700
446.000000	11.809300
445.000000	11.497300
444.000000	11.187200
443.000000	10.892600
442.000000	10.605300
441.000000	10.304200
440.000000	10.019400
439.000000	9.748500
438.000000	9.488700
437.000000	9.236100
436.000000	8.992400
435.000000	8.764000
434.000000	8.536100
433.000000	8.319600
432.000000	8.126800
431.000000	7.938000
430.000000	7.759500
429.000000	7.600800
428.000000	7.443800
427.000000	7.309700
426.000000	7.186000
425.000000	7.045500
424.000000	6.916700
423.000000	6.811900
422.000000	6.711300
421.000000	6.619200
420.000000	6.532100
419.000000	6.447700
418.000000	6.377600
417.000000	6.307300
416.000000	6.244300
415.000000	6.193100
414.000000	6.152600
413.000000	6.095300
412.000000	6.039700
411.000000	6.008500
410.000000	5.978500
409.000000	5.947000
408.000000	5.927100
407.000000	5.899100
406.000000	5.869200
405.000000	5.840400
404.000000	5.810100
403.000000	5.785100
402.000000	5.766700
401.000000	5.762500
400.000000	5.755200
399.000000	5.736100
398.000000	5.720800
397.000000	5.705700
396.000000	5.702700
395.000000	5.703000
394.000000	5.689500
393.000000	5.686200
392.000000	5.683100
391.000000	5.674400
390.000000	5.659800
389.000000	5.652900
388.000000	5.653600
387.000000	5.631000
386.000000	5.624800
385.000000	5.620400
384.000000	5.610300
383.000000	5.604000
382.000000	5.590600
381.000000	5.610100
380.000000	5.593700
379.000000	5.578700
378.000000	5.581900
377.000000	5.575700
376.000000	5.480300
375.000000	5.243300
374.000000	5.179600
373.000000	5.286500
372.000000	5.319000
371.000000	5.375000
370.000000	5.579400
369.000000	5.540000
368.000000	5.450000
367.000000	5.466100
366.000000	5.409800
365.000000	5.378100
364.000000	5.438700
363.000000	5.436600
362.000000	5.465700
361.000000	5.427300
360.000000	5.502000
359.000000	5.536900
358.000000	5.485600
357.000000	5.449800
356.000000	5.465300
355.000000	5.479800
354.000000	5.489500
353.000000	5.415700
352.000000	5.395600
351.000000	5.479200
350.000000	5.432600
349.000000	5.467900
348.000000	5.590700
347.000000	5.503800
346.000000	5.464700
345.000000	5.480200
344.000000	5.563800
343.000000	5.474000
342.000000	5.488800
341.000000	5.336800
340.000000	5.445500
339.000000	5.533000
338.000000	5.446000
337.000000	5.458800
336.000000	5.376900
335.000000	5.457100
334.000000	5.502700
333.000000	5.502700
332.000000	5.548300
331.000000	5.575900
330.000000	5.541300
329.000000	5.436000
328.000000	5.585500
327.000000	5.549400
326.000000	5.618700
325.000000	5.666400
324.000000	5.745800
323.000000	5.687500
322.000000	5.733300
321.000000	5.820400
320.000000	5.867600
319.000000	5.658300
318.000000	6.154800
317.000000	6.263500
316.000000	5.607000
315.000000	5.601000
314.000000	5.577700
313.000000	5.536000
312.000000	5.602200
311.000000	5.652600
310.000000	5.590700
309.000000	5.586600
308.000000	5.573500
307.000000	5.594300
306.000000	5.604200
305.000000	5.604600
304.000000	5.562000
303.000000	5.552300
302.000000	5.566500
301.000000	5.630600
300.000000	5.624400
299.000000	5.571100
298.000000	5.653700
297.000000	5.565300
296.000000	5.609400
295.000000	5.640100
294.000000	5.632900
293.000000	5.663400
292.000000	5.642900
291.000000	5.687800
290.000000	5.665100
289.000000	5.662900
288.000000	5.755400
287.000000	5.749700
286.000000	5.758100
285.000000	5.787400
284.000000	5.784600
283.000000	5.810000
282.000000	5.806700
281.000000	5.787200
280.000000	5.811200
279.000000	5.822600
278.000000	5.861100
277.000000	5.805700
276.000000	5.872600
275.000000	5.884300
274.000000	5.910900
273.000000	5.917300
272.000000	5.910600
271.000000	5.861700
270.000000	5.942500
269.000000	5.976700
268.000000	6.021000
267.000000	5.993700
266.000000	6.057700
265.000000	6.032900
264.000000	6.115300
263.000000	6.148100
262.000000	6.151100
261.000000	6.205200
260.000000	6.184200
259.000000	6.222700
258.000000	6.255600
257.000000	6.286100
256.000000	6.276200
255.000000	6.283000
254.000000	6.351400
253.000000	6.384000
252.000000	6.320700
251.000000	6.334300
250.000000	6.397100
