PE UV       SUBTECH     SPECTRUM    ASCII       PEDS        4.00        
   -1
CICIMAUCR0236-1.Sample.ASC
24/06/19
14:03:29.00
24/06/19
14:03:29.00
Vinicio Soto Monge
C. resplendens. Sex M. Ventral 
250,000000
1
Lambda 1050
1050L1511233
PerkinElmer UV WinLab 6.3.2.0749 / 2.02.05 Lambda 900 UV/VIS/NIR, Aug  7 2015 09:38:08

0
0
3350/servo 860,8/2
0
0
UV/VIS
1
1
1
DoubleDePol,CommonBeamDepol,RBeamAtt,SBeamAtt,60mm sphere, WB InGaAs Detector
0
0
0
0
Program
Program
3350/servo 860,8/2
3350/0,2 860,8/0,2
3350/0,2 860,8/0,2
0
15.00
 
 
 
0
 
860,8
319,2
860,8
Front
100
on
S:100 R:100
0
0
0
0
 
0
 
 
 
0
 
 
0
0
0
0
0
 
 
 
 
0
0


0
0
#HDR
-1
-1
#GR
nm
%R
1.0
0.0
2500,000000
-1,000000
2251
8
62,605400
4,250900
#DATA
2482.000000	6.278399
2481.000000	6.277310
2480.000000	6.236053
2479.000000	6.220486
2478.000000	6.229195
2477.000000	6.271323
2476.000000	6.233549
2475.000000	6.271759
2474.000000	6.287434
2473.000000	6.229848
2472.000000	6.214608
2471.000000	6.183475
2470.000000	6.227345
2469.000000	6.218962
2468.000000	6.272630
2467.000000	6.217221
2466.000000	6.238992
2465.000000	6.287979
2464.000000	6.261199
2463.000000	6.241387
2462.000000	6.280467
2461.000000	6.291571
2460.000000	6.340884
2459.000000	6.303328
2458.000000	6.309859
2457.000000	6.330651
2456.000000	6.340231
2455.000000	6.346653
2454.000000	6.394660
2453.000000	6.413601
2452.000000	6.444952
2451.000000	6.468139
2450.000000	6.489584
2449.000000	6.492959
2448.000000	6.534107
2447.000000	6.572643
2446.000000	6.581243
2445.000000	6.619234
2444.000000	6.656573
2443.000000	6.683134
2442.000000	6.695217
2441.000000	6.703926
2440.000000	6.742679
2439.000000	6.780889
2438.000000	6.783828
2437.000000	6.850776
2436.000000	6.869935
2435.000000	6.893122
2434.000000	6.908253
2433.000000	6.943087
2432.000000	6.942325
2431.000000	6.960614
2430.000000	7.017655
2429.000000	7.038992
2428.000000	7.036597
2427.000000	7.054014
2426.000000	7.051619
2425.000000	7.100496
2424.000000	7.115628
2423.000000	7.149592
2422.000000	7.162437
2421.000000	7.171145
2420.000000	7.183229
2419.000000	7.191067
2418.000000	7.230800
2417.000000	7.256599
2416.000000	7.271622
2415.000000	7.284140
2414.000000	7.285555
2413.000000	7.302102
2412.000000	7.302211
2411.000000	7.317669
2410.000000	7.323765
2409.000000	7.356204
2408.000000	7.381351
2407.000000	7.391366
2406.000000	7.402143
2405.000000	7.421084
2404.000000	7.423697
2403.000000	7.438175
2402.000000	7.448516
2401.000000	7.457551
2400.000000	7.482807
2399.000000	7.497176
2398.000000	7.506429
2397.000000	7.528636
2396.000000	7.534950
2395.000000	7.543223
2394.000000	7.569458
2393.000000	7.583609
2392.000000	7.601027
2391.000000	7.616049
2390.000000	7.621601
2389.000000	7.635970
2388.000000	7.637276
2387.000000	7.639780
2386.000000	7.649577
2385.000000	7.664382
2384.000000	7.680820
2383.000000	7.676030
2382.000000	7.679949
2381.000000	7.669716
2380.000000	7.670152
2379.000000	7.676683
2378.000000	7.657851
2377.000000	7.663511
2376.000000	7.663185
2375.000000	7.666995
2374.000000	7.670805
2373.000000	7.648815
2372.000000	7.634011
2371.000000	7.628568
2370.000000	7.619315
2369.000000	7.604837
2368.000000	7.593842
2367.000000	7.573486
2366.000000	7.563688
2365.000000	7.543332
2364.000000	7.508824
2363.000000	7.494999
2362.000000	7.479105
2361.000000	7.445686
2360.000000	7.419016
2359.000000	7.414008
2358.000000	7.399857
2357.000000	7.372424
2356.000000	7.353156
2355.000000	7.333453
2354.000000	7.319410
2353.000000	7.311681
2352.000000	7.300034
2351.000000	7.306130
2350.000000	7.304823
2349.000000	7.306892
2348.000000	7.330296
2347.000000	7.346952
2346.000000	7.365784
2345.000000	7.385596
2344.000000	7.406824
2343.000000	7.427942
2342.000000	7.440352
2341.000000	7.464192
2340.000000	7.468437
2339.000000	7.476711
2338.000000	7.485637
2337.000000	7.492168
2336.000000	7.494563
2335.000000	7.484331
2334.000000	7.489991
2333.000000	7.490318
2332.000000	7.484004
2331.000000	7.471812
2330.000000	7.459402
2329.000000	7.452109
2328.000000	7.425221
2327.000000	7.406824
2326.000000	7.369050
2325.000000	7.331820
2324.000000	7.312117
2323.000000	7.281745
2322.000000	7.233086
2321.000000	7.208375
2320.000000	7.177024
2319.000000	7.127711
2318.000000	7.082099
2317.000000	7.041169
2316.000000	7.017220
2315.000000	6.969975
2314.000000	6.917288
2313.000000	6.890400
2312.000000	6.869282
2311.000000	6.807015
2310.000000	6.771745
2309.000000	6.725371
2308.000000	6.699789
2307.000000	6.683569
2306.000000	6.677147
2305.000000	6.665717
2304.000000	6.688468
2303.000000	6.702402
2302.000000	6.715465
2301.000000	6.722432
2300.000000	6.742026
2299.000000	6.789815
2298.000000	6.831072
2297.000000	6.847074
2296.000000	6.866234
2295.000000	6.912607
2294.000000	6.945156
2293.000000	6.971608
2292.000000	6.994904
2291.000000	7.027997
2290.000000	7.021574
2289.000000	7.036923
2288.000000	7.072629
2287.000000	7.045523
2286.000000	7.054341
2285.000000	7.057824
2284.000000	7.040733
2283.000000	7.043999
2282.000000	7.042475
2281.000000	7.017982
2280.000000	6.988699
2279.000000	6.959634
2278.000000	6.942652
2277.000000	6.909233
2276.000000	6.885501
2275.000000	6.872112
2274.000000	6.861226
2273.000000	6.848925
2272.000000	6.844244
2271.000000	6.851102
2270.000000	6.846639
2269.000000	6.857851
2268.000000	6.861008
2267.000000	6.895843
2266.000000	6.933835
2265.000000	6.969758
2264.000000	7.022445
2263.000000	7.086236
2262.000000	7.144693
2261.000000	7.203476
2260.000000	7.300469
2259.000000	7.403558
2258.000000	7.496632
2257.000000	7.612130
2256.000000	7.733398
2255.000000	7.865008
2254.000000	7.965593
2253.000000	8.106673
2252.000000	8.223805
2251.000000	8.321124
2250.000000	8.453060
2249.000000	8.568450
2248.000000	8.656625
2247.000000	8.760693
2246.000000	8.855291
2245.000000	8.956312
2244.000000	9.040895
2243.000000	9.108387
2242.000000	9.199174
2241.000000	9.269388
2240.000000	9.336227
2239.000000	9.399038
2238.000000	9.443452
2237.000000	9.500603
2236.000000	9.553399
2235.000000	9.591608
2234.000000	9.618605
2233.000000	9.693500
2232.000000	9.719952
2231.000000	9.728443
2230.000000	9.755876
2229.000000	9.790057
2228.000000	9.794411
2227.000000	9.802793
2226.000000	9.827722
2225.000000	9.834798
2224.000000	9.797677
2223.000000	9.802685
2222.000000	9.816836
2221.000000	9.805841
2220.000000	9.792670
2219.000000	9.803011
2218.000000	9.790928
2217.000000	9.743683
2216.000000	9.718755
2215.000000	9.726919
2214.000000	9.715925
2213.000000	9.694044
2212.000000	9.654964
2211.000000	9.684029
2210.000000	9.645602
2209.000000	9.636240
2208.000000	9.629382
2207.000000	9.609897
2206.000000	9.608373
2205.000000	9.611203
2204.000000	9.589758
2203.000000	9.576913
2202.000000	9.575389
2201.000000	9.564612
2200.000000	9.558951
2199.000000	9.594983
2198.000000	9.551657
2197.000000	9.535438
2196.000000	9.510509
2195.000000	9.527273
2194.000000	9.543275
2193.000000	9.529233
2192.000000	9.531301
2191.000000	9.502889
2190.000000	9.514319
2189.000000	9.503324
2188.000000	9.490479
2187.000000	9.483403
2186.000000	9.471320
2185.000000	9.457169
2184.000000	9.481879
2183.000000	9.460434
2182.000000	9.454665
2181.000000	9.451726
2180.000000	9.433437
2179.000000	9.425708
2178.000000	9.428430
2177.000000	9.400018
2176.000000	9.421790
2175.000000	9.408618
2174.000000	9.423640
2173.000000	9.419721
2172.000000	9.422007
2171.000000	9.432784
2170.000000	9.432458
2169.000000	9.419721
2168.000000	9.435397
2167.000000	9.433220
2166.000000	9.473062
2165.000000	9.474259
2164.000000	9.472626
2163.000000	9.485581
2162.000000	9.486887
2161.000000	9.512577
2160.000000	9.532498
2159.000000	9.523899
2158.000000	9.555685
2157.000000	9.592915
2156.000000	9.589758
2155.000000	9.610767
2154.000000	9.614686
2153.000000	9.659209
2152.000000	9.683485
2151.000000	9.682941
2150.000000	9.717340
2149.000000	9.762407
2148.000000	9.773619
2147.000000	9.772422
2146.000000	9.797351
2145.000000	9.827178
2144.000000	9.858638
2143.000000	9.858420
2142.000000	9.875728
2141.000000	9.890315
2140.000000	9.910345
2139.000000	9.920034
2138.000000	9.939302
2137.000000	9.933859
2136.000000	9.963033
2135.000000	9.965972
2134.000000	9.982845
2133.000000	9.995690
2132.000000	9.978599
2131.000000	10.006467
2130.000000	10.008753
2129.000000	9.998085
2128.000000	9.985240
2127.000000	9.996343
2126.000000	10.011692
2125.000000	10.002657
2124.000000	9.998847
2123.000000	9.982954
2122.000000	9.969347
2121.000000	9.959985
2120.000000	9.952691
2119.000000	9.939955
2118.000000	9.925912
2117.000000	9.919054
2116.000000	9.896629
2115.000000	9.879103
2114.000000	9.862557
2113.000000	9.831967
2112.000000	9.810414
2111.000000	9.792016
2110.000000	9.775579
2109.000000	9.748800
2108.000000	9.737587
2107.000000	9.707978
2106.000000	9.684900
2105.000000	9.678913
2104.000000	9.653222
2103.000000	9.628729
2102.000000	9.623177
2101.000000	9.594221
2100.000000	9.570599
2099.000000	9.553943
2098.000000	9.520633
2097.000000	9.505393
2096.000000	9.490806
2095.000000	9.472082
2094.000000	9.458475
2093.000000	9.432458
2092.000000	9.418197
2091.000000	9.388370
2090.000000	9.367252
2089.000000	9.359196
2088.000000	9.356366
2087.000000	9.325450
2086.000000	9.307380
2085.000000	9.299215
2084.000000	9.268735
2083.000000	9.248923
2082.000000	9.242609
2081.000000	9.222688
2080.000000	9.197433
2079.000000	9.174573
2078.000000	9.140609
2077.000000	9.110564
2076.000000	9.095324
2075.000000	9.062231
2074.000000	9.037411
2073.000000	9.016184
2072.000000	8.992888
2071.000000	8.973620
2070.000000	8.946623
2069.000000	8.906455
2068.000000	8.860408
2067.000000	8.839289
2066.000000	8.826662
2065.000000	8.792045
2064.000000	8.776913
2063.000000	8.768314
2062.000000	8.735765
2061.000000	8.716170
2060.000000	8.698535
2059.000000	8.666205
2058.000000	8.658040
2057.000000	8.666858
2056.000000	8.657496
2055.000000	8.645521
2054.000000	8.653468
2053.000000	8.684057
2052.000000	8.698100
2051.000000	8.708659
2050.000000	8.736200
2049.000000	8.746215
2048.000000	8.790847
2047.000000	8.824484
2046.000000	8.851590
2045.000000	8.877825
2044.000000	8.917776
2043.000000	8.954461
2042.000000	8.992997
2041.000000	9.039915
2040.000000	9.086288
2039.000000	9.115898
2038.000000	9.150624
2037.000000	9.188724
2036.000000	9.204400
2035.000000	9.232485
2034.000000	9.269279
2033.000000	9.283213
2032.000000	9.314347
2031.000000	9.331546
2030.000000	9.338295
2029.000000	9.349834
2028.000000	9.367252
2027.000000	9.382601
2026.000000	9.384887
2025.000000	9.390330
2024.000000	9.403610
2023.000000	9.411121
2022.000000	9.417653
2021.000000	9.426906
2020.000000	9.407420
2019.000000	9.405025
2018.000000	9.396534
2017.000000	9.402086
2016.000000	9.392507
2015.000000	9.392942
2014.000000	9.386193
2013.000000	9.367034
2012.000000	9.377484
2011.000000	9.355495
2010.000000	9.310210
2009.000000	9.293881
2008.000000	9.281689
2007.000000	9.273634
2006.000000	9.234880
2005.000000	9.207557
2004.000000	9.195364
2003.000000	9.180777
2002.000000	9.141588
2001.000000	9.094562
2000.000000	9.054720
1999.000000	9.050474
1998.000000	9.007911
1997.000000	8.972640
1996.000000	8.930077
1995.000000	8.899161
1994.000000	8.866177
1993.000000	8.841031
1992.000000	8.788343
1991.000000	8.737507
1990.000000	8.695052
1989.000000	8.661306
1988.000000	8.609272
1987.000000	8.582275
1986.000000	8.502264
1985.000000	8.477227
1984.000000	8.442283
1983.000000	8.392862
1982.000000	8.356721
1981.000000	8.307843
1980.000000	8.273335
1979.000000	8.214334
1978.000000	8.175363
1977.000000	8.132799
1976.000000	8.107109
1975.000000	8.080547
1974.000000	8.012946
1973.000000	7.963416
1972.000000	7.925642
1971.000000	7.908333
1970.000000	7.864790
1969.000000	7.821247
1968.000000	7.799040
1967.000000	7.757347
1966.000000	7.716090
1965.000000	7.676139
1964.000000	7.663402
1963.000000	7.634773
1962.000000	7.603530
1961.000000	7.565865
1960.000000	7.518948
1959.000000	7.499571
1958.000000	7.456354
1957.000000	7.418689
1956.000000	7.433929
1955.000000	7.388971
1954.000000	7.349346
1953.000000	7.333344
1952.000000	7.299925
1951.000000	7.285447
1950.000000	7.249088
1949.000000	7.229602
1948.000000	7.199013
1947.000000	7.161675
1946.000000	7.181052
1945.000000	7.148394
1944.000000	7.134134
1943.000000	7.116063
1942.000000	7.108117
1941.000000	7.089284
1940.000000	7.098428
1939.000000	7.091570
1938.000000	7.079487
1937.000000	7.076765
1936.000000	7.078181
1935.000000	7.078507
1934.000000	7.082317
1933.000000	7.096795
1932.000000	7.115628
1931.000000	7.134569
1930.000000	7.136311
1929.000000	7.170275
1928.000000	7.186277
1927.000000	7.232433
1926.000000	7.248435
1925.000000	7.269553
1924.000000	7.312117
1923.000000	7.356531
1922.000000	7.399421
1921.000000	7.467022
1920.000000	7.494563
1919.000000	7.573594
1918.000000	7.600809
1917.000000	7.676901
1916.000000	7.729262
1915.000000	7.780752
1914.000000	7.847917
1913.000000	7.957211
1912.000000	8.040052
1911.000000	8.141072
1910.000000	8.226962
1909.000000	8.284548
1908.000000	8.376642
1907.000000	8.487242
1906.000000	8.588915
1905.000000	8.726839
1904.000000	8.848978
1903.000000	8.986901
1902.000000	9.112850
1901.000000	9.256760
1900.000000	9.393378
1899.000000	9.569293
1898.000000	9.768612
1897.000000	9.931355
1896.000000	10.107814
1895.000000	10.259454
1894.000000	10.441138
1893.000000	10.671373
1892.000000	10.906398
1891.000000	11.174952
1890.000000	11.458636
1889.000000	11.741668
1888.000000	12.042878
1887.000000	12.344633
1886.000000	12.678066
1885.000000	13.074419
1884.000000	13.512791
1883.000000	13.955082
1882.000000	14.441134
1881.000000	14.944168
1880.000000	15.424451
1879.000000	15.880240
1878.000000	16.387737
1877.000000	16.896541
1876.000000	17.392934
1875.000000	17.882687
1874.000000	18.361664
1873.000000	18.827359
1872.000000	19.282387
1871.000000	19.697463
1870.000000	20.131808
1869.000000	20.482222
1868.000000	20.859416
1867.000000	21.159538
1866.000000	21.403925
1865.000000	21.622839
1864.000000	21.842297
1863.000000	22.022784
1862.000000	22.206537
1861.000000	22.407380
1860.000000	22.598100
1859.000000	22.760190
1858.000000	22.908346
1857.000000	23.022103
1856.000000	23.118116
1855.000000	23.171565
1854.000000	23.265074
1853.000000	23.324184
1852.000000	23.348677
1851.000000	23.374150
1850.000000	23.400167
1849.000000	23.424443
1848.000000	23.439139
1847.000000	23.432825
1846.000000	23.403977
1845.000000	23.363700
1844.000000	23.354229
1843.000000	23.335506
1842.000000	23.349548
1841.000000	23.359781
1840.000000	23.343997
1839.000000	23.312645
1838.000000	23.299256
1837.000000	23.264965
1836.000000	23.229042
1835.000000	23.181907
1834.000000	23.109734
1833.000000	23.043112
1832.000000	22.995432
1831.000000	22.947426
1830.000000	22.878301
1829.000000	22.808741
1828.000000	22.745276
1827.000000	22.667007
1826.000000	22.581771
1825.000000	22.511449
1824.000000	22.448638
1823.000000	22.396603
1822.000000	22.372110
1821.000000	22.360354
1820.000000	22.316375
1819.000000	22.277839
1818.000000	22.225043
1817.000000	22.177798
1816.000000	22.166695
1815.000000	22.162558
1814.000000	22.146120
1813.000000	22.124893
1812.000000	22.101597
1811.000000	22.060884
1810.000000	22.029207
1809.000000	21.987296
1808.000000	21.944406
1807.000000	21.906415
1806.000000	21.862545
1805.000000	21.807245
1804.000000	21.734201
1803.000000	21.684453
1802.000000	21.650053
1801.000000	21.596822
1800.000000	21.526826
1799.000000	21.462491
1798.000000	21.408279
1797.000000	21.351782
1796.000000	21.291910
1795.000000	21.245319
1794.000000	21.199054
1793.000000	21.150503
1792.000000	21.094441
1791.000000	21.033589
1790.000000	20.974479
1789.000000	20.903613
1788.000000	20.846462
1787.000000	20.781582
1786.000000	20.714852
1785.000000	20.651606
1784.000000	20.577147
1783.000000	20.506280
1782.000000	20.432583
1781.000000	20.353552
1780.000000	20.281923
1779.000000	20.197449
1778.000000	20.113955
1777.000000	20.036339
1776.000000	19.950559
1775.000000	19.852586
1774.000000	19.752545
1773.000000	19.649348
1772.000000	19.541143
1771.000000	19.408009
1770.000000	19.296974
1769.000000	19.202811
1768.000000	19.082632
1767.000000	18.978781
1766.000000	18.878632
1765.000000	18.791001
1764.000000	18.726665
1763.000000	18.688456
1762.000000	18.667773
1761.000000	18.674958
1760.000000	18.708486
1759.000000	18.768032
1758.000000	18.836503
1757.000000	18.912051
1756.000000	18.964847
1755.000000	19.037238
1754.000000	19.102880
1753.000000	19.128135
1752.000000	19.157309
1751.000000	19.164276
1750.000000	19.158942
1749.000000	19.136081
1748.000000	19.097981
1747.000000	19.043769
1746.000000	18.986510
1745.000000	18.910309
1744.000000	18.814079
1743.000000	18.705765
1742.000000	18.535946
1741.000000	18.361664
1740.000000	18.193804
1739.000000	17.990893
1738.000000	17.801806
1737.000000	17.608365
1736.000000	17.424285
1735.000000	17.297466
1734.000000	17.194595
1733.000000	17.148656
1732.000000	17.146153
1731.000000	17.179354
1730.000000	17.244996
1729.000000	17.316625
1728.000000	17.437240
1727.000000	17.545118
1726.000000	17.657024
1725.000000	17.742478
1724.000000	17.829891
1723.000000	17.918720
1722.000000	17.948220
1721.000000	17.984797
1720.000000	18.032694
1719.000000	18.062739
1718.000000	18.090824
1717.000000	18.128598
1716.000000	18.193151
1715.000000	18.257051
1714.000000	18.308541
1713.000000	18.362970
1712.000000	18.431768
1711.000000	18.492729
1710.000000	18.518855
1709.000000	18.546614
1708.000000	18.542042
1707.000000	18.524407
1706.000000	18.504921
1705.000000	18.450928
1704.000000	18.377448
1703.000000	18.326503
1702.000000	18.238981
1701.000000	18.128054
1700.000000	17.997642
1699.000000	17.836205
1698.000000	17.690770
1697.000000	17.544247
1696.000000	17.462059
1695.000000	17.390431
1694.000000	17.400554
1693.000000	17.426680
1692.000000	17.540437
1691.000000	17.673462
1690.000000	17.815740
1689.000000	17.997424
1688.000000	18.132299
1687.000000	18.235170
1686.000000	18.325958
1685.000000	18.376686
1684.000000	18.439389
1683.000000	18.553690
1682.000000	18.742014
1681.000000	19.067609
1680.000000	19.449158
1679.000000	19.924868
1678.000000	20.451198
1677.000000	21.002129
1676.000000	21.508755
1675.000000	21.987079
1674.000000	22.411081
1673.000000	22.790452
1672.000000	23.154148
1671.000000	23.414972
1670.000000	23.656746
1669.000000	23.884587
1668.000000	24.052664
1667.000000	24.225095
1666.000000	24.363563
1665.000000	24.466760
1664.000000	24.592927
1663.000000	24.673809
1662.000000	24.769278
1661.000000	24.803024
1660.000000	24.863004
1659.000000	24.919828
1658.000000	24.956949
1657.000000	24.968924
1656.000000	24.991893
1655.000000	24.996465
1654.000000	25.006697
1653.000000	24.999295
1652.000000	24.974149
1651.000000	24.951615
1650.000000	24.930605
1649.000000	24.875632
1648.000000	24.820114
1647.000000	24.776789
1646.000000	24.726170
1645.000000	24.674027
1644.000000	24.597826
1643.000000	24.509542
1642.000000	24.473727
1641.000000	24.394152
1640.000000	24.340376
1639.000000	24.238158
1638.000000	24.195595
1637.000000	24.111229
1636.000000	24.052119
1635.000000	23.958610
1634.000000	23.891880
1633.000000	23.789662
1632.000000	23.723912
1631.000000	23.621150
1630.000000	23.510114
1629.000000	23.430539
1628.000000	23.329627
1627.000000	23.252120
1626.000000	23.149685
1625.000000	23.056175
1624.000000	22.966476
1623.000000	22.869919
1622.000000	22.789908
1621.000000	22.695201
1620.000000	22.610619
1619.000000	22.520811
1618.000000	22.434268
1617.000000	22.351863
1616.000000	22.256829
1615.000000	22.190644
1614.000000	22.114878
1613.000000	22.004496
1612.000000	21.938201
1611.000000	21.850026
1610.000000	21.769471
1609.000000	21.702850
1608.000000	21.594209
1607.000000	21.518988
1606.000000	21.430595
1605.000000	21.369417
1604.000000	21.306170
1603.000000	21.210157
1602.000000	21.121982
1601.000000	21.047632
1600.000000	20.962831
1599.000000	20.866492
1598.000000	20.796061
1597.000000	20.721384
1596.000000	20.644965
1595.000000	20.568438
1594.000000	20.496592
1593.000000	20.430732
1592.000000	20.369772
1591.000000	20.282794
1590.000000	20.228256
1589.000000	20.162179
1588.000000	20.105464
1587.000000	20.035903
1586.000000	19.974834
1585.000000	19.929984
1584.000000	19.850736
1583.000000	19.805886
1582.000000	19.747647
1581.000000	19.698116
1580.000000	19.653376
1579.000000	19.615166
1578.000000	19.580114
1577.000000	19.549525
1576.000000	19.512840
1575.000000	19.480182
1574.000000	19.449702
1573.000000	19.421508
1572.000000	19.398212
1571.000000	19.380468
1570.000000	19.369364
1569.000000	19.355866
1568.000000	19.353036
1567.000000	19.343021
1566.000000	19.340299
1565.000000	19.331917
1564.000000	19.333441
1563.000000	19.320487
1562.000000	19.314718
1561.000000	19.326257
1560.000000	19.301764
1559.000000	19.274658
1558.000000	19.258220
1557.000000	19.238735
1556.000000	19.218705
1555.000000	19.175815
1554.000000	19.159921
1553.000000	19.129332
1552.000000	19.093191
1551.000000	19.070222
1550.000000	19.031577
1549.000000	18.992171
1548.000000	18.955050
1547.000000	18.911289
1546.000000	18.869052
1545.000000	18.839987
1544.000000	18.813425
1543.000000	18.797206
1542.000000	18.770862
1541.000000	18.718392
1540.000000	18.693028
1539.000000	18.680618
1538.000000	18.662983
1537.000000	18.621508
1536.000000	18.596036
1535.000000	18.556085
1534.000000	18.509820
1533.000000	18.481190
1532.000000	18.452234
1531.000000	18.417617
1530.000000	18.362317
1529.000000	18.302989
1528.000000	18.269679
1527.000000	18.237021
1526.000000	18.193587
1525.000000	18.135021
1524.000000	18.083858
1523.000000	18.039879
1522.000000	17.985123
1521.000000	17.928190
1520.000000	17.888022
1519.000000	17.837947
1518.000000	17.772088
1517.000000	17.711998
1516.000000	17.652452
1515.000000	17.598676
1514.000000	17.552629
1513.000000	17.489056
1512.000000	17.420693
1511.000000	17.359188
1510.000000	17.297466
1509.000000	17.239226
1508.000000	17.190676
1507.000000	17.124708
1506.000000	17.064291
1505.000000	17.010080
1504.000000	16.944983
1503.000000	16.882825
1502.000000	16.813482
1501.000000	16.766891
1500.000000	16.724218
1499.000000	16.654222
1498.000000	16.599575
1497.000000	16.556468
1496.000000	16.499317
1495.000000	16.437594
1494.000000	16.390459
1493.000000	16.361394
1492.000000	16.304243
1491.000000	16.256999
1490.000000	16.228151
1489.000000	16.181233
1488.000000	16.141718
1487.000000	16.097739
1486.000000	16.070198
1485.000000	16.041024
1484.000000	15.997480
1483.000000	15.960469
1482.000000	15.940439
1481.000000	15.919211
1480.000000	15.879260
1479.000000	15.838656
1478.000000	15.828315
1477.000000	15.828532
1476.000000	15.798379
1475.000000	15.768987
1474.000000	15.754291
1473.000000	15.754727
1472.000000	15.765612
1471.000000	15.736330
1470.000000	15.721634
1469.000000	15.730125
1468.000000	15.721089
1467.000000	15.709768
1466.000000	15.712054
1465.000000	15.711401
1464.000000	15.729145
1463.000000	15.736330
1462.000000	15.740248
1461.000000	15.762129
1460.000000	15.782703
1459.000000	15.812748
1458.000000	15.842466
1457.000000	15.873600
1456.000000	15.919320
1455.000000	15.979628
1454.000000	16.019688
1453.000000	16.083696
1452.000000	16.158808
1451.000000	16.227063
1450.000000	16.291615
1449.000000	16.341799
1448.000000	16.404610
1447.000000	16.499644
1446.000000	16.578457
1445.000000	16.662060
1444.000000	16.739894
1443.000000	16.821537
1442.000000	16.904161
1441.000000	17.017047
1440.000000	17.093901
1439.000000	17.201126
1438.000000	17.292894
1437.000000	17.396200
1436.000000	17.493737
1435.000000	17.602051
1434.000000	17.718856
1433.000000	17.839906
1432.000000	17.966944
1431.000000	18.092022
1430.000000	18.218515
1429.000000	18.366127
1428.000000	18.526149
1427.000000	18.685517
1426.000000	18.848369
1425.000000	19.028965
1424.000000	19.237211
1423.000000	19.446218
1422.000000	19.627141
1421.000000	19.856505
1420.000000	20.099803
1419.000000	20.340924
1418.000000	20.625697
1417.000000	20.844067
1416.000000	21.088889
1415.000000	21.364083
1414.000000	21.684562
1413.000000	22.018539
1412.000000	22.305598
1411.000000	22.615191
1410.000000	22.951671
1409.000000	23.359346
1408.000000	23.810345
1407.000000	24.229994
1406.000000	24.663576
1405.000000	25.113378
1404.000000	25.636987
1403.000000	26.117051
1402.000000	26.528100
1401.000000	27.029175
1400.000000	27.589359
1399.000000	28.097727
1398.000000	28.502789
1397.000000	28.874431
1396.000000	29.340997
1395.000000	29.833907
1394.000000	30.298405
1393.000000	30.673857
1392.000000	31.092853
1391.000000	31.562358
1390.000000	32.063542
1389.000000	32.496035
1388.000000	33.096389
1387.000000	33.700443
1386.000000	34.339332
1385.000000	34.995312
1384.000000	35.670342
1383.000000	36.412755
1382.000000	37.142649
1381.000000	37.833137
1380.000000	38.333123
1379.000000	38.772148
1378.000000	39.120277
1377.000000	39.392858
1376.000000	39.695702
1375.000000	39.981128
1374.000000	40.257955
1373.000000	40.614574
1372.000000	41.023663
1371.000000	41.456484
1370.000000	41.909878
1369.000000	42.305469
1368.000000	42.709224
1367.000000	43.064320
1366.000000	43.397862
1365.000000	43.642902
1364.000000	43.931920
1363.000000	44.146371
1362.000000	44.395656
1361.000000	44.637975
1360.000000	44.838274
1359.000000	44.899343
1358.000000	45.042819
1357.000000	45.199683
1356.000000	45.392689
1355.000000	45.706092
1354.000000	46.096240
1353.000000	46.577720
1352.000000	47.004009
1351.000000	47.598810
1350.000000	48.151592
1349.000000	48.668669
1348.000000	49.166260
1347.000000	49.614212
1346.000000	50.078274
1345.000000	50.429015
1344.000000	50.843003
1343.000000	51.275388
1342.000000	51.660093
1341.000000	52.014862
1340.000000	52.410344
1339.000000	52.791130
1338.000000	53.138824
1337.000000	53.514929
1336.000000	53.848253
1335.000000	54.201498
1334.000000	54.547776
1333.000000	54.884039
1332.000000	55.207021
1331.000000	55.549272
1330.000000	55.841665
1329.000000	56.154197
1328.000000	56.445828
1327.000000	56.719933
1326.000000	56.986962
1325.000000	57.248875
1324.000000	57.495222
1323.000000	57.744289
1322.000000	57.984322
1321.000000	58.205739
1320.000000	58.442179
1319.000000	58.633661
1318.000000	58.819917
1317.000000	59.020652
1316.000000	59.207344
1315.000000	59.388158
1314.000000	59.564943
1313.000000	59.730626
1312.000000	59.891845
1311.000000	60.041960
1310.000000	60.179339
1309.000000	60.303111
1308.000000	60.433959
1307.000000	60.566875
1306.000000	60.660057
1305.000000	60.739197
1304.000000	60.829114
1303.000000	60.923603
1302.000000	60.991313
1301.000000	61.037469
1300.000000	61.101586
1299.000000	61.146109
1298.000000	61.200538
1297.000000	61.224052
1296.000000	61.253879
1295.000000	61.282835
1294.000000	61.308526
1293.000000	61.326596
1292.000000	61.329427
1291.000000	61.351307
1290.000000	61.344667
1289.000000	61.336829
1288.000000	61.321589
1287.000000	61.292959
1286.000000	61.258560
1285.000000	61.216214
1284.000000	61.155253
1283.000000	61.111166
1282.000000	61.063050
1281.000000	61.005247
1280.000000	60.955825
1279.000000	60.896497
1278.000000	60.834339
1277.000000	60.774249
1276.000000	60.729291
1275.000000	60.684006
1274.000000	60.643728
1273.000000	60.591803
1272.000000	60.551961
1271.000000	60.517997
1270.000000	60.485666
1269.000000	60.443212
1268.000000	60.395532
1267.000000	60.357758
1266.000000	60.317045
1265.000000	60.269256
1264.000000	60.228652
1263.000000	60.168998
1262.000000	60.101070
1261.000000	60.060901
1260.000000	59.999832
1259.000000	59.939525
1258.000000	59.881176
1257.000000	59.822393
1256.000000	59.733565
1255.000000	59.649853
1254.000000	59.573979
1253.000000	59.500717
1252.000000	59.417332
1251.000000	59.311412
1250.000000	59.222149
1249.000000	59.122761
1248.000000	59.021523
1247.000000	58.894812
1246.000000	58.758521
1245.000000	58.626476
1244.000000	58.488880
1243.000000	58.343663
1242.000000	58.201058
1241.000000	58.055188
1240.000000	57.910842
1239.000000	57.759421
1238.000000	57.594718
1237.000000	57.439051
1236.000000	57.269123
1235.000000	57.099304
1234.000000	56.927852
1233.000000	56.749216
1232.000000	56.553380
1231.000000	56.367777
1230.000000	56.171397
1229.000000	55.961736
1228.000000	55.759477
1227.000000	55.551558
1226.000000	55.338196
1225.000000	55.111444
1224.000000	54.892748
1223.000000	54.693210
1222.000000	54.466568
1221.000000	54.220439
1220.000000	53.995429
1219.000000	53.782829
1218.000000	53.575345
1217.000000	53.363398
1216.000000	53.160813
1215.000000	52.953547
1214.000000	52.762392
1213.000000	52.589743
1212.000000	52.399567
1211.000000	52.217339
1210.000000	52.036416
1209.000000	51.865182
1208.000000	51.728347
1207.000000	51.581280
1206.000000	51.435301
1205.000000	51.338526
1204.000000	51.234131
1203.000000	51.132784
1202.000000	51.066707
1201.000000	51.006400
1200.000000	50.945439
1199.000000	50.874246
1198.000000	50.774096
1197.000000	50.650977
1196.000000	50.473974
1195.000000	50.254407
1194.000000	49.978778
1193.000000	49.661238
1192.000000	49.284480
1191.000000	48.829344
1190.000000	48.352980
1189.000000	47.889026
1188.000000	47.487775
1187.000000	47.160220
1186.000000	46.969283
1185.000000	46.905165
1184.000000	46.961880
1183.000000	47.184169
1182.000000	47.524242
1181.000000	47.985801
1180.000000	48.527589
1179.000000	49.075690
1178.000000	49.602564
1177.000000	50.098086
1176.000000	50.549304
1175.000000	50.949576
1174.000000	51.299664
1173.000000	51.648445
1172.000000	51.981116
1171.000000	52.328918
1170.000000	52.689130
1169.000000	53.060663
1168.000000	53.444389
1167.000000	53.827679
1166.000000	54.214016
1165.000000	54.583046
1164.000000	54.993877
1163.000000	55.422343
1162.000000	55.827949
1161.000000	56.245856
1160.000000	56.658319
1159.000000	57.062619
1158.000000	57.462455
1157.000000	57.834859
1156.000000	58.173082
1155.000000	58.515876
1154.000000	58.805548
1153.000000	59.037416
1152.000000	59.226938
1151.000000	59.382715
1150.000000	59.496580
1149.000000	59.617304
1148.000000	59.732476
1147.000000	59.863215
1146.000000	60.045552
1145.000000	60.247267
1144.000000	60.522896
1143.000000	60.828352
1142.000000	61.197490
1141.000000	61.612131
1140.000000	62.032977
1139.000000	62.488331
1138.000000	62.926486
1137.000000	63.400346
1136.000000	63.864953
1135.000000	64.397052
1134.000000	64.903134
1133.000000	65.392669
1132.000000	65.797295
1131.000000	66.198982
1130.000000	66.551574
1129.000000	66.873686
1128.000000	67.120358
1127.000000	67.359738
1126.000000	67.529230
1125.000000	67.692953
1124.000000	67.777318
1123.000000	67.866037
1122.000000	67.976093
1121.000000	68.038795
1120.000000	68.073848
1119.000000	68.105852
1118.000000	68.131434
1117.000000	68.151137
1116.000000	68.130127
1115.000000	68.134155
1114.000000	68.124576
1113.000000	68.082665
1112.000000	68.082121
1111.000000	68.037707
1110.000000	68.023337
1109.000000	68.012125
1108.000000	67.984910
1107.000000	67.966949
1106.000000	67.934074
1105.000000	67.926671
1104.000000	67.890204
1103.000000	67.854172
1102.000000	67.835557
1101.000000	67.796803
1100.000000	67.774379
1099.000000	67.728440
1098.000000	67.688163
1097.000000	67.648647
1096.000000	67.607172
1095.000000	67.560908
1094.000000	67.525202
1093.000000	67.450417
1092.000000	67.413840
1091.000000	67.342973
1090.000000	67.266773
1089.000000	67.212235
1088.000000	67.128414
1087.000000	67.081496
1086.000000	67.011500
1085.000000	66.940960
1084.000000	66.867916
1083.000000	66.776802
1082.000000	66.695158
1081.000000	66.616562
1080.000000	66.564637
1079.000000	66.444022
1078.000000	66.387634
1077.000000	66.306099
1076.000000	66.221189
1075.000000	66.152500
1074.000000	66.067917
1073.000000	65.983334
1072.000000	65.910181
1071.000000	65.821026
1070.000000	65.729803
1069.000000	65.640539
1068.000000	65.569890
1067.000000	65.461576
1066.000000	65.373728
1065.000000	65.289689
1064.000000	65.186165
1063.000000	65.081444
1062.000000	64.985322
1061.000000	64.917285
1060.000000	64.814632
1059.000000	64.715680
1058.000000	64.619340
1057.000000	64.513203
1056.000000	64.410332
1055.000000	64.308332
1054.000000	64.200454
1053.000000	64.091160
1052.000000	64.006468
1051.000000	63.909040
1050.000000	63.808346
1049.000000	63.704169
1048.000000	63.622417
1047.000000	63.527819
1046.000000	63.434745
1045.000000	63.362463
1044.000000	63.295624
1043.000000	63.207884
1042.000000	63.108170
1041.000000	63.030881
1040.000000	62.931711
1039.000000	62.847128
1038.000000	62.760259
1037.000000	62.655538
1036.000000	62.569540
1035.000000	62.486154
1034.000000	62.380126
1033.000000	62.284658
1032.000000	62.165131
1031.000000	62.058232
1030.000000	61.956123
1029.000000	61.860328
1028.000000	61.745374
1027.000000	61.631508
1026.000000	61.526460
1025.000000	61.433386
1024.000000	61.301777
1023.000000	61.217738
1022.000000	61.085475
1021.000000	60.970847
1020.000000	60.859268
1019.000000	60.760207
1018.000000	60.650042
1017.000000	60.566875
1016.000000	60.466290
1015.000000	60.389436
1014.000000	60.313561
1013.000000	60.234639
1012.000000	60.153213
1011.000000	60.107166
1010.000000	60.052737
1009.000000	60.000159
1008.000000	59.961623
1007.000000	59.895546
1006.000000	59.861364
1005.000000	59.826965
1004.000000	59.793546
1003.000000	59.747607
1002.000000	59.686429
1001.000000	59.639185
1000.000000	59.626775
999.000000	59.595424
998.000000	59.558085
997.000000	59.505507
996.000000	59.470019
995.000000	59.439647
994.000000	59.404160
993.000000	59.391314
992.000000	59.364426
991.000000	59.333946
990.000000	59.321319
989.000000	59.294213
988.000000	59.289967
987.000000	59.279844
986.000000	59.254806
985.000000	59.245989
984.000000	59.247404
983.000000	59.237498
982.000000	59.230204
981.000000	59.236191
980.000000	59.251867
979.000000	59.250778
978.000000	59.244791
977.000000	59.272768
976.000000	59.293124
975.000000	59.297152
974.000000	59.300744
973.000000	59.316529
972.000000	59.320230
971.000000	59.306296
970.000000	59.334490
969.000000	59.359201
968.000000	59.360181
967.000000	59.351146
966.000000	59.382932
965.000000	59.410582
964.000000	59.420597
963.000000	59.449771
962.000000	59.473611
961.000000	59.494185
960.000000	59.541430
959.000000	59.570713
958.000000	59.586062
957.000000	59.620679
956.000000	59.656275
955.000000	59.693831
954.000000	59.712555
953.000000	59.738790
952.000000	59.780918
951.000000	59.820216
950.000000	59.837198
949.000000	59.863215
948.000000	59.899465
947.000000	59.928312
946.000000	59.968916
945.000000	59.993192
944.000000	60.008432
943.000000	60.021821
942.000000	60.029659
941.000000	60.055785
940.000000	60.067977
939.000000	60.070154
938.000000	60.082564
937.000000	60.118270
936.000000	60.134054
935.000000	60.136993
934.000000	60.149294
933.000000	60.157676
932.000000	60.185218
931.000000	60.193055
930.000000	60.193600
929.000000	60.211888
928.000000	60.232789
927.000000	60.233768
926.000000	60.233768
925.000000	60.234421
924.000000	60.245090
923.000000	60.251948
922.000000	60.246178
921.000000	60.243457
920.000000	60.235619
919.000000	60.220923
918.000000	60.218202
917.000000	60.224733
916.000000	60.198063
915.000000	60.175203
914.000000	60.153431
913.000000	60.144396
912.000000	60.127632
911.000000	60.122951
910.000000	60.127305
909.000000	60.131550
908.000000	60.136122
907.000000	60.138953
906.000000	60.154846
905.000000	60.180863
904.000000	60.220052
903.000000	60.249444
902.000000	60.274155
901.000000	60.307248
900.000000	60.334027
899.000000	60.380509
898.000000	60.419807
897.000000	60.455948
896.000000	60.493722
895.000000	60.509724
894.000000	60.531496
893.000000	60.550437
892.000000	60.571229
891.000000	60.559472
890.000000	60.556860
889.000000	60.533782
888.000000	60.546083
887.000000	60.558819
886.000000	60.554138
885.000000	60.501995
884.000000	60.491980
883.000000	60.453553
882.000000	60.416759
881.000000	60.339034
880.000000	60.268821
879.000000	60.187068
878.000000	60.092253
877.000000	59.956289
876.000000	59.882918
875.000000	59.697968
874.000000	59.494294
873.000000	59.252629
872.000000	59.032735
871.000000	58.974387
870.000000	59.006065
869.000000	59.070836
868.000000	59.142464
867.000000	59.173707
866.000000	59.229986
865.000000	59.252411
864.000000	59.297043
863.000000	59.329483
862.000000	59.362249
861.000000	59.403071
860.000000	59.411780
859.000000	59.469692
858.000000	59.521400
857.000000	59.224900
856.000000	59.261400
855.000000	60.077900
854.000000	60.050300
853.000000	60.055900
852.000000	59.323700
851.000000	59.752900
850.000000	60.048400
849.000000	60.143300
848.000000	59.722300
847.000000	59.705800
846.000000	59.738500
845.000000	59.656900
844.000000	59.731300
843.000000	59.915500
842.000000	59.539600
841.000000	59.609300
840.000000	59.634600
839.000000	59.489300
838.000000	59.471000
837.000000	59.958800
836.000000	59.334100
835.000000	59.389400
834.000000	59.327500
833.000000	59.639700
832.000000	59.309400
831.000000	59.261500
830.000000	59.302500
829.000000	58.964600
828.000000	59.196800
827.000000	58.941400
826.000000	59.138000
825.000000	58.756400
824.000000	58.729800
823.000000	58.842800
822.000000	58.545000
821.000000	58.381100
820.000000	58.430800
819.000000	58.229200
818.000000	58.174700
817.000000	58.078400
816.000000	57.790600
815.000000	57.642700
814.000000	57.634400
813.000000	57.517500
812.000000	57.316300
811.000000	57.176100
810.000000	57.330400
809.000000	57.111000
808.000000	56.730000
807.000000	56.827000
806.000000	56.699900
805.000000	56.477400
804.000000	56.354900
803.000000	56.217900
802.000000	55.941600
801.000000	55.869900
800.000000	55.813500
799.000000	55.510500
798.000000	55.303400
797.000000	55.181200
796.000000	55.080800
795.000000	54.970900
794.000000	54.644000
793.000000	54.568000
792.000000	54.299900
791.000000	54.207400
790.000000	54.048000
789.000000	53.745900
788.000000	53.656600
787.000000	53.468800
786.000000	53.206600
785.000000	53.142600
784.000000	52.825800
783.000000	52.651400
782.000000	52.394200
781.000000	52.271000
780.000000	51.965300
779.000000	51.795500
778.000000	51.664100
777.000000	51.375400
776.000000	51.249900
775.000000	50.960500
774.000000	50.805600
773.000000	50.580200
772.000000	50.284600
771.000000	49.967200
770.000000	49.903500
769.000000	49.688900
768.000000	49.468500
767.000000	49.257600
766.000000	49.148700
765.000000	48.837900
764.000000	48.492600
763.000000	48.285400
762.000000	48.103900
761.000000	47.773600
760.000000	47.637300
759.000000	47.311800
758.000000	47.173000
757.000000	46.883100
756.000000	46.595500
755.000000	46.302300
754.000000	46.101500
753.000000	45.829900
752.000000	45.652400
751.000000	45.282100
750.000000	44.940100
749.000000	44.729500
748.000000	44.401900
747.000000	44.108700
746.000000	43.832900
745.000000	43.558500
744.000000	43.250300
743.000000	42.966800
742.000000	42.664000
741.000000	42.316300
740.000000	42.021200
739.000000	41.760200
738.000000	41.482400
737.000000	41.219200
736.000000	40.830600
735.000000	40.531900
734.000000	40.276300
733.000000	40.040600
732.000000	39.684100
731.000000	39.408100
730.000000	39.129500
729.000000	38.870500
728.000000	38.625900
727.000000	38.341200
726.000000	38.098900
725.000000	37.781700
724.000000	37.533600
723.000000	37.312600
722.000000	37.056700
721.000000	36.788800
720.000000	36.594400
719.000000	36.310400
718.000000	36.063700
717.000000	35.864800
716.000000	35.646900
715.000000	35.464900
714.000000	35.246200
713.000000	35.020000
712.000000	34.771100
711.000000	34.588500
710.000000	34.402100
709.000000	34.189700
708.000000	34.025300
707.000000	33.837200
706.000000	33.662300
705.000000	33.509400
704.000000	33.342200
703.000000	33.132900
702.000000	32.915900
701.000000	32.704800
700.000000	32.546100
699.000000	32.374700
698.000000	32.158000
697.000000	31.993700
696.000000	31.861400
695.000000	31.702200
694.000000	31.511900
693.000000	31.328800
692.000000	31.184100
691.000000	31.080400
690.000000	30.898400
689.000000	30.758200
688.000000	30.579600
687.000000	30.442400
686.000000	30.310800
685.000000	30.150400
684.000000	30.007000
683.000000	29.840900
682.000000	29.724600
681.000000	29.606700
680.000000	29.489300
679.000000	29.362300
678.000000	29.248600
677.000000	29.178200
676.000000	29.094000
675.000000	28.959400
674.000000	28.877000
673.000000	28.791300
672.000000	28.696000
671.000000	28.623200
670.000000	28.526700
669.000000	28.418100
668.000000	28.356900
667.000000	28.310100
666.000000	28.271000
665.000000	28.203300
664.000000	28.155900
663.000000	28.113500
662.000000	28.067600
661.000000	28.038400
660.000000	28.003400
659.000000	27.969400
658.000000	27.956500
657.000000	27.945700
656.000000	27.937600
655.000000	27.920000
654.000000	27.937500
653.000000	27.983700
652.000000	28.006000
651.000000	28.039500
650.000000	28.118600
649.000000	28.201300
648.000000	28.280000
647.000000	28.370000
646.000000	28.473700
645.000000	28.599400
644.000000	28.726400
643.000000	28.862000
642.000000	29.000100
641.000000	29.143100
640.000000	29.300200
639.000000	29.484700
638.000000	29.665600
637.000000	29.829100
636.000000	30.000700
635.000000	30.181700
634.000000	30.389400
633.000000	30.601300
632.000000	30.790300
631.000000	30.982700
630.000000	31.179200
629.000000	31.353300
628.000000	31.539200
627.000000	31.732900
626.000000	31.919400
625.000000	32.123600
624.000000	32.298400
623.000000	32.482400
622.000000	32.648600
621.000000	32.823800
620.000000	32.982800
619.000000	33.153800
618.000000	33.325700
617.000000	33.472300
616.000000	33.628300
615.000000	33.767300
614.000000	33.926800
613.000000	34.045500
612.000000	34.138600
611.000000	34.256600
610.000000	34.373700
609.000000	34.491000
608.000000	34.592100
607.000000	34.689800
606.000000	34.777600
605.000000	34.868000
604.000000	34.941100
603.000000	35.020100
602.000000	35.067600
601.000000	35.077300
600.000000	35.121700
599.000000	35.170200
598.000000	35.193000
597.000000	35.213100
596.000000	35.216400
595.000000	35.203600
594.000000	35.198600
593.000000	35.193900
592.000000	35.145500
591.000000	35.103000
590.000000	35.058900
589.000000	35.014800
588.000000	34.987900
587.000000	34.909400
586.000000	34.837300
585.000000	34.766900
584.000000	34.682900
583.000000	34.551200
582.000000	34.438000
581.000000	34.318100
580.000000	34.183500
579.000000	34.048200
578.000000	33.905200
577.000000	33.718100
576.000000	33.548400
575.000000	33.346100
574.000000	33.140000
573.000000	32.934100
572.000000	32.721000
571.000000	32.494000
570.000000	32.209800
569.000000	31.916500
568.000000	31.638800
567.000000	31.353200
566.000000	31.041700
565.000000	30.707100
564.000000	30.353000
563.000000	30.016800
562.000000	29.668800
561.000000	29.278700
560.000000	28.871500
559.000000	28.494200
558.000000	28.110200
557.000000	27.698700
556.000000	27.301800
555.000000	26.890100
554.000000	26.457600
553.000000	26.042500
552.000000	25.635700
551.000000	25.221100
550.000000	24.824800
549.000000	24.438900
548.000000	24.053800
547.000000	23.653600
546.000000	23.305900
545.000000	22.946800
544.000000	22.572800
543.000000	22.230200
542.000000	21.899800
541.000000	21.558000
540.000000	21.243600
539.000000	20.951700
538.000000	20.644700
537.000000	20.362300
536.000000	20.098400
535.000000	19.815200
534.000000	19.553000
533.000000	19.301100
532.000000	19.052400
531.000000	18.796100
530.000000	18.557700
529.000000	18.339500
528.000000	18.122700
527.000000	17.919300
526.000000	17.689500
525.000000	17.491800
524.000000	17.304500
523.000000	17.108600
522.000000	16.918000
521.000000	16.733100
520.000000	16.569200
519.000000	16.398700
518.000000	16.250600
517.000000	16.079700
516.000000	15.938100
515.000000	15.781500
514.000000	15.634400
513.000000	15.495700
512.000000	15.372600
511.000000	15.256500
510.000000	15.133100
509.000000	15.012000
508.000000	14.922200
507.000000	14.803100
506.000000	14.694700
505.000000	14.611400
504.000000	14.520800
503.000000	14.417400
502.000000	14.329600
501.000000	14.243100
500.000000	14.165800
499.000000	14.057000
498.000000	14.002900
497.000000	13.915300
496.000000	13.826900
495.000000	13.764000
494.000000	13.667000
493.000000	13.622500
492.000000	13.539400
491.000000	13.481500
490.000000	13.392400
489.000000	13.340500
488.000000	13.276300
487.000000	13.201600
486.000000	13.130000
485.000000	13.051000
484.000000	12.979300
483.000000	12.917200
482.000000	12.839500
481.000000	12.741500
480.000000	12.635700
479.000000	12.506400
478.000000	12.402800
477.000000	12.292900
476.000000	12.210600
475.000000	12.107200
474.000000	11.994500
473.000000	11.890600
472.000000	11.777400
471.000000	11.671500
470.000000	11.559000
469.000000	11.481400
468.000000	11.371400
467.000000	11.263700
466.000000	11.183100
465.000000	11.063900
464.000000	10.962100
463.000000	10.857600
462.000000	10.768100
461.000000	10.661600
460.000000	10.557800
459.000000	10.459000
458.000000	10.368100
457.000000	10.266900
456.000000	10.175500
455.000000	10.078000
454.000000	9.957700
453.000000	9.868600
452.000000	9.767900
451.000000	9.650300
450.000000	9.559900
449.000000	9.452700
448.000000	9.331200
447.000000	9.239700
446.000000	9.138600
445.000000	9.050200
444.000000	8.961100
443.000000	8.844500
442.000000	8.732100
441.000000	8.613100
440.000000	8.522500
439.000000	8.410900
438.000000	8.330200
437.000000	8.222800
436.000000	8.127000
435.000000	8.029500
434.000000	7.942600
433.000000	7.840900
432.000000	7.721400
431.000000	7.638400
430.000000	7.562300
429.000000	7.467600
428.000000	7.380700
427.000000	7.287100
426.000000	7.188500
425.000000	7.105900
424.000000	7.045900
423.000000	6.949900
422.000000	6.877500
421.000000	6.810500
420.000000	6.732600
419.000000	6.647700
418.000000	6.571000
417.000000	6.505500
416.000000	6.435400
415.000000	6.375000
414.000000	6.307800
413.000000	6.258200
412.000000	6.186100
411.000000	6.124400
410.000000	6.052000
409.000000	5.998300
408.000000	5.940600
407.000000	5.894400
406.000000	5.841200
405.000000	5.762400
404.000000	5.732300
403.000000	5.670000
402.000000	5.640000
401.000000	5.612200
400.000000	5.554700
399.000000	5.508200
398.000000	5.451100
397.000000	5.400400
396.000000	5.381600
395.000000	5.353600
394.000000	5.330500
393.000000	5.299500
392.000000	5.233100
391.000000	5.215000
390.000000	5.193700
389.000000	5.167900
388.000000	5.149600
387.000000	5.110100
386.000000	5.085800
385.000000	5.047000
384.000000	5.033000
383.000000	5.026200
382.000000	5.009800
381.000000	4.977400
380.000000	4.953600
379.000000	4.941900
378.000000	4.935200
377.000000	4.908700
376.000000	4.733800
375.000000	4.469600
374.000000	4.486800
373.000000	4.385800
372.000000	4.367800
371.000000	4.564000
370.000000	4.569700
369.000000	4.703900
368.000000	4.786700
367.000000	4.691200
366.000000	4.594900
365.000000	4.642100
364.000000	4.680300
363.000000	4.658700
362.000000	4.631000
361.000000	4.578300
360.000000	4.669200
359.000000	4.790900
358.000000	4.768800
357.000000	4.656600
356.000000	4.523700
355.000000	4.541100
354.000000	4.684400
353.000000	4.595400
352.000000	4.594600
351.000000	4.677600
350.000000	4.734800
349.000000	4.695500
348.000000	4.630100
347.000000	4.601200
346.000000	4.551300
345.000000	4.751000
344.000000	4.770400
343.000000	4.498700
342.000000	4.563000
341.000000	4.816700
340.000000	4.534400
339.000000	4.448200
338.000000	4.651200
337.000000	4.557300
336.000000	4.620500
335.000000	4.723900
334.000000	4.662100
333.000000	4.894300
332.000000	4.932300
331.000000	4.667300
330.000000	4.831500
329.000000	4.988000
328.000000	4.856100
327.000000	4.554200
326.000000	4.417700
325.000000	4.480000
324.000000	4.749600
323.000000	4.642800
322.000000	4.574400
321.000000	4.860400
320.000000	4.981000
319.000000	4.738400
318.000000	4.682400
317.000000	4.814100
316.000000	4.531100
315.000000	4.339200
314.000000	4.332500
313.000000	4.307000
312.000000	4.312400
311.000000	4.325800
310.000000	4.332300
309.000000	4.322800
308.000000	4.324600
307.000000	4.333600
306.000000	4.327600
305.000000	4.293600
304.000000	4.292100
303.000000	4.297000
302.000000	4.320700
301.000000	4.322100
300.000000	4.317300
299.000000	4.323000
298.000000	4.345300
297.000000	4.362800
296.000000	4.304300
295.000000	4.301600
294.000000	4.280300
293.000000	4.279400
292.000000	4.271200
291.000000	4.263200
290.000000	4.258400
289.000000	4.261900
288.000000	4.281300
287.000000	4.255200
286.000000	4.250900
285.000000	4.284700
284.000000	4.304500
283.000000	4.299200
282.000000	4.309500
281.000000	4.309600
280.000000	4.344400
279.000000	4.339000
278.000000	4.363700
277.000000	4.358200
276.000000	4.303200
275.000000	4.343300
274.000000	4.399700
273.000000	4.382700
272.000000	4.419800
271.000000	4.425700
270.000000	4.434200
269.000000	4.443500
268.000000	4.504400
267.000000	4.515100
266.000000	4.534300
265.000000	4.520600
264.000000	4.545600
263.000000	4.545500
262.000000	4.605600
261.000000	4.648900
260.000000	4.647800
259.000000	4.681600
258.000000	4.649600
257.000000	4.635600
256.000000	4.683500
255.000000	4.717200
254.000000	4.693900
253.000000	4.750600
252.000000	4.733100
251.000000	4.740700
250.000000	4.718400
