PE UV       SUBTECH     SPECTRUM    ASCII       PEDS        4.00        
   -1
CICIMAUCR0236-3.Sample.ASC
24/06/19
16:24:54.00
24/06/19
16:24:54.00
Vinicio Soto Monge
C. resplendens. Sex M. Ventral 
250,000000
1
Lambda 1050
1050L1511233
PerkinElmer UV WinLab 6.3.2.0749 / 2.02.05 Lambda 900 UV/VIS/NIR, Aug  7 2015 09:38:08

0
0
3350/servo 860,8/2
0
0
UV/VIS
1
1
1
DoubleDePol,CommonBeamDepol,RBeamAtt,SBeamAtt,60mm sphere, WB InGaAs Detector
0
0
0
0
Program
Program
3350/servo 860,8/2
3350/0,2 860,8/0,2
3350/0,2 860,8/0,2
0
15.00
 
 
 
0
 
860,8
319,2
860,8
Front
100
on
S:100 R:100
0
0
0
0
 
0
 
 
 
0
 
 
0
0
0
0
0
 
 
 
 
0
0


0
0
#HDR
-1
-1
#GR
nm
%R
1.0
0.0
2500,000000
-1,000000
2251
8
58,327900
4,204200
#DATA
2482.000000	6.217538
2481.000000	6.200863
2480.000000	6.170523
2479.000000	6.150952
2478.000000	6.150026
2477.000000	6.109726
2476.000000	6.194957
2475.000000	6.140993
2474.000000	6.109032
2473.000000	6.080892
2472.000000	6.168438
2471.000000	6.168554
2470.000000	6.130339
2469.000000	6.143193
2468.000000	6.099188
2467.000000	6.137519
2466.000000	6.125707
2465.000000	6.170754
2464.000000	6.179439
2463.000000	6.125360
2462.000000	6.120728
2461.000000	6.148057
2460.000000	6.146783
2459.000000	6.155816
2458.000000	6.167396
2457.000000	6.180945
2456.000000	6.203758
2455.000000	6.243015
2454.000000	6.238151
2453.000000	6.253090
2452.000000	6.303348
2451.000000	6.325929
2450.000000	6.317823
2449.000000	6.378851
2448.000000	6.386262
2447.000000	6.426561
2446.000000	6.458060
2445.000000	6.473345
2444.000000	6.487589
2443.000000	6.521635
2442.000000	6.544911
2441.000000	6.590653
2440.000000	6.615203
2439.000000	6.656081
2438.000000	6.670441
2437.000000	6.689896
2436.000000	6.710740
2435.000000	6.718499
2434.000000	6.755671
2433.000000	6.780221
2432.000000	6.788907
2431.000000	6.831174
2430.000000	6.854335
2429.000000	6.863020
2428.000000	6.867420
2427.000000	6.897992
2426.000000	6.930649
2425.000000	6.947440
2424.000000	6.964000
2423.000000	6.992371
2422.000000	6.998856
2421.000000	6.996193
2420.000000	7.036723
2419.000000	7.062663
2418.000000	7.066716
2417.000000	7.061158
2416.000000	7.095667
2415.000000	7.113616
2414.000000	7.118364
2413.000000	7.128670
2412.000000	7.143840
2411.000000	7.179276
2410.000000	7.196530
2409.000000	7.211932
2408.000000	7.225018
2407.000000	7.231734
2406.000000	7.241693
2405.000000	7.254432
2404.000000	7.264043
2403.000000	7.285930
2402.000000	7.309322
2401.000000	7.341746
2400.000000	7.364096
2399.000000	7.388183
2398.000000	7.410186
2397.000000	7.405554
2396.000000	7.413312
2395.000000	7.440757
2394.000000	7.461602
2393.000000	7.481288
2392.000000	7.497037
2391.000000	7.510702
2390.000000	7.524367
2389.000000	7.548338
2388.000000	7.556212
2387.000000	7.553780
2386.000000	7.556675
2385.000000	7.577636
2384.000000	7.591532
2383.000000	7.587479
2382.000000	7.588984
2381.000000	7.597785
2380.000000	7.603575
2379.000000	7.603228
2378.000000	7.613419
2377.000000	7.612492
2376.000000	7.599638
2375.000000	7.596164
2374.000000	7.605660
2373.000000	7.608786
2372.000000	7.591995
2371.000000	7.572193
2370.000000	7.569645
2369.000000	7.569182
2368.000000	7.565245
2367.000000	7.559570
2366.000000	7.531083
2365.000000	7.512555
2364.000000	7.496806
2363.000000	7.480014
2362.000000	7.465307
2361.000000	7.460907
2360.000000	7.432072
2359.000000	7.400690
2358.000000	7.402543
2357.000000	7.372666
2356.000000	7.349042
2355.000000	7.342557
2354.000000	7.335725
2353.000000	7.323566
2352.000000	7.321481
2351.000000	7.338272
2350.000000	7.348810
2349.000000	7.354369
2348.000000	7.354253
2347.000000	7.374750
2346.000000	7.384825
2345.000000	7.397795
2344.000000	7.411112
2343.000000	7.422924
2342.000000	7.450948
2341.000000	7.485341
2340.000000	7.496458
2339.000000	7.505607
2338.000000	7.518345
2337.000000	7.521703
2336.000000	7.526683
2335.000000	7.535136
2334.000000	7.544748
2333.000000	7.546716
2332.000000	7.530620
2331.000000	7.524135
2330.000000	7.509776
2329.000000	7.496342
2328.000000	7.487078
2327.000000	7.468318
2326.000000	7.438905
2325.000000	7.409259
2324.000000	7.381003
2323.000000	7.348000
2322.000000	7.326576
2321.000000	7.307006
2320.000000	7.272497
2319.000000	7.222007
2318.000000	7.173833
2317.000000	7.138745
2316.000000	7.102036
2315.000000	7.053051
2314.000000	7.009857
2313.000000	6.977664
2312.000000	6.928101
2311.000000	6.881317
2310.000000	6.850745
2309.000000	6.817047
2308.000000	6.793886
2307.000000	6.797013
2306.000000	6.766325
2305.000000	6.754050
2304.000000	6.767136
2303.000000	6.768410
2302.000000	6.763546
2301.000000	6.808130
2300.000000	6.825037
2299.000000	6.842870
2298.000000	6.882706
2297.000000	6.930533
2296.000000	6.961799
2295.000000	6.995266
2294.000000	7.018079
2293.000000	7.072738
2292.000000	7.104120
2291.000000	7.112690
2290.000000	7.142914
2289.000000	7.142103
2288.000000	7.158432
2287.000000	7.164222
2286.000000	7.164222
2285.000000	7.166074
2284.000000	7.157968
2283.000000	7.146388
2282.000000	7.121722
2281.000000	7.123228
2280.000000	7.102036
2279.000000	7.078875
2278.000000	7.064516
2277.000000	7.032554
2276.000000	7.037650
2275.000000	7.011710
2274.000000	6.991792
2273.000000	6.980212
2272.000000	6.970716
2271.000000	6.953346
2270.000000	6.978475
2269.000000	6.978012
2268.000000	7.006499
2267.000000	7.021206
2266.000000	7.032670
2265.000000	7.079918
2264.000000	7.154842
2263.000000	7.207416
2262.000000	7.275160
2261.000000	7.349737
2260.000000	7.433925
2259.000000	7.538958
2258.000000	7.638548
2257.000000	7.767320
2256.000000	7.882659
2255.000000	7.989660
2254.000000	8.123527
2253.000000	8.245699
2252.000000	8.377250
2251.000000	8.496990
2250.000000	8.602833
2249.000000	8.759398
2248.000000	8.820310
2247.000000	8.943407
2246.000000	9.057009
2245.000000	9.157410
2244.000000	9.247620
2243.000000	9.325092
2242.000000	9.417965
2241.000000	9.503080
2240.000000	9.574993
2239.000000	9.629999
2238.000000	9.693111
2237.000000	9.753907
2236.000000	9.771857
2235.000000	9.825473
2234.000000	9.859287
2233.000000	9.912904
2232.000000	9.966173
2231.000000	9.971384
2230.000000	9.994544
2229.000000	10.036465
2228.000000	10.008325
2227.000000	10.041560
2226.000000	10.060088
2225.000000	10.060899
2224.000000	10.055225
2223.000000	10.043644
2222.000000	10.045729
2221.000000	10.035307
2220.000000	10.011336
2219.000000	9.967099
2218.000000	9.982385
2217.000000	9.981227
2216.000000	9.943128
2215.000000	9.942781
2214.000000	9.923326
2213.000000	9.866930
2212.000000	9.863572
2211.000000	9.873647
2210.000000	9.830916
2209.000000	9.837053
2208.000000	9.786911
2207.000000	9.813545
2206.000000	9.803471
2205.000000	9.762129
2204.000000	9.758076
2203.000000	9.763171
2202.000000	9.759118
2201.000000	9.766066
2200.000000	9.722062
2199.000000	9.716851
2198.000000	9.713376
2197.000000	9.718356
2196.000000	9.703302
2195.000000	9.703649
2194.000000	9.686163
2193.000000	9.681647
2192.000000	9.693574
2191.000000	9.678752
2190.000000	9.659413
2189.000000	9.674814
2188.000000	9.671803
2187.000000	9.642621
2186.000000	9.630925
2185.000000	9.628725
2184.000000	9.624672
2183.000000	9.602554
2182.000000	9.619461
2181.000000	9.579972
2180.000000	9.589931
2179.000000	9.587963
2178.000000	9.557622
2177.000000	9.557159
2176.000000	9.557970
2175.000000	9.550443
2174.000000	9.549285
2173.000000	9.567813
2172.000000	9.548242
2171.000000	9.535388
2170.000000	9.552296
2169.000000	9.554727
2168.000000	9.558201
2167.000000	9.562370
2166.000000	9.574645
2165.000000	9.590047
2164.000000	9.615176
2163.000000	9.616913
2162.000000	9.608691
2161.000000	9.639610
2160.000000	9.646327
2159.000000	9.652001
2158.000000	9.676551
2157.000000	9.695080
2156.000000	9.726578
2155.000000	9.750317
2154.000000	9.745685
2153.000000	9.784595
2152.000000	9.793048
2151.000000	9.823852
2150.000000	9.861603
2149.000000	9.880016
2148.000000	9.905377
2147.000000	9.919389
2146.000000	9.944749
2145.000000	9.996629
2144.000000	10.011683
2143.000000	10.024190
2142.000000	10.056962
2141.000000	10.062289
2140.000000	10.079196
2139.000000	10.114515
2138.000000	10.137907
2137.000000	10.162689
2136.000000	10.167205
2135.000000	10.174964
2134.000000	10.203567
2133.000000	10.220938
2132.000000	10.235645
2131.000000	10.254173
2130.000000	10.257879
2129.000000	10.264711
2128.000000	10.248614
2127.000000	10.252667
2126.000000	10.270617
2125.000000	10.267027
2124.000000	10.266564
2123.000000	10.266101
2122.000000	10.268069
2121.000000	10.255099
2120.000000	10.259847
2119.000000	10.243056
2118.000000	10.241666
2117.000000	10.238076
2116.000000	10.213411
2115.000000	10.203567
2114.000000	10.193493
2113.000000	10.186197
2112.000000	10.162226
2111.000000	10.149372
2110.000000	10.140455
2109.000000	10.147519
2108.000000	10.134549
2107.000000	10.100156
2106.000000	10.076995
2105.000000	10.071900
2104.000000	10.053140
2103.000000	10.012957
2102.000000	10.014925
2101.000000	10.015852
2100.000000	10.005082
2099.000000	9.980532
2098.000000	9.959340
2097.000000	9.944749
2096.000000	9.918346
2095.000000	9.917652
2094.000000	9.917304
2093.000000	9.903755
2092.000000	9.905377
2091.000000	9.872836
2090.000000	9.858361
2089.000000	9.866120
2088.000000	9.854192
2087.000000	9.844928
2086.000000	9.829063
2085.000000	9.822346
2084.000000	9.808218
2083.000000	9.784016
2082.000000	9.764445
2081.000000	9.747306
2080.000000	9.731905
2079.000000	9.710366
2078.000000	9.688826
2077.000000	9.672382
2076.000000	9.642390
2075.000000	9.620619
2074.000000	9.601743
2073.000000	9.573603
2072.000000	9.542105
2071.000000	9.506785
2070.000000	9.484899
2069.000000	9.463823
2068.000000	9.420281
2067.000000	9.390172
2066.000000	9.372802
2065.000000	9.334703
2064.000000	9.297878
2063.000000	9.279118
2062.000000	9.252020
2061.000000	9.234882
2060.000000	9.208826
2059.000000	9.192498
2058.000000	9.187634
2057.000000	9.171422
2056.000000	9.173622
2055.000000	9.164126
2054.000000	9.156368
2053.000000	9.164126
2052.000000	9.184160
2051.000000	9.204194
2050.000000	9.245883
2049.000000	9.278655
2048.000000	9.307605
2047.000000	9.337714
2046.000000	9.376739
2045.000000	9.433598
2044.000000	9.480151
2043.000000	9.517439
2042.000000	9.581130
2041.000000	9.640421
2040.000000	9.695659
2039.000000	9.739432
2038.000000	9.774752
2037.000000	9.839022
2036.000000	9.897155
2035.000000	9.937917
2034.000000	9.979027
2033.000000	9.996976
2032.000000	10.021874
2031.000000	10.035191
2030.000000	10.099693
2029.000000	10.122622
2028.000000	10.139876
2027.000000	10.172648
2026.000000	10.192335
2025.000000	10.210168
2024.000000	10.223138
2023.000000	10.226265
2022.000000	10.250351
2021.000000	10.278376
2020.000000	10.285787
2019.000000	10.279649
2018.000000	10.273975
2017.000000	10.292388
2016.000000	10.289956
2015.000000	10.291461
2014.000000	10.291809
2013.000000	10.293893
2012.000000	10.261700
2011.000000	10.270038
2010.000000	10.279649
2009.000000	10.267374
2008.000000	10.231012
2007.000000	10.221285
2006.000000	10.190018
2005.000000	10.171259
2004.000000	10.160373
2003.000000	10.119727
2002.000000	10.110578
2001.000000	10.084523
2000.000000	10.037739
1999.000000	9.992112
1998.000000	9.973352
1997.000000	9.951582
1996.000000	9.916146
1995.000000	9.872026
1994.000000	9.836127
1993.000000	9.785984
1992.000000	9.748117
1991.000000	9.720904
1990.000000	9.661034
1989.000000	9.630809
1988.000000	9.582404
1987.000000	9.514081
1986.000000	9.467991
1985.000000	9.431282
1984.000000	9.385888
1983.000000	9.333198
1982.000000	9.296257
1981.000000	9.256421
1980.000000	9.214153
1979.000000	9.144324
1978.000000	9.119427
1977.000000	9.060715
1976.000000	9.027596
1975.000000	8.979422
1974.000000	8.924184
1973.000000	8.908898
1972.000000	8.845207
1971.000000	8.806066
1970.000000	8.770283
1969.000000	8.723846
1968.000000	8.693390
1967.000000	8.659460
1966.000000	8.615687
1965.000000	8.571451
1964.000000	8.529993
1963.000000	8.500927
1962.000000	8.469892
1961.000000	8.438162
1960.000000	8.398442
1959.000000	8.374355
1958.000000	8.311706
1957.000000	8.308116
1956.000000	8.265269
1955.000000	8.213853
1954.000000	8.207252
1953.000000	8.154099
1952.000000	8.140087
1951.000000	8.106620
1950.000000	8.075817
1949.000000	8.037371
1948.000000	7.999503
1947.000000	7.968121
1946.000000	7.979585
1945.000000	7.936391
1944.000000	7.940328
1943.000000	7.919021
1942.000000	7.886596
1941.000000	7.891460
1940.000000	7.871542
1939.000000	7.862278
1938.000000	7.860077
1937.000000	7.847802
1936.000000	7.856024
1935.000000	7.871194
1934.000000	7.874668
1933.000000	7.881269
1932.000000	7.886249
1931.000000	7.905588
1930.000000	7.918789
1929.000000	7.953067
1928.000000	7.987576
1927.000000	8.010852
1926.000000	8.035518
1925.000000	8.063773
1924.000000	8.087166
1923.000000	8.149815
1922.000000	8.197293
1921.000000	8.252531
1920.000000	8.339730
1919.000000	8.407359
1918.000000	8.446037
1917.000000	8.519687
1916.000000	8.595074
1915.000000	8.666987
1914.000000	8.739943
1913.000000	8.865936
1912.000000	8.955682
1911.000000	9.083296
1910.000000	9.160537
1909.000000	9.258853
1908.000000	9.375929
1907.000000	9.500764
1906.000000	9.644127
1905.000000	9.777994
1904.000000	9.915336
1903.000000	10.049550
1902.000000	10.218043
1901.000000	10.405063
1900.000000	10.571008
1899.000000	10.784895
1898.000000	11.021131
1897.000000	11.188697
1896.000000	11.397488
1895.000000	11.636504
1894.000000	11.865098
1893.000000	12.091144
1892.000000	12.324370
1891.000000	12.646647
1890.000000	12.923762
1889.000000	13.234691
1888.000000	13.584761
1887.000000	13.899975
1886.000000	14.261046
1885.000000	14.655121
1884.000000	15.051628
1883.000000	15.515300
1882.000000	15.997501
1881.000000	16.473217
1880.000000	16.935036
1879.000000	17.403340
1878.000000	17.842231
1877.000000	18.321073
1876.000000	18.788451
1875.000000	19.208813
1874.000000	19.659979
1873.000000	20.102112
1872.000000	20.540539
1871.000000	20.927318
1870.000000	21.331468
1869.000000	21.692424
1868.000000	22.059633
1867.000000	22.329684
1866.000000	22.591976
1865.000000	22.815011
1864.000000	23.007937
1863.000000	23.170639
1862.000000	23.336121
1861.000000	23.521868
1860.000000	23.687465
1859.000000	23.855378
1858.000000	23.977086
1857.000000	24.102037
1856.000000	24.185183
1855.000000	24.249801
1854.000000	24.309091
1853.000000	24.379267
1852.000000	24.418756
1851.000000	24.435895
1850.000000	24.455813
1849.000000	24.462761
1848.000000	24.458824
1847.000000	24.504797
1846.000000	24.508271
1845.000000	24.484300
1844.000000	24.434505
1843.000000	24.393164
1842.000000	24.367571
1841.000000	24.381931
1840.000000	24.393511
1839.000000	24.358655
1838.000000	24.341979
1837.000000	24.301680
1836.000000	24.270761
1835.000000	24.244358
1834.000000	24.178003
1833.000000	24.098100
1832.000000	24.031513
1831.000000	23.993183
1830.000000	23.943851
1829.000000	23.899151
1828.000000	23.833491
1827.000000	23.771537
1826.000000	23.707614
1825.000000	23.646818
1824.000000	23.581043
1823.000000	23.520246
1822.000000	23.483421
1821.000000	23.477863
1820.000000	23.474157
1819.000000	23.451691
1818.000000	23.393096
1817.000000	23.353028
1816.000000	23.333689
1815.000000	23.325583
1814.000000	23.310181
1813.000000	23.287021
1812.000000	23.273588
1811.000000	23.237110
1810.000000	23.207349
1809.000000	23.168787
1808.000000	23.129877
1807.000000	23.095947
1806.000000	23.040709
1805.000000	22.994504
1804.000000	22.949689
1803.000000	22.892019
1802.000000	22.838403
1801.000000	22.799609
1800.000000	22.749235
1799.000000	22.690176
1798.000000	22.633549
1797.000000	22.584564
1796.000000	22.530253
1795.000000	22.479532
1794.000000	22.432284
1793.000000	22.374383
1792.000000	22.322504
1791.000000	22.270509
1790.000000	22.221524
1789.000000	22.175088
1788.000000	22.121008
1787.000000	22.056969
1786.000000	21.992352
1785.000000	21.938040
1784.000000	21.874349
1783.000000	21.803594
1782.000000	21.728786
1781.000000	21.662315
1780.000000	21.598161
1779.000000	21.519531
1778.000000	21.438238
1777.000000	21.371999
1776.000000	21.298233
1775.000000	21.209876
1774.000000	21.109359
1773.000000	21.023318
1772.000000	20.920139
1771.000000	20.800978
1770.000000	20.693861
1769.000000	20.594387
1768.000000	20.492597
1767.000000	20.379458
1766.000000	20.283921
1765.000000	20.207492
1764.000000	20.139168
1763.000000	20.108481
1762.000000	20.090879
1761.000000	20.081962
1760.000000	20.094121
1759.000000	20.139516
1758.000000	20.216293
1757.000000	20.279173
1756.000000	20.345412
1755.000000	20.400997
1754.000000	20.455772
1753.000000	20.502440
1752.000000	20.529538
1751.000000	20.519810
1750.000000	20.520621
1749.000000	20.501861
1748.000000	20.465499
1747.000000	20.424968
1746.000000	20.358845
1745.000000	20.288785
1744.000000	20.192901
1743.000000	20.080572
1742.000000	19.948095
1741.000000	19.792920
1740.000000	19.606941
1739.000000	19.429069
1738.000000	19.229542
1737.000000	19.056301
1736.000000	18.873334
1735.000000	18.737961
1734.000000	18.618106
1733.000000	18.567732
1732.000000	18.548972
1731.000000	18.554299
1730.000000	18.605831
1729.000000	18.661068
1728.000000	18.728929
1727.000000	18.810222
1726.000000	18.890241
1725.000000	18.995042
1724.000000	19.050164
1723.000000	19.110729
1722.000000	19.165156
1721.000000	19.207308
1720.000000	19.257913
1719.000000	19.309214
1718.000000	19.346155
1717.000000	19.410772
1716.000000	19.499129
1715.000000	19.578222
1714.000000	19.681170
1713.000000	19.760148
1712.000000	19.854411
1711.000000	19.909532
1710.000000	19.969171
1709.000000	20.010744
1708.000000	20.006691
1707.000000	20.026493
1706.000000	20.030083
1705.000000	20.007270
1704.000000	19.955390
1703.000000	19.890657
1702.000000	19.843294
1701.000000	19.719617
1700.000000	19.589687
1699.000000	19.486507
1698.000000	19.358082
1697.000000	19.211361
1696.000000	19.108992
1695.000000	19.024224
1694.000000	19.003148
1693.000000	19.025035
1692.000000	19.076451
1691.000000	19.186000
1690.000000	19.318015
1689.000000	19.440186
1688.000000	19.564558
1687.000000	19.673759
1686.000000	19.721933
1685.000000	19.799636
1684.000000	19.849315
1683.000000	19.962686
1682.000000	20.142642
1681.000000	20.407482
1680.000000	20.772259
1679.000000	21.220414
1678.000000	21.678296
1677.000000	22.185047
1676.000000	22.672111
1675.000000	23.103358
1674.000000	23.515151
1673.000000	23.864990
1672.000000	24.176614
1671.000000	24.459518
1670.000000	24.710462
1669.000000	24.940793
1668.000000	25.115654
1667.000000	25.320276
1666.000000	25.455997
1665.000000	25.591022
1664.000000	25.713425
1663.000000	25.807341
1662.000000	25.920595
1661.000000	26.010921
1660.000000	26.035355
1659.000000	26.113522
1658.000000	26.136682
1657.000000	26.195741
1656.000000	26.240441
1655.000000	26.245189
1654.000000	26.248895
1653.000000	26.263486
1652.000000	26.255380
1651.000000	26.243684
1650.000000	26.230482
1649.000000	26.202574
1648.000000	26.148957
1647.000000	26.120470
1646.000000	26.082487
1645.000000	26.014858
1644.000000	25.955568
1643.000000	25.902299
1642.000000	25.839765
1641.000000	25.797266
1640.000000	25.751177
1639.000000	25.677758
1638.000000	25.613256
1637.000000	25.550491
1636.000000	25.466998
1635.000000	25.412918
1634.000000	25.346100
1633.000000	25.245584
1632.000000	25.176682
1631.000000	25.078366
1630.000000	24.999852
1629.000000	24.935581
1628.000000	24.832865
1627.000000	24.755625
1626.000000	24.650940
1625.000000	24.582500
1624.000000	24.487427
1623.000000	24.419103
1622.000000	24.325651
1621.000000	24.228377
1620.000000	24.160633
1619.000000	24.068802
1618.000000	23.999552
1617.000000	23.912005
1616.000000	23.840555
1615.000000	23.760420
1614.000000	23.695571
1613.000000	23.605361
1612.000000	23.504150
1611.000000	23.430268
1610.000000	23.368198
1609.000000	23.283778
1608.000000	23.214644
1607.000000	23.127793
1606.000000	23.050089
1605.000000	22.979218
1604.000000	22.887503
1603.000000	22.822885
1602.000000	22.736497
1601.000000	22.637023
1600.000000	22.570552
1599.000000	22.503619
1598.000000	22.449191
1597.000000	22.342769
1596.000000	22.245148
1595.000000	22.179951
1594.000000	22.103869
1593.000000	22.020955
1592.000000	21.987256
1591.000000	21.896583
1590.000000	21.840651
1589.000000	21.770822
1588.000000	21.719869
1587.000000	21.653514
1586.000000	21.608004
1585.000000	21.543965
1584.000000	21.464872
1583.000000	21.426310
1582.000000	21.382421
1581.000000	21.324404
1580.000000	21.280863
1579.000000	21.249712
1578.000000	21.207907
1577.000000	21.187294
1576.000000	21.146300
1575.000000	21.115034
1574.000000	21.085041
1573.000000	21.052501
1572.000000	21.047521
1571.000000	21.045437
1570.000000	21.026098
1569.000000	21.021813
1568.000000	21.007569
1567.000000	20.991936
1566.000000	21.000042
1565.000000	20.999000
1564.000000	20.995178
1563.000000	21.007338
1562.000000	20.994368
1561.000000	20.981977
1560.000000	20.965533
1559.000000	20.958817
1558.000000	20.959627
1557.000000	20.938899
1556.000000	20.898947
1555.000000	20.880997
1554.000000	20.866522
1553.000000	20.833982
1552.000000	20.799473
1551.000000	20.743540
1550.000000	20.707526
1549.000000	20.670469
1548.000000	20.621137
1547.000000	20.589407
1546.000000	20.558257
1545.000000	20.516220
1544.000000	20.474763
1543.000000	20.442223
1542.000000	20.417788
1541.000000	20.395670
1540.000000	20.352244
1539.000000	20.320515
1538.000000	20.303376
1537.000000	20.279405
1536.000000	20.253465
1535.000000	20.209808
1534.000000	20.194174
1533.000000	20.159665
1532.000000	20.093890
1531.000000	20.060191
1530.000000	20.033093
1529.000000	19.993836
1528.000000	19.938020
1527.000000	19.904206
1526.000000	19.868307
1525.000000	19.810290
1524.000000	19.748220
1523.000000	19.691245
1522.000000	19.654767
1521.000000	19.612036
1520.000000	19.543482
1519.000000	19.491255
1518.000000	19.440070
1517.000000	19.384022
1516.000000	19.322762
1515.000000	19.270767
1514.000000	19.224215
1513.000000	19.153923
1512.000000	19.084094
1511.000000	19.019824
1510.000000	18.966092
1509.000000	18.902979
1508.000000	18.827476
1507.000000	18.766101
1506.000000	18.709126
1505.000000	18.638950
1504.000000	18.562289
1503.000000	18.509367
1502.000000	18.463510
1501.000000	18.408851
1500.000000	18.352340
1499.000000	18.305903
1498.000000	18.240011
1497.000000	18.171804
1496.000000	18.140885
1495.000000	18.106491
1494.000000	18.043842
1493.000000	18.000880
1492.000000	17.974245
1491.000000	17.936146
1490.000000	17.884499
1489.000000	17.839915
1488.000000	17.824281
1487.000000	17.798226
1486.000000	17.757116
1485.000000	17.723997
1484.000000	17.693425
1483.000000	17.661579
1482.000000	17.644788
1481.000000	17.620585
1480.000000	17.586424
1479.000000	17.569053
1478.000000	17.569516
1477.000000	17.556894
1476.000000	17.552494
1475.000000	17.550872
1474.000000	17.540913
1473.000000	17.531649
1472.000000	17.544619
1471.000000	17.551915
1470.000000	17.542535
1469.000000	17.532460
1468.000000	17.544503
1467.000000	17.531649
1466.000000	17.543229
1465.000000	17.585266
1464.000000	17.574612
1463.000000	17.574843
1462.000000	17.608426
1461.000000	17.648146
1460.000000	17.678834
1459.000000	17.710100
1458.000000	17.742409
1457.000000	17.783172
1456.000000	17.834588
1455.000000	17.894458
1454.000000	17.950390
1453.000000	18.010839
1452.000000	18.074530
1451.000000	18.141927
1450.000000	18.205039
1449.000000	18.286796
1448.000000	18.340644
1447.000000	18.414757
1446.000000	18.516779
1445.000000	18.588692
1444.000000	18.665122
1443.000000	18.737035
1442.000000	18.815085
1441.000000	18.924750
1440.000000	19.015887
1439.000000	19.113624
1438.000000	19.219119
1437.000000	19.330405
1436.000000	19.421542
1435.000000	19.520784
1434.000000	19.657894
1433.000000	19.781455
1432.000000	19.891930
1431.000000	20.019313
1430.000000	20.146232
1429.000000	20.294459
1428.000000	20.480090
1427.000000	20.627854
1426.000000	20.788356
1425.000000	20.975492
1424.000000	21.157881
1423.000000	21.368062
1422.000000	21.583454
1421.000000	21.792824
1420.000000	22.025008
1419.000000	22.273288
1418.000000	22.527821
1417.000000	22.779112
1416.000000	23.001800
1415.000000	23.288295
1414.000000	23.592739
1413.000000	23.904362
1412.000000	24.216681
1411.000000	24.502249
1410.000000	24.860773
1409.000000	25.244658
1408.000000	25.664904
1407.000000	26.085614
1406.000000	26.512692
1405.000000	26.928306
1404.000000	27.421277
1403.000000	27.875337
1402.000000	28.319207
1401.000000	28.756013
1400.000000	29.303063
1399.000000	29.816993
1398.000000	30.225312
1397.000000	30.550716
1396.000000	30.952550
1395.000000	31.480608
1394.000000	31.950650
1393.000000	32.310447
1392.000000	32.679741
1391.000000	33.128822
1390.000000	33.587746
1389.000000	34.021426
1388.000000	34.519838
1387.000000	35.113209
1386.000000	35.698705
1385.000000	36.315121
1384.000000	36.931188
1383.000000	37.616738
1382.000000	38.294528
1381.000000	38.987026
1380.000000	39.530138
1379.000000	39.934288
1378.000000	40.261429
1377.000000	40.518626
1376.000000	40.807553
1375.000000	41.034525
1374.000000	41.317430
1373.000000	41.657310
1372.000000	41.972639
1371.000000	42.377600
1370.000000	42.795646
1369.000000	43.216471
1368.000000	43.544770
1367.000000	43.933634
1366.000000	44.233099
1365.000000	44.493886
1364.000000	44.753977
1363.000000	44.988361
1362.000000	45.206764
1361.000000	45.438485
1360.000000	45.650982
1359.000000	45.742697
1358.000000	45.881544
1357.000000	46.013211
1356.000000	46.180430
1355.000000	46.428015
1354.000000	46.786886
1353.000000	47.254148
1352.000000	47.654824
1351.000000	48.180566
1350.000000	48.730279
1349.000000	49.240504
1348.000000	49.730463
1347.000000	50.194135
1346.000000	50.649238
1345.000000	51.010657
1344.000000	51.393036
1343.000000	51.827410
1342.000000	52.211526
1341.000000	52.580820
1340.000000	52.952545
1339.000000	53.304931
1338.000000	53.687773
1337.000000	54.058456
1336.000000	54.369733
1335.000000	54.697800
1334.000000	55.034322
1333.000000	55.356484
1332.000000	55.699258
1331.000000	55.981816
1330.000000	56.306062
1329.000000	56.599968
1328.000000	56.875114
1327.000000	57.138680
1326.000000	57.406762
1325.000000	57.660717
1324.000000	57.899269
1323.000000	58.130758
1322.000000	58.378806
1321.000000	58.566522
1320.000000	58.778324
1319.000000	58.975188
1318.000000	59.170315
1317.000000	59.351893
1316.000000	59.533702
1315.000000	59.721302
1314.000000	59.877866
1313.000000	60.040684
1312.000000	60.183932
1311.000000	60.344318
1310.000000	60.477259
1309.000000	60.596188
1308.000000	60.700178
1307.000000	60.814128
1306.000000	60.914412
1305.000000	61.006475
1304.000000	61.107223
1303.000000	61.166514
1302.000000	61.225573
1301.000000	61.302466
1300.000000	61.356661
1299.000000	61.381095
1298.000000	61.421626
1297.000000	61.465168
1296.000000	61.479759
1295.000000	61.490065
1294.000000	61.521448
1293.000000	61.545882
1292.000000	61.546114
1291.000000	61.559315
1290.000000	61.555957
1289.000000	61.536849
1288.000000	61.517742
1287.000000	61.492613
1286.000000	61.463662
1285.000000	61.417689
1284.000000	61.376811
1283.000000	61.321226
1282.000000	61.245838
1281.000000	61.201254
1280.000000	61.150301
1279.000000	61.096917
1278.000000	61.021761
1277.000000	60.960965
1276.000000	60.898084
1275.000000	60.850837
1274.000000	60.810306
1273.000000	60.763638
1272.000000	60.722528
1271.000000	60.680492
1270.000000	60.639614
1269.000000	60.615295
1268.000000	60.572796
1267.000000	60.526359
1266.000000	60.491734
1265.000000	60.436728
1264.000000	60.385659
1263.000000	60.334938
1262.000000	60.272520
1261.000000	60.209408
1260.000000	60.164709
1259.000000	60.104144
1258.000000	60.046243
1257.000000	59.995058
1256.000000	59.935304
1255.000000	59.852274
1254.000000	59.762412
1253.000000	59.692004
1252.000000	59.598899
1251.000000	59.500583
1250.000000	59.405162
1249.000000	59.301287
1248.000000	59.195444
1247.000000	59.074430
1246.000000	58.964302
1245.000000	58.838194
1244.000000	58.699926
1243.000000	58.557489
1242.000000	58.421422
1241.000000	58.259183
1240.000000	58.104123
1239.000000	57.958907
1238.000000	57.799911
1237.000000	57.654695
1236.000000	57.510637
1235.000000	57.337165
1234.000000	57.157324
1233.000000	56.979568
1232.000000	56.802854
1231.000000	56.619307
1230.000000	56.437729
1229.000000	56.254646
1228.000000	56.047591
1227.000000	55.840305
1226.000000	55.626998
1225.000000	55.414153
1224.000000	55.215784
1223.000000	55.013941
1222.000000	54.797159
1221.000000	54.575166
1220.000000	54.358500
1219.000000	54.148666
1218.000000	53.938948
1217.000000	53.738958
1216.000000	53.546031
1215.000000	53.354610
1214.000000	53.165505
1213.000000	52.972000
1212.000000	52.789727
1211.000000	52.629457
1210.000000	52.468376
1209.000000	52.308684
1208.000000	52.146909
1207.000000	52.010378
1206.000000	51.880332
1205.000000	51.751096
1204.000000	51.643864
1203.000000	51.575540
1202.000000	51.492742
1201.000000	51.413649
1200.000000	51.352389
1199.000000	51.262295
1198.000000	51.168148
1197.000000	51.053156
1196.000000	50.891960
1195.000000	50.697064
1194.000000	50.452953
1193.000000	50.152678
1192.000000	49.815578
1191.000000	49.400543
1190.000000	48.943703
1189.000000	48.506665
1188.000000	48.123012
1187.000000	47.774216
1186.000000	47.569477
1185.000000	47.473709
1184.000000	47.481120
1183.000000	47.632126
1182.000000	47.918737
1181.000000	48.319992
1180.000000	48.790844
1179.000000	49.325618
1178.000000	49.817199
1177.000000	50.266628
1176.000000	50.674367
1175.000000	51.051304
1174.000000	51.403574
1173.000000	51.736853
1172.000000	52.050677
1171.000000	52.376313
1170.000000	52.701949
1169.000000	53.045881
1168.000000	53.407069
1167.000000	53.768256
1166.000000	54.123421
1165.000000	54.494915
1164.000000	54.883200
1163.000000	55.263726
1162.000000	55.663939
1161.000000	56.067625
1160.000000	56.477102
1159.000000	56.874651
1158.000000	57.263747
1157.000000	57.617059
1156.000000	57.962034
1155.000000	58.264741
1154.000000	58.541277
1153.000000	58.786314
1152.000000	58.987810
1151.000000	59.143796
1150.000000	59.275579
1149.000000	59.406667
1148.000000	59.507994
1147.000000	59.617890
1146.000000	59.765654
1145.000000	59.946421
1144.000000	60.200376
1143.000000	60.487565
1142.000000	60.811927
1141.000000	61.194190
1140.000000	61.586528
1139.000000	61.998321
1138.000000	62.424010
1137.000000	62.860701
1136.000000	63.323910
1135.000000	63.787003
1134.000000	64.314598
1133.000000	64.811042
1132.000000	65.186589
1131.000000	65.573716
1130.000000	65.908731
1129.000000	66.240505
1128.000000	66.490290
1127.000000	66.736254
1126.000000	66.920032
1125.000000	67.067217
1124.000000	67.188346
1123.000000	67.282493
1122.000000	67.365408
1121.000000	67.417403
1120.000000	67.461871
1119.000000	67.501128
1118.000000	67.520235
1117.000000	67.526605
1116.000000	67.545017
1115.000000	67.519888
1114.000000	67.486537
1113.000000	67.476115
1112.000000	67.447280
1111.000000	67.426436
1110.000000	67.398643
1109.000000	67.367840
1108.000000	67.353133
1107.000000	67.328004
1106.000000	67.290831
1105.000000	67.274503
1104.000000	67.221697
1103.000000	67.202358
1102.000000	67.156616
1101.000000	67.137277
1100.000000	67.115507
1099.000000	67.100337
1098.000000	67.017191
1097.000000	66.984766
1096.000000	66.947014
1095.000000	66.906715
1094.000000	66.820790
1093.000000	66.770763
1092.000000	66.726064
1091.000000	66.673953
1090.000000	66.604008
1089.000000	66.521441
1088.000000	66.456708
1087.000000	66.402049
1086.000000	66.321335
1085.000000	66.233209
1084.000000	66.160370
1083.000000	66.109069
1082.000000	66.021986
1081.000000	65.937450
1080.000000	65.842493
1079.000000	65.770348
1078.000000	65.679559
1077.000000	65.613088
1076.000000	65.539786
1075.000000	65.463472
1074.000000	65.364808
1073.000000	65.292085
1072.000000	65.179177
1071.000000	65.106106
1070.000000	65.019949
1069.000000	64.926613
1068.000000	64.832118
1067.000000	64.746309
1066.000000	64.636296
1065.000000	64.568320
1064.000000	64.468383
1063.000000	64.390911
1062.000000	64.288426
1061.000000	64.194858
1060.000000	64.090289
1059.000000	64.003090
1058.000000	63.884392
1057.000000	63.782255
1056.000000	63.694593
1055.000000	63.611099
1054.000000	63.503171
1053.000000	63.362240
1052.000000	63.296580
1051.000000	63.210771
1050.000000	63.101453
1049.000000	62.987041
1048.000000	62.902158
1047.000000	62.810095
1046.000000	62.719306
1045.000000	62.651214
1044.000000	62.581733
1043.000000	62.507620
1042.000000	62.402819
1041.000000	62.323957
1040.000000	62.238379
1039.000000	62.120145
1038.000000	62.049274
1037.000000	61.945631
1036.000000	61.882172
1035.000000	61.764401
1034.000000	61.666895
1033.000000	61.569042
1032.000000	61.484275
1031.000000	61.369515
1030.000000	61.268304
1029.000000	61.173693
1028.000000	61.055228
1027.000000	60.945910
1026.000000	60.854079
1025.000000	60.727276
1024.000000	60.629539
1023.000000	60.493934
1022.000000	60.407314
1021.000000	60.324631
1020.000000	60.201649
1019.000000	60.095806
1018.000000	59.992163
1017.000000	59.902880
1016.000000	59.810701
1015.000000	59.701615
1014.000000	59.634913
1013.000000	59.560221
1012.000000	59.482286
1011.000000	59.419637
1010.000000	59.358493
1009.000000	59.312751
1008.000000	59.260409
1007.000000	59.212930
1006.000000	59.177958
1005.000000	59.132100
1004.000000	59.111603
1003.000000	59.075588
1002.000000	59.012939
1001.000000	58.990821
1000.000000	58.943342
999.000000	58.930720
998.000000	58.880693
997.000000	58.835530
996.000000	58.794768
995.000000	58.773692
994.000000	58.741962
993.000000	58.717065
992.000000	58.672481
991.000000	58.647468
990.000000	58.638782
989.000000	58.631255
988.000000	58.592925
987.000000	58.568143
986.000000	58.563164
985.000000	58.546951
984.000000	58.532708
983.000000	58.537224
982.000000	58.524949
981.000000	58.531665
980.000000	58.539192
979.000000	58.539308
978.000000	58.542319
977.000000	58.544172
976.000000	58.535950
975.000000	58.558416
974.000000	58.579607
973.000000	58.559110
972.000000	58.531434
971.000000	58.540698
970.000000	58.554478
969.000000	58.572659
968.000000	58.585861
967.000000	58.576944
966.000000	58.588872
965.000000	58.601957
964.000000	58.630445
963.000000	58.657427
962.000000	58.662290
961.000000	58.696104
960.000000	58.705137
959.000000	58.735940
958.000000	58.759217
957.000000	58.780409
956.000000	58.823834
955.000000	58.837731
954.000000	58.875945
953.000000	58.904664
952.000000	58.919371
951.000000	58.953533
950.000000	58.963608
949.000000	58.971366
948.000000	59.018614
947.000000	59.043280
946.000000	59.042701
945.000000	59.048259
944.000000	59.070841
943.000000	59.093422
942.000000	59.084968
941.000000	59.072809
940.000000	59.094348
939.000000	59.099791
938.000000	59.073504
937.000000	59.059955
936.000000	59.069798
935.000000	59.076978
934.000000	59.064935
933.000000	59.043280
932.000000	59.033436
931.000000	59.062155
930.000000	59.067598
929.000000	59.032047
928.000000	59.003907
927.000000	59.024751
926.000000	59.009234
925.000000	58.964302
924.000000	58.921919
923.000000	58.880462
922.000000	58.890884
921.000000	58.853596
920.000000	58.795115
919.000000	58.756901
918.000000	58.721118
917.000000	58.683829
916.000000	58.638203
915.000000	58.583545
914.000000	58.529812
913.000000	58.488818
912.000000	58.430223
911.000000	58.379154
910.000000	58.334338
909.000000	58.280606
908.000000	58.243318
907.000000	58.205450
906.000000	58.169667
905.000000	58.137011
904.000000	58.060234
903.000000	58.023757
902.000000	57.989711
901.000000	57.969561
900.000000	57.968519
899.000000	57.947211
898.000000	57.938642
897.000000	57.909807
896.000000	57.839978
895.000000	57.791921
894.000000	57.771076
893.000000	57.735641
892.000000	57.697889
891.000000	57.598183
890.000000	57.525807
889.000000	57.432123
888.000000	57.369821
887.000000	57.320837
886.000000	57.249503
885.000000	57.126752
884.000000	57.010371
883.000000	56.893411
882.000000	56.798337
881.000000	56.684504
880.000000	56.572755
879.000000	56.443635
878.000000	56.315442
877.000000	56.150540
876.000000	55.933526
875.000000	55.740136
874.000000	55.615533
873.000000	55.406047
872.000000	55.135996
871.000000	54.924541
870.000000	54.841395
869.000000	54.841048
868.000000	54.903465
867.000000	54.946080
866.000000	54.959861
865.000000	54.986959
864.000000	55.003982
863.000000	55.026100
862.000000	55.040228
861.000000	55.077748
860.000000	55.104614
859.000000	55.113183
858.000000	55.155567
857.000000	54.039400
856.000000	55.685100
855.000000	55.742200
854.000000	55.381100
853.000000	55.154900
852.000000	55.492600
851.000000	55.639700
850.000000	55.172500
849.000000	55.295800
848.000000	55.740300
847.000000	55.539600
846.000000	55.691900
845.000000	55.642200
844.000000	55.740600
843.000000	55.693000
842.000000	55.486800
841.000000	55.389700
840.000000	55.489200
839.000000	55.581800
838.000000	55.436700
837.000000	55.358800
836.000000	55.381700
835.000000	55.240200
834.000000	55.150600
833.000000	55.156100
832.000000	55.156000
831.000000	54.731200
830.000000	55.110400
829.000000	54.877900
828.000000	54.868500
827.000000	54.742900
826.000000	54.867200
825.000000	54.416100
824.000000	54.569800
823.000000	54.462500
822.000000	54.405200
821.000000	54.406500
820.000000	54.221800
819.000000	54.092300
818.000000	53.929500
817.000000	53.867100
816.000000	53.913600
815.000000	53.619500
814.000000	53.628400
813.000000	53.669600
812.000000	53.446700
811.000000	53.258100
810.000000	53.246200
809.000000	53.361000
808.000000	53.197100
807.000000	53.045700
806.000000	52.820200
805.000000	52.610800
804.000000	52.559900
803.000000	52.515400
802.000000	52.435700
801.000000	52.302700
800.000000	52.238800
799.000000	52.038500
798.000000	51.905500
797.000000	51.763800
796.000000	51.721300
795.000000	51.562200
794.000000	51.406100
793.000000	51.292100
792.000000	51.048800
791.000000	50.979700
790.000000	50.734500
789.000000	50.726100
788.000000	50.598900
787.000000	50.327600
786.000000	50.169700
785.000000	50.172400
784.000000	49.874000
783.000000	49.746400
782.000000	49.644700
781.000000	49.276800
780.000000	49.199900
779.000000	48.976900
778.000000	48.913900
777.000000	48.664900
776.000000	48.627300
775.000000	48.352600
774.000000	48.270700
773.000000	47.991400
772.000000	47.792500
771.000000	47.682200
770.000000	47.438300
769.000000	47.357500
768.000000	47.138000
767.000000	46.906400
766.000000	46.811200
765.000000	46.642400
764.000000	46.423000
763.000000	46.211500
762.000000	45.992600
761.000000	45.822400
760.000000	45.587100
759.000000	45.257600
758.000000	45.142200
757.000000	44.892000
756.000000	44.775000
755.000000	44.536200
754.000000	44.290200
753.000000	44.085400
752.000000	43.881500
751.000000	43.688700
750.000000	43.410700
749.000000	43.160500
748.000000	42.960700
747.000000	42.687900
746.000000	42.515000
745.000000	42.240200
744.000000	42.003700
743.000000	41.666300
742.000000	41.496600
741.000000	41.211900
740.000000	40.936500
739.000000	40.726200
738.000000	40.455100
737.000000	40.252600
736.000000	39.963900
735.000000	39.717800
734.000000	39.522200
733.000000	39.229800
732.000000	38.979600
731.000000	38.748000
730.000000	38.497500
729.000000	38.270300
728.000000	38.012500
727.000000	37.785000
726.000000	37.506400
725.000000	37.258100
724.000000	37.074000
723.000000	36.807600
722.000000	36.592900
721.000000	36.399100
720.000000	36.159700
719.000000	35.935300
718.000000	35.681500
717.000000	35.446500
716.000000	35.249100
715.000000	35.116200
714.000000	34.853900
713.000000	34.639500
712.000000	34.452600
711.000000	34.225800
710.000000	34.059500
709.000000	33.819300
708.000000	33.628500
707.000000	33.446300
706.000000	33.241600
705.000000	33.077400
704.000000	32.894300
703.000000	32.716900
702.000000	32.501600
701.000000	32.329400
700.000000	32.204800
699.000000	32.020800
698.000000	31.831000
697.000000	31.671100
696.000000	31.496300
695.000000	31.364200
694.000000	31.218600
693.000000	31.108700
692.000000	30.973100
691.000000	30.836300
690.000000	30.695100
689.000000	30.558600
688.000000	30.405900
687.000000	30.298000
686.000000	30.191900
685.000000	30.064500
684.000000	29.958700
683.000000	29.867800
682.000000	29.753000
681.000000	29.638500
680.000000	29.556200
679.000000	29.461900
678.000000	29.353000
677.000000	29.270900
676.000000	29.190200
675.000000	29.098100
674.000000	29.036300
673.000000	28.945800
672.000000	28.860700
671.000000	28.795500
670.000000	28.723300
669.000000	28.656200
668.000000	28.593100
667.000000	28.568400
666.000000	28.496800
665.000000	28.427200
664.000000	28.391800
663.000000	28.345000
662.000000	28.318000
661.000000	28.298500
660.000000	28.257300
659.000000	28.225300
658.000000	28.189000
657.000000	28.167400
656.000000	28.173400
655.000000	28.140400
654.000000	28.132800
653.000000	28.120500
652.000000	28.144000
651.000000	28.202500
650.000000	28.220500
649.000000	28.250000
648.000000	28.309200
647.000000	28.362400
646.000000	28.401900
645.000000	28.461500
644.000000	28.554800
643.000000	28.623700
642.000000	28.702300
641.000000	28.816700
640.000000	28.920300
639.000000	29.027500
638.000000	29.158000
637.000000	29.293400
636.000000	29.430100
635.000000	29.547100
634.000000	29.667900
633.000000	29.812000
632.000000	29.953300
631.000000	30.082700
630.000000	30.201500
629.000000	30.340600
628.000000	30.504900
627.000000	30.624700
626.000000	30.753400
625.000000	30.910800
624.000000	31.040800
623.000000	31.152300
622.000000	31.294800
621.000000	31.432100
620.000000	31.558100
619.000000	31.684500
618.000000	31.817400
617.000000	31.955800
616.000000	32.071900
615.000000	32.204200
614.000000	32.310600
613.000000	32.404800
612.000000	32.500300
611.000000	32.608700
610.000000	32.716200
609.000000	32.798200
608.000000	32.896200
607.000000	32.979800
606.000000	33.038900
605.000000	33.111400
604.000000	33.171500
603.000000	33.206400
602.000000	33.273800
601.000000	33.313000
600.000000	33.364500
599.000000	33.407600
598.000000	33.426900
597.000000	33.432900
596.000000	33.453900
595.000000	33.461700
594.000000	33.452200
593.000000	33.434500
592.000000	33.429100
591.000000	33.382000
590.000000	33.339300
589.000000	33.305900
588.000000	33.247500
587.000000	33.175100
586.000000	33.113100
585.000000	33.036900
584.000000	32.918900
583.000000	32.824700
582.000000	32.724500
581.000000	32.595000
580.000000	32.467900
579.000000	32.325600
578.000000	32.206600
577.000000	32.041000
576.000000	31.890700
575.000000	31.715400
574.000000	31.529200
573.000000	31.316800
572.000000	31.085900
571.000000	30.855700
570.000000	30.590000
569.000000	30.366700
568.000000	30.112100
567.000000	29.836300
566.000000	29.533000
565.000000	29.246600
564.000000	28.933600
563.000000	28.613500
562.000000	28.279400
561.000000	27.923900
560.000000	27.595100
559.000000	27.193100
558.000000	26.817700
557.000000	26.463500
556.000000	26.109800
555.000000	25.715000
554.000000	25.329500
553.000000	24.988700
552.000000	24.616900
551.000000	24.263200
550.000000	23.898200
549.000000	23.557500
548.000000	23.197800
547.000000	22.858300
546.000000	22.542500
545.000000	22.209400
544.000000	21.903900
543.000000	21.602600
542.000000	21.303500
541.000000	21.001500
540.000000	20.705000
539.000000	20.434900
538.000000	20.166600
537.000000	19.918400
536.000000	19.665300
535.000000	19.405800
534.000000	19.155200
533.000000	18.908100
532.000000	18.674300
531.000000	18.435700
530.000000	18.219100
529.000000	17.987300
528.000000	17.764200
527.000000	17.559200
526.000000	17.356600
525.000000	17.143500
524.000000	16.940900
523.000000	16.742500
522.000000	16.526400
521.000000	16.351500
520.000000	16.156500
519.000000	15.989900
518.000000	15.796100
517.000000	15.632200
516.000000	15.457500
515.000000	15.281400
514.000000	15.121200
513.000000	14.953000
512.000000	14.812900
511.000000	14.670200
510.000000	14.525300
509.000000	14.370300
508.000000	14.232400
507.000000	14.077900
506.000000	13.966200
505.000000	13.842900
504.000000	13.707800
503.000000	13.601900
502.000000	13.480200
501.000000	13.359900
500.000000	13.224800
499.000000	13.100500
498.000000	13.005500
497.000000	12.921800
496.000000	12.815700
495.000000	12.708800
494.000000	12.616600
493.000000	12.498200
492.000000	12.404200
491.000000	12.313200
490.000000	12.239000
489.000000	12.151600
488.000000	12.045500
487.000000	11.935600
486.000000	11.855200
485.000000	11.740100
484.000000	11.677600
483.000000	11.558300
482.000000	11.441900
481.000000	11.333500
480.000000	11.205700
479.000000	11.090200
478.000000	10.951300
477.000000	10.844700
476.000000	10.724900
475.000000	10.613600
474.000000	10.480400
473.000000	10.377100
472.000000	10.269300
471.000000	10.161200
470.000000	10.044200
469.000000	9.934000
468.000000	9.825500
467.000000	9.726300
466.000000	9.620200
465.000000	9.521200
464.000000	9.402500
463.000000	9.310700
462.000000	9.182800
461.000000	9.090300
460.000000	8.994300
459.000000	8.893200
458.000000	8.802900
457.000000	8.694500
456.000000	8.617400
455.000000	8.509600
454.000000	8.426700
453.000000	8.335400
452.000000	8.229700
451.000000	8.121000
450.000000	8.028600
449.000000	7.955400
448.000000	7.856300
447.000000	7.769300
446.000000	7.668900
445.000000	7.601300
444.000000	7.502000
443.000000	7.408700
442.000000	7.333800
441.000000	7.243700
440.000000	7.141900
439.000000	7.082500
438.000000	6.993000
437.000000	6.901400
436.000000	6.804400
435.000000	6.741200
434.000000	6.663000
433.000000	6.588600
432.000000	6.511200
431.000000	6.432000
430.000000	6.383000
429.000000	6.295300
428.000000	6.248700
427.000000	6.175500
426.000000	6.099400
425.000000	6.042500
424.000000	5.993900
423.000000	5.918800
422.000000	5.887400
421.000000	5.807300
420.000000	5.756100
419.000000	5.708200
418.000000	5.649400
417.000000	5.605000
416.000000	5.562500
415.000000	5.512100
414.000000	5.469300
413.000000	5.427500
412.000000	5.385600
411.000000	5.335500
410.000000	5.291900
409.000000	5.255200
408.000000	5.224000
407.000000	5.216100
406.000000	5.175600
405.000000	5.144400
404.000000	5.105800
403.000000	5.070400
402.000000	5.032900
401.000000	5.012800
400.000000	4.977900
399.000000	4.951200
398.000000	4.924400
397.000000	4.887700
396.000000	4.892200
395.000000	4.864600
394.000000	4.847600
393.000000	4.815000
392.000000	4.794200
391.000000	4.772700
390.000000	4.755700
389.000000	4.741100
388.000000	4.724700
387.000000	4.691200
386.000000	4.677200
385.000000	4.685400
384.000000	4.666800
383.000000	4.647500
382.000000	4.645700
381.000000	4.630500
380.000000	4.613200
379.000000	4.619000
378.000000	4.620600
377.000000	4.602500
376.000000	4.617700
375.000000	4.506400
374.000000	4.243700
373.000000	4.204200
372.000000	4.299700
371.000000	4.362200
370.000000	4.306500
369.000000	4.333700
368.000000	4.301400
367.000000	4.328400
366.000000	4.411600
365.000000	4.462700
364.000000	4.353000
363.000000	4.341100
362.000000	4.389400
361.000000	4.338400
360.000000	4.315000
359.000000	4.451100
358.000000	4.445500
357.000000	4.414500
356.000000	4.425900
355.000000	4.600900
354.000000	4.660400
353.000000	4.565500
352.000000	4.407900
351.000000	4.338000
350.000000	4.533100
349.000000	4.631600
348.000000	4.562700
347.000000	4.476900
346.000000	4.532200
345.000000	4.579400
344.000000	4.430900
343.000000	4.398500
342.000000	4.596500
341.000000	4.491700
340.000000	4.410300
339.000000	4.515200
338.000000	4.566500
337.000000	4.612900
336.000000	4.606700
335.000000	4.508000
334.000000	4.563600
333.000000	4.454100
332.000000	4.362800
331.000000	4.509600
330.000000	4.556200
329.000000	4.542400
328.000000	4.834200
327.000000	5.008000
326.000000	4.868900
325.000000	4.475500
324.000000	4.430300
323.000000	4.609900
322.000000	4.741800
321.000000	5.057400
320.000000	4.994200
319.000000	4.890300
318.000000	4.742700
317.000000	4.654100
316.000000	4.455900
315.000000	4.272300
314.000000	4.293700
313.000000	4.244200
312.000000	4.239800
311.000000	4.294200
310.000000	4.294100
309.000000	4.291300
308.000000	4.315400
307.000000	4.319200
306.000000	4.277100
305.000000	4.275200
304.000000	4.293200
303.000000	4.280000
302.000000	4.261000
301.000000	4.256500
300.000000	4.247400
299.000000	4.247900
298.000000	4.257500
297.000000	4.275900
296.000000	4.254500
295.000000	4.297100
294.000000	4.291600
293.000000	4.312600
292.000000	4.285900
291.000000	4.282000
290.000000	4.276600
289.000000	4.300600
288.000000	4.316900
287.000000	4.314500
286.000000	4.319700
285.000000	4.337800
284.000000	4.318500
283.000000	4.331000
282.000000	4.311500
281.000000	4.330200
280.000000	4.354100
279.000000	4.350400
278.000000	4.362900
277.000000	4.407200
276.000000	4.350800
275.000000	4.376000
274.000000	4.376500
273.000000	4.398500
272.000000	4.423300
271.000000	4.480400
270.000000	4.484300
269.000000	4.459200
268.000000	4.469100
267.000000	4.497000
266.000000	4.521100
265.000000	4.535000
264.000000	4.530800
263.000000	4.585800
262.000000	4.637300
261.000000	4.632800
260.000000	4.636100
259.000000	4.664000
258.000000	4.692800
257.000000	4.692600
256.000000	4.651300
255.000000	4.684000
254.000000	4.723800
253.000000	4.723600
252.000000	4.695700
251.000000	4.705700
250.000000	4.742300
