PE UV       SUBTECH     SPECTRUM    ASCII       PEDS        4.00        
   -1
CICIMAUCR0235-2.Sample.ASC
24/06/19
14:37:02.00
24/06/19
14:37:02.00
Vinicio Soto Monge
C. resplendens. Sex M. Ventral 
250,000000
1
Lambda 1050
1050L1511233
PerkinElmer UV WinLab 6.3.2.0749 / 2.02.05 Lambda 900 UV/VIS/NIR, Aug  7 2015 09:38:08

0
0
3350/servo 860,8/2
0
0
UV/VIS
1
1
1
DoubleDePol,CommonBeamDepol,RBeamAtt,SBeamAtt,60mm sphere, WB InGaAs Detector
0
0
0
0
Program
Program
3350/servo 860,8/2
3350/0,2 860,8/0,2
3350/0,2 860,8/0,2
0
15.00
 
 
 
0
 
860,8
319,2
860,8
Front
100
on
S:100 R:100
0
0
0
0
 
0
 
 
 
0
 
 
0
0
0
0
0
 
 
 
 
0
0


0
0
#HDR
-1
-1
#GR
nm
%R
1.0
0.0
2500,000000
-1,000000
2251
8
67,363000
4,361100
#DATA
2482.000000	6.193071
2481.000000	6.253582
2480.000000	6.200014
2479.000000	6.281454
2478.000000	6.245293
2477.000000	6.267155
2476.000000	6.284562
2475.000000	6.181674
2474.000000	6.209857
2473.000000	6.241044
2472.000000	6.164371
2471.000000	6.239594
2470.000000	6.214830
2469.000000	6.199806
2468.000000	6.229440
2467.000000	6.215452
2466.000000	6.207785
2465.000000	6.294405
2464.000000	6.287878
2463.000000	6.292437
2462.000000	6.271300
2461.000000	6.307564
2460.000000	6.347041
2459.000000	6.367867
2458.000000	6.386518
2457.000000	6.399262
2456.000000	6.422679
2455.000000	6.448582
2454.000000	6.476557
2453.000000	6.506502
2452.000000	6.517278
2451.000000	6.567737
2450.000000	6.608561
2449.000000	6.669796
2448.000000	6.682437
2447.000000	6.695907
2446.000000	6.745434
2445.000000	6.768229
2444.000000	6.814855
2443.000000	6.839722
2442.000000	6.880131
2441.000000	6.915256
2440.000000	6.958359
2439.000000	6.986439
2438.000000	7.050679
2437.000000	7.086322
2436.000000	7.092124
2435.000000	7.142998
2434.000000	7.165586
2433.000000	7.174393
2432.000000	7.220605
2431.000000	7.249616
2430.000000	7.286917
2429.000000	7.296450
2428.000000	7.315514
2427.000000	7.336755
2426.000000	7.364006
2425.000000	7.402861
2424.000000	7.441094
2423.000000	7.453838
2422.000000	7.477048
2421.000000	7.514556
2420.000000	7.527818
2419.000000	7.532688
2418.000000	7.561907
2417.000000	7.592162
2416.000000	7.606357
2415.000000	7.630395
2414.000000	7.641378
2413.000000	7.670494
2412.000000	7.675364
2411.000000	7.692253
2410.000000	7.704272
2409.000000	7.706655
2408.000000	7.735666
2407.000000	7.751519
2406.000000	7.773900
2405.000000	7.783847
2404.000000	7.794726
2403.000000	7.804984
2402.000000	7.829747
2401.000000	7.856272
2400.000000	7.858448
2399.000000	7.862282
2398.000000	7.876063
2397.000000	7.887149
2396.000000	7.887253
2395.000000	7.910773
2394.000000	7.934500
2393.000000	7.949214
2392.000000	7.948695
2391.000000	7.951907
2390.000000	7.966517
2389.000000	7.972008
2388.000000	7.980298
2387.000000	7.994803
2386.000000	7.991281
2385.000000	7.984131
2384.000000	7.990866
2383.000000	7.992109
2382.000000	7.986203
2381.000000	7.984442
2380.000000	7.988794
2379.000000	7.989623
2378.000000	7.972630
2377.000000	7.956259
2376.000000	7.947556
2375.000000	7.948488
2374.000000	7.946416
2373.000000	7.919787
2372.000000	7.902795
2371.000000	7.882590
2370.000000	7.864458
2369.000000	7.858241
2368.000000	7.835239
2367.000000	7.807056
2366.000000	7.784986
2365.000000	7.763953
2364.000000	7.742712
2363.000000	7.712250
2362.000000	7.680233
2361.000000	7.655677
2360.000000	7.633607
2359.000000	7.609465
2358.000000	7.581697
2357.000000	7.557037
2356.000000	7.531755
2355.000000	7.509582
2354.000000	7.485648
2353.000000	7.480156
2352.000000	7.481296
2351.000000	7.477877
2350.000000	7.469795
2349.000000	7.473214
2348.000000	7.489792
2347.000000	7.505541
2346.000000	7.531548
2345.000000	7.549059
2344.000000	7.554654
2343.000000	7.554965
2342.000000	7.575273
2341.000000	7.610087
2340.000000	7.628219
2339.000000	7.632053
2338.000000	7.634851
2337.000000	7.635887
2336.000000	7.646352
2335.000000	7.637130
2334.000000	7.635162
2333.000000	7.620448
2332.000000	7.598068
2331.000000	7.588121
2330.000000	7.570507
2329.000000	7.553203
2328.000000	7.535796
2327.000000	7.504091
2326.000000	7.471556
2325.000000	7.424619
2324.000000	7.390841
2323.000000	7.367632
2322.000000	7.329399
2321.000000	7.291683
2320.000000	7.242260
2319.000000	7.202783
2318.000000	7.141030
2317.000000	7.080727
2316.000000	7.048710
2315.000000	6.999287
2314.000000	6.935668
2313.000000	6.886037
2312.000000	6.851741
2311.000000	6.826460
2310.000000	6.784911
2309.000000	6.759940
2308.000000	6.731135
2307.000000	6.705128
2306.000000	6.700259
2305.000000	6.692384
2304.000000	6.698290
2303.000000	6.694974
2302.000000	6.719945
2301.000000	6.740668
2300.000000	6.768540
2299.000000	6.812575
2298.000000	6.835681
2297.000000	6.865833
2296.000000	6.905309
2295.000000	6.954422
2294.000000	6.976803
2293.000000	7.008301
2292.000000	7.053269
2291.000000	7.072852
2290.000000	7.073059
2289.000000	7.086736
2288.000000	7.103522
2287.000000	7.119582
2286.000000	7.113158
2285.000000	7.115230
2284.000000	7.101242
2283.000000	7.090259
2282.000000	7.080209
2281.000000	7.058139
2280.000000	7.019077
2279.000000	7.017005
2278.000000	6.988718
2277.000000	6.971726
2276.000000	6.959914
2275.000000	6.940642
2274.000000	6.923649
2273.000000	6.917121
2272.000000	6.902097
2271.000000	6.895673
2270.000000	6.922406
2269.000000	6.910179
2268.000000	6.948102
2267.000000	6.972865
2266.000000	7.024776
2265.000000	7.078447
2264.000000	7.131290
2263.000000	7.184858
2262.000000	7.281322
2261.000000	7.359447
2260.000000	7.475597
2259.000000	7.565533
2258.000000	7.669250
2257.000000	7.795969
2256.000000	7.938023
2255.000000	8.061427
2254.000000	8.194259
2253.000000	8.325952
2252.000000	8.451531
2251.000000	8.592859
2250.000000	8.743306
2249.000000	8.869196
2248.000000	8.973638
2247.000000	9.089271
2246.000000	9.191744
2245.000000	9.296705
2244.000000	9.394205
2243.000000	9.496782
2242.000000	9.569622
2241.000000	9.654792
2240.000000	9.721001
2239.000000	9.782133
2238.000000	9.863159
2237.000000	9.927399
2236.000000	9.974336
2235.000000	10.020858
2234.000000	10.061889
2233.000000	10.112452
2232.000000	10.139081
2231.000000	10.164155
2230.000000	10.214408
2229.000000	10.227359
2228.000000	10.232540
2227.000000	10.251191
2226.000000	10.256060
2225.000000	10.276161
2224.000000	10.271706
2223.000000	10.237410
2222.000000	10.238550
2221.000000	10.226013
2220.000000	10.232747
2219.000000	10.218138
2218.000000	10.204875
2217.000000	10.171408
2216.000000	10.145712
2215.000000	10.141775
2214.000000	10.119187
2213.000000	10.105303
2212.000000	10.070696
2211.000000	10.038162
2210.000000	10.036089
2209.000000	10.031012
2208.000000	10.017024
2207.000000	10.004902
2206.000000	9.984697
2205.000000	9.965736
2204.000000	9.965632
2203.000000	9.942734
2202.000000	9.941387
2201.000000	9.923047
2200.000000	9.911961
2199.000000	9.911132
2198.000000	9.897247
2197.000000	9.887611
2196.000000	9.865956
2195.000000	9.874763
2194.000000	9.870826
2193.000000	9.865024
2192.000000	9.855906
2191.000000	9.842229
2190.000000	9.848238
2189.000000	9.827308
2188.000000	9.820470
2187.000000	9.812906
2186.000000	9.807104
2185.000000	9.779646
2184.000000	9.777781
2183.000000	9.768974
2182.000000	9.764933
2181.000000	9.772497
2180.000000	9.736129
2179.000000	9.736854
2178.000000	9.732088
2177.000000	9.728772
2176.000000	9.717996
2175.000000	9.706910
2174.000000	9.709397
2173.000000	9.715199
2172.000000	9.719343
2171.000000	9.715095
2170.000000	9.714474
2169.000000	9.720483
2168.000000	9.722866
2167.000000	9.727632
2166.000000	9.747008
2165.000000	9.763379
2164.000000	9.775709
2163.000000	9.768560
2162.000000	9.780786
2161.000000	9.802856
2160.000000	9.801405
2159.000000	9.817672
2158.000000	9.851658
2157.000000	9.867096
2156.000000	9.896522
2155.000000	9.899423
2154.000000	9.943459
2153.000000	9.978480
2152.000000	9.992054
2151.000000	10.025106
2150.000000	10.064894
2149.000000	10.084477
2148.000000	10.106443
2147.000000	10.145816
2146.000000	10.161254
2145.000000	10.175656
2144.000000	10.200420
2143.000000	10.232644
2142.000000	10.263210
2141.000000	10.278544
2140.000000	10.301029
2139.000000	10.330351
2138.000000	10.340920
2137.000000	10.364647
2136.000000	10.379464
2135.000000	10.409719
2134.000000	10.433550
2133.000000	10.432721
2132.000000	10.438213
2131.000000	10.453133
2130.000000	10.456345
2129.000000	10.465981
2128.000000	10.459868
2127.000000	10.471369
2126.000000	10.471783
2125.000000	10.488361
2124.000000	10.466395
2123.000000	10.466292
2122.000000	10.455205
2121.000000	10.456241
2120.000000	10.430752
2119.000000	10.415418
2118.000000	10.416039
2117.000000	10.424225
2116.000000	10.401533
2115.000000	10.376977
2114.000000	10.363818
2113.000000	10.350763
2112.000000	10.329626
2111.000000	10.293568
2110.000000	10.281653
2109.000000	10.283932
2108.000000	10.258133
2107.000000	10.221246
2106.000000	10.208709
2105.000000	10.205808
2104.000000	10.169647
2103.000000	10.150996
2102.000000	10.128098
2101.000000	10.115975
2100.000000	10.092248
2099.000000	10.063340
2098.000000	10.047590
2097.000000	10.027282
2096.000000	9.998685
2095.000000	9.989463
2094.000000	9.971745
2093.000000	9.961073
2092.000000	9.938900
2091.000000	9.919317
2090.000000	9.919939
2089.000000	9.904604
2088.000000	9.885539
2087.000000	9.867096
2086.000000	9.845026
2085.000000	9.811559
2084.000000	9.788868
2083.000000	9.778610
2082.000000	9.755608
2081.000000	9.739444
2080.000000	9.735403
2079.000000	9.703698
2078.000000	9.664428
2077.000000	9.629096
2076.000000	9.611067
2075.000000	9.580087
2074.000000	9.545687
2073.000000	9.517919
2072.000000	9.480722
2071.000000	9.449120
2070.000000	9.409643
2069.000000	9.371617
2068.000000	9.336181
2067.000000	9.321468
2066.000000	9.294114
2065.000000	9.258575
2064.000000	9.231014
2063.000000	9.193609
2062.000000	9.176720
2061.000000	9.157863
2060.000000	9.138798
2059.000000	9.115796
2058.000000	9.101601
2057.000000	9.089685
2056.000000	9.089064
2055.000000	9.079324
2054.000000	9.077563
2053.000000	9.096109
2052.000000	9.115278
2051.000000	9.128540
2050.000000	9.161800
2049.000000	9.203038
2048.000000	9.248628
2047.000000	9.287172
2046.000000	9.323541
2045.000000	9.366022
2044.000000	9.433163
2043.000000	9.480307
2042.000000	9.533047
2041.000000	9.597391
2040.000000	9.650441
2039.000000	9.689710
2038.000000	9.743693
2037.000000	9.797779
2036.000000	9.826687
2035.000000	9.871551
2034.000000	9.906676
2033.000000	9.946982
2032.000000	9.979206
2031.000000	9.998892
2030.000000	10.029458
2029.000000	10.069349
2028.000000	10.082094
2027.000000	10.095460
2026.000000	10.113592
2025.000000	10.141879
2024.000000	10.160011
2023.000000	10.166020
2022.000000	10.170476
2021.000000	10.182391
2020.000000	10.182909
2019.000000	10.194618
2018.000000	10.202389
2017.000000	10.202803
2016.000000	10.199488
2015.000000	10.208398
2014.000000	10.190888
2013.000000	10.175449
2012.000000	10.173377
2011.000000	10.160425
2010.000000	10.148717
2009.000000	10.141464
2008.000000	10.116908
2007.000000	10.114214
2006.000000	10.075773
2005.000000	10.045207
2004.000000	10.026246
2003.000000	10.002001
2002.000000	9.977651
2001.000000	9.950090
2000.000000	9.922633
1999.000000	9.883571
1998.000000	9.837359
1997.000000	9.789697
1996.000000	9.758716
1995.000000	9.723902
1994.000000	9.670956
1993.000000	9.628889
1992.000000	9.583092
1991.000000	9.532632
1990.000000	9.490980
1989.000000	9.431816
1988.000000	9.391511
1987.000000	9.350894
1986.000000	9.296705
1985.000000	9.260751
1984.000000	9.202727
1983.000000	9.151646
1982.000000	9.117454
1981.000000	9.057772
1980.000000	9.005344
1979.000000	8.969805
1978.000000	8.910849
1977.000000	8.857902
1976.000000	8.803505
1975.000000	8.759780
1974.000000	8.704244
1973.000000	8.666425
1972.000000	8.625083
1971.000000	8.590684
1970.000000	8.534422
1969.000000	8.493598
1968.000000	8.453500
1967.000000	8.415473
1966.000000	8.389777
1965.000000	8.348643
1964.000000	8.323361
1963.000000	8.268653
1962.000000	8.225861
1961.000000	8.198818
1960.000000	8.152710
1959.000000	8.107017
1958.000000	8.079352
1957.000000	8.047024
1956.000000	8.034384
1955.000000	7.977500
1954.000000	7.949110
1953.000000	7.927351
1952.000000	7.887253
1951.000000	7.855858
1950.000000	7.829955
1949.000000	7.797006
1948.000000	7.779184
1947.000000	7.740433
1946.000000	7.724269
1945.000000	7.718259
1944.000000	7.689662
1943.000000	7.662308
1942.000000	7.654641
1941.000000	7.640446
1940.000000	7.629566
1939.000000	7.645937
1938.000000	7.607704
1937.000000	7.609051
1936.000000	7.641482
1935.000000	7.664381
1934.000000	7.644383
1933.000000	7.679923
1932.000000	7.675778
1931.000000	7.713182
1930.000000	7.744681
1929.000000	7.768097
1928.000000	7.800528
1927.000000	7.830473
1926.000000	7.867463
1925.000000	7.921652
1924.000000	7.968589
1923.000000	8.000191
1922.000000	8.075725
1921.000000	8.163279
1920.000000	8.211252
1919.000000	8.271969
1918.000000	8.357968
1917.000000	8.427803
1916.000000	8.506031
1915.000000	8.575452
1914.000000	8.688702
1913.000000	8.794077
1912.000000	8.915719
1911.000000	9.011975
1910.000000	9.122116
1909.000000	9.242100
1908.000000	9.367576
1907.000000	9.507765
1906.000000	9.643498
1905.000000	9.786899
1904.000000	9.987806
1903.000000	10.129652
1902.000000	10.300200
1901.000000	10.449403
1900.000000	10.653936
1899.000000	10.837849
1898.000000	11.052225
1897.000000	11.250955
1896.000000	11.456110
1895.000000	11.679396
1894.000000	11.916257
1893.000000	12.175911
1892.000000	12.417849
1891.000000	12.734491
1890.000000	13.034141
1889.000000	13.347674
1888.000000	13.685661
1887.000000	14.020539
1886.000000	14.382771
1885.000000	14.809348
1884.000000	15.255092
1883.000000	15.742593
1882.000000	16.217556
1881.000000	16.724122
1880.000000	17.249648
1879.000000	17.729689
1878.000000	18.256977
1877.000000	18.781364
1876.000000	19.288551
1875.000000	19.791594
1874.000000	20.277126
1873.000000	20.738827
1872.000000	21.201771
1871.000000	21.613530
1870.000000	21.992859
1869.000000	22.352190
1868.000000	22.690487
1867.000000	22.970657
1866.000000	23.198089
1865.000000	23.387597
1864.000000	23.584877
1863.000000	23.773350
1862.000000	23.964724
1861.000000	24.153300
1860.000000	24.331411
1859.000000	24.488489
1858.000000	24.616762
1857.000000	24.742963
1856.000000	24.818808
1855.000000	24.880562
1854.000000	24.942833
1853.000000	24.986765
1852.000000	24.988734
1851.000000	25.012254
1850.000000	25.032977
1849.000000	25.058155
1848.000000	25.078463
1847.000000	25.072972
1846.000000	25.029558
1845.000000	24.959722
1844.000000	24.938378
1843.000000	24.928638
1842.000000	24.937653
1841.000000	24.947081
1840.000000	24.922007
1839.000000	24.897554
1838.000000	24.877453
1837.000000	24.851654
1836.000000	24.794770
1835.000000	24.724002
1834.000000	24.648882
1833.000000	24.567960
1832.000000	24.511698
1831.000000	24.457405
1830.000000	24.399071
1829.000000	24.337421
1828.000000	24.270176
1827.000000	24.188321
1826.000000	24.099214
1825.000000	24.010728
1824.000000	23.941618
1823.000000	23.880175
1822.000000	23.873440
1821.000000	23.870228
1820.000000	23.824742
1819.000000	23.771692
1818.000000	23.724859
1817.000000	23.690563
1816.000000	23.664038
1815.000000	23.660100
1814.000000	23.634197
1813.000000	23.613993
1812.000000	23.607983
1811.000000	23.573169
1810.000000	23.526543
1809.000000	23.484994
1808.000000	23.449455
1807.000000	23.399306
1806.000000	23.350711
1805.000000	23.296211
1804.000000	23.237255
1803.000000	23.187624
1802.000000	23.142759
1801.000000	23.089088
1800.000000	23.035830
1799.000000	22.967549
1798.000000	22.903309
1797.000000	22.860309
1796.000000	22.794411
1795.000000	22.734730
1794.000000	22.688726
1793.000000	22.633189
1792.000000	22.563354
1791.000000	22.513412
1790.000000	22.459844
1789.000000	22.390734
1788.000000	22.341517
1787.000000	22.275723
1786.000000	22.200396
1785.000000	22.141544
1784.000000	22.070465
1783.000000	21.983223
1782.000000	21.904684
1781.000000	21.823036
1780.000000	21.741907
1779.000000	21.669171
1778.000000	21.584104
1777.000000	21.498727
1776.000000	21.413246
1775.000000	21.306420
1774.000000	21.190788
1773.000000	21.073498
1772.000000	20.966258
1771.000000	20.848968
1770.000000	20.729916
1769.000000	20.613351
1768.000000	20.509012
1767.000000	20.385298
1766.000000	20.284897
1765.000000	20.205322
1764.000000	20.123156
1763.000000	20.070417
1762.000000	20.051145
1761.000000	20.066894
1760.000000	20.103470
1759.000000	20.161182
1758.000000	20.230811
1757.000000	20.301475
1756.000000	20.342299
1755.000000	20.406850
1754.000000	20.455859
1753.000000	20.485699
1752.000000	20.508598
1751.000000	20.514193
1750.000000	20.505593
1749.000000	20.478861
1748.000000	20.439073
1747.000000	20.375662
1746.000000	20.313494
1745.000000	20.241068
1744.000000	20.128959
1743.000000	19.975922
1742.000000	19.822471
1741.000000	19.627056
1740.000000	19.440241
1739.000000	19.237470
1738.000000	19.025788
1737.000000	18.830787
1736.000000	18.653298
1735.000000	18.504820
1734.000000	18.407631
1733.000000	18.356549
1732.000000	18.353752
1731.000000	18.382556
1730.000000	18.446382
1729.000000	18.541085
1728.000000	18.640968
1727.000000	18.759605
1726.000000	18.860628
1725.000000	18.945902
1724.000000	19.051173
1723.000000	19.122148
1722.000000	19.161107
1721.000000	19.198926
1720.000000	19.228559
1719.000000	19.277361
1718.000000	19.319117
1717.000000	19.348336
1716.000000	19.413405
1715.000000	19.473604
1714.000000	19.568825
1713.000000	19.651405
1712.000000	19.717303
1711.000000	19.749838
1710.000000	19.806307
1709.000000	19.851689
1708.000000	19.852726
1707.000000	19.837909
1706.000000	19.806100
1705.000000	19.760924
1704.000000	19.697616
1703.000000	19.620114
1702.000000	19.547481
1701.000000	19.437029
1700.000000	19.301710
1699.000000	19.162143
1698.000000	19.013665
1697.000000	18.850681
1696.000000	18.736189
1695.000000	18.678372
1694.000000	18.665006
1693.000000	18.731526
1692.000000	18.815660
1691.000000	18.950150
1690.000000	19.107331
1689.000000	19.266378
1688.000000	19.401904
1687.000000	19.518573
1686.000000	19.594418
1685.000000	19.645499
1684.000000	19.709118
1683.000000	19.826408
1682.000000	20.046586
1681.000000	20.351935
1680.000000	20.764523
1679.000000	21.264561
1678.000000	21.804593
1677.000000	22.360064
1676.000000	22.892429
1675.000000	23.391846
1674.000000	23.836036
1673.000000	24.238781
1672.000000	24.557806
1671.000000	24.872998
1670.000000	25.092347
1669.000000	25.339051
1668.000000	25.518509
1667.000000	25.709779
1666.000000	25.889652
1665.000000	25.980728
1664.000000	26.115943
1663.000000	26.229400
1662.000000	26.279238
1661.000000	26.365133
1660.000000	26.429270
1659.000000	26.488226
1658.000000	26.542208
1657.000000	26.596605
1656.000000	26.604791
1655.000000	26.620644
1654.000000	26.616085
1653.000000	26.616292
1652.000000	26.604791
1651.000000	26.604791
1650.000000	26.539411
1649.000000	26.517859
1648.000000	26.461390
1647.000000	26.426783
1646.000000	26.370832
1645.000000	26.314777
1644.000000	26.253956
1643.000000	26.183499
1642.000000	26.120813
1641.000000	26.044450
1640.000000	25.989328
1639.000000	25.924673
1638.000000	25.841368
1637.000000	25.790287
1636.000000	25.712577
1635.000000	25.621190
1634.000000	25.530010
1633.000000	25.464008
1632.000000	25.396142
1631.000000	25.285172
1630.000000	25.211503
1629.000000	25.130270
1628.000000	25.027900
1627.000000	24.914547
1626.000000	24.823678
1625.000000	24.735710
1624.000000	24.631475
1623.000000	24.550761
1622.000000	24.463933
1621.000000	24.369230
1620.000000	24.283335
1619.000000	24.197543
1618.000000	24.107917
1617.000000	24.025752
1616.000000	23.951668
1615.000000	23.859763
1614.000000	23.774490
1613.000000	23.698645
1612.000000	23.606429
1611.000000	23.534832
1610.000000	23.459712
1609.000000	23.386043
1608.000000	23.298386
1607.000000	23.242642
1606.000000	23.154468
1605.000000	23.068572
1604.000000	22.989204
1603.000000	22.888699
1602.000000	22.820211
1601.000000	22.732969
1600.000000	22.662097
1599.000000	22.579206
1598.000000	22.502533
1597.000000	22.414565
1596.000000	22.337580
1595.000000	22.263289
1594.000000	22.199153
1593.000000	22.140611
1592.000000	22.061658
1591.000000	21.989129
1590.000000	21.927582
1589.000000	21.854846
1588.000000	21.799309
1587.000000	21.755584
1586.000000	21.684505
1585.000000	21.618400
1584.000000	21.565246
1583.000000	21.537167
1582.000000	21.477382
1581.000000	21.427959
1580.000000	21.395631
1579.000000	21.356880
1578.000000	21.314191
1577.000000	21.280621
1576.000000	21.246843
1575.000000	21.225809
1574.000000	21.211200
1573.000000	21.189027
1572.000000	21.191617
1571.000000	21.189959
1570.000000	21.166335
1569.000000	21.155663
1568.000000	21.150275
1567.000000	21.144680
1566.000000	21.151933
1565.000000	21.160326
1564.000000	21.160326
1563.000000	21.151311
1562.000000	21.148928
1561.000000	21.146545
1560.000000	21.140950
1559.000000	21.120642
1558.000000	21.099090
1557.000000	21.097640
1556.000000	21.074948
1555.000000	21.062722
1554.000000	21.039098
1553.000000	20.992990
1552.000000	20.973822
1551.000000	20.945328
1550.000000	20.913726
1549.000000	20.884300
1548.000000	20.848968
1547.000000	20.814464
1546.000000	20.773952
1545.000000	20.735407
1544.000000	20.696656
1543.000000	20.683083
1542.000000	20.668680
1541.000000	20.631380
1540.000000	20.610761
1539.000000	20.582889
1538.000000	20.558332
1537.000000	20.547246
1536.000000	20.512742
1535.000000	20.482798
1534.000000	20.452647
1533.000000	20.433064
1532.000000	20.396074
1531.000000	20.353282
1530.000000	20.334424
1529.000000	20.301993
1528.000000	20.259201
1527.000000	20.217134
1526.000000	20.166570
1525.000000	20.112381
1524.000000	20.070728
1523.000000	20.012912
1522.000000	19.971985
1521.000000	19.944423
1520.000000	19.889819
1519.000000	19.840188
1518.000000	19.779885
1517.000000	19.709325
1516.000000	19.672957
1515.000000	19.633065
1514.000000	19.576285
1513.000000	19.522510
1512.000000	19.468942
1511.000000	19.408846
1510.000000	19.362635
1509.000000	19.302124
1508.000000	19.238817
1507.000000	19.197061
1506.000000	19.130644
1505.000000	19.062467
1504.000000	19.001231
1503.000000	18.960408
1502.000000	18.915854
1501.000000	18.851925
1500.000000	18.792865
1499.000000	18.741162
1498.000000	18.688837
1497.000000	18.644905
1496.000000	18.607190
1495.000000	18.577349
1494.000000	18.549788
1493.000000	18.496945
1492.000000	18.452288
1491.000000	18.425245
1490.000000	18.404937
1489.000000	18.368050
1488.000000	18.334583
1487.000000	18.299976
1486.000000	18.269514
1485.000000	18.258220
1484.000000	18.225064
1483.000000	18.204238
1482.000000	18.181754
1481.000000	18.162585
1480.000000	18.156368
1479.000000	18.143624
1478.000000	18.118860
1477.000000	18.127668
1476.000000	18.119897
1475.000000	18.100521
1474.000000	18.090160
1473.000000	18.094926
1472.000000	18.102697
1471.000000	18.107774
1470.000000	18.107359
1469.000000	18.105805
1468.000000	18.097723
1467.000000	18.101453
1466.000000	18.120725
1465.000000	18.133263
1464.000000	18.149115
1463.000000	18.161238
1462.000000	18.186727
1461.000000	18.225168
1460.000000	18.253350
1459.000000	18.291584
1458.000000	18.330439
1457.000000	18.381209
1456.000000	18.446693
1455.000000	18.514663
1454.000000	18.574137
1453.000000	18.643662
1452.000000	18.727278
1451.000000	18.805506
1450.000000	18.896893
1449.000000	18.951186
1448.000000	19.031694
1447.000000	19.106503
1446.000000	19.216954
1445.000000	19.327717
1444.000000	19.411229
1443.000000	19.493187
1442.000000	19.599806
1441.000000	19.720204
1440.000000	19.818533
1439.000000	19.930332
1438.000000	20.040058
1437.000000	20.159732
1436.000000	20.276193
1435.000000	20.397835
1434.000000	20.521550
1433.000000	20.652413
1432.000000	20.798819
1431.000000	20.938800
1430.000000	21.085620
1429.000000	21.250884
1428.000000	21.411795
1427.000000	21.577369
1426.000000	21.765635
1425.000000	21.980321
1424.000000	22.182989
1423.000000	22.415497
1422.000000	22.627179
1421.000000	22.848601
1420.000000	23.111364
1419.000000	23.367186
1418.000000	23.650464
1417.000000	23.908358
1416.000000	24.179100
1415.000000	24.474190
1414.000000	24.782129
1413.000000	25.099289
1412.000000	25.415621
1411.000000	25.720140
1410.000000	26.093874
1409.000000	26.511850
1408.000000	26.928997
1407.000000	27.391009
1406.000000	27.842452
1405.000000	28.271100
1404.000000	28.762331
1403.000000	29.273352
1402.000000	29.721376
1401.000000	30.181626
1400.000000	30.749945
1399.000000	31.244906
1398.000000	31.655318
1397.000000	32.027394
1396.000000	32.444334
1395.000000	32.934217
1394.000000	33.400477
1393.000000	33.754524
1392.000000	34.119139
1391.000000	34.581773
1390.000000	35.035599
1389.000000	35.446322
1388.000000	35.984075
1387.000000	36.583271
1386.000000	37.192414
1385.000000	37.803940
1384.000000	38.469344
1383.000000	39.188835
1382.000000	39.893302
1381.000000	40.544615
1380.000000	41.079882
1379.000000	41.449056
1378.000000	41.779893
1377.000000	42.029809
1376.000000	42.316714
1375.000000	42.561967
1374.000000	42.860995
1373.000000	43.197634
1372.000000	43.586702
1371.000000	44.019288
1370.000000	44.478191
1369.000000	44.854204
1368.000000	45.250836
1367.000000	45.612654
1366.000000	45.928363
1365.000000	46.197551
1364.000000	46.480726
1363.000000	46.691683
1362.000000	46.955171
1361.000000	47.181256
1360.000000	47.372629
1359.000000	47.443086
1358.000000	47.596538
1357.000000	47.732582
1356.000000	47.911211
1355.000000	48.208685
1354.000000	48.609461
1353.000000	49.080488
1352.000000	49.518254
1351.000000	50.091339
1350.000000	50.646499
1349.000000	51.160732
1348.000000	51.615802
1347.000000	52.091801
1346.000000	52.514336
1345.000000	52.910968
1344.000000	53.331327
1343.000000	53.756867
1342.000000	54.110396
1341.000000	54.487445
1340.000000	54.871436
1339.000000	55.245791
1338.000000	55.611960
1337.000000	55.964245
1336.000000	56.305444
1335.000000	56.655553
1334.000000	56.981625
1333.000000	57.316399
1332.000000	57.627964
1331.000000	57.948233
1330.000000	58.254203
1329.000000	58.550537
1328.000000	58.822522
1327.000000	59.103936
1326.000000	59.359550
1325.000000	59.597861
1324.000000	59.852957
1323.000000	60.088366
1322.000000	60.305747
1321.000000	60.532660
1320.000000	60.736986
1319.000000	60.944316
1318.000000	61.149677
1317.000000	61.314008
1316.000000	61.494813
1315.000000	61.671785
1314.000000	61.839742
1313.000000	62.012362
1312.000000	62.153172
1311.000000	62.294086
1310.000000	62.439663
1309.000000	62.555814
1308.000000	62.670203
1307.000000	62.793295
1306.000000	62.885200
1305.000000	62.979281
1304.000000	63.072533
1303.000000	63.138535
1302.000000	63.195315
1301.000000	63.241734
1300.000000	63.288360
1299.000000	63.342446
1298.000000	63.376949
1297.000000	63.414146
1296.000000	63.439739
1295.000000	63.468440
1294.000000	63.480459
1293.000000	63.507191
1292.000000	63.528121
1291.000000	63.517656
1290.000000	63.502425
1289.000000	63.489370
1288.000000	63.473517
1287.000000	63.445023
1286.000000	63.403060
1285.000000	63.367624
1284.000000	63.326282
1283.000000	63.275097
1282.000000	63.213758
1281.000000	63.155631
1280.000000	63.099784
1279.000000	63.037719
1278.000000	62.982804
1277.000000	62.922398
1276.000000	62.858779
1275.000000	62.818991
1274.000000	62.767392
1273.000000	62.728019
1272.000000	62.693930
1271.000000	62.650309
1270.000000	62.609175
1269.000000	62.576433
1268.000000	62.539339
1267.000000	62.491781
1266.000000	62.440285
1265.000000	62.401326
1264.000000	62.356358
1263.000000	62.309628
1262.000000	62.256578
1261.000000	62.197933
1260.000000	62.136905
1259.000000	62.089347
1258.000000	62.024174
1257.000000	61.948432
1256.000000	61.870722
1255.000000	61.804514
1254.000000	61.725664
1253.000000	61.637178
1252.000000	61.545480
1251.000000	61.467149
1250.000000	61.367162
1249.000000	61.272459
1248.000000	61.163251
1247.000000	61.037050
1246.000000	60.914993
1245.000000	60.789621
1244.000000	60.642490
1243.000000	60.507378
1242.000000	60.375271
1241.000000	60.226897
1240.000000	60.072824
1239.000000	59.933879
1238.000000	59.776179
1237.000000	59.620345
1236.000000	59.467101
1235.000000	59.299040
1234.000000	59.131601
1233.000000	58.952971
1232.000000	58.769472
1231.000000	58.586906
1230.000000	58.387139
1229.000000	58.185093
1228.000000	57.987088
1227.000000	57.782763
1226.000000	57.575743
1225.000000	57.363336
1224.000000	57.148546
1223.000000	56.937589
1222.000000	56.726943
1221.000000	56.511531
1220.000000	56.288762
1219.000000	56.076044
1218.000000	55.864673
1217.000000	55.659726
1216.000000	55.471150
1215.000000	55.284749
1214.000000	55.104151
1213.000000	54.926765
1212.000000	54.746374
1211.000000	54.573237
1210.000000	54.398959
1209.000000	54.227686
1208.000000	54.086876
1207.000000	53.953318
1206.000000	53.827946
1205.000000	53.719463
1204.000000	53.633257
1203.000000	53.546221
1202.000000	53.480738
1201.000000	53.427481
1200.000000	53.359821
1199.000000	53.279624
1198.000000	53.181399
1197.000000	53.061829
1196.000000	52.902886
1195.000000	52.699597
1194.000000	52.439217
1193.000000	52.119881
1192.000000	51.755162
1191.000000	51.326928
1190.000000	50.866678
1189.000000	50.415027
1188.000000	50.009277
1187.000000	49.696262
1186.000000	49.506235
1185.000000	49.430183
1184.000000	49.477119
1183.000000	49.683517
1182.000000	50.012800
1181.000000	50.449219
1180.000000	50.951019
1179.000000	51.489497
1178.000000	52.014299
1177.000000	52.489676
1176.000000	52.919154
1175.000000	53.305010
1174.000000	53.642064
1173.000000	53.976631
1172.000000	54.312131
1171.000000	54.659236
1170.000000	55.013697
1169.000000	55.361838
1168.000000	55.730287
1167.000000	56.091068
1166.000000	56.469982
1165.000000	56.870033
1164.000000	57.261277
1163.000000	57.664333
1162.000000	58.052883
1161.000000	58.458943
1160.000000	58.872982
1159.000000	59.261428
1158.000000	59.628116
1157.000000	60.004957
1156.000000	60.347296
1155.000000	60.688495
1154.000000	60.946802
1153.000000	61.180554
1152.000000	61.359183
1151.000000	61.500098
1150.000000	61.612311
1149.000000	61.718307
1148.000000	61.819123
1147.000000	61.932787
1146.000000	62.063547
1145.000000	62.259894
1144.000000	62.518720
1143.000000	62.829456
1142.000000	63.159050
1141.000000	63.545943
1140.000000	63.936047
1139.000000	64.352054
1138.000000	64.782464
1137.000000	65.218676
1136.000000	65.691153
1135.000000	66.176995
1134.000000	66.674339
1133.000000	67.112934
1132.000000	67.513504
1131.000000	67.887030
1130.000000	68.249987
1129.000000	68.548911
1128.000000	68.807116
1127.000000	69.014860
1126.000000	69.196805
1125.000000	69.337512
1124.000000	69.458222
1123.000000	69.543910
1122.000000	69.629287
1121.000000	69.674670
1120.000000	69.706687
1119.000000	69.742019
1118.000000	69.766679
1117.000000	69.797037
1116.000000	69.777662
1115.000000	69.749375
1114.000000	69.760669
1113.000000	69.725959
1112.000000	69.703682
1111.000000	69.680991
1110.000000	69.663065
1109.000000	69.647938
1108.000000	69.610533
1107.000000	69.574269
1106.000000	69.553339
1105.000000	69.506609
1104.000000	69.495523
1103.000000	69.480188
1102.000000	69.449311
1101.000000	69.412839
1100.000000	69.364141
1099.000000	69.325804
1098.000000	69.313992
1097.000000	69.267677
1096.000000	69.222398
1095.000000	69.172249
1094.000000	69.114433
1093.000000	69.080862
1092.000000	69.019316
1091.000000	68.952796
1090.000000	68.891353
1089.000000	68.839236
1088.000000	68.761837
1087.000000	68.702052
1086.000000	68.619679
1085.000000	68.556372
1084.000000	68.507777
1083.000000	68.424679
1082.000000	68.364998
1081.000000	68.265322
1080.000000	68.198180
1079.000000	68.122439
1078.000000	68.042242
1077.000000	67.979038
1076.000000	67.889102
1075.000000	67.815744
1074.000000	67.737412
1073.000000	67.667473
1072.000000	67.584064
1071.000000	67.506043
1070.000000	67.425536
1069.000000	67.338397
1068.000000	67.242658
1067.000000	67.162876
1066.000000	67.070349
1065.000000	66.998856
1064.000000	66.907987
1063.000000	66.827687
1062.000000	66.735782
1061.000000	66.635692
1060.000000	66.550418
1059.000000	66.461414
1058.000000	66.373861
1057.000000	66.304958
1056.000000	66.210359
1055.000000	66.091411
1054.000000	66.002614
1053.000000	65.909673
1052.000000	65.823467
1051.000000	65.721200
1050.000000	65.668358
1049.000000	65.563087
1048.000000	65.477916
1047.000000	65.392643
1046.000000	65.323429
1045.000000	65.244372
1044.000000	65.144489
1043.000000	65.090817
1042.000000	65.009273
1041.000000	64.907732
1040.000000	64.825774
1039.000000	64.749411
1038.000000	64.680094
1037.000000	64.604767
1036.000000	64.522602
1035.000000	64.426552
1034.000000	64.355888
1033.000000	64.269682
1032.000000	64.167208
1031.000000	64.089291
1030.000000	64.004949
1029.000000	63.892736
1028.000000	63.780419
1027.000000	63.700016
1026.000000	63.590703
1025.000000	63.503461
1024.000000	63.401816
1023.000000	63.302451
1022.000000	63.182881
1021.000000	63.101338
1020.000000	62.994409
1019.000000	62.901157
1018.000000	62.806662
1017.000000	62.727501
1016.000000	62.620572
1015.000000	62.540686
1014.000000	62.473441
1013.000000	62.390447
1012.000000	62.314809
1011.000000	62.273364
1010.000000	62.230986
1009.000000	62.175864
1008.000000	62.111002
1007.000000	62.089761
1006.000000	62.064894
1005.000000	62.032152
1004.000000	61.985837
1003.000000	61.952162
1002.000000	61.920975
1001.000000	61.891963
1000.000000	61.851243
999.000000	61.804928
998.000000	61.759545
997.000000	61.729601
996.000000	61.715510
995.000000	61.662149
994.000000	61.632515
993.000000	61.602882
992.000000	61.573249
991.000000	61.561540
990.000000	61.523100
989.000000	61.491083
988.000000	61.467252
987.000000	61.448705
986.000000	61.425910
985.000000	61.426739
984.000000	61.397002
983.000000	61.375762
982.000000	61.361877
981.000000	61.362810
980.000000	61.355971
979.000000	61.334834
978.000000	61.329654
977.000000	61.320639
976.000000	61.300124
975.000000	61.291731
974.000000	61.301574
973.000000	61.293285
972.000000	61.277640
971.000000	61.268418
970.000000	61.263859
969.000000	61.260958
968.000000	61.248524
967.000000	61.245831
966.000000	61.242826
965.000000	61.228942
964.000000	61.236091
963.000000	61.248006
962.000000	61.247903
961.000000	61.254948
960.000000	61.257746
959.000000	61.268211
958.000000	61.266346
957.000000	61.273288
956.000000	61.276396
955.000000	61.276811
954.000000	61.283235
953.000000	61.280748
952.000000	61.286758
951.000000	61.298984
950.000000	61.302300
949.000000	61.300124
948.000000	61.287587
947.000000	61.273184
946.000000	61.278883
945.000000	61.280748
944.000000	61.280541
943.000000	61.270698
942.000000	61.251736
941.000000	61.242929
940.000000	61.218269
939.000000	61.196821
938.000000	61.181590
937.000000	61.175995
936.000000	61.160350
935.000000	61.138280
934.000000	61.116625
933.000000	61.092690
932.000000	61.074558
931.000000	61.059741
930.000000	61.019332
929.000000	60.984829
928.000000	60.979752
927.000000	60.951776
926.000000	60.912817
925.000000	60.887121
924.000000	60.859664
923.000000	60.828062
922.000000	60.819151
921.000000	60.786098
920.000000	60.737296
919.000000	60.724759
918.000000	60.690463
917.000000	60.643423
916.000000	60.610992
915.000000	60.572448
914.000000	60.516600
913.000000	60.475984
912.000000	60.425628
911.000000	60.375271
910.000000	60.351440
909.000000	60.319631
908.000000	60.277150
907.000000	60.234668
906.000000	60.208661
905.000000	60.180478
904.000000	60.161621
903.000000	60.160274
902.000000	60.147737
901.000000	60.116135
900.000000	60.108053
899.000000	60.114684
898.000000	60.113337
897.000000	60.106291
896.000000	60.090853
895.000000	60.072306
894.000000	60.061738
893.000000	60.053552
892.000000	60.011174
891.000000	59.974392
890.000000	59.966413
889.000000	59.930874
888.000000	59.889636
887.000000	59.851403
886.000000	59.806331
885.000000	59.760534
884.000000	59.705515
883.000000	59.646248
882.000000	59.579107
881.000000	59.518907
880.000000	59.444513
879.000000	59.370637
878.000000	59.271272
877.000000	59.181335
876.000000	59.055549
875.000000	58.896709
874.000000	58.722121
873.000000	58.517174
872.000000	58.332949
871.000000	58.222912
870.000000	58.210893
869.000000	58.195247
868.000000	58.190896
867.000000	58.153802
866.000000	58.095260
865.000000	58.064280
864.000000	58.037237
863.000000	57.996828
862.000000	57.956833
861.000000	57.920879
860.000000	57.881092
859.000000	57.807630
858.000000	57.786700
857.000000	57.599900
856.000000	57.839100
855.000000	57.921100
854.000000	57.464600
853.000000	57.907400
852.000000	58.306700
851.000000	58.181300
850.000000	57.889400
849.000000	57.730400
848.000000	57.709000
847.000000	58.076400
846.000000	57.718300
845.000000	57.369800
844.000000	57.500200
843.000000	57.214000
842.000000	57.379500
841.000000	57.129000
840.000000	57.152700
839.000000	57.053300
838.000000	56.884100
837.000000	56.685800
836.000000	56.906300
835.000000	56.612700
834.000000	56.570800
833.000000	56.551900
832.000000	56.164800
831.000000	56.356600
830.000000	56.299600
829.000000	56.206600
828.000000	56.125100
827.000000	55.848500
826.000000	55.578500
825.000000	55.611500
824.000000	55.573200
823.000000	55.656800
822.000000	55.495700
821.000000	55.291300
820.000000	55.178100
819.000000	55.011900
818.000000	54.938300
817.000000	54.764900
816.000000	54.771000
815.000000	54.607700
814.000000	54.527600
813.000000	54.394200
812.000000	54.011400
811.000000	54.119800
810.000000	53.847000
809.000000	53.800900
808.000000	53.584400
807.000000	53.469800
806.000000	53.299200
805.000000	53.227800
804.000000	52.906100
803.000000	52.948700
802.000000	52.815400
801.000000	52.538300
800.000000	52.428500
799.000000	52.325000
798.000000	52.108700
797.000000	52.114200
796.000000	51.884900
795.000000	51.756100
794.000000	51.573000
793.000000	51.481800
792.000000	51.299900
791.000000	51.202300
790.000000	50.893800
789.000000	50.788900
788.000000	50.646000
787.000000	50.410300
786.000000	50.171400
785.000000	50.122700
784.000000	50.020800
783.000000	49.831100
782.000000	49.602900
781.000000	49.394400
780.000000	49.344000
779.000000	49.171500
778.000000	48.973000
777.000000	48.770400
776.000000	48.628500
775.000000	48.403400
774.000000	48.308700
773.000000	48.130200
772.000000	47.838600
771.000000	47.712500
770.000000	47.470500
769.000000	47.275900
768.000000	47.074700
767.000000	46.961000
766.000000	46.847900
765.000000	46.660100
764.000000	46.360400
763.000000	46.196900
762.000000	46.054000
761.000000	45.875700
760.000000	45.571300
759.000000	45.408500
758.000000	45.232600
757.000000	45.123800
756.000000	44.870400
755.000000	44.537900
754.000000	44.336600
753.000000	44.315100
752.000000	43.940600
751.000000	43.713800
750.000000	43.492000
749.000000	43.332100
748.000000	43.207900
747.000000	42.939500
746.000000	42.725900
745.000000	42.503000
744.000000	42.217300
743.000000	42.061300
742.000000	41.795600
741.000000	41.494600
740.000000	41.351500
739.000000	41.123800
738.000000	40.870500
737.000000	40.650100
736.000000	40.441200
735.000000	40.176300
734.000000	39.919700
733.000000	39.706400
732.000000	39.532800
731.000000	39.314000
730.000000	39.039400
729.000000	38.824200
728.000000	38.557800
727.000000	38.294400
726.000000	38.079100
725.000000	37.905700
724.000000	37.673700
723.000000	37.409200
722.000000	37.110800
721.000000	36.918600
720.000000	36.670900
719.000000	36.440300
718.000000	36.145500
717.000000	35.914100
716.000000	35.672400
715.000000	35.427900
714.000000	35.233600
713.000000	34.934800
712.000000	34.693900
711.000000	34.488700
710.000000	34.264400
709.000000	34.095400
708.000000	33.760700
707.000000	33.497800
706.000000	33.294600
705.000000	33.072500
704.000000	32.785100
703.000000	32.510500
702.000000	32.318900
701.000000	32.078200
700.000000	31.872600
699.000000	31.640400
698.000000	31.389500
697.000000	31.160100
696.000000	30.965700
695.000000	30.749900
694.000000	30.513900
693.000000	30.328900
692.000000	30.125800
691.000000	29.870400
690.000000	29.691600
689.000000	29.441100
688.000000	29.212100
687.000000	29.008500
686.000000	28.812700
685.000000	28.585600
684.000000	28.401300
683.000000	28.229500
682.000000	28.025400
681.000000	27.792000
680.000000	27.618400
679.000000	27.443500
678.000000	27.250100
677.000000	27.079300
676.000000	26.924900
675.000000	26.713000
674.000000	26.514400
673.000000	26.348900
672.000000	26.205200
671.000000	26.024100
670.000000	25.849900
669.000000	25.698700
668.000000	25.555900
667.000000	25.397500
666.000000	25.233200
665.000000	25.114800
664.000000	24.973200
663.000000	24.808400
662.000000	24.687200
661.000000	24.565900
660.000000	24.429800
659.000000	24.292800
658.000000	24.160600
657.000000	24.053600
656.000000	23.927400
655.000000	23.811600
654.000000	23.703100
653.000000	23.569600
652.000000	23.455700
651.000000	23.354300
650.000000	23.260300
649.000000	23.187300
648.000000	23.114100
647.000000	23.033400
646.000000	22.959900
645.000000	22.878800
644.000000	22.794900
643.000000	22.716000
642.000000	22.646400
641.000000	22.575900
640.000000	22.510700
639.000000	22.455300
638.000000	22.412200
637.000000	22.368300
636.000000	22.326100
635.000000	22.294600
634.000000	22.257900
633.000000	22.236100
632.000000	22.198600
631.000000	22.177300
630.000000	22.169700
629.000000	22.143700
628.000000	22.135100
627.000000	22.132600
626.000000	22.121900
625.000000	22.129600
624.000000	22.121800
623.000000	22.151500
622.000000	22.178400
621.000000	22.183100
620.000000	22.206700
619.000000	22.227900
618.000000	22.241400
617.000000	22.264000
616.000000	22.281600
615.000000	22.308600
614.000000	22.337900
613.000000	22.381600
612.000000	22.434300
611.000000	22.475500
610.000000	22.516200
609.000000	22.567700
608.000000	22.612300
607.000000	22.654500
606.000000	22.699100
605.000000	22.742100
604.000000	22.792600
603.000000	22.846300
602.000000	22.897600
601.000000	22.941300
600.000000	23.002200
599.000000	23.060100
598.000000	23.109300
597.000000	23.146300
596.000000	23.183700
595.000000	23.234400
594.000000	23.282700
593.000000	23.324900
592.000000	23.390900
591.000000	23.440900
590.000000	23.478900
589.000000	23.513800
588.000000	23.558900
587.000000	23.578400
586.000000	23.604700
585.000000	23.626400
584.000000	23.646500
583.000000	23.682700
582.000000	23.691900
581.000000	23.673300
580.000000	23.702100
579.000000	23.719000
578.000000	23.701400
577.000000	23.698700
576.000000	23.693400
575.000000	23.674500
574.000000	23.641700
573.000000	23.614900
572.000000	23.595900
571.000000	23.561400
570.000000	23.515700
569.000000	23.485500
568.000000	23.421300
567.000000	23.371700
566.000000	23.313900
565.000000	23.254900
564.000000	23.165300
563.000000	23.088000
562.000000	22.999800
561.000000	22.908600
560.000000	22.832100
559.000000	22.698600
558.000000	22.586700
557.000000	22.507500
556.000000	22.392800
555.000000	22.275400
554.000000	22.156200
553.000000	22.007900
552.000000	21.886300
551.000000	21.757900
550.000000	21.587800
549.000000	21.453800
548.000000	21.300000
547.000000	21.141800
546.000000	20.976400
545.000000	20.808100
544.000000	20.624400
543.000000	20.464500
542.000000	20.285600
541.000000	20.079500
540.000000	19.885600
539.000000	19.691800
538.000000	19.500500
537.000000	19.296800
536.000000	19.100100
535.000000	18.885800
534.000000	18.684900
533.000000	18.470200
532.000000	18.241800
531.000000	18.016500
530.000000	17.827100
529.000000	17.593900
528.000000	17.385200
527.000000	17.162000
526.000000	16.930000
525.000000	16.712700
524.000000	16.477600
523.000000	16.254300
522.000000	16.026100
521.000000	15.821500
520.000000	15.600400
519.000000	15.360000
518.000000	15.150000
517.000000	14.943200
516.000000	14.736100
515.000000	14.519600
514.000000	14.329300
513.000000	14.112200
512.000000	13.917800
511.000000	13.733400
510.000000	13.549500
509.000000	13.371700
508.000000	13.194600
507.000000	13.022100
506.000000	12.893500
505.000000	12.726400
504.000000	12.564600
503.000000	12.427500
502.000000	12.309800
501.000000	12.171500
500.000000	12.016000
499.000000	11.905900
498.000000	11.799500
497.000000	11.682400
496.000000	11.581400
495.000000	11.451300
494.000000	11.380000
493.000000	11.281700
492.000000	11.198800
491.000000	11.121000
490.000000	11.026900
489.000000	10.957100
488.000000	10.863500
487.000000	10.828500
486.000000	10.729900
485.000000	10.679600
484.000000	10.612900
483.000000	10.544800
482.000000	10.489600
481.000000	10.408800
480.000000	10.344400
479.000000	10.270700
478.000000	10.213600
477.000000	10.168900
476.000000	10.111100
475.000000	10.034900
474.000000	9.998200
473.000000	9.931200
472.000000	9.876100
471.000000	9.839600
470.000000	9.796000
469.000000	9.740800
468.000000	9.695900
467.000000	9.645200
466.000000	9.608800
465.000000	9.583900
464.000000	9.550000
463.000000	9.508500
462.000000	9.472900
461.000000	9.467000
460.000000	9.447100
459.000000	9.384300
458.000000	9.372700
457.000000	9.338600
456.000000	9.318500
455.000000	9.281600
454.000000	9.253500
453.000000	9.237100
452.000000	9.201900
451.000000	9.195900
450.000000	9.177100
449.000000	9.164300
448.000000	9.147200
447.000000	9.109700
446.000000	9.087000
445.000000	9.051400
444.000000	9.054300
443.000000	9.019800
442.000000	8.999000
441.000000	8.975900
440.000000	8.951600
439.000000	8.916100
438.000000	8.887700
437.000000	8.896200
436.000000	8.850200
435.000000	8.827000
434.000000	8.821000
433.000000	8.805800
432.000000	8.764100
431.000000	8.750300
430.000000	8.721400
429.000000	8.692000
428.000000	8.656800
427.000000	8.639200
426.000000	8.633100
425.000000	8.620300
424.000000	8.579500
423.000000	8.555900
422.000000	8.522200
421.000000	8.500800
420.000000	8.484500
419.000000	8.453700
418.000000	8.409500
417.000000	8.399400
416.000000	8.371100
415.000000	8.311800
414.000000	8.284900
413.000000	8.276300
412.000000	8.217300
411.000000	8.186000
410.000000	8.129000
409.000000	8.101600
408.000000	8.058400
407.000000	8.020900
406.000000	7.982000
405.000000	7.948800
404.000000	7.887400
403.000000	7.829300
402.000000	7.784300
401.000000	7.723700
400.000000	7.668400
399.000000	7.593600
398.000000	7.525100
397.000000	7.468400
396.000000	7.431400
395.000000	7.381100
394.000000	7.311900
393.000000	7.254200
392.000000	7.178300
391.000000	7.121700
390.000000	7.036900
389.000000	6.966400
388.000000	6.904700
387.000000	6.828900
386.000000	6.733100
385.000000	6.660900
384.000000	6.610200
383.000000	6.542700
382.000000	6.453100
381.000000	6.379900
380.000000	6.329800
379.000000	6.263800
378.000000	6.187500
377.000000	6.083400
376.000000	5.930000
375.000000	5.657300
374.000000	5.547300
373.000000	5.482900
372.000000	5.486300
371.000000	5.502200
370.000000	5.357300
369.000000	5.367500
368.000000	5.491200
367.000000	5.477400
366.000000	5.409400
365.000000	5.235200
364.000000	5.072900
363.000000	5.211300
362.000000	5.236800
361.000000	5.171500
360.000000	5.183900
359.000000	5.140600
358.000000	5.056800
357.000000	5.097400
356.000000	5.082100
355.000000	4.970700
354.000000	4.828600
353.000000	4.695900
352.000000	4.757300
351.000000	4.935400
350.000000	4.898500
349.000000	4.707500
348.000000	4.726300
347.000000	4.644100
346.000000	4.735100
345.000000	4.856000
344.000000	4.827000
343.000000	4.895800
342.000000	4.904400
341.000000	4.955400
340.000000	4.738600
339.000000	4.582100
338.000000	4.724700
337.000000	4.775000
336.000000	4.686800
335.000000	4.582100
334.000000	4.622700
333.000000	4.647100
332.000000	4.641600
331.000000	4.568100
330.000000	4.632100
329.000000	4.967100
328.000000	5.051800
327.000000	4.869700
326.000000	4.541300
325.000000	4.535600
324.000000	4.746700
323.000000	5.008200
322.000000	4.840600
321.000000	4.431300
320.000000	4.565800
319.000000	4.361100
318.000000	4.953800
317.000000	5.120700
316.000000	4.556300
315.000000	4.442300
314.000000	4.415100
313.000000	4.407800
312.000000	4.454900
311.000000	4.441600
310.000000	4.424100
309.000000	4.399100
308.000000	4.417600
307.000000	4.428200
306.000000	4.418700
305.000000	4.427900
304.000000	4.448800
303.000000	4.459900
302.000000	4.452600
301.000000	4.444100
300.000000	4.442900
299.000000	4.443200
298.000000	4.415800
297.000000	4.387600
296.000000	4.411200
295.000000	4.460000
294.000000	4.435200
293.000000	4.464800
292.000000	4.442700
291.000000	4.430300
290.000000	4.440600
289.000000	4.449100
288.000000	4.419700
287.000000	4.399400
286.000000	4.418700
285.000000	4.419800
284.000000	4.418000
283.000000	4.430800
282.000000	4.420700
281.000000	4.424100
280.000000	4.438600
279.000000	4.497700
278.000000	4.485900
277.000000	4.473500
276.000000	4.494000
275.000000	4.494100
274.000000	4.512400
273.000000	4.518000
272.000000	4.534200
271.000000	4.541200
270.000000	4.539800
269.000000	4.539900
268.000000	4.558100
267.000000	4.612600
266.000000	4.601400
265.000000	4.634200
264.000000	4.644800
263.000000	4.642100
262.000000	4.665100
261.000000	4.672800
260.000000	4.718300
259.000000	4.718400
258.000000	4.761900
257.000000	4.775100
256.000000	4.739200
255.000000	4.745200
254.000000	4.791600
253.000000	4.788200
252.000000	4.838500
251.000000	4.866300
250.000000	4.824200
