PE UV       SUBTECH     SPECTRUM    ASCII       PEDS        4.00        
   -1
CICIMAUCR0244-1.Sample.ASC
24/06/21
13:52:35.00
24/06/21
13:52:35.00
Vinicio Soto Monge
C. cupreomarginata. Ventral. Sex M
250,000000
1
Lambda 1050
1050L1511233
PerkinElmer UV WinLab 6.3.2.0749 / 2.02.05 Lambda 900 UV/VIS/NIR, Aug  7 2015 09:38:08

0
0
3350/servo 860,8/2
0
0
UV/VIS
1
1
1
DoubleDePol,CommonBeamDepol,RBeamAtt,SBeamAtt,60mm sphere, WB InGaAs Detector
0
0
0
0
Program
Program
3350/servo 860,8/2
3350/0,2 860,8/0,2
3350/0,2 860,8/0,2
0
15.00
 
 
 
0
 
860,8
319,2
860,8
Front
100
on
S:100 R:100
0
0
0
0
 
0
 
 
 
0
 
 
0
0
0
0
0
 
 
 
 
0
0


0
0
#HDR
-1
-1
#GR
nm
%R
1.0
0.0
2500,000000
-1,000000
2251
8
56,160800
3,823800
#DATA
2482.000000	4.730279
2481.000000	4.669499
2480.000000	4.671190
2479.000000	4.583572
2478.000000	4.661492
2477.000000	4.622588
2476.000000	4.681677
2475.000000	4.643563
2474.000000	4.642773
2473.000000	4.682918
2472.000000	4.600374
2471.000000	4.605786
2470.000000	4.614357
2469.000000	4.616161
2468.000000	4.641420
2467.000000	4.600261
2466.000000	4.613342
2465.000000	4.620784
2464.000000	4.597893
2463.000000	4.622250
2462.000000	4.617063
2461.000000	4.624618
2460.000000	4.602291
2459.000000	4.583121
2458.000000	4.603869
2457.000000	4.642322
2456.000000	4.649314
2455.000000	4.648412
2454.000000	4.622476
2453.000000	4.679084
2452.000000	4.678746
2451.000000	4.662395
2450.000000	4.686752
2449.000000	4.706824
2448.000000	4.704230
2447.000000	4.716860
2446.000000	4.740992
2445.000000	4.774145
2444.000000	4.779896
2443.000000	4.777077
2442.000000	4.764447
2441.000000	4.802562
2440.000000	4.809215
2439.000000	4.835602
2438.000000	4.845864
2437.000000	4.854772
2436.000000	4.851051
2435.000000	4.884429
2434.000000	4.902810
2433.000000	4.921078
2432.000000	4.920853
2431.000000	4.911155
2430.000000	4.920176
2429.000000	4.933257
2428.000000	4.973514
2427.000000	4.975995
2426.000000	4.996856
2425.000000	5.000690
2424.000000	4.964606
2423.000000	4.998548
2422.000000	5.025950
2421.000000	5.037678
2420.000000	5.039933
2419.000000	5.036550
2418.000000	5.039256
2417.000000	5.037114
2416.000000	5.051999
2415.000000	5.071845
2414.000000	5.073086
2413.000000	5.099247
2412.000000	5.112554
2411.000000	5.122590
2410.000000	5.115824
2409.000000	5.121575
2408.000000	5.117515
2407.000000	5.115486
2406.000000	5.133979
2405.000000	5.145819
2404.000000	5.163749
2403.000000	5.171868
2402.000000	5.180213
2401.000000	5.194872
2400.000000	5.183370
2399.000000	5.179987
2398.000000	5.198030
2397.000000	5.218779
2396.000000	5.233438
2395.000000	5.234791
2394.000000	5.255202
2393.000000	5.278431
2392.000000	5.299744
2391.000000	5.292189
2390.000000	5.274259
2389.000000	5.284408
2388.000000	5.292076
2387.000000	5.307638
2386.000000	5.314404
2385.000000	5.313953
2384.000000	5.333686
2383.000000	5.337069
2382.000000	5.336618
2381.000000	5.342820
2380.000000	5.347106
2379.000000	5.355337
2378.000000	5.343723
2377.000000	5.335829
2376.000000	5.338986
2375.000000	5.326921
2374.000000	5.323989
2373.000000	5.325116
2372.000000	5.326695
2371.000000	5.323989
2370.000000	5.317335
2369.000000	5.323763
2368.000000	5.326469
2367.000000	5.308540
2366.000000	5.304367
2365.000000	5.308089
2364.000000	5.285423
2363.000000	5.274485
2362.000000	5.273470
2361.000000	5.261066
2360.000000	5.250578
2359.000000	5.242798
2358.000000	5.221710
2357.000000	5.225545
2356.000000	5.233213
2355.000000	5.223853
2354.000000	5.226559
2353.000000	5.222500
2352.000000	5.224417
2351.000000	5.221372
2350.000000	5.219342
2349.000000	5.234340
2348.000000	5.242459
2347.000000	5.249225
2346.000000	5.262532
2345.000000	5.260727
2344.000000	5.269861
2343.000000	5.288242
2342.000000	5.300985
2341.000000	5.321846
2340.000000	5.335829
2339.000000	5.334927
2338.000000	5.329514
2337.000000	5.318463
2336.000000	5.330755
2335.000000	5.353533
2334.000000	5.352518
2333.000000	5.342144
2332.000000	5.349248
2331.000000	5.353759
2330.000000	5.317335
2329.000000	5.320267
2328.000000	5.332333
2327.000000	5.321170
2326.000000	5.302563
2325.000000	5.280912
2324.000000	5.265689
2323.000000	5.256668
2322.000000	5.247647
2321.000000	5.217425
2320.000000	5.202991
2319.000000	5.197466
2318.000000	5.184836
2317.000000	5.167809
2316.000000	5.129920
2315.000000	5.112666
2314.000000	5.093271
2313.000000	5.069026
2312.000000	5.056960
2311.000000	5.059892
2310.000000	5.037565
2309.000000	5.003510
2308.000000	5.009937
2307.000000	4.997646
2306.000000	4.985354
2305.000000	4.989527
2304.000000	4.995842
2303.000000	4.991556
2302.000000	4.981069
2301.000000	4.996969
2300.000000	5.001593
2299.000000	5.014335
2298.000000	5.037903
2297.000000	5.061584
2296.000000	5.084701
2295.000000	5.092594
2294.000000	5.101728
2293.000000	5.127439
2292.000000	5.139617
2291.000000	5.143226
2290.000000	5.145932
2289.000000	5.149653
2288.000000	5.165779
2287.000000	5.159915
2286.000000	5.158675
2285.000000	5.156983
2284.000000	5.156983
2283.000000	5.141196
2282.000000	5.141873
2281.000000	5.142662
2280.000000	5.141196
2279.000000	5.108607
2278.000000	5.094624
2277.000000	5.097218
2276.000000	5.085152
2275.000000	5.078386
2274.000000	5.081769
2273.000000	5.077484
2272.000000	5.066433
2271.000000	5.046699
2270.000000	5.065869
2269.000000	5.072860
2268.000000	5.095752
2267.000000	5.081092
2266.000000	5.095413
2265.000000	5.140407
2264.000000	5.162396
2263.000000	5.199270
2262.000000	5.233438
2261.000000	5.261517
2260.000000	5.331657
2259.000000	5.371576
2258.000000	5.403826
2257.000000	5.476898
2256.000000	5.517156
2255.000000	5.588198
2254.000000	5.689010
2253.000000	5.730733
2252.000000	5.787229
2251.000000	5.875411
2250.000000	5.944311
2249.000000	5.988289
2248.000000	6.068465
2247.000000	6.118195
2246.000000	6.180554
2245.000000	6.213707
2244.000000	6.263098
2243.000000	6.332449
2242.000000	6.396612
2241.000000	6.433712
2240.000000	6.430667
2239.000000	6.499680
2238.000000	6.540952
2237.000000	6.576924
2236.000000	6.596207
2235.000000	6.639509
2234.000000	6.672549
2233.000000	6.673226
2232.000000	6.706040
2231.000000	6.703559
2230.000000	6.735021
2229.000000	6.752612
2228.000000	6.777533
2227.000000	6.761521
2226.000000	6.783285
2225.000000	6.782157
2224.000000	6.782946
2223.000000	6.753063
2222.000000	6.780578
2221.000000	6.776970
2220.000000	6.765580
2219.000000	6.777872
2218.000000	6.744042
2217.000000	6.735698
2216.000000	6.714610
2215.000000	6.704236
2214.000000	6.716866
2213.000000	6.698259
2212.000000	6.692847
2211.000000	6.678638
2210.000000	6.662964
2209.000000	6.674353
2208.000000	6.659581
2207.000000	6.617407
2206.000000	6.613798
2205.000000	6.621015
2204.000000	6.623947
2203.000000	6.624398
2202.000000	6.622819
2201.000000	6.606694
2200.000000	6.580307
2199.000000	6.591020
2198.000000	6.593388
2197.000000	6.591358
2196.000000	6.591358
2195.000000	6.571399
2194.000000	6.584141
2193.000000	6.581435
2192.000000	6.576586
2191.000000	6.567790
2190.000000	6.569707
2189.000000	6.573992
2188.000000	6.557979
2187.000000	6.579630
2186.000000	6.568128
2185.000000	6.549860
2184.000000	6.568354
2183.000000	6.522909
2182.000000	6.540726
2181.000000	6.545914
2180.000000	6.518399
2179.000000	6.528435
2178.000000	6.518061
2177.000000	6.509265
2176.000000	6.502837
2175.000000	6.501710
2174.000000	6.492350
2173.000000	6.504529
2172.000000	6.489644
2171.000000	6.508024
2170.000000	6.510505
2169.000000	6.522458
2168.000000	6.524488
2167.000000	6.527307
2166.000000	6.517384
2165.000000	6.543658
2164.000000	6.542643
2163.000000	6.552567
2162.000000	6.567452
2161.000000	6.575571
2160.000000	6.575458
2159.000000	6.574781
2158.000000	6.594628
2157.000000	6.616392
2156.000000	6.629247
2155.000000	6.646951
2154.000000	6.646726
2153.000000	6.645034
2152.000000	6.685179
2151.000000	6.719685
2150.000000	6.713708
2149.000000	6.733217
2148.000000	6.743591
2147.000000	6.758814
2146.000000	6.776293
2145.000000	6.774827
2144.000000	6.791404
2143.000000	6.806514
2142.000000	6.833240
2141.000000	6.838540
2140.000000	6.846997
2139.000000	6.853650
2138.000000	6.863010
2137.000000	6.878007
2136.000000	6.905635
2135.000000	6.912175
2134.000000	6.903943
2133.000000	6.915220
2132.000000	6.927737
2131.000000	6.946343
2130.000000	6.951643
2129.000000	6.946005
2128.000000	6.929879
2127.000000	6.948035
2126.000000	6.937209
2125.000000	6.933262
2124.000000	6.944877
2123.000000	6.932924
2122.000000	6.932811
2121.000000	6.922888
2120.000000	6.919167
2119.000000	6.914769
2118.000000	6.912288
2117.000000	6.912288
2116.000000	6.895486
2115.000000	6.888833
2114.000000	6.878458
2113.000000	6.867746
2112.000000	6.857935
2111.000000	6.841810
2110.000000	6.840569
2109.000000	6.827940
2108.000000	6.795238
2107.000000	6.779112
2106.000000	6.781706
2105.000000	6.778210
2104.000000	6.761521
2103.000000	6.751259
2102.000000	6.746072
2101.000000	6.736600
2100.000000	6.728706
2099.000000	6.700176
2098.000000	6.688562
2097.000000	6.687208
2096.000000	6.679766
2095.000000	6.667700
2094.000000	6.651913
2093.000000	6.643568
2092.000000	6.633081
2091.000000	6.631164
2090.000000	6.622030
2089.000000	6.597109
2088.000000	6.579179
2087.000000	6.582224
2086.000000	6.587637
2085.000000	6.572075
2084.000000	6.551214
2083.000000	6.536441
2082.000000	6.526856
2081.000000	6.524150
2080.000000	6.513324
2079.000000	6.497650
2078.000000	6.487388
2077.000000	6.481299
2076.000000	6.461903
2075.000000	6.439576
2074.000000	6.434163
2073.000000	6.414429
2072.000000	6.382968
2071.000000	6.364925
2070.000000	6.360753
2069.000000	6.351732
2068.000000	6.325006
2067.000000	6.312264
2066.000000	6.298958
2065.000000	6.271217
2064.000000	6.254866
2063.000000	6.247198
2062.000000	6.233215
2061.000000	6.218218
2060.000000	6.214045
2059.000000	6.208069
2058.000000	6.192394
2057.000000	6.177284
2056.000000	6.171984
2055.000000	6.174690
2054.000000	6.191718
2053.000000	6.194537
2052.000000	6.201528
2051.000000	6.210098
2050.000000	6.218218
2049.000000	6.250919
2048.000000	6.277532
2047.000000	6.285877
2046.000000	6.308204
2045.000000	6.334253
2044.000000	6.352859
2043.000000	6.398980
2042.000000	6.437997
2041.000000	6.458408
2040.000000	6.487727
2039.000000	6.514790
2038.000000	6.538922
2037.000000	6.544899
2036.000000	6.562941
2035.000000	6.597560
2034.000000	6.625977
2033.000000	6.629360
2032.000000	6.647853
2031.000000	6.678413
2030.000000	6.694313
2029.000000	6.684615
2028.000000	6.698711
2027.000000	6.729947
2026.000000	6.733442
2025.000000	6.757574
2024.000000	6.764904
2023.000000	6.770993
2022.000000	6.771782
2021.000000	6.777872
2020.000000	6.771557
2019.000000	6.786780
2018.000000	6.798959
2017.000000	6.786329
2016.000000	6.778323
2015.000000	6.796704
2014.000000	6.783848
2013.000000	6.773136
2012.000000	6.778323
2011.000000	6.753402
2010.000000	6.757349
2009.000000	6.743253
2008.000000	6.719798
2007.000000	6.731187
2006.000000	6.722842
2005.000000	6.708296
2004.000000	6.672436
2003.000000	6.669279
2002.000000	6.637479
2001.000000	6.636013
2000.000000	6.603198
1999.000000	6.588201
1998.000000	6.551101
1997.000000	6.536780
1996.000000	6.523473
1995.000000	6.500695
1994.000000	6.477578
1993.000000	6.450401
1992.000000	6.430216
1991.000000	6.402476
1990.000000	6.355227
1989.000000	6.338651
1988.000000	6.295800
1987.000000	6.295011
1986.000000	6.285426
1985.000000	6.258362
1984.000000	6.220247
1983.000000	6.185741
1982.000000	6.153603
1981.000000	6.141312
1980.000000	6.109625
1979.000000	6.081208
1978.000000	6.061361
1977.000000	6.030689
1976.000000	6.025614
1975.000000	5.988966
1974.000000	5.937770
1973.000000	5.942619
1972.000000	5.914090
1971.000000	5.889845
1970.000000	5.874283
1969.000000	5.849926
1968.000000	5.811811
1967.000000	5.798280
1966.000000	5.781478
1965.000000	5.763322
1964.000000	5.740995
1963.000000	5.738063
1962.000000	5.691152
1961.000000	5.664089
1960.000000	5.675929
1959.000000	5.659691
1958.000000	5.646836
1957.000000	5.613006
1956.000000	5.608383
1955.000000	5.566885
1954.000000	5.566434
1953.000000	5.561585
1952.000000	5.543204
1951.000000	5.510164
1950.000000	5.517607
1949.000000	5.492686
1948.000000	5.491896
1947.000000	5.472049
1946.000000	5.469794
1945.000000	5.465396
1944.000000	5.474981
1943.000000	5.459420
1942.000000	5.436528
1941.000000	5.409690
1940.000000	5.429762
1939.000000	5.437431
1938.000000	5.421305
1937.000000	5.402699
1936.000000	5.415441
1935.000000	5.435965
1934.000000	5.421418
1933.000000	5.427056
1932.000000	5.451526
1931.000000	5.445211
1930.000000	5.459081
1929.000000	5.480958
1928.000000	5.472726
1927.000000	5.490881
1926.000000	5.491671
1925.000000	5.517381
1924.000000	5.539258
1923.000000	5.542415
1922.000000	5.615600
1921.000000	5.635897
1920.000000	5.643678
1919.000000	5.672433
1918.000000	5.724418
1917.000000	5.767833
1916.000000	5.784748
1915.000000	5.844288
1914.000000	5.853535
1913.000000	5.906083
1912.000000	5.982538
1911.000000	6.007008
1910.000000	6.073765
1909.000000	6.129246
1908.000000	6.203896
1907.000000	6.275164
1906.000000	6.306287
1905.000000	6.418714
1904.000000	6.503739
1903.000000	6.562716
1902.000000	6.645147
1901.000000	6.758814
1900.000000	6.876203
1899.000000	6.976903
1898.000000	7.099253
1897.000000	7.224197
1896.000000	7.346998
1895.000000	7.461906
1894.000000	7.571063
1893.000000	7.737279
1892.000000	7.878800
1891.000000	8.061705
1890.000000	8.260623
1889.000000	8.446686
1888.000000	8.661278
1887.000000	8.875081
1886.000000	9.107039
1885.000000	9.385457
1884.000000	9.664777
1883.000000	9.983564
1882.000000	10.336971
1881.000000	10.662073
1880.000000	11.022584
1879.000000	11.355805
1878.000000	11.687899
1877.000000	12.059235
1876.000000	12.405086
1875.000000	12.752967
1874.000000	13.074010
1873.000000	13.406555
1872.000000	13.776425
1871.000000	14.084951
1870.000000	14.382201
1869.000000	14.670880
1868.000000	14.951778
1867.000000	15.182609
1866.000000	15.392578
1865.000000	15.542668
1864.000000	15.696706
1863.000000	15.821988
1862.000000	15.924604
1861.000000	16.072891
1860.000000	16.216441
1859.000000	16.336085
1858.000000	16.443663
1857.000000	16.533875
1856.000000	16.621607
1855.000000	16.651490
1854.000000	16.682387
1853.000000	16.722532
1852.000000	16.755234
1851.000000	16.768427
1850.000000	16.771021
1849.000000	16.764706
1848.000000	16.769442
1847.000000	16.776659
1846.000000	16.782636
1845.000000	16.757264
1844.000000	16.707421
1843.000000	16.668856
1842.000000	16.648671
1841.000000	16.664683
1840.000000	16.660173
1839.000000	16.651264
1838.000000	16.627020
1837.000000	16.593190
1836.000000	16.588567
1835.000000	16.548197
1834.000000	16.508278
1833.000000	16.473772
1832.000000	16.421448
1831.000000	16.361570
1830.000000	16.304962
1829.000000	16.259179
1828.000000	16.222756
1827.000000	16.148782
1826.000000	16.102097
1825.000000	16.062629
1824.000000	16.017185
1823.000000	15.953247
1822.000000	15.922687
1821.000000	15.903856
1820.000000	15.894947
1819.000000	15.893820
1818.000000	15.843188
1817.000000	15.793684
1816.000000	15.782295
1815.000000	15.774965
1814.000000	15.760982
1813.000000	15.747676
1812.000000	15.728731
1811.000000	15.703359
1810.000000	15.686670
1809.000000	15.652502
1808.000000	15.613823
1807.000000	15.590368
1806.000000	15.559696
1805.000000	15.529926
1804.000000	15.487639
1803.000000	15.446254
1802.000000	15.411071
1801.000000	15.364274
1800.000000	15.311725
1799.000000	15.264589
1798.000000	15.219032
1797.000000	15.183173
1796.000000	15.146637
1795.000000	15.107394
1794.000000	15.070407
1793.000000	15.015829
1792.000000	14.974782
1791.000000	14.941516
1790.000000	14.897538
1789.000000	14.852657
1788.000000	14.802702
1787.000000	14.751620
1786.000000	14.695575
1785.000000	14.643816
1784.000000	14.600176
1783.000000	14.545485
1782.000000	14.476472
1781.000000	14.410730
1780.000000	14.356828
1779.000000	14.309241
1778.000000	14.240906
1777.000000	14.167834
1776.000000	14.094649
1775.000000	14.024283
1774.000000	13.962488
1773.000000	13.867652
1772.000000	13.779132
1771.000000	13.699294
1770.000000	13.613254
1769.000000	13.519997
1768.000000	13.423921
1767.000000	13.335287
1766.000000	13.253420
1765.000000	13.196812
1764.000000	13.148210
1763.000000	13.113140
1762.000000	13.095548
1761.000000	13.089346
1760.000000	13.107389
1759.000000	13.136708
1758.000000	13.181701
1757.000000	13.228724
1756.000000	13.289617
1755.000000	13.339234
1754.000000	13.355360
1753.000000	13.393587
1752.000000	13.429672
1751.000000	13.437453
1750.000000	13.417719
1749.000000	13.400466
1748.000000	13.381183
1747.000000	13.340587
1746.000000	13.289279
1745.000000	13.226131
1744.000000	13.164448
1743.000000	13.082355
1742.000000	12.965981
1741.000000	12.843631
1740.000000	12.702223
1739.000000	12.562056
1738.000000	12.413093
1737.000000	12.266498
1736.000000	12.130503
1735.000000	12.024052
1734.000000	11.943200
1733.000000	11.891891
1732.000000	11.893019
1731.000000	11.904521
1730.000000	11.930457
1729.000000	11.977931
1728.000000	12.037133
1727.000000	12.104905
1726.000000	12.188802
1725.000000	12.252064
1724.000000	12.305176
1723.000000	12.343291
1722.000000	12.392682
1721.000000	12.427188
1720.000000	12.454590
1719.000000	12.486616
1718.000000	12.507364
1717.000000	12.543675
1716.000000	12.609530
1715.000000	12.655313
1714.000000	12.699178
1713.000000	12.785218
1712.000000	12.832016
1711.000000	12.850171
1710.000000	12.912530
1709.000000	12.928205
1708.000000	12.939594
1707.000000	12.930234
1706.000000	12.922679
1705.000000	12.898096
1704.000000	12.853554
1703.000000	12.823784
1702.000000	12.771912
1701.000000	12.701095
1700.000000	12.629602
1699.000000	12.514920
1698.000000	12.431022
1697.000000	12.346448
1696.000000	12.271121
1695.000000	12.208311
1694.000000	12.187111
1693.000000	12.240562
1692.000000	12.296381
1691.000000	12.363589
1690.000000	12.492592
1689.000000	12.625655
1688.000000	12.723310
1687.000000	12.812733
1686.000000	12.869679
1685.000000	12.911290
1684.000000	12.963613
1683.000000	13.051570
1682.000000	13.176176
1681.000000	13.393474
1680.000000	13.699294
1679.000000	14.054053
1678.000000	14.476923
1677.000000	14.899793
1676.000000	15.285000
1675.000000	15.679678
1674.000000	16.022823
1673.000000	16.333266
1672.000000	16.577628
1671.000000	16.835974
1670.000000	17.028915
1669.000000	17.251852
1668.000000	17.386607
1667.000000	17.547861
1666.000000	17.649237
1665.000000	17.758056
1664.000000	17.855485
1663.000000	17.949193
1662.000000	18.023844
1661.000000	18.071205
1660.000000	18.123190
1659.000000	18.168634
1658.000000	18.199081
1657.000000	18.244525
1656.000000	18.269559
1655.000000	18.284670
1654.000000	18.275874
1653.000000	18.288278
1652.000000	18.270687
1651.000000	18.259072
1650.000000	18.224453
1649.000000	18.183970
1648.000000	18.147998
1647.000000	18.124092
1646.000000	18.087781
1645.000000	18.040646
1644.000000	17.983586
1643.000000	17.943555
1642.000000	17.898561
1641.000000	17.847366
1640.000000	17.790419
1639.000000	17.724790
1638.000000	17.703477
1637.000000	17.620933
1636.000000	17.560942
1635.000000	17.498921
1634.000000	17.453364
1633.000000	17.399800
1632.000000	17.338230
1631.000000	17.229074
1630.000000	17.181599
1629.000000	17.103904
1628.000000	17.045041
1627.000000	16.972194
1626.000000	16.894273
1625.000000	16.809699
1624.000000	16.736966
1623.000000	16.662992
1622.000000	16.601873
1621.000000	16.542558
1620.000000	16.448625
1619.000000	16.382544
1618.000000	16.344655
1617.000000	16.263126
1616.000000	16.205616
1615.000000	16.138408
1614.000000	16.064546
1613.000000	16.027672
1612.000000	15.940730
1611.000000	15.880852
1610.000000	15.812629
1609.000000	15.762335
1608.000000	15.707418
1607.000000	15.634910
1606.000000	15.567477
1605.000000	15.497788
1604.000000	15.437797
1603.000000	15.373633
1602.000000	15.313980
1601.000000	15.268310
1600.000000	15.192870
1599.000000	15.137052
1598.000000	15.060709
1597.000000	15.005342
1596.000000	14.951102
1595.000000	14.905657
1594.000000	14.826383
1593.000000	14.777330
1592.000000	14.709220
1591.000000	14.667271
1590.000000	14.614046
1589.000000	14.578299
1588.000000	14.515715
1587.000000	14.461136
1586.000000	14.425728
1585.000000	14.385245
1584.000000	14.344875
1583.000000	14.313075
1582.000000	14.281501
1581.000000	14.240003
1580.000000	14.201438
1579.000000	14.179787
1578.000000	14.154527
1577.000000	14.129832
1576.000000	14.108632
1575.000000	14.070968
1574.000000	14.067022
1573.000000	14.037251
1572.000000	14.017179
1571.000000	14.007030
1570.000000	13.993724
1569.000000	13.993386
1568.000000	14.004211
1567.000000	13.980643
1566.000000	13.993611
1565.000000	14.001505
1564.000000	14.000490
1563.000000	13.989552
1562.000000	13.983801
1561.000000	13.966097
1560.000000	13.953580
1559.000000	13.958090
1558.000000	13.957075
1557.000000	13.946137
1556.000000	13.943882
1555.000000	13.919524
1554.000000	13.901708
1553.000000	13.891671
1552.000000	13.868103
1551.000000	13.838672
1550.000000	13.823223
1549.000000	13.794693
1548.000000	13.762442
1547.000000	13.739777
1546.000000	13.699745
1545.000000	13.676515
1544.000000	13.649000
1543.000000	13.621711
1542.000000	13.608631
1541.000000	13.583709
1540.000000	13.567584
1539.000000	13.548188
1538.000000	13.541535
1537.000000	13.526988
1536.000000	13.499135
1535.000000	13.480078
1534.000000	13.454255
1533.000000	13.422004
1532.000000	13.397196
1531.000000	13.362126
1530.000000	13.338332
1529.000000	13.314539
1528.000000	13.294015
1527.000000	13.256577
1526.000000	13.205156
1525.000000	13.174259
1524.000000	13.140091
1523.000000	13.101750
1522.000000	13.073559
1521.000000	13.029693
1520.000000	13.000487
1519.000000	12.947713
1518.000000	12.901592
1517.000000	12.875994
1516.000000	12.826829
1515.000000	12.769657
1514.000000	12.731542
1513.000000	12.696923
1512.000000	12.661627
1511.000000	12.621032
1510.000000	12.571190
1509.000000	12.526422
1508.000000	12.470377
1507.000000	12.410499
1506.000000	12.360319
1505.000000	12.331676
1504.000000	12.300553
1503.000000	12.250147
1502.000000	12.214626
1501.000000	12.171549
1500.000000	12.121031
1499.000000	12.081563
1498.000000	12.057769
1497.000000	12.027548
1496.000000	11.972180
1495.000000	11.946695
1494.000000	11.933276
1493.000000	11.886253
1492.000000	11.853438
1491.000000	11.838441
1490.000000	11.803145
1489.000000	11.781607
1488.000000	11.753190
1487.000000	11.731088
1486.000000	11.714850
1485.000000	11.697935
1484.000000	11.676059
1483.000000	11.644259
1482.000000	11.635463
1481.000000	11.618887
1480.000000	11.611219
1479.000000	11.596221
1478.000000	11.583929
1477.000000	11.562166
1476.000000	11.547732
1475.000000	11.546153
1474.000000	11.541417
1473.000000	11.531155
1472.000000	11.540064
1471.000000	11.539951
1470.000000	11.539838
1469.000000	11.538485
1468.000000	11.536906
1467.000000	11.552242
1466.000000	11.550100
1465.000000	11.543447
1464.000000	11.541530
1463.000000	11.567578
1462.000000	11.576261
1461.000000	11.595657
1460.000000	11.614827
1459.000000	11.641552
1458.000000	11.666586
1457.000000	11.714963
1456.000000	11.741237
1455.000000	11.765594
1454.000000	11.808896
1453.000000	11.856596
1452.000000	11.906213
1451.000000	11.965189
1450.000000	12.036344
1449.000000	12.080886
1448.000000	12.125992
1447.000000	12.159032
1446.000000	12.227707
1445.000000	12.313070
1444.000000	12.381293
1443.000000	12.440946
1442.000000	12.493607
1441.000000	12.561830
1440.000000	12.657793
1439.000000	12.748682
1438.000000	12.822431
1437.000000	12.887722
1436.000000	12.975679
1435.000000	13.056870
1434.000000	13.162080
1433.000000	13.248233
1432.000000	13.330438
1431.000000	13.452112
1430.000000	13.565216
1429.000000	13.661517
1428.000000	13.773719
1427.000000	13.927982
1426.000000	14.038830
1425.000000	14.176178
1424.000000	14.337771
1423.000000	14.511542
1422.000000	14.694448
1421.000000	14.840253
1420.000000	15.040976
1419.000000	15.244855
1418.000000	15.434639
1417.000000	15.664568
1416.000000	15.830445
1415.000000	16.055638
1414.000000	16.313307
1413.000000	16.580448
1412.000000	16.818382
1411.000000	17.036809
1410.000000	17.314211
1409.000000	17.650252
1408.000000	17.999373
1407.000000	18.396307
1406.000000	18.757044
1405.000000	19.124207
1404.000000	19.540650
1403.000000	19.917962
1402.000000	20.342186
1401.000000	20.728745
1400.000000	21.187587
1399.000000	21.665148
1398.000000	22.039078
1397.000000	22.325276
1396.000000	22.658160
1395.000000	23.097155
1394.000000	23.504350
1393.000000	23.808478
1392.000000	24.140798
1391.000000	24.528147
1390.000000	24.947183
1389.000000	25.290327
1388.000000	25.734848
1387.000000	26.280181
1386.000000	26.802172
1385.000000	27.353482
1384.000000	27.910542
1383.000000	28.550373
1382.000000	29.206216
1381.000000	29.855631
1380.000000	30.396341
1379.000000	30.793838
1378.000000	31.146117
1377.000000	31.350674
1376.000000	31.663372
1375.000000	31.884730
1374.000000	32.176003
1373.000000	32.499865
1372.000000	32.862405
1371.000000	33.290801
1370.000000	33.719083
1369.000000	34.131353
1368.000000	34.471679
1367.000000	34.847526
1366.000000	35.187964
1365.000000	35.452624
1364.000000	35.745702
1363.000000	35.964128
1362.000000	36.202965
1361.000000	36.438193
1360.000000	36.634856
1359.000000	36.804906
1358.000000	36.902786
1357.000000	37.047577
1356.000000	37.243225
1355.000000	37.510140
1354.000000	37.918351
1353.000000	38.422299
1352.000000	38.900537
1351.000000	39.471129
1350.000000	40.069124
1349.000000	40.643663
1348.000000	41.146483
1347.000000	41.643215
1346.000000	42.127090
1345.000000	42.534286
1344.000000	42.963020
1343.000000	43.404609
1342.000000	43.791168
1341.000000	44.192613
1340.000000	44.597891
1339.000000	44.993923
1338.000000	45.370221
1337.000000	45.777304
1336.000000	46.149204
1335.000000	46.508812
1334.000000	46.870338
1333.000000	47.239193
1332.000000	47.576361
1331.000000	47.910485
1330.000000	48.245849
1329.000000	48.549188
1328.000000	48.883988
1327.000000	49.165112
1326.000000	49.452776
1325.000000	49.739200
1324.000000	50.020324
1323.000000	50.269761
1322.000000	50.520889
1321.000000	50.763222
1320.000000	50.999803
1319.000000	51.215298
1318.000000	51.439926
1317.000000	51.639521
1316.000000	51.850054
1315.000000	52.041078
1314.000000	52.242139
1313.000000	52.408242
1312.000000	52.559460
1311.000000	52.727142
1310.000000	52.884337
1309.000000	53.029466
1308.000000	53.153057
1307.000000	53.281158
1306.000000	53.397532
1305.000000	53.504208
1304.000000	53.587429
1303.000000	53.665575
1302.000000	53.757479
1301.000000	53.822883
1300.000000	53.876672
1299.000000	53.910163
1298.000000	53.954480
1297.000000	53.996880
1296.000000	54.036235
1295.000000	54.064314
1294.000000	54.078409
1293.000000	54.101075
1292.000000	54.098933
1291.000000	54.093971
1290.000000	54.107164
1289.000000	54.096452
1288.000000	54.076718
1287.000000	54.049992
1286.000000	54.012667
1285.000000	53.962938
1284.000000	53.912306
1283.000000	53.853668
1282.000000	53.792324
1281.000000	53.709216
1280.000000	53.640993
1279.000000	53.590361
1278.000000	53.524506
1277.000000	53.455606
1276.000000	53.411177
1275.000000	53.365056
1274.000000	53.305290
1273.000000	53.258154
1272.000000	53.221167
1271.000000	53.167829
1270.000000	53.138172
1269.000000	53.114379
1268.000000	53.060138
1267.000000	52.998907
1266.000000	52.949065
1265.000000	52.903507
1264.000000	52.847350
1263.000000	52.797846
1262.000000	52.738193
1261.000000	52.672790
1260.000000	52.617760
1259.000000	52.559348
1258.000000	52.492929
1257.000000	52.405423
1256.000000	52.320849
1255.000000	52.244620
1254.000000	52.161061
1253.000000	52.048521
1252.000000	51.950753
1251.000000	51.859977
1250.000000	51.752512
1249.000000	51.637491
1248.000000	51.484356
1247.000000	51.352759
1246.000000	51.222853
1245.000000	51.065884
1244.000000	50.936542
1243.000000	50.784647
1242.000000	50.607606
1241.000000	50.427294
1240.000000	50.248223
1239.000000	50.074451
1238.000000	49.892674
1237.000000	49.711121
1236.000000	49.516940
1235.000000	49.300769
1234.000000	49.088319
1233.000000	48.872711
1232.000000	48.673117
1231.000000	48.469575
1230.000000	48.227243
1229.000000	47.971378
1228.000000	47.737841
1227.000000	47.496524
1226.000000	47.238291
1225.000000	46.970586
1224.000000	46.698483
1223.000000	46.438898
1222.000000	46.167021
1221.000000	45.888941
1220.000000	45.625860
1219.000000	45.368868
1218.000000	45.106237
1217.000000	44.856124
1216.000000	44.615483
1215.000000	44.398748
1214.000000	44.182013
1213.000000	43.980614
1212.000000	43.798272
1211.000000	43.598565
1210.000000	43.433589
1209.000000	43.282822
1208.000000	43.128221
1207.000000	42.993015
1206.000000	42.877205
1205.000000	42.781693
1204.000000	42.701630
1203.000000	42.641526
1202.000000	42.594728
1201.000000	42.557854
1200.000000	42.511282
1199.000000	42.447118
1198.000000	42.378106
1197.000000	42.284736
1196.000000	42.121339
1195.000000	41.930428
1194.000000	41.703206
1193.000000	41.382276
1192.000000	41.018044
1191.000000	40.588633
1190.000000	40.125957
1189.000000	39.682902
1188.000000	39.272662
1187.000000	38.943951
1186.000000	38.752589
1185.000000	38.674329
1184.000000	38.744695
1183.000000	38.949702
1182.000000	39.302094
1181.000000	39.788563
1180.000000	40.336941
1179.000000	40.913172
1178.000000	41.497183
1177.000000	42.037668
1176.000000	42.509478
1175.000000	42.931897
1174.000000	43.322064
1173.000000	43.715390
1172.000000	44.070713
1171.000000	44.438892
1170.000000	44.841690
1169.000000	45.228024
1168.000000	45.604434
1167.000000	46.020989
1166.000000	46.474644
1165.000000	46.889170
1164.000000	47.340005
1163.000000	47.778437
1162.000000	48.276859
1161.000000	48.757127
1160.000000	49.230854
1159.000000	49.710558
1158.000000	50.178872
1157.000000	50.648765
1156.000000	51.065207
1155.000000	51.464284
1154.000000	51.806865
1153.000000	52.096897
1152.000000	52.318481
1151.000000	52.535893
1150.000000	52.688238
1149.000000	52.820738
1148.000000	52.940494
1147.000000	53.103553
1146.000000	53.301795
1145.000000	53.534542
1144.000000	53.840587
1143.000000	54.225004
1142.000000	54.667270
1141.000000	55.152386
1140.000000	55.645734
1139.000000	56.155659
1138.000000	56.689828
1137.000000	57.237755
1136.000000	57.803611
1135.000000	58.402170
1134.000000	59.042902
1133.000000	59.654654
1132.000000	60.150145
1131.000000	60.674278
1130.000000	61.114175
1129.000000	61.496788
1128.000000	61.865418
1127.000000	62.136167
1126.000000	62.375117
1125.000000	62.580463
1124.000000	62.724577
1123.000000	62.873427
1122.000000	62.970631
1121.000000	63.061407
1120.000000	63.158159
1119.000000	63.219504
1118.000000	63.275886
1117.000000	63.298890
1116.000000	63.323924
1115.000000	63.329901
1114.000000	63.314678
1113.000000	63.329224
1112.000000	63.308588
1111.000000	63.311069
1110.000000	63.301146
1109.000000	63.279156
1108.000000	63.259084
1107.000000	63.257054
1106.000000	63.234389
1105.000000	63.210821
1104.000000	63.212512
1103.000000	63.186238
1102.000000	63.182517
1101.000000	63.149815
1100.000000	63.120834
1099.000000	63.107866
1098.000000	63.090387
1097.000000	63.061294
1096.000000	63.009196
1095.000000	62.968488
1094.000000	62.921352
1093.000000	62.868465
1092.000000	62.810504
1091.000000	62.744536
1090.000000	62.705745
1089.000000	62.625230
1088.000000	62.554076
1087.000000	62.489461
1086.000000	62.426989
1085.000000	62.360457
1084.000000	62.286709
1083.000000	62.206646
1082.000000	62.125680
1081.000000	62.058810
1080.000000	61.939843
1079.000000	61.867560
1078.000000	61.783550
1077.000000	61.705066
1076.000000	61.619364
1075.000000	61.556441
1074.000000	61.460252
1073.000000	61.374099
1072.000000	61.307568
1071.000000	61.212394
1070.000000	61.111582
1069.000000	61.017310
1068.000000	60.929015
1067.000000	60.837336
1066.000000	60.751635
1065.000000	60.638644
1064.000000	60.564670
1063.000000	60.474683
1062.000000	60.366090
1061.000000	60.267195
1060.000000	60.175968
1059.000000	60.057000
1058.000000	59.975697
1057.000000	59.853685
1056.000000	59.751406
1055.000000	59.650820
1054.000000	59.536363
1053.000000	59.422470
1052.000000	59.306660
1051.000000	59.213967
1050.000000	59.096804
1049.000000	59.012343
1048.000000	58.909726
1047.000000	58.819063
1046.000000	58.730317
1045.000000	58.618904
1044.000000	58.538954
1043.000000	58.455508
1042.000000	58.350072
1041.000000	58.268881
1040.000000	58.184984
1039.000000	58.090599
1038.000000	58.005912
1037.000000	57.898221
1036.000000	57.788952
1035.000000	57.706746
1034.000000	57.606836
1033.000000	57.479637
1032.000000	57.384124
1031.000000	57.278689
1030.000000	57.164006
1029.000000	57.043009
1028.000000	56.927199
1027.000000	56.818155
1026.000000	56.702007
1025.000000	56.586197
1024.000000	56.459900
1023.000000	56.291767
1022.000000	56.193323
1021.000000	56.047630
1020.000000	55.948622
1019.000000	55.835744
1018.000000	55.726361
1017.000000	55.598711
1016.000000	55.491584
1015.000000	55.371489
1014.000000	55.309581
1013.000000	55.222075
1012.000000	55.120135
1011.000000	55.062625
1010.000000	54.995642
1009.000000	54.930013
1008.000000	54.879720
1007.000000	54.836305
1006.000000	54.801911
1005.000000	54.740680
1004.000000	54.682155
1003.000000	54.641672
1002.000000	54.618442
1001.000000	54.557887
1000.000000	54.518307
999.000000	54.467450
998.000000	54.424711
997.000000	54.364382
996.000000	54.332469
995.000000	54.285334
994.000000	54.248121
993.000000	54.220945
992.000000	54.174711
991.000000	54.137273
990.000000	54.107052
989.000000	54.064765
988.000000	54.044580
987.000000	54.023718
986.000000	53.990227
985.000000	53.962035
984.000000	53.930799
983.000000	53.920087
982.000000	53.890768
981.000000	53.867087
980.000000	53.859532
979.000000	53.845549
978.000000	53.822094
977.000000	53.808449
976.000000	53.785219
975.000000	53.780483
974.000000	53.748232
973.000000	53.737520
972.000000	53.737520
971.000000	53.719816
970.000000	53.711245
969.000000	53.700758
968.000000	53.696248
967.000000	53.682377
966.000000	53.643022
965.000000	53.629378
964.000000	53.643812
963.000000	53.659599
962.000000	53.661178
961.000000	53.645165
960.000000	53.643361
959.000000	53.674484
958.000000	53.707411
957.000000	53.707524
956.000000	53.697826
955.000000	53.692752
954.000000	53.698503
953.000000	53.697601
952.000000	53.684858
951.000000	53.700758
950.000000	53.707411
949.000000	53.690722
948.000000	53.692301
947.000000	53.675499
946.000000	53.641556
945.000000	53.636933
944.000000	53.638963
943.000000	53.622386
942.000000	53.588557
941.000000	53.548525
940.000000	53.528678
939.000000	53.504434
938.000000	53.453577
937.000000	53.434519
936.000000	53.404411
935.000000	53.366973
934.000000	53.342728
933.000000	53.304501
932.000000	53.281835
931.000000	53.280144
930.000000	53.258831
929.000000	53.212033
928.000000	53.157793
927.000000	53.132872
926.000000	53.099042
925.000000	53.053373
924.000000	53.007364
923.000000	52.965867
922.000000	52.953462
921.000000	52.916137
920.000000	52.878361
919.000000	52.834044
918.000000	52.763791
917.000000	52.708536
916.000000	52.655649
915.000000	52.591824
914.000000	52.535780
913.000000	52.469812
912.000000	52.411851
911.000000	52.355355
910.000000	52.308219
909.000000	52.271796
908.000000	52.224660
907.000000	52.171097
906.000000	52.161963
905.000000	52.146627
904.000000	52.138169
903.000000	52.128359
902.000000	52.136816
901.000000	52.138620
900.000000	52.116406
899.000000	52.128584
898.000000	52.160384
897.000000	52.164782
896.000000	52.172901
895.000000	52.160610
894.000000	52.138169
893.000000	52.136591
892.000000	52.113925
891.000000	52.095882
890.000000	52.046491
889.000000	52.007813
888.000000	51.933162
887.000000	51.867533
886.000000	51.783973
885.000000	51.734131
884.000000	51.657225
883.000000	51.577162
882.000000	51.496422
881.000000	51.381627
880.000000	51.295023
879.000000	51.151022
878.000000	51.052690
877.000000	50.899442
876.000000	50.707629
875.000000	50.494389
874.000000	50.308327
873.000000	50.108055
872.000000	49.921429
871.000000	49.834036
870.000000	49.829976
869.000000	49.882976
868.000000	49.943644
867.000000	49.959318
866.000000	49.992245
865.000000	50.015475
864.000000	50.045922
863.000000	50.071294
862.000000	50.093847
861.000000	50.161393
860.000000	50.184623
859.000000	50.216536
858.000000	50.242133
857.000000	49.598100
856.000000	50.607000
855.000000	50.521300
854.000000	50.643300
853.000000	50.742900
852.000000	51.084900
851.000000	50.816200
850.000000	50.873200
849.000000	50.930800
848.000000	51.137300
847.000000	51.331900
846.000000	51.131500
845.000000	51.529500
844.000000	51.341800
843.000000	51.285700
842.000000	51.090200
841.000000	51.223000
840.000000	51.462800
839.000000	51.367800
838.000000	51.649000
837.000000	51.454100
836.000000	51.668500
835.000000	51.437500
834.000000	51.416500
833.000000	51.436600
832.000000	51.513400
831.000000	51.477200
830.000000	51.521300
829.000000	51.520800
828.000000	51.470800
827.000000	51.453600
826.000000	51.383000
825.000000	51.348200
824.000000	51.378800
823.000000	51.414800
822.000000	51.526000
821.000000	51.528200
820.000000	51.262200
819.000000	51.435200
818.000000	51.296900
817.000000	51.309700
816.000000	51.127500
815.000000	51.194600
814.000000	51.165700
813.000000	51.189500
812.000000	51.074700
811.000000	51.097000
810.000000	51.063300
809.000000	50.986500
808.000000	51.088100
807.000000	50.897600
806.000000	50.787300
805.000000	50.663400
804.000000	50.792200
803.000000	50.636900
802.000000	50.648800
801.000000	50.516700
800.000000	50.380400
799.000000	50.383700
798.000000	50.295000
797.000000	50.316300
796.000000	50.174000
795.000000	50.025700
794.000000	49.995800
793.000000	49.933300
792.000000	49.990200
791.000000	49.877800
790.000000	49.684100
789.000000	49.828600
788.000000	49.664000
787.000000	49.441200
786.000000	49.538100
785.000000	49.427300
784.000000	49.307000
783.000000	49.239100
782.000000	48.975100
781.000000	48.956000
780.000000	48.934500
779.000000	48.717200
778.000000	48.602200
777.000000	48.564200
776.000000	48.326500
775.000000	48.232900
774.000000	48.234100
773.000000	48.032700
772.000000	47.949900
771.000000	47.832100
770.000000	47.686600
769.000000	47.608600
768.000000	47.526200
767.000000	47.416700
766.000000	47.258700
765.000000	47.208700
764.000000	46.957200
763.000000	46.887000
762.000000	46.664600
761.000000	46.505900
760.000000	46.327800
759.000000	46.183800
758.000000	46.072900
757.000000	45.860100
756.000000	45.711800
755.000000	45.600200
754.000000	45.460900
753.000000	45.237100
752.000000	45.055100
751.000000	44.941700
750.000000	44.722700
749.000000	44.651600
748.000000	44.464200
747.000000	44.258100
746.000000	44.123400
745.000000	43.907200
744.000000	43.746100
743.000000	43.531400
742.000000	43.355800
741.000000	43.172600
740.000000	42.959400
739.000000	42.775300
738.000000	42.586700
737.000000	42.338700
736.000000	42.137100
735.000000	41.880000
734.000000	41.714100
733.000000	41.456000
732.000000	41.250400
731.000000	41.023000
730.000000	40.754200
729.000000	40.593700
728.000000	40.346900
727.000000	40.047500
726.000000	39.841500
725.000000	39.618000
724.000000	39.377900
723.000000	39.151200
722.000000	38.918100
721.000000	38.647900
720.000000	38.397200
719.000000	38.092200
718.000000	37.886500
717.000000	37.638600
716.000000	37.363000
715.000000	37.082200
714.000000	36.815700
713.000000	36.535600
712.000000	36.268100
711.000000	35.966300
710.000000	35.709900
709.000000	35.419900
708.000000	35.155400
707.000000	34.861800
706.000000	34.546800
705.000000	34.285700
704.000000	34.016700
703.000000	33.741300
702.000000	33.469500
701.000000	33.152900
700.000000	32.827500
699.000000	32.577800
698.000000	32.317500
697.000000	32.051700
696.000000	31.750400
695.000000	31.468700
694.000000	31.207100
693.000000	30.949200
692.000000	30.701900
691.000000	30.441600
690.000000	30.153800
689.000000	29.898400
688.000000	29.629100
687.000000	29.342600
686.000000	29.108300
685.000000	28.868700
684.000000	28.627400
683.000000	28.342800
682.000000	28.063900
681.000000	27.814400
680.000000	27.549300
679.000000	27.299300
678.000000	27.072900
677.000000	26.843400
676.000000	26.616300
675.000000	26.409200
674.000000	26.163300
673.000000	25.930200
672.000000	25.759200
671.000000	25.578000
670.000000	25.373700
669.000000	25.170600
668.000000	24.979700
667.000000	24.789500
666.000000	24.627500
665.000000	24.469200
664.000000	24.317800
663.000000	24.160400
662.000000	24.006500
661.000000	23.860400
660.000000	23.694200
659.000000	23.541300
658.000000	23.429100
657.000000	23.301500
656.000000	23.150700
655.000000	23.047900
654.000000	22.948100
653.000000	22.844000
652.000000	22.766800
651.000000	22.679400
650.000000	22.592200
649.000000	22.531900
648.000000	22.503600
647.000000	22.458900
646.000000	22.416000
645.000000	22.405300
644.000000	22.392800
643.000000	22.375800
642.000000	22.377300
641.000000	22.393300
640.000000	22.430500
639.000000	22.445400
638.000000	22.448600
637.000000	22.491300
636.000000	22.543300
635.000000	22.591700
634.000000	22.658400
633.000000	22.734600
632.000000	22.802400
631.000000	22.872000
630.000000	22.929900
629.000000	23.013700
628.000000	23.115000
627.000000	23.197500
626.000000	23.291200
625.000000	23.399300
624.000000	23.484600
623.000000	23.600100
622.000000	23.713300
621.000000	23.801100
620.000000	23.887600
619.000000	23.984100
618.000000	24.056400
617.000000	24.139600
616.000000	24.217500
615.000000	24.291100
614.000000	24.379300
613.000000	24.470600
612.000000	24.569000
611.000000	24.638400
610.000000	24.721800
609.000000	24.776900
608.000000	24.852800
607.000000	24.938000
606.000000	25.012700
605.000000	25.081000
604.000000	25.121500
603.000000	25.176500
602.000000	25.259400
601.000000	25.316000
600.000000	25.378400
599.000000	25.454500
598.000000	25.525500
597.000000	25.581300
596.000000	25.644700
595.000000	25.695500
594.000000	25.741600
593.000000	25.799200
592.000000	25.852100
591.000000	25.882500
590.000000	25.937600
589.000000	25.983000
588.000000	26.013300
587.000000	26.036200
586.000000	26.057800
585.000000	26.089600
584.000000	26.119200
583.000000	26.143000
582.000000	26.155400
581.000000	26.155400
580.000000	26.147100
579.000000	26.121800
578.000000	26.115000
577.000000	26.093100
576.000000	26.066100
575.000000	26.024500
574.000000	25.992800
573.000000	25.948700
572.000000	25.908800
571.000000	25.856500
570.000000	25.773000
569.000000	25.695800
568.000000	25.640600
567.000000	25.560100
566.000000	25.455000
565.000000	25.360700
564.000000	25.264500
563.000000	25.181800
562.000000	25.075900
561.000000	24.972200
560.000000	24.842400
559.000000	24.641300
558.000000	24.502600
557.000000	24.377600
556.000000	24.267700
555.000000	24.151700
554.000000	24.003900
553.000000	23.870100
552.000000	23.723000
551.000000	23.585900
550.000000	23.454700
549.000000	23.313700
548.000000	23.150800
547.000000	23.019800
546.000000	22.872000
545.000000	22.707800
544.000000	22.523800
543.000000	22.367200
542.000000	22.183800
541.000000	21.990500
540.000000	21.809700
539.000000	21.625900
538.000000	21.424600
537.000000	21.245400
536.000000	21.048200
535.000000	20.852600
534.000000	20.621500
533.000000	20.403000
532.000000	20.178800
531.000000	19.950900
530.000000	19.718000
529.000000	19.477400
528.000000	19.247300
527.000000	18.985700
526.000000	18.722000
525.000000	18.483900
524.000000	18.188500
523.000000	17.915600
522.000000	17.634100
521.000000	17.349700
520.000000	17.069900
519.000000	16.776100
518.000000	16.495600
517.000000	16.194000
516.000000	15.902600
515.000000	15.615500
514.000000	15.332300
513.000000	15.037600
512.000000	14.783900
511.000000	14.501200
510.000000	14.242900
509.000000	13.977900
508.000000	13.720000
507.000000	13.499000
506.000000	13.250700
505.000000	13.037500
504.000000	12.823300
503.000000	12.616800
502.000000	12.403500
501.000000	12.189900
500.000000	12.006200
499.000000	11.851300
498.000000	11.682500
497.000000	11.536200
496.000000	11.379800
495.000000	11.257600
494.000000	11.133200
493.000000	11.002200
492.000000	10.902600
491.000000	10.786900
490.000000	10.692900
489.000000	10.609200
488.000000	10.537800
487.000000	10.437800
486.000000	10.389100
485.000000	10.334500
484.000000	10.256400
483.000000	10.208400
482.000000	10.150500
481.000000	10.085500
480.000000	10.002700
479.000000	9.931000
478.000000	9.884800
477.000000	9.824000
476.000000	9.771800
475.000000	9.720600
474.000000	9.666000
473.000000	9.628600
472.000000	9.574600
471.000000	9.538600
470.000000	9.492900
469.000000	9.463500
468.000000	9.417400
467.000000	9.393400
466.000000	9.362900
465.000000	9.312800
464.000000	9.307000
463.000000	9.272700
462.000000	9.234200
461.000000	9.198500
460.000000	9.193100
459.000000	9.172700
458.000000	9.136100
457.000000	9.103600
456.000000	9.071700
455.000000	9.040000
454.000000	9.000700
453.000000	8.997400
452.000000	8.969900
451.000000	8.911700
450.000000	8.876100
449.000000	8.841700
448.000000	8.804200
447.000000	8.763700
446.000000	8.728000
445.000000	8.695400
444.000000	8.638100
443.000000	8.601300
442.000000	8.554300
441.000000	8.509300
440.000000	8.459100
439.000000	8.401800
438.000000	8.335800
437.000000	8.261200
436.000000	8.223000
435.000000	8.171400
434.000000	8.094200
433.000000	8.025200
432.000000	7.974300
431.000000	7.923100
430.000000	7.848600
429.000000	7.785800
428.000000	7.741400
427.000000	7.670400
426.000000	7.594900
425.000000	7.537900
424.000000	7.459500
423.000000	7.433000
422.000000	7.351000
421.000000	7.275900
420.000000	7.232000
419.000000	7.144900
418.000000	7.061400
417.000000	7.006300
416.000000	6.925500
415.000000	6.862300
414.000000	6.784900
413.000000	6.705200
412.000000	6.611100
411.000000	6.540900
410.000000	6.453900
409.000000	6.372700
408.000000	6.306800
407.000000	6.225500
406.000000	6.142000
405.000000	6.061800
404.000000	5.975800
403.000000	5.916000
402.000000	5.837800
401.000000	5.750400
400.000000	5.676300
399.000000	5.600800
398.000000	5.516300
397.000000	5.449500
396.000000	5.380000
395.000000	5.333200
394.000000	5.255000
393.000000	5.176400
392.000000	5.117500
391.000000	5.050000
390.000000	4.995000
389.000000	4.934800
388.000000	4.865200
387.000000	4.823500
386.000000	4.771000
385.000000	4.708700
384.000000	4.669300
383.000000	4.629100
382.000000	4.596800
381.000000	4.560300
380.000000	4.533700
379.000000	4.486200
378.000000	4.440000
377.000000	4.395300
376.000000	4.363400
375.000000	4.186100
374.000000	4.055500
373.000000	4.155400
372.000000	4.109200
371.000000	4.139500
370.000000	4.155000
369.000000	4.117700
368.000000	4.034200
367.000000	4.131300
366.000000	4.163300
365.000000	4.149900
364.000000	4.052300
363.000000	4.005300
362.000000	4.042700
361.000000	4.157300
360.000000	4.141800
359.000000	4.123200
358.000000	4.089400
357.000000	3.988700
356.000000	3.999200
355.000000	4.067600
354.000000	4.042100
353.000000	3.966400
352.000000	3.933100
351.000000	3.993300
350.000000	4.022700
349.000000	4.027100
348.000000	4.008600
347.000000	3.978800
346.000000	3.952300
345.000000	4.056900
344.000000	4.112400
343.000000	4.150300
342.000000	4.240000
341.000000	4.207200
340.000000	4.133200
339.000000	3.918200
338.000000	3.823800
337.000000	4.015700
336.000000	4.178600
335.000000	4.170100
334.000000	4.093600
333.000000	3.952000
332.000000	3.993600
331.000000	4.146000
330.000000	4.140800
329.000000	4.117600
328.000000	4.161300
327.000000	4.147200
326.000000	4.209200
325.000000	4.263500
324.000000	4.412900
323.000000	4.451200
322.000000	4.097300
321.000000	3.990900
320.000000	4.265100
319.000000	4.555200
318.000000	4.509100
317.000000	4.193900
316.000000	4.030700
315.000000	4.063100
314.000000	4.073600
313.000000	4.037600
312.000000	4.064600
311.000000	4.097700
310.000000	4.101600
309.000000	4.115000
308.000000	4.110900
307.000000	4.099900
306.000000	4.091700
305.000000	4.087400
304.000000	4.082200
303.000000	4.101500
302.000000	4.130300
301.000000	4.099700
300.000000	4.112900
299.000000	4.118600
298.000000	4.106200
297.000000	4.142200
296.000000	4.141300
295.000000	4.138300
294.000000	4.173900
293.000000	4.170900
292.000000	4.175000
291.000000	4.176100
290.000000	4.168300
289.000000	4.158700
288.000000	4.164000
287.000000	4.191400
286.000000	4.201800
285.000000	4.198600
284.000000	4.198800
283.000000	4.225500
282.000000	4.256400
281.000000	4.239500
280.000000	4.193300
279.000000	4.202200
278.000000	4.246900
277.000000	4.254500
276.000000	4.257300
275.000000	4.336000
274.000000	4.346200
273.000000	4.329900
272.000000	4.315300
271.000000	4.338400
270.000000	4.343000
269.000000	4.328700
268.000000	4.362600
267.000000	4.397700
266.000000	4.412500
265.000000	4.423600
264.000000	4.456100
263.000000	4.459800
262.000000	4.516000
261.000000	4.497600
260.000000	4.503900
259.000000	4.562400
258.000000	4.562900
257.000000	4.534800
256.000000	4.559900
255.000000	4.604400
254.000000	4.593400
253.000000	4.589400
252.000000	4.602300
251.000000	4.611100
250.000000	4.635100
