PE UV       SUBTECH     SPECTRUM    ASCII       PEDS        4.00        
   -1
CICIMAUCR0097-1.ASC
24/04/03
15:09:17.00
24/04/03
15:09:17.00
Vinicio Soto Monge
C. kalinini
250,000000
1
Lambda 1050
1050L1511233
PerkinElmer UV WinLab 6.3.2.0749 / 2.02.05 Lambda 900 UV/VIS/NIR, Aug  7 2015 09:38:08

0
0
3350/servo 860,8/2
0
0
UV/VIS
1
1
1
DoubleDePol,CommonBeamDepol,RBeamAtt,SBeamAtt,60mm sphere, WB InGaAs Detector
0
0
0
0
Program
Program
3350/servo 860,8/2
3350/0,2 860,8/0,2
3350/0,2 860,8/0,2
0
15.00
 
 
 
0
 
860,8
319,2
860,8
Front
100
on
S:100 R:100
0
0
0
0
 
0
 
 
 
0
 
 
0
0
0
0
0
 
 
 
 
0
0


0
0
#HDR
-1
-1
#GR
nm
%R
1.0
0.0
2500,000000
-1,000000
2251
8
71,118700
4,659200
#DATA
2482.000000	4.797844
2481.000000	4.797743
2480.000000	4.807262
2479.000000	4.810806
2478.000000	4.787415
2477.000000	4.785288
2476.000000	4.803211
2475.000000	4.783263
2474.000000	4.721291
2473.000000	4.778605
2472.000000	4.753492
2471.000000	4.758758
2470.000000	4.756732
2469.000000	4.717950
2468.000000	4.792478
2467.000000	4.766656
2466.000000	4.743265
2465.000000	4.789744
2464.000000	4.798047
2463.000000	4.793186
2462.000000	4.798148
2461.000000	4.805743
2460.000000	4.847766
2459.000000	4.829033
2458.000000	4.857690
2457.000000	4.899510
2456.000000	4.907206
2455.000000	4.940521
2454.000000	4.966039
2453.000000	4.983759
2452.000000	5.008265
2451.000000	5.039453
2450.000000	5.070844
2449.000000	5.106589
2448.000000	5.137474
2447.000000	5.157928
2446.000000	5.180813
2445.000000	5.210280
2444.000000	5.250987
2443.000000	5.279745
2442.000000	5.299997
2441.000000	5.323895
2440.000000	5.365614
2439.000000	5.370678
2438.000000	5.430827
2437.000000	5.435788
2436.000000	5.456344
2435.000000	5.471837
2434.000000	5.495937
2433.000000	5.531885
2432.000000	5.545656
2431.000000	5.553757
2430.000000	5.576237
2429.000000	5.597705
2428.000000	5.636487
2427.000000	5.649145
2426.000000	5.672840
2425.000000	5.682257
2424.000000	5.687523
2423.000000	5.707168
2422.000000	5.729445
2421.000000	5.746963
2420.000000	5.738964
2419.000000	5.763671
2418.000000	5.767114
2417.000000	5.775519
2416.000000	5.787974
2415.000000	5.800328
2414.000000	5.816934
2413.000000	5.808935
2412.000000	5.817340
2411.000000	5.847515
2410.000000	5.842756
2409.000000	5.855414
2408.000000	5.863818
2407.000000	5.865438
2406.000000	5.905943
2405.000000	5.920626
2404.000000	5.921031
2403.000000	5.912829
2402.000000	5.920524
2401.000000	5.931764
2400.000000	5.948877
2399.000000	5.972573
2398.000000	6.001634
2397.000000	6.002647
2396.000000	6.007811
2395.000000	6.018646
2394.000000	6.036266
2393.000000	6.044873
2392.000000	6.064416
2391.000000	6.071403
2390.000000	6.070593
2389.000000	6.077175
2388.000000	6.099047
2387.000000	6.094997
2386.000000	6.087807
2385.000000	6.090845
2384.000000	6.092567
2383.000000	6.102085
2382.000000	6.107553
2381.000000	6.098845
2380.000000	6.094288
2379.000000	6.088516
2378.000000	6.080112
2377.000000	6.086390
2376.000000	6.087200
2375.000000	6.078795
2374.000000	6.053379
2373.000000	6.037076
2372.000000	6.031000
2371.000000	6.019456
2370.000000	6.016216
2369.000000	5.997483
2368.000000	5.967509
2367.000000	5.946548
2366.000000	5.927613
2365.000000	5.893589
2364.000000	5.862704
2363.000000	5.851971
2362.000000	5.831617
2361.000000	5.783316
2360.000000	5.750001
2359.000000	5.735318
2358.000000	5.718610
2357.000000	5.708889
2356.000000	5.687320
2355.000000	5.671828
2354.000000	5.661803
2353.000000	5.634665
2352.000000	5.635171
2351.000000	5.656638
2350.000000	5.657448
2349.000000	5.662613
2348.000000	5.691776
2347.000000	5.712231
2346.000000	5.730053
2345.000000	5.730154
2344.000000	5.739672
2343.000000	5.778455
2342.000000	5.789594
2341.000000	5.794049
2340.000000	5.814909
2339.000000	5.814403
2338.000000	5.819365
2337.000000	5.831314
2336.000000	5.829795
2335.000000	5.827162
2334.000000	5.807720
2333.000000	5.791315
2332.000000	5.779772
2331.000000	5.769443
2330.000000	5.746963
2329.000000	5.723977
2328.000000	5.693599
2327.000000	5.654512
2326.000000	5.637601
2325.000000	5.607932
2324.000000	5.570263
2323.000000	5.530163
2322.000000	5.494317
2321.000000	5.445914
2320.000000	5.403486
2319.000000	5.368855
2318.000000	5.327642
2317.000000	5.307592
2316.000000	5.266176
2315.000000	5.226381
2314.000000	5.183952
2313.000000	5.130082
2312.000000	5.101425
2311.000000	5.074591
2310.000000	5.065072
2309.000000	5.044617
2308.000000	5.021834
2307.000000	5.004012
2306.000000	5.009277
2305.000000	5.009682
2304.000000	5.023758
2303.000000	5.034491
2302.000000	5.037630
2301.000000	5.059401
2300.000000	5.075704
2299.000000	5.101830
2298.000000	5.127145
2297.000000	5.143043
2296.000000	5.156713
2295.000000	5.182737
2294.000000	5.189825
2293.000000	5.196407
2292.000000	5.204812
2291.000000	5.202179
2290.000000	5.220609
2289.000000	5.203597
2288.000000	5.189825
2287.000000	5.179902
2286.000000	5.172915
2285.000000	5.148612
2284.000000	5.140309
2283.000000	5.100210
2282.000000	5.065882
2281.000000	5.040668
2280.000000	5.013834
2279.000000	4.975861
2278.000000	4.942951
2277.000000	4.921079
2276.000000	4.882802
2275.000000	4.871866
2274.000000	4.849791
2273.000000	4.826501
2272.000000	4.799465
2271.000000	4.802097
2270.000000	4.793693
2269.000000	4.780934
2268.000000	4.768479
2267.000000	4.777997
2266.000000	4.804730
2265.000000	4.817692
2264.000000	4.842095
2263.000000	4.896270
2262.000000	4.917332
2261.000000	4.970899
2260.000000	4.996518
2259.000000	5.059604
2258.000000	5.112867
2257.000000	5.166232
2256.000000	5.259189
2255.000000	5.301719
2254.000000	5.369867
2253.000000	5.434269
2252.000000	5.490165
2251.000000	5.571174
2250.000000	5.627171
2249.000000	5.694713
2248.000000	5.743318
2247.000000	5.801239
2246.000000	5.844680
2245.000000	5.878501
2244.000000	5.920929
2243.000000	5.964067
2242.000000	5.999710
2241.000000	6.043354
2240.000000	6.057125
2239.000000	6.092769
2238.000000	6.098744
2237.000000	6.121932
2236.000000	6.122135
2235.000000	6.171044
2234.000000	6.181373
2233.000000	6.164057
2232.000000	6.164665
2231.000000	6.185119
2230.000000	6.159703
2229.000000	6.135096
2228.000000	6.123856
2227.000000	6.126995
2226.000000	6.089326
2225.000000	6.054695
2224.000000	6.018849
2223.000000	5.977838
2222.000000	5.933587
2221.000000	5.896829
2220.000000	5.837592
2219.000000	5.825744
2218.000000	5.787265
2217.000000	5.737850
2216.000000	5.701294
2215.000000	5.663220
2214.000000	5.669499
2213.000000	5.639019
2212.000000	5.625855
2211.000000	5.596388
2210.000000	5.584541
2209.000000	5.620590
2208.000000	5.631526
2207.000000	5.693295
2206.000000	5.728736
2205.000000	5.749900
2204.000000	5.810859
2203.000000	5.885893
2202.000000	5.950700
2201.000000	6.060467
2200.000000	6.142083
2199.000000	6.217421
2198.000000	6.319087
2197.000000	6.403235
2196.000000	6.478067
2195.000000	6.557861
2194.000000	6.644844
2193.000000	6.700031
2192.000000	6.773749
2191.000000	6.830759
2190.000000	6.902755
2189.000000	6.956525
2188.000000	7.001586
2187.000000	7.037230
2186.000000	7.097176
2185.000000	7.133023
2184.000000	7.174135
2183.000000	7.209070
2182.000000	7.211399
2181.000000	7.228512
2180.000000	7.245726
2179.000000	7.274383
2178.000000	7.289471
2177.000000	7.317824
2176.000000	7.324203
2175.000000	7.336355
2174.000000	7.362885
2173.000000	7.382732
2172.000000	7.389112
2171.000000	7.408048
2170.000000	7.438628
2169.000000	7.455539
2168.000000	7.469310
2167.000000	7.485816
2166.000000	7.495031
2165.000000	7.511536
2164.000000	7.553661
2163.000000	7.595380
2162.000000	7.619278
2161.000000	7.655732
2160.000000	7.676794
2159.000000	7.708084
2158.000000	7.748588
2157.000000	7.768638
2156.000000	7.793447
2155.000000	7.838103
2154.000000	7.890455
2153.000000	7.920428
2152.000000	7.958299
2151.000000	7.999310
2150.000000	8.025132
2149.000000	8.053485
2148.000000	8.071610
2147.000000	8.100369
2146.000000	8.137430
2145.000000	8.193225
2144.000000	8.213781
2143.000000	8.237881
2142.000000	8.261475
2141.000000	8.287296
2140.000000	8.312308
2139.000000	8.341572
2138.000000	8.356964
2137.000000	8.398076
2136.000000	8.423796
2135.000000	8.441314
2134.000000	8.470376
2133.000000	8.479895
2132.000000	8.497919
2131.000000	8.526373
2130.000000	8.544297
2129.000000	8.553916
2128.000000	8.552701
2127.000000	8.565359
2126.000000	8.585003
2125.000000	8.587839
2124.000000	8.596547
2123.000000	8.589560
2122.000000	8.595737
2121.000000	8.596851
2120.000000	8.593307
2119.000000	8.599686
2118.000000	8.598269
2117.000000	8.594623
2116.000000	8.593408
2115.000000	8.589965
2114.000000	8.583991
2113.000000	8.582067
2112.000000	8.574877
2111.000000	8.569814
2110.000000	8.559688
2109.000000	8.542474
2108.000000	8.534170
2107.000000	8.534170
2106.000000	8.531436
2105.000000	8.522930
2104.000000	8.517867
2103.000000	8.502678
2102.000000	8.497008
2101.000000	8.493160
2100.000000	8.478679
2099.000000	8.453162
2098.000000	8.434833
2097.000000	8.431593
2096.000000	8.435340
2095.000000	8.429568
2094.000000	8.422277
2093.000000	8.404961
2092.000000	8.385823
2091.000000	8.378836
2090.000000	8.370533
2089.000000	8.364052
2088.000000	8.355749
2087.000000	8.339344
2086.000000	8.335193
2085.000000	8.322231
2084.000000	8.296916
2083.000000	8.284258
2082.000000	8.271095
2081.000000	8.259753
2080.000000	8.249020
2079.000000	8.224717
2078.000000	8.201427
2077.000000	8.206591
2076.000000	8.193022
2075.000000	8.158594
2074.000000	8.140367
2073.000000	8.118899
2072.000000	8.102596
2071.000000	8.092268
2070.000000	8.057940
2069.000000	8.030904
2068.000000	8.019866
2067.000000	8.005690
2066.000000	7.971666
2065.000000	7.959616
2064.000000	7.938756
2063.000000	7.919618
2062.000000	7.902403
2061.000000	7.885392
2060.000000	7.885695
2059.000000	7.901593
2058.000000	7.890252
2057.000000	7.873240
2056.000000	7.875367
2055.000000	7.893796
2054.000000	7.900479
2053.000000	7.911517
2052.000000	7.944224
2051.000000	7.969944
2050.000000	7.996677
2049.000000	8.031916
2048.000000	8.075560
2047.000000	8.122747
2046.000000	8.152720
2045.000000	8.200212
2044.000000	8.254589
2043.000000	8.314434
2042.000000	8.366381
2041.000000	8.411746
2040.000000	8.481008
2039.000000	8.513007
2038.000000	8.554321
2037.000000	8.603635
2036.000000	8.657709
2035.000000	8.696188
2034.000000	8.736794
2033.000000	8.790158
2032.000000	8.818511
2031.000000	8.840890
2030.000000	8.888077
2029.000000	8.915823
2028.000000	8.924329
2027.000000	8.939822
2026.000000	8.968377
2025.000000	8.985389
2024.000000	9.003414
2023.000000	9.008072
2022.000000	9.040273
2021.000000	9.054753
2020.000000	9.061132
2019.000000	9.100523
2018.000000	9.111965
2017.000000	9.116117
2016.000000	9.123307
2015.000000	9.116522
2014.000000	9.124927
2013.000000	9.156723
2012.000000	9.149027
2011.000000	9.157837
2010.000000	9.159052
2009.000000	9.160064
2008.000000	9.144673
2007.000000	9.127154
2006.000000	9.122902
2005.000000	9.121281
2004.000000	9.105788
2003.000000	9.081790
2002.000000	9.079461
2001.000000	9.066803
2000.000000	9.030754
1999.000000	9.029843
1998.000000	9.017185
1997.000000	8.992275
1996.000000	8.971820
1995.000000	8.942049
1994.000000	8.915620
1993.000000	8.900431
1992.000000	8.905393
1991.000000	8.864990
1990.000000	8.864686
1989.000000	8.826004
1988.000000	8.789551
1987.000000	8.779323
1986.000000	8.756134
1985.000000	8.718769
1984.000000	8.696087
1983.000000	8.644039
1982.000000	8.651633
1981.000000	8.615584
1980.000000	8.582573
1979.000000	8.555435
1978.000000	8.524044
1977.000000	8.501159
1976.000000	8.463085
1975.000000	8.442529
1974.000000	8.420758
1973.000000	8.385621
1972.000000	8.363141
1971.000000	8.319092
1970.000000	8.297422
1969.000000	8.283752
1968.000000	8.274132
1967.000000	8.246083
1966.000000	8.229274
1965.000000	8.208110
1964.000000	8.173479
1963.000000	8.140468
1962.000000	8.138746
1961.000000	8.146746
1960.000000	8.103609
1959.000000	8.076977
1958.000000	8.066041
1957.000000	8.045080
1956.000000	8.028170
1955.000000	8.004677
1954.000000	8.002551
1953.000000	7.970856
1952.000000	7.941996
1951.000000	7.931972
1950.000000	7.903214
1949.000000	7.908985
1948.000000	7.889240
1947.000000	7.885898
1946.000000	7.856937
1945.000000	7.846710
1944.000000	7.836179
1943.000000	7.839723
1942.000000	7.840837
1941.000000	7.840533
1940.000000	7.844077
1939.000000	7.866355
1938.000000	7.880835
1937.000000	7.891163
1936.000000	7.908479
1935.000000	7.932174
1934.000000	7.928529
1933.000000	7.953844
1932.000000	7.996677
1931.000000	8.026144
1930.000000	8.057940
1929.000000	8.135506
1928.000000	8.176517
1927.000000	8.216312
1926.000000	8.266234
1925.000000	8.342483
1924.000000	8.381368
1923.000000	8.429264
1922.000000	8.524854
1921.000000	8.615483
1920.000000	8.699327
1919.000000	8.786310
1918.000000	8.858914
1917.000000	8.941138
1916.000000	9.006046
1915.000000	9.100422
1914.000000	9.228314
1913.000000	9.362991
1912.000000	9.484302
1911.000000	9.582626
1910.000000	9.694013
1909.000000	9.769453
1908.000000	9.851980
1907.000000	10.007720
1906.000000	10.140675
1905.000000	10.318287
1904.000000	10.465520
1903.000000	10.603336
1902.000000	10.738520
1901.000000	10.860033
1900.000000	11.032784
1899.000000	11.217180
1898.000000	11.391146
1897.000000	11.574935
1896.000000	11.704752
1895.000000	11.833353
1894.000000	11.992231
1893.000000	12.175514
1892.000000	12.379757
1891.000000	12.602430
1890.000000	12.793914
1889.000000	13.003322
1888.000000	13.221742
1887.000000	13.436820
1886.000000	13.685719
1885.000000	13.993249
1884.000000	14.322246
1883.000000	14.668355
1882.000000	15.014870
1881.000000	15.368068
1880.000000	15.707293
1879.000000	16.037910
1878.000000	16.344528
1877.000000	16.678081
1876.000000	16.990572
1875.000000	17.265192
1874.000000	17.512168
1873.000000	17.770282
1872.000000	18.001967
1871.000000	18.230816
1870.000000	18.409542
1869.000000	18.574496
1868.000000	18.713021
1867.000000	18.813269
1866.000000	18.888810
1865.000000	18.945415
1864.000000	19.001817
1863.000000	19.062371
1862.000000	19.120191
1861.000000	19.175885
1860.000000	19.213351
1859.000000	19.239780
1858.000000	19.262058
1857.000000	19.263982
1856.000000	19.252539
1855.000000	19.238565
1854.000000	19.220136
1853.000000	19.180340
1852.000000	19.149962
1851.000000	19.119989
1850.000000	19.092952
1849.000000	19.073712
1848.000000	19.046878
1847.000000	18.999184
1846.000000	18.926378
1845.000000	18.875140
1844.000000	18.832408
1843.000000	18.810535
1842.000000	18.823800
1841.000000	18.802738
1840.000000	18.758285
1839.000000	18.729121
1838.000000	18.682136
1837.000000	18.656214
1836.000000	18.623203
1835.000000	18.568927
1834.000000	18.504120
1833.000000	18.443464
1832.000000	18.385948
1831.000000	18.338862
1830.000000	18.294003
1829.000000	18.243778
1828.000000	18.184641
1827.000000	18.124999
1826.000000	18.075786
1825.000000	18.030927
1824.000000	17.995790
1823.000000	17.981107
1822.000000	17.978373
1821.000000	17.970171
1820.000000	17.961766
1819.000000	17.926325
1818.000000	17.920755
1817.000000	17.928046
1816.000000	17.930679
1815.000000	17.939185
1814.000000	17.960045
1813.000000	17.973107
1812.000000	17.958931
1811.000000	17.953058
1810.000000	17.921464
1809.000000	17.900908
1808.000000	17.900908
1807.000000	17.877416
1806.000000	17.847139
1805.000000	17.822431
1804.000000	17.785471
1803.000000	17.761067
1802.000000	17.740005
1801.000000	17.726132
1800.000000	17.697273
1799.000000	17.646440
1798.000000	17.627504
1797.000000	17.604214
1796.000000	17.579304
1795.000000	17.561887
1794.000000	17.533331
1793.000000	17.504775
1792.000000	17.459816
1791.000000	17.420628
1790.000000	17.351466
1789.000000	17.315823
1788.000000	17.284837
1787.000000	17.236940
1786.000000	17.200790
1785.000000	17.139831
1784.000000	17.057101
1783.000000	17.005660
1782.000000	16.945815
1781.000000	16.863287
1780.000000	16.796860
1779.000000	16.729015
1778.000000	16.667145
1777.000000	16.583909
1776.000000	16.482850
1775.000000	16.369944
1774.000000	16.261899
1773.000000	16.153448
1772.000000	16.025961
1771.000000	15.922168
1770.000000	15.817363
1769.000000	15.686838
1768.000000	15.589425
1767.000000	15.490797
1766.000000	15.413130
1765.000000	15.350652
1764.000000	15.289794
1763.000000	15.252226
1762.000000	15.261542
1761.000000	15.258302
1760.000000	15.307413
1759.000000	15.326146
1758.000000	15.372828
1757.000000	15.406143
1756.000000	15.427407
1755.000000	15.423559
1754.000000	15.428926
1753.000000	15.443103
1752.000000	15.404117
1751.000000	15.349639
1750.000000	15.281693
1749.000000	15.215266
1748.000000	15.132130
1747.000000	15.041806
1746.000000	14.945912
1745.000000	14.806172
1744.000000	14.682532
1743.000000	14.507756
1742.000000	14.360623
1741.000000	14.161241
1740.000000	13.946466
1739.000000	13.779689
1738.000000	13.594281
1737.000000	13.451604
1736.000000	13.338698
1735.000000	13.260322
1734.000000	13.221640
1733.000000	13.228121
1732.000000	13.255360
1731.000000	13.324319
1730.000000	13.391050
1729.000000	13.504057
1728.000000	13.584357
1727.000000	13.678530
1726.000000	13.776247
1725.000000	13.814726
1724.000000	13.872242
1723.000000	13.895127
1722.000000	13.919632
1721.000000	13.942011
1720.000000	13.933302
1719.000000	13.954263
1718.000000	13.989603
1717.000000	14.023830
1716.000000	14.046816
1715.000000	14.129546
1714.000000	14.164076
1713.000000	14.210960
1712.000000	14.287716
1711.000000	14.292981
1710.000000	14.310499
1709.000000	14.317790
1708.000000	14.318701
1707.000000	14.314448
1706.000000	14.267160
1705.000000	14.253388
1704.000000	14.197998
1703.000000	14.150507
1702.000000	14.058967
1701.000000	13.965908
1700.000000	13.848952
1699.000000	13.738172
1698.000000	13.631342
1697.000000	13.564814
1696.000000	13.515905
1695.000000	13.537271
1694.000000	13.586484
1693.000000	13.702022
1692.000000	13.861913
1691.000000	14.024133
1690.000000	14.164278
1689.000000	14.295816
1688.000000	14.384825
1687.000000	14.464011
1686.000000	14.501579
1685.000000	14.519603
1684.000000	14.638585
1683.000000	14.830575
1682.000000	15.108739
1681.000000	15.500011
1680.000000	15.943737
1679.000000	16.447308
1678.000000	16.941360
1677.000000	17.390654
1676.000000	17.798128
1675.000000	18.189198
1674.000000	18.538548
1673.000000	18.805472
1672.000000	19.050422
1671.000000	19.285854
1670.000000	19.453947
1669.000000	19.647356
1668.000000	19.792969
1667.000000	19.936658
1666.000000	20.034982
1665.000000	20.159331
1664.000000	20.240137
1663.000000	20.327222
1662.000000	20.374207
1661.000000	20.438710
1660.000000	20.464025
1659.000000	20.520630
1658.000000	20.524782
1657.000000	20.548679
1656.000000	20.564476
1655.000000	20.580374
1654.000000	20.560020
1653.000000	20.529136
1652.000000	20.506150
1651.000000	20.488024
1650.000000	20.460785
1649.000000	20.432432
1648.000000	20.396180
1647.000000	20.330664
1646.000000	20.282971
1645.000000	20.231530
1644.000000	20.182115
1643.000000	20.110422
1642.000000	20.035590
1641.000000	19.975947
1640.000000	19.923899
1639.000000	19.852409
1638.000000	19.798437
1637.000000	19.724010
1636.000000	19.640267
1635.000000	19.574549
1634.000000	19.508021
1633.000000	19.427619
1632.000000	19.356028
1631.000000	19.264589
1630.000000	19.177606
1629.000000	19.090623
1628.000000	19.014171
1627.000000	18.922125
1626.000000	18.834332
1625.000000	18.750893
1624.000000	18.666542
1623.000000	18.600318
1622.000000	18.522650
1621.000000	18.452173
1620.000000	18.374202
1619.000000	18.295623
1618.000000	18.215121
1617.000000	18.143023
1616.000000	18.075786
1615.000000	18.003891
1614.000000	17.927439
1613.000000	17.863442
1612.000000	17.792762
1611.000000	17.729879
1610.000000	17.657376
1609.000000	17.621124
1608.000000	17.555608
1607.000000	17.476726
1606.000000	17.406046
1605.000000	17.370098
1604.000000	17.319670
1603.000000	17.253446
1602.000000	17.195322
1601.000000	17.136591
1600.000000	17.082112
1599.000000	17.037861
1598.000000	16.980345
1597.000000	16.936297
1596.000000	16.889514
1595.000000	16.845769
1594.000000	16.808910
1593.000000	16.776001
1592.000000	16.735395
1591.000000	16.719497
1590.000000	16.697118
1589.000000	16.668056
1588.000000	16.647703
1587.000000	16.629577
1586.000000	16.611857
1585.000000	16.606186
1584.000000	16.599199
1583.000000	16.587756
1582.000000	16.586339
1581.000000	16.572972
1580.000000	16.581985
1579.000000	16.585326
1578.000000	16.579352
1577.000000	16.588060
1576.000000	16.605781
1575.000000	16.632413
1574.000000	16.641526
1573.000000	16.647197
1572.000000	16.683853
1571.000000	16.712004
1570.000000	16.725066
1569.000000	16.766786
1568.000000	16.809012
1567.000000	16.829973
1566.000000	16.863996
1565.000000	16.911488
1564.000000	16.944397
1563.000000	16.962017
1562.000000	16.982978
1561.000000	17.010116
1560.000000	17.031988
1559.000000	17.058519
1558.000000	17.072695
1557.000000	17.062873
1556.000000	17.063480
1555.000000	17.084846
1554.000000	17.083631
1553.000000	17.064999
1552.000000	17.044443
1551.000000	17.039481
1550.000000	17.021660
1549.000000	16.990572
1548.000000	16.979738
1547.000000	16.968396
1546.000000	16.948144
1545.000000	16.922829
1544.000000	16.901868
1543.000000	16.884046
1542.000000	16.870679
1541.000000	16.864098
1540.000000	16.857313
1539.000000	16.838175
1538.000000	16.814075
1537.000000	16.810227
1536.000000	16.791392
1535.000000	16.754533
1534.000000	16.726079
1533.000000	16.712206
1532.000000	16.678891
1531.000000	16.666942
1530.000000	16.645070
1529.000000	16.603452
1528.000000	16.572770
1527.000000	16.536316
1526.000000	16.507355
1525.000000	16.461788
1524.000000	16.423207
1523.000000	16.394551
1522.000000	16.350300
1521.000000	16.316883
1520.000000	16.280733
1519.000000	16.250963
1518.000000	16.230913
1517.000000	16.182713
1516.000000	16.149195
1515.000000	16.127627
1514.000000	16.103830
1513.000000	16.072440
1512.000000	16.044694
1511.000000	16.020898
1510.000000	16.001557
1509.000000	15.964394
1508.000000	15.939383
1507.000000	15.908397
1506.000000	15.890474
1505.000000	15.869614
1504.000000	15.849463
1503.000000	15.856045
1502.000000	15.880145
1501.000000	15.876297
1500.000000	15.850374
1499.000000	15.839134
1498.000000	15.845818
1497.000000	15.850678
1496.000000	15.847134
1495.000000	15.859893
1494.000000	15.869918
1493.000000	15.873968
1492.000000	15.875183
1491.000000	15.894322
1490.000000	15.906979
1489.000000	15.952749
1488.000000	15.968546
1487.000000	15.983229
1486.000000	15.992950
1485.000000	16.006924
1484.000000	16.038315
1483.000000	16.069908
1482.000000	16.098565
1481.000000	16.125804
1480.000000	16.159828
1479.000000	16.201142
1478.000000	16.210154
1477.000000	16.253595
1476.000000	16.272835
1475.000000	16.330250
1474.000000	16.342502
1473.000000	16.374096
1472.000000	16.427562
1471.000000	16.482141
1470.000000	16.503001
1469.000000	16.512216
1468.000000	16.549075
1467.000000	16.597275
1466.000000	16.636665
1465.000000	16.679701
1464.000000	16.682233
1463.000000	16.736509
1462.000000	16.795746
1461.000000	16.844554
1460.000000	16.901058
1459.000000	16.962523
1458.000000	17.016293
1457.000000	17.075328
1456.000000	17.146818
1455.000000	17.202005
1454.000000	17.283217
1453.000000	17.334455
1452.000000	17.401287
1451.000000	17.527762
1450.000000	17.560773
1449.000000	17.638845
1448.000000	17.715398
1447.000000	17.796306
1446.000000	17.889668
1445.000000	17.969361
1444.000000	18.045813
1443.000000	18.129049
1442.000000	18.208134
1441.000000	18.304129
1440.000000	18.376733
1439.000000	18.448021
1438.000000	18.562243
1437.000000	18.632417
1436.000000	18.718287
1435.000000	18.793625
1434.000000	18.918176
1433.000000	18.980755
1432.000000	19.061359
1431.000000	19.163430
1430.000000	19.280082
1429.000000	19.383672
1428.000000	19.544373
1427.000000	19.639964
1426.000000	19.817778
1425.000000	19.962783
1424.000000	20.161457
1423.000000	20.318311
1422.000000	20.449443
1421.000000	20.651763
1420.000000	20.842437
1419.000000	21.024606
1418.000000	21.204749
1417.000000	21.329199
1416.000000	21.532227
1415.000000	21.722800
1414.000000	21.916411
1413.000000	22.084403
1412.000000	22.250471
1411.000000	22.441246
1410.000000	22.686804
1409.000000	22.953525
1408.000000	23.222677
1407.000000	23.489398
1406.000000	23.753082
1405.000000	24.055649
1404.000000	24.338977
1403.000000	24.565599
1402.000000	24.837991
1401.000000	25.106029
1400.000000	25.355030
1399.000000	25.478770
1398.000000	25.588335
1397.000000	25.729087
1396.000000	25.875409
1395.000000	25.961988
1394.000000	25.964317
1393.000000	26.012618
1392.000000	26.080665
1391.000000	26.125929
1390.000000	26.205925
1389.000000	26.336754
1388.000000	26.523479
1387.000000	26.648334
1386.000000	26.843970
1385.000000	27.122742
1384.000000	27.446270
1383.000000	27.747117
1382.000000	28.071354
1381.000000	28.372707
1380.000000	28.640137
1379.000000	28.890960
1378.000000	29.178642
1377.000000	29.513512
1376.000000	29.893848
1375.000000	30.288159
1374.000000	30.742010
1373.000000	31.235961
1372.000000	31.721102
1371.000000	32.164726
1370.000000	32.546682
1369.000000	32.879122
1368.000000	33.159817
1367.000000	33.393933
1366.000000	33.603745
1365.000000	33.795939
1364.000000	33.952387
1363.000000	34.088785
1362.000000	34.223969
1361.000000	34.307306
1360.000000	34.330394
1359.000000	34.387708
1358.000000	34.468413
1357.000000	34.579395
1356.000000	34.796599
1355.000000	35.057346
1354.000000	35.382191
1353.000000	35.716049
1352.000000	36.100334
1351.000000	36.478746
1350.000000	36.825261
1349.000000	37.132486
1348.000000	37.415207
1347.000000	37.682131
1346.000000	37.904500
1345.000000	38.134463
1344.000000	38.368174
1343.000000	38.537786
1342.000000	38.744257
1341.000000	38.936146
1340.000000	39.114872
1339.000000	39.294306
1338.000000	39.452172
1337.000000	39.613177
1336.000000	39.768511
1335.000000	39.897518
1334.000000	40.027840
1333.000000	40.168593
1332.000000	40.289195
1331.000000	40.387519
1330.000000	40.501539
1329.000000	40.613129
1328.000000	40.708618
1327.000000	40.801271
1326.000000	40.892001
1325.000000	40.984149
1324.000000	41.058474
1323.000000	41.130673
1322.000000	41.197202
1321.000000	41.252996
1320.000000	41.319019
1319.000000	41.389699
1318.000000	41.438507
1317.000000	41.493086
1316.000000	41.547868
1315.000000	41.600018
1314.000000	41.652471
1313.000000	41.706848
1312.000000	41.740872
1311.000000	41.772364
1310.000000	41.792211
1309.000000	41.803653
1308.000000	41.841728
1307.000000	41.865423
1306.000000	41.867650
1305.000000	41.875954
1304.000000	41.884763
1303.000000	41.873625
1302.000000	41.863397
1301.000000	41.851955
1300.000000	41.841424
1299.000000	41.825121
1298.000000	41.805982
1297.000000	41.790287
1296.000000	41.753529
1295.000000	41.716367
1294.000000	41.684368
1293.000000	41.647003
1292.000000	41.610245
1291.000000	41.567817
1290.000000	41.512224
1289.000000	41.450152
1288.000000	41.395673
1287.000000	41.336030
1286.000000	41.274059
1285.000000	41.211176
1284.000000	41.148799
1283.000000	41.078929
1282.000000	41.004502
1281.000000	40.938581
1280.000000	40.866787
1279.000000	40.803803
1278.000000	40.751755
1277.000000	40.698897
1276.000000	40.644925
1275.000000	40.583560
1274.000000	40.531107
1273.000000	40.493033
1272.000000	40.454858
1271.000000	40.413543
1270.000000	40.373647
1269.000000	40.341547
1268.000000	40.293752
1267.000000	40.237349
1266.000000	40.215679
1265.000000	40.186111
1264.000000	40.128393
1263.000000	40.090926
1262.000000	40.055383
1261.000000	40.014778
1260.000000	39.968704
1259.000000	39.927086
1258.000000	39.876860
1257.000000	39.828863
1256.000000	39.775802
1255.000000	39.739145
1254.000000	39.688920
1253.000000	39.619556
1252.000000	39.573989
1251.000000	39.539459
1250.000000	39.473437
1249.000000	39.396782
1248.000000	39.347367
1247.000000	39.277598
1246.000000	39.199728
1245.000000	39.131377
1244.000000	39.052596
1243.000000	38.977562
1242.000000	38.889971
1241.000000	38.804102
1240.000000	38.723600
1239.000000	38.650793
1238.000000	38.556418
1237.000000	38.474801
1236.000000	38.381439
1235.000000	38.293848
1234.000000	38.203118
1233.000000	38.097503
1232.000000	38.002115
1231.000000	37.885665
1230.000000	37.764456
1229.000000	37.640715
1228.000000	37.546644
1227.000000	37.403157
1226.000000	37.278201
1225.000000	37.165801
1224.000000	37.019783
1223.000000	36.901915
1222.000000	36.748708
1221.000000	36.610284
1220.000000	36.491809
1219.000000	36.369182
1218.000000	36.237745
1217.000000	36.104891
1216.000000	35.973758
1215.000000	35.855485
1214.000000	35.753414
1213.000000	35.629572
1212.000000	35.529728
1211.000000	35.404975
1210.000000	35.303916
1209.000000	35.209643
1208.000000	35.107875
1207.000000	35.024841
1206.000000	34.940390
1205.000000	34.905050
1204.000000	34.850369
1203.000000	34.801662
1202.000000	34.733007
1201.000000	34.700908
1200.000000	34.641670
1199.000000	34.561269
1198.000000	34.475400
1197.000000	34.363304
1196.000000	34.226804
1195.000000	34.041294
1194.000000	33.840291
1193.000000	33.604353
1192.000000	33.317379
1191.000000	33.021799
1190.000000	32.736952
1189.000000	32.489369
1188.000000	32.274999
1187.000000	32.192472
1186.000000	32.144474
1185.000000	32.217382
1184.000000	32.329073
1183.000000	32.544759
1182.000000	32.803885
1181.000000	33.099972
1180.000000	33.399097
1179.000000	33.688602
1178.000000	33.923021
1177.000000	34.122100
1176.000000	34.294345
1175.000000	34.482589
1174.000000	34.612811
1173.000000	34.781916
1172.000000	34.921960
1171.000000	35.104027
1170.000000	35.253792
1169.000000	35.424923
1168.000000	35.576815
1167.000000	35.735896
1166.000000	35.907837
1165.000000	36.055576
1164.000000	36.229036
1163.000000	36.364017
1162.000000	36.539300
1161.000000	36.668306
1160.000000	36.830020
1159.000000	36.946774
1158.000000	37.054009
1157.000000	37.143220
1156.000000	37.242962
1155.000000	37.300073
1154.000000	37.334097
1153.000000	37.347767
1152.000000	37.332274
1151.000000	37.300377
1150.000000	37.265746
1149.000000	37.237292
1148.000000	37.217242
1147.000000	37.223115
1146.000000	37.257645
1145.000000	37.319313
1144.000000	37.411562
1143.000000	37.502190
1142.000000	37.604464
1141.000000	37.725572
1140.000000	37.877362
1139.000000	37.971028
1138.000000	38.092744
1137.000000	38.249901
1136.000000	38.400577
1135.000000	38.522293
1134.000000	38.613326
1133.000000	38.663957
1132.000000	38.765117
1131.000000	38.847138
1130.000000	38.909818
1129.000000	38.953766
1128.000000	38.976651
1127.000000	38.996093
1126.000000	38.990220
1125.000000	38.998827
1124.000000	38.980195
1123.000000	38.949411
1122.000000	38.931488
1121.000000	38.893819
1120.000000	38.843087
1119.000000	38.805317
1118.000000	38.771901
1117.000000	38.699398
1116.000000	38.637528
1115.000000	38.596011
1114.000000	38.557734
1113.000000	38.521685
1112.000000	38.464270
1111.000000	38.412121
1110.000000	38.362402
1109.000000	38.309442
1108.000000	38.254863
1107.000000	38.214257
1106.000000	38.154716
1105.000000	38.105908
1104.000000	38.070568
1103.000000	38.008697
1102.000000	37.990268
1101.000000	37.951991
1100.000000	37.900753
1099.000000	37.861464
1098.000000	37.821770
1097.000000	37.789569
1096.000000	37.756254
1095.000000	37.717977
1094.000000	37.665423
1093.000000	37.618336
1092.000000	37.586541
1091.000000	37.548163
1090.000000	37.515455
1089.000000	37.470799
1088.000000	37.428877
1087.000000	37.389487
1086.000000	37.361944
1085.000000	37.305643
1084.000000	37.262404
1083.000000	37.214103
1082.000000	37.161346
1081.000000	37.113854
1080.000000	37.054009
1079.000000	37.012999
1078.000000	36.953660
1077.000000	36.910219
1076.000000	36.854019
1075.000000	36.792756
1074.000000	36.749011
1073.000000	36.697166
1072.000000	36.658585
1071.000000	36.613119
1070.000000	36.537984
1069.000000	36.487353
1068.000000	36.440672
1067.000000	36.372219
1066.000000	36.318551
1065.000000	36.280072
1064.000000	36.225492
1063.000000	36.191469
1062.000000	36.151977
1061.000000	36.095473
1060.000000	36.058817
1059.000000	36.016388
1058.000000	35.986516
1057.000000	35.949455
1056.000000	35.906925
1055.000000	35.861257
1054.000000	35.835030
1053.000000	35.814069
1052.000000	35.793108
1051.000000	35.775387
1050.000000	35.746832
1049.000000	35.716251
1048.000000	35.692758
1047.000000	35.675747
1046.000000	35.671595
1045.000000	35.672911
1044.000000	35.664405
1043.000000	35.656710
1042.000000	35.663393
1041.000000	35.678481
1040.000000	35.678481
1039.000000	35.701062
1038.000000	35.727491
1037.000000	35.752199
1036.000000	35.788653
1035.000000	35.833815
1034.000000	35.878977
1033.000000	35.920494
1032.000000	35.969403
1031.000000	36.030464
1030.000000	36.104080
1029.000000	36.175773
1028.000000	36.250301
1027.000000	36.323108
1026.000000	36.415053
1025.000000	36.512972
1024.000000	36.596816
1023.000000	36.683495
1022.000000	36.762479
1021.000000	36.844703
1020.000000	36.927939
1019.000000	37.014112
1018.000000	37.085906
1017.000000	37.165498
1016.000000	37.257442
1015.000000	37.351413
1014.000000	37.432320
1013.000000	37.525075
1012.000000	37.621273
1011.000000	37.709775
1010.000000	37.810023
1009.000000	37.918271
1008.000000	38.035430
1007.000000	38.149045
1006.000000	38.273900
1005.000000	38.394907
1004.000000	38.508116
1003.000000	38.621022
1002.000000	38.756813
1001.000000	38.891288
1000.000000	39.018876
999.000000	39.152440
998.000000	39.303723
997.000000	39.445084
996.000000	39.583609
995.000000	39.744917
994.000000	39.900353
993.000000	40.060953
992.000000	40.232388
991.000000	40.398557
990.000000	40.575460
989.000000	40.752059
988.000000	40.936860
987.000000	41.125711
986.000000	41.305348
985.000000	41.470606
984.000000	41.636472
983.000000	41.825526
982.000000	42.015390
981.000000	42.165763
980.000000	42.355222
979.000000	42.532530
978.000000	42.692218
977.000000	42.849983
976.000000	43.010988
975.000000	43.168145
974.000000	43.320036
973.000000	43.470408
972.000000	43.646805
971.000000	43.802544
970.000000	43.971043
969.000000	44.124959
968.000000	44.298217
967.000000	44.467322
966.000000	44.656275
965.000000	44.833988
964.000000	45.030232
963.000000	45.240146
962.000000	45.430921
961.000000	45.638304
960.000000	45.831813
959.000000	46.014691
958.000000	46.224301
957.000000	46.409102
956.000000	46.577398
955.000000	46.767059
954.000000	46.945380
953.000000	47.111448
952.000000	47.291085
951.000000	47.464241
950.000000	47.635878
949.000000	47.775112
948.000000	47.912726
947.000000	48.089325
946.000000	48.239495
945.000000	48.390475
944.000000	48.533455
943.000000	48.700941
942.000000	48.866604
941.000000	49.023254
940.000000	49.193069
939.000000	49.320962
938.000000	49.485308
937.000000	49.661603
936.000000	49.804685
935.000000	49.972677
934.000000	50.087709
933.000000	50.214893
932.000000	50.383594
931.000000	50.511183
930.000000	50.695275
929.000000	50.807573
928.000000	50.936377
927.000000	51.065789
926.000000	51.184467
925.000000	51.360154
924.000000	51.493819
923.000000	51.623331
922.000000	51.782007
921.000000	51.933190
920.000000	52.066449
919.000000	52.203962
918.000000	52.298641
917.000000	52.430584
916.000000	52.594626
915.000000	52.707127
914.000000	52.820540
913.000000	52.928484
912.000000	53.020732
911.000000	53.140524
910.000000	53.257278
909.000000	53.339806
908.000000	53.459192
907.000000	53.555086
906.000000	53.689966
905.000000	53.781202
904.000000	53.864540
903.000000	53.939675
902.000000	54.031114
901.000000	54.129540
900.000000	54.254394
899.000000	54.332163
898.000000	54.437170
897.000000	54.549165
896.000000	54.651337
895.000000	54.737308
894.000000	54.860745
893.000000	54.992485
892.000000	55.105189
891.000000	55.219816
890.000000	55.338089
889.000000	55.492107
888.000000	55.622025
887.000000	55.798320
886.000000	55.973096
885.000000	56.132278
884.000000	56.335003
883.000000	56.526690
882.000000	56.745818
881.000000	56.937303
880.000000	57.190860
879.000000	57.413229
878.000000	57.658483
877.000000	57.926521
876.000000	58.176939
875.000000	58.460571
874.000000	58.728406
873.000000	59.031784
872.000000	59.314100
871.000000	59.636109
870.000000	59.964195
869.000000	60.270408
868.000000	60.586342
867.000000	60.912908
866.000000	61.224387
865.000000	61.494247
864.000000	61.754589
863.000000	61.963491
862.000000	62.191024
861.000000	62.355877
860.000000	62.563158
859.000000	62.773983
858.000000	63.099233
857.000000	62.866700
856.000000	62.806400
855.000000	63.624600
854.000000	63.700000
853.000000	63.941200
852.000000	64.204300
851.000000	64.788200
850.000000	65.286600
849.000000	65.272100
848.000000	65.460300
847.000000	66.077900
846.000000	66.032400
845.000000	66.152800
844.000000	66.418500
843.000000	66.547500
842.000000	66.786700
841.000000	67.162400
840.000000	67.286100
839.000000	67.597100
838.000000	67.640100
837.000000	67.987500
836.000000	68.015300
835.000000	68.154300
834.000000	68.307900
833.000000	68.322800
832.000000	68.435900
831.000000	68.632700
830.000000	68.638800
829.000000	68.923300
828.000000	69.195500
827.000000	69.330100
826.000000	69.150200
825.000000	69.247700
824.000000	69.500100
823.000000	69.500300
822.000000	69.611200
821.000000	69.691100
820.000000	69.884500
819.000000	69.917200
818.000000	70.067100
817.000000	70.029300
816.000000	70.081500
815.000000	70.013300
814.000000	70.122900
813.000000	70.252300
812.000000	70.407300
811.000000	70.430900
810.000000	70.389600
809.000000	70.568100
808.000000	70.594900
807.000000	70.519200
806.000000	70.640300
805.000000	70.690200
804.000000	70.704200
803.000000	70.786400
802.000000	70.671000
801.000000	70.627400
800.000000	70.601500
799.000000	70.527300
798.000000	70.711800
797.000000	70.767800
796.000000	70.731800
795.000000	70.706800
794.000000	70.679900
793.000000	70.736700
792.000000	70.828300
791.000000	70.747900
790.000000	70.720200
789.000000	70.748300
788.000000	70.844000
787.000000	70.887400
786.000000	70.841700
785.000000	70.829800
784.000000	70.911800
783.000000	71.017800
782.000000	70.917600
781.000000	70.925200
780.000000	70.991200
779.000000	70.952000
778.000000	71.012700
777.000000	71.118700
776.000000	71.058900
775.000000	70.935700
774.000000	70.867200
773.000000	70.898000
772.000000	70.897700
771.000000	70.936400
770.000000	70.929300
769.000000	70.897700
768.000000	70.849000
767.000000	70.741100
766.000000	70.657300
765.000000	70.566800
764.000000	70.519900
763.000000	70.427400
762.000000	70.346000
761.000000	70.281600
760.000000	70.090600
759.000000	69.918900
758.000000	69.852100
757.000000	69.733500
756.000000	69.542900
755.000000	69.397300
754.000000	69.280600
753.000000	69.114800
752.000000	68.893000
751.000000	68.677000
750.000000	68.493200
749.000000	68.247000
748.000000	68.043900
747.000000	67.881800
746.000000	67.633500
745.000000	67.322900
744.000000	67.062600
743.000000	66.858100
742.000000	66.571900
741.000000	66.244800
740.000000	65.932800
739.000000	65.627400
738.000000	65.331500
737.000000	65.000600
736.000000	64.642800
735.000000	64.251200
734.000000	63.896100
733.000000	63.574000
732.000000	63.171800
731.000000	62.774300
730.000000	62.362600
729.000000	61.986000
728.000000	61.627600
727.000000	61.230600
726.000000	60.810000
725.000000	60.388300
724.000000	59.999800
723.000000	59.568000
722.000000	59.163800
721.000000	58.779600
720.000000	58.398000
719.000000	58.052200
718.000000	57.668300
717.000000	57.304600
716.000000	56.932200
715.000000	56.603900
714.000000	56.220700
713.000000	55.871500
712.000000	55.579500
711.000000	55.254600
710.000000	54.930200
709.000000	54.542800
708.000000	54.259100
707.000000	53.925500
706.000000	53.557700
705.000000	53.247500
704.000000	52.956800
703.000000	52.579900
702.000000	52.238500
701.000000	51.893100
700.000000	51.573000
699.000000	51.210800
698.000000	50.806500
697.000000	50.446700
696.000000	50.162900
695.000000	49.830800
694.000000	49.502600
693.000000	49.211800
692.000000	48.884800
691.000000	48.609300
690.000000	48.395300
689.000000	48.140800
688.000000	47.923600
687.000000	47.744900
686.000000	47.565200
685.000000	47.435700
684.000000	47.337700
683.000000	47.260800
682.000000	47.153100
681.000000	47.060200
680.000000	47.010400
679.000000	46.978600
678.000000	46.913400
677.000000	46.845000
676.000000	46.835000
675.000000	46.755100
674.000000	46.701000
673.000000	46.665500
672.000000	46.577700
671.000000	46.460600
670.000000	46.335900
669.000000	46.221300
668.000000	46.026300
667.000000	45.926300
666.000000	45.738300
665.000000	45.557900
664.000000	45.377600
663.000000	45.169300
662.000000	44.972800
661.000000	44.746900
660.000000	44.559600
659.000000	44.366200
658.000000	44.145900
657.000000	43.976700
656.000000	43.819600
655.000000	43.658700
654.000000	43.501900
653.000000	43.422300
652.000000	43.280500
651.000000	43.229200
650.000000	43.166300
649.000000	43.154200
648.000000	43.189800
647.000000	43.250800
646.000000	43.382800
645.000000	43.555600
644.000000	43.750100
643.000000	44.016600
642.000000	44.305900
641.000000	44.689200
640.000000	45.055700
639.000000	45.513000
638.000000	45.936000
637.000000	46.423600
636.000000	46.919100
635.000000	47.472300
634.000000	48.013900
633.000000	48.617400
632.000000	49.182200
631.000000	49.706400
630.000000	50.242500
629.000000	50.738200
628.000000	51.207500
627.000000	51.652900
626.000000	52.054100
625.000000	52.396900
624.000000	52.760000
623.000000	53.073100
622.000000	53.362600
621.000000	53.646100
620.000000	53.862600
619.000000	54.057700
618.000000	54.245400
617.000000	54.401300
616.000000	54.599900
615.000000	54.722400
614.000000	54.871700
613.000000	55.017600
612.000000	55.113200
611.000000	55.274000
610.000000	55.405200
609.000000	55.561200
608.000000	55.701100
607.000000	55.782600
606.000000	55.910200
605.000000	56.016400
604.000000	56.117000
603.000000	56.194400
602.000000	56.264700
601.000000	56.284900
600.000000	56.369700
599.000000	56.365300
598.000000	56.416100
597.000000	56.426500
596.000000	56.432400
595.000000	56.376700
594.000000	56.359000
593.000000	56.254400
592.000000	56.170500
591.000000	56.042700
590.000000	55.891800
589.000000	55.749000
588.000000	55.600600
587.000000	55.468100
586.000000	55.285600
585.000000	55.133600
584.000000	54.918900
583.000000	54.784400
582.000000	54.551500
581.000000	54.394500
580.000000	54.146200
579.000000	53.963200
578.000000	53.723300
577.000000	53.523800
576.000000	53.289800
575.000000	53.068200
574.000000	52.837500
573.000000	52.586600
572.000000	52.321200
571.000000	52.070100
570.000000	51.753300
569.000000	51.430300
568.000000	51.106900
567.000000	50.761800
566.000000	50.365700
565.000000	49.969400
564.000000	49.582000
563.000000	49.132400
562.000000	48.686700
561.000000	48.186300
560.000000	47.683100
559.000000	47.209000
558.000000	46.687100
557.000000	46.130100
556.000000	45.576800
555.000000	44.965400
554.000000	44.401100
553.000000	43.801200
552.000000	43.191700
551.000000	42.524900
550.000000	41.856600
549.000000	41.214400
548.000000	40.559000
547.000000	39.876200
546.000000	39.219100
545.000000	38.533700
544.000000	37.853900
543.000000	37.137300
542.000000	36.437200
541.000000	35.767500
540.000000	35.127300
539.000000	34.490900
538.000000	33.874800
537.000000	33.297700
536.000000	32.735300
535.000000	32.207100
534.000000	31.701100
533.000000	31.228900
532.000000	30.780100
531.000000	30.370100
530.000000	29.982000
529.000000	29.598900
528.000000	29.245300
527.000000	28.910800
526.000000	28.586000
525.000000	28.260200
524.000000	27.935500
523.000000	27.618700
522.000000	27.314400
521.000000	27.000100
520.000000	26.684300
519.000000	26.385100
518.000000	26.067300
517.000000	25.732600
516.000000	25.397200
515.000000	25.050700
514.000000	24.711400
513.000000	24.349700
512.000000	23.994600
511.000000	23.634400
510.000000	23.271300
509.000000	22.910600
508.000000	22.570900
507.000000	22.232000
506.000000	21.899800
505.000000	21.560600
504.000000	21.242900
503.000000	20.967500
502.000000	20.704100
501.000000	20.427100
500.000000	20.193900
499.000000	19.968500
498.000000	19.783100
497.000000	19.623700
496.000000	19.463500
495.000000	19.344900
494.000000	19.247700
493.000000	19.154500
492.000000	19.083400
491.000000	19.047500
490.000000	19.028500
489.000000	19.020400
488.000000	19.024100
487.000000	19.041300
486.000000	19.070500
485.000000	19.104500
484.000000	19.160500
483.000000	19.212400
482.000000	19.276600
481.000000	19.338900
480.000000	19.390700
479.000000	19.447300
478.000000	19.488500
477.000000	19.523100
476.000000	19.558000
475.000000	19.610400
474.000000	19.650200
473.000000	19.669500
472.000000	19.690000
471.000000	19.713500
470.000000	19.724000
469.000000	19.724600
468.000000	19.720900
467.000000	19.706500
466.000000	19.669200
465.000000	19.652200
464.000000	19.621700
463.000000	19.556700
462.000000	19.493500
461.000000	19.429400
460.000000	19.360400
459.000000	19.279800
458.000000	19.187800
457.000000	19.097000
456.000000	19.001700
455.000000	18.883300
454.000000	18.749000
453.000000	18.611300
452.000000	18.454700
451.000000	18.323000
450.000000	18.171400
449.000000	17.977700
448.000000	17.797800
447.000000	17.632800
446.000000	17.421300
445.000000	17.211700
444.000000	16.997200
443.000000	16.761800
442.000000	16.530800
441.000000	16.272400
440.000000	16.004300
439.000000	15.738200
438.000000	15.468800
437.000000	15.189300
436.000000	14.910500
435.000000	14.633400
434.000000	14.327300
433.000000	14.027000
432.000000	13.732900
431.000000	13.412000
430.000000	13.092900
429.000000	12.791600
428.000000	12.492500
427.000000	12.182500
426.000000	11.866800
425.000000	11.564400
424.000000	11.268000
423.000000	10.975200
422.000000	10.692000
421.000000	10.394900
420.000000	10.116000
419.000000	9.864400
418.000000	9.605600
417.000000	9.344700
416.000000	9.100500
415.000000	8.868500
414.000000	8.651900
413.000000	8.442400
412.000000	8.252500
411.000000	8.057800
410.000000	7.864000
409.000000	7.700100
408.000000	7.553600
407.000000	7.402000
406.000000	7.262600
405.000000	7.127400
404.000000	7.001700
403.000000	6.884800
402.000000	6.759900
401.000000	6.659100
400.000000	6.566000
399.000000	6.490100
398.000000	6.404000
397.000000	6.326600
396.000000	6.259700
395.000000	6.196400
394.000000	6.137000
393.000000	6.081400
392.000000	6.040600
391.000000	5.988400
390.000000	5.931700
389.000000	5.887000
388.000000	5.850100
387.000000	5.814500
386.000000	5.781900
385.000000	5.757300
384.000000	5.737300
383.000000	5.711700
382.000000	5.672300
381.000000	5.641600
380.000000	5.617400
379.000000	5.605600
378.000000	5.579300
377.000000	5.565800
376.000000	5.737200
375.000000	5.623100
374.000000	5.460400
373.000000	5.466600
372.000000	5.559400
371.000000	5.621800
370.000000	5.594200
369.000000	5.489700
368.000000	5.479100
367.000000	5.504400
366.000000	5.554100
365.000000	5.526000
364.000000	5.521800
363.000000	5.584400
362.000000	5.491800
361.000000	5.469000
360.000000	5.488500
359.000000	5.466700
358.000000	5.428700
357.000000	5.522400
356.000000	5.585300
355.000000	5.541600
354.000000	5.458700
353.000000	5.433800
352.000000	5.362500
351.000000	5.436300
350.000000	5.412500
349.000000	5.383100
348.000000	5.423400
347.000000	5.347600
346.000000	5.460200
345.000000	5.411700
344.000000	5.456200
343.000000	5.481500
342.000000	5.344000
341.000000	5.405800
340.000000	5.436200
339.000000	5.500800
338.000000	5.392600
337.000000	5.357100
336.000000	5.463800
335.000000	5.464300
334.000000	5.452400
333.000000	5.445400
332.000000	5.483500
331.000000	5.442200
330.000000	5.334200
329.000000	5.178600
328.000000	5.315600
327.000000	5.694400
326.000000	5.556500
325.000000	5.796100
324.000000	5.593100
323.000000	5.470700
322.000000	5.625200
321.000000	5.444300
320.000000	5.412900
319.000000	5.845100
318.000000	5.585600
317.000000	5.509500
316.000000	5.292600
315.000000	5.234100
314.000000	5.248700
313.000000	5.268900
312.000000	5.314000
311.000000	5.315900
310.000000	5.315200
309.000000	5.305800
308.000000	5.222500
307.000000	5.231500
306.000000	5.253600
305.000000	5.306100
304.000000	5.292200
303.000000	5.251400
302.000000	5.322700
301.000000	5.350900
300.000000	5.316200
299.000000	5.284700
298.000000	5.310700
297.000000	5.282800
296.000000	5.293200
295.000000	5.366100
294.000000	5.334400
293.000000	5.344700
292.000000	5.306800
291.000000	5.338300
290.000000	5.334400
289.000000	5.397600
288.000000	5.334300
287.000000	5.378200
286.000000	5.339400
285.000000	5.359400
284.000000	5.380600
283.000000	5.353300
282.000000	5.410000
281.000000	5.390100
280.000000	5.417100
279.000000	5.454500
278.000000	5.409800
277.000000	5.453900
276.000000	5.461000
275.000000	5.479900
274.000000	5.515000
273.000000	5.477100
272.000000	5.511700
271.000000	5.504400
270.000000	5.598000
269.000000	5.558200
268.000000	5.628400
267.000000	5.595300
266.000000	5.687200
265.000000	5.711100
264.000000	5.675000
263.000000	5.748600
262.000000	5.749900
261.000000	5.761500
260.000000	5.821600
259.000000	5.840600
258.000000	5.871300
257.000000	5.899400
256.000000	5.878900
255.000000	5.886600
254.000000	5.901500
253.000000	5.929200
252.000000	5.949800
251.000000	5.997100
250.000000	6.017900
