PE UV       SUBTECH     SPECTRUM    ASCII       PEDS        4.00        
   -1
CICIMAUCR0008-1.Sample.ASC
24/03/08
13:07:07.00
24/03/08
13:07:07.00
Vinicio Soto Monge
C. kalinini
250,000000
1
Lambda 1050
1050L1511233
PerkinElmer UV WinLab 6.3.2.0749 / 2.02.05 Lambda 900 UV/VIS/NIR, Aug  7 2015 09:38:08

0
0
3350/servo 860,8/2
0
0
UV/VIS
1
1
1
DoubleDePol,CommonBeamDepol,RBeamAtt,SBeamAtt,60mm sphere, WB InGaAs Detector
0
0
0
0
Program
Program
3350/servo 860,8/2
3350/0,2 860,8/0,2
3350/0,2 860,8/0,2
0
15.00
 
 
 
0
 
860,8
319,2
860,8
Front
100
on
S:100 R:100
0
0
0
0
 
0
 
 
 
0
 
 
0
0
0
0
0
 
 
 
 
0
0


0
0
#HDR
-1
-1
#GR
nm
%R
1.0
0.0
2500,000000
-1,000000
2251
8
36,165400
2,347300
#DATA
501.000000	1999.000000	6.775877
502.000000	1998.000000	6.779567
503.000000	1997.000000	6.763166
504.000000	1996.000000	6.717960
505.000000	1995.000000	6.711194
506.000000	1994.000000	6.694793
507.000000	1993.000000	6.673369
508.000000	1992.000000	6.641079
509.000000	1991.000000	6.612479
510.000000	1990.000000	6.591260
511.000000	1989.000000	6.553947
512.000000	1988.000000	6.528730
513.000000	1987.000000	6.516122
514.000000	1986.000000	6.478809
515.000000	1985.000000	6.465380
516.000000	1984.000000	6.421302
517.000000	1983.000000	6.386654
518.000000	1982.000000	6.347086
519.000000	1981.000000	6.337963
520.000000	1980.000000	6.314591
521.000000	1979.000000	6.272665
522.000000	1978.000000	6.246628
523.000000	1977.000000	6.210443
524.000000	1976.000000	6.177743
525.000000	1975.000000	6.145863
526.000000	1974.000000	6.108140
527.000000	1973.000000	6.050428
528.000000	1972.000000	6.067650
529.000000	1971.000000	6.040997
530.000000	1970.000000	6.006760
531.000000	1969.000000	5.981850
532.000000	1968.000000	5.936132
533.000000	1967.000000	5.919218
534.000000	1966.000000	5.896256
535.000000	1965.000000	5.884980
536.000000	1964.000000	5.822041
537.000000	1963.000000	5.802359
538.000000	1962.000000	5.781960
539.000000	1961.000000	5.744955
540.000000	1960.000000	5.718097
541.000000	1959.000000	5.700774
542.000000	1958.000000	5.652390
543.000000	1957.000000	5.632606
544.000000	1956.000000	5.626865
545.000000	1955.000000	5.579199
546.000000	1954.000000	5.571101
547.000000	1953.000000	5.539119
548.000000	1952.000000	5.503138
549.000000	1951.000000	5.491247
550.000000	1950.000000	5.463160
551.000000	1949.000000	5.438661
552.000000	1948.000000	5.416007
553.000000	1947.000000	5.396018
554.000000	1946.000000	5.370698
555.000000	1945.000000	5.368340
556.000000	1944.000000	5.335025
557.000000	1943.000000	5.329695
558.000000	1942.000000	5.322007
559.000000	1941.000000	5.295560
560.000000	1940.000000	5.312884
561.000000	1939.000000	5.288794
562.000000	1938.000000	5.296892
563.000000	1937.000000	5.285719
564.000000	1936.000000	5.284181
565.000000	1935.000000	5.286949
566.000000	1934.000000	5.297610
567.000000	1933.000000	5.313396
568.000000	1932.000000	5.336768
569.000000	1931.000000	5.364343
570.000000	1930.000000	5.382589
571.000000	1929.000000	5.405038
572.000000	1928.000000	5.412521
573.000000	1927.000000	5.449219
574.000000	1926.000000	5.463775
575.000000	1925.000000	5.503446
576.000000	1924.000000	5.544654
577.000000	1923.000000	5.588015
578.000000	1922.000000	5.636399
579.000000	1921.000000	5.702824
580.000000	1920.000000	5.752950
581.000000	1919.000000	5.793646
582.000000	1918.000000	5.842952
583.000000	1917.000000	5.900459
584.000000	1916.000000	5.978160
585.000000	1915.000000	6.054221
586.000000	1914.000000	6.104552
587.000000	1913.000000	6.162264
588.000000	1912.000000	6.254932
589.000000	1911.000000	6.309671
590.000000	1910.000000	6.386962
591.000000	1909.000000	6.457385
592.000000	1908.000000	6.535803
593.000000	1907.000000	6.615247
594.000000	1906.000000	6.742869
595.000000	1905.000000	6.821595
596.000000	1904.000000	6.897964
597.000000	1903.000000	6.989401
598.000000	1902.000000	7.076943
599.000000	1901.000000	7.189291
600.000000	1900.000000	7.281036
601.000000	1899.000000	7.375958
602.000000	1898.000000	7.465755
603.000000	1897.000000	7.567853
604.000000	1896.000000	7.673129
605.000000	1895.000000	7.780762
606.000000	1894.000000	7.895879
607.000000	1893.000000	8.014480
608.000000	1892.000000	8.119448
609.000000	1891.000000	8.215498
610.000000	1890.000000	8.321081
611.000000	1889.000000	8.420514
612.000000	1888.000000	8.562693
613.000000	1887.000000	8.676989
614.000000	1886.000000	8.815375
615.000000	1885.000000	8.973442
616.000000	1884.000000	9.131304
617.000000	1883.000000	9.275635
618.000000	1882.000000	9.439648
619.000000	1881.000000	9.632465
620.000000	1880.000000	9.808472
621.000000	1879.000000	9.993601
622.000000	1878.000000	10.157921
623.000000	1877.000000	10.328802
624.000000	1876.000000	10.486767
625.000000	1875.000000	10.624742
626.000000	1874.000000	10.753902
627.000000	1873.000000	10.877527
628.000000	1872.000000	11.000844
629.000000	1871.000000	11.081313
630.000000	1870.000000	11.138512
631.000000	1869.000000	11.210883
632.000000	1868.000000	11.274745
633.000000	1867.000000	11.322514
634.000000	1866.000000	11.400830
635.000000	1865.000000	11.439168
636.000000	1864.000000	11.489089
637.000000	1863.000000	11.561870
638.000000	1862.000000	11.605743
639.000000	1861.000000	11.636906
640.000000	1860.000000	11.672066
641.000000	1859.000000	11.697180
642.000000	1858.000000	11.689390
643.000000	1857.000000	11.689082
644.000000	1856.000000	11.698615
645.000000	1855.000000	11.714914
646.000000	1854.000000	11.711326
647.000000	1853.000000	11.690415
648.000000	1852.000000	11.677089
649.000000	1851.000000	11.693182
650.000000	1850.000000	11.720347
651.000000	1849.000000	11.740644
652.000000	1848.000000	11.697795
653.000000	1847.000000	11.618762
654.000000	1846.000000	11.564022
655.000000	1845.000000	11.556744
656.000000	1844.000000	11.579809
657.000000	1843.000000	11.605333
658.000000	1842.000000	11.611176
659.000000	1841.000000	11.591084
660.000000	1840.000000	11.551004
661.000000	1839.000000	11.523839
662.000000	1838.000000	11.524249
663.000000	1837.000000	11.508156
664.000000	1836.000000	11.464180
665.000000	1835.000000	11.414361
666.000000	1834.000000	11.391297
667.000000	1833.000000	11.372230
668.000000	1832.000000	11.357469
669.000000	1831.000000	11.348038
670.000000	1830.000000	11.314518
671.000000	1829.000000	11.286431
672.000000	1828.000000	11.242147
673.000000	1827.000000	11.207910
674.000000	1826.000000	11.181053
675.000000	1825.000000	11.152146
676.000000	1824.000000	11.135949
677.000000	1823.000000	11.153991
678.000000	1822.000000	11.163011
679.000000	1821.000000	11.136359
680.000000	1820.000000	11.097714
681.000000	1819.000000	11.053328
682.000000	1818.000000	11.058351
683.000000	1817.000000	11.078750
684.000000	1816.000000	11.080287
685.000000	1815.000000	11.070344
686.000000	1814.000000	11.060503
687.000000	1813.000000	11.048715
688.000000	1812.000000	11.057223
689.000000	1811.000000	11.048100
690.000000	1810.000000	11.022165
691.000000	1809.000000	11.008737
692.000000	1808.000000	10.999614
693.000000	1807.000000	10.987415
694.000000	1806.000000	10.966401
695.000000	1805.000000	10.939442
696.000000	1804.000000	10.924988
697.000000	1803.000000	10.907152
698.000000	1802.000000	10.891160
699.000000	1801.000000	10.874657
700.000000	1800.000000	10.844929
701.000000	1799.000000	10.829553
702.000000	1798.000000	10.806489
703.000000	1797.000000	10.786705
704.000000	1796.000000	10.765486
705.000000	1795.000000	10.755952
706.000000	1794.000000	10.756362
707.000000	1793.000000	10.729300
708.000000	1792.000000	10.720997
709.000000	1791.000000	10.700188
710.000000	1790.000000	10.677124
711.000000	1789.000000	10.640836
712.000000	1788.000000	10.640631
713.000000	1787.000000	10.609674
714.000000	1786.000000	10.595527
715.000000	1785.000000	10.565595
716.000000	1784.000000	10.558112
717.000000	1783.000000	10.533100
718.000000	1782.000000	10.499067
719.000000	1781.000000	10.457859
720.000000	1780.000000	10.447916
721.000000	1779.000000	10.424134
722.000000	1778.000000	10.399840
723.000000	1777.000000	10.355044
724.000000	1776.000000	10.305430
725.000000	1775.000000	10.272320
726.000000	1774.000000	10.229472
727.000000	1773.000000	10.199949
728.000000	1772.000000	10.155871
729.000000	1771.000000	10.116918
730.000000	1770.000000	10.062589
731.000000	1769.000000	10.032144
732.000000	1768.000000	10.012770
733.000000	1767.000000	9.977302
734.000000	1766.000000	9.939067
735.000000	1765.000000	9.912415
736.000000	1764.000000	9.898166
737.000000	1763.000000	9.902676
738.000000	1762.000000	9.904316
739.000000	1761.000000	9.917130
740.000000	1760.000000	9.941322
741.000000	1759.000000	9.977917
742.000000	1758.000000	10.003032
743.000000	1757.000000	10.017485
744.000000	1756.000000	10.050083
745.000000	1755.000000	10.061359
746.000000	1754.000000	10.079913
747.000000	1753.000000	10.072019
748.000000	1752.000000	10.077350
749.000000	1751.000000	10.076017
750.000000	1750.000000	10.076427
751.000000	1749.000000	10.067304
752.000000	1748.000000	10.043317
753.000000	1747.000000	10.004877
754.000000	1746.000000	9.987450
755.000000	1745.000000	9.941527
756.000000	1744.000000	9.919078
757.000000	1743.000000	9.864236
758.000000	1742.000000	9.785510
759.000000	1741.000000	9.704221
760.000000	1740.000000	9.639743
761.000000	1739.000000	9.565630
762.000000	1738.000000	9.491825
763.000000	1737.000000	9.434010
764.000000	1736.000000	9.385011
765.000000	1735.000000	9.340625
766.000000	1734.000000	9.338883
767.000000	1733.000000	9.336320
768.000000	1732.000000	9.360204
769.000000	1731.000000	9.362255
770.000000	1730.000000	9.387061
771.000000	1729.000000	9.425297
772.000000	1728.000000	9.466198
773.000000	1727.000000	9.495925
774.000000	1726.000000	9.540823
775.000000	1725.000000	9.555584
776.000000	1724.000000	9.559787
777.000000	1723.000000	9.603558
778.000000	1722.000000	9.610221
779.000000	1721.000000	9.631338
780.000000	1720.000000	9.606941
781.000000	1719.000000	9.642101
782.000000	1718.000000	9.640461
783.000000	1717.000000	9.661373
784.000000	1716.000000	9.678799
785.000000	1715.000000	9.737126
786.000000	1714.000000	9.737639
787.000000	1713.000000	9.770031
788.000000	1712.000000	9.807959
789.000000	1711.000000	9.808984
790.000000	1710.000000	9.817390
791.000000	1709.000000	9.818517
792.000000	1708.000000	9.828973
793.000000	1707.000000	9.810829
794.000000	1706.000000	9.812674
795.000000	1705.000000	9.801091
796.000000	1704.000000	9.789098
797.000000	1703.000000	9.743482
798.000000	1702.000000	9.708014
799.000000	1701.000000	9.649994
800.000000	1700.000000	9.602738
801.000000	1699.000000	9.584697
802.000000	1698.000000	9.510788
803.000000	1697.000000	9.469068
804.000000	1696.000000	9.432267
805.000000	1695.000000	9.450001
806.000000	1694.000000	9.461892
807.000000	1693.000000	9.484546
808.000000	1692.000000	9.503510
809.000000	1691.000000	9.573728
810.000000	1690.000000	9.602841
811.000000	1689.000000	9.667933
812.000000	1688.000000	9.703196
813.000000	1687.000000	9.713242
814.000000	1686.000000	9.706681
815.000000	1685.000000	9.725030
816.000000	1684.000000	9.763471
817.000000	1683.000000	9.815340
818.000000	1682.000000	9.912927
819.000000	1681.000000	10.052645
820.000000	1680.000000	10.233469
821.000000	1679.000000	10.414703
822.000000	1678.000000	10.609058
823.000000	1677.000000	10.787422
824.000000	1676.000000	10.942414
825.000000	1675.000000	11.075982
826.000000	1674.000000	11.199812
827.000000	1673.000000	11.309495
828.000000	1672.000000	11.415693
829.000000	1671.000000	11.478326
830.000000	1670.000000	11.554797
831.000000	1669.000000	11.599900
832.000000	1668.000000	11.703741
833.000000	1667.000000	11.760428
834.000000	1666.000000	11.813937
835.000000	1665.000000	11.851045
836.000000	1664.000000	11.875441
837.000000	1663.000000	11.913574
838.000000	1662.000000	11.927105
839.000000	1661.000000	11.942277
840.000000	1660.000000	11.959395
841.000000	1659.000000	11.971081
842.000000	1658.000000	11.980615
843.000000	1657.000000	11.994453
844.000000	1656.000000	11.987893
845.000000	1655.000000	11.994146
846.000000	1654.000000	12.009009
847.000000	1653.000000	11.994351
848.000000	1652.000000	12.005012
849.000000	1651.000000	11.975079
850.000000	1650.000000	11.985535
851.000000	1649.000000	11.987175
852.000000	1648.000000	11.954988
853.000000	1647.000000	11.953758
854.000000	1646.000000	11.944019
855.000000	1645.000000	11.920955
856.000000	1644.000000	11.907424
857.000000	1643.000000	11.899223
858.000000	1642.000000	11.871239
859.000000	1641.000000	11.858528
860.000000	1640.000000	11.831158
861.000000	1639.000000	11.808401
862.000000	1638.000000	11.797023
863.000000	1637.000000	11.782467
864.000000	1636.000000	11.760735
865.000000	1635.000000	11.735518
866.000000	1634.000000	11.736543
867.000000	1633.000000	11.700563
868.000000	1632.000000	11.675551
869.000000	1631.000000	11.654332
870.000000	1630.000000	11.624297
871.000000	1629.000000	11.594672
872.000000	1628.000000	11.590674
873.000000	1627.000000	11.542496
874.000000	1626.000000	11.524967
875.000000	1625.000000	11.503850
876.000000	1624.000000	11.482324
877.000000	1623.000000	11.448598
878.000000	1622.000000	11.416821
879.000000	1621.000000	11.398575
880.000000	1620.000000	11.360852
881.000000	1619.000000	11.351421
882.000000	1618.000000	11.340453
883.000000	1617.000000	11.323641
884.000000	1616.000000	11.285508
885.000000	1615.000000	11.260394
886.000000	1614.000000	11.253936
887.000000	1613.000000	11.230872
888.000000	1612.000000	11.215085
889.000000	1611.000000	11.186281
890.000000	1610.000000	11.165164
891.000000	1609.000000	11.130516
892.000000	1608.000000	11.103557
893.000000	1607.000000	11.070857
894.000000	1606.000000	11.055481
895.000000	1605.000000	11.050868
896.000000	1604.000000	11.021140
897.000000	1603.000000	10.972552
898.000000	1602.000000	10.961993
899.000000	1601.000000	10.952255
900.000000	1600.000000	10.932471
901.000000	1599.000000	10.908484
902.000000	1598.000000	10.875067
903.000000	1597.000000	10.858460
904.000000	1596.000000	10.837651
905.000000	1595.000000	10.816022
906.000000	1594.000000	10.791318
907.000000	1593.000000	10.765486
908.000000	1592.000000	10.747444
909.000000	1591.000000	10.740166
910.000000	1590.000000	10.715564
911.000000	1589.000000	10.694653
912.000000	1588.000000	10.676099
913.000000	1587.000000	10.673638
914.000000	1586.000000	10.668718
915.000000	1585.000000	10.645449
916.000000	1584.000000	10.638273
917.000000	1583.000000	10.617259
918.000000	1582.000000	10.597270
919.000000	1581.000000	10.582304
920.000000	1580.000000	10.567440
921.000000	1579.000000	10.583021
922.000000	1578.000000	10.578716
923.000000	1577.000000	10.557189
924.000000	1576.000000	10.563647
925.000000	1575.000000	10.563442
926.000000	1574.000000	10.557394
927.000000	1573.000000	10.555139
928.000000	1572.000000	10.540173
929.000000	1571.000000	10.540993
930.000000	1570.000000	10.549501
931.000000	1569.000000	10.547554
932.000000	1568.000000	10.548681
933.000000	1567.000000	10.574718
934.000000	1566.000000	10.589274
935.000000	1565.000000	10.584764
936.000000	1564.000000	10.589787
937.000000	1563.000000	10.597475
938.000000	1562.000000	10.605778
939.000000	1561.000000	10.607008
940.000000	1560.000000	10.611519
941.000000	1559.000000	10.617669
942.000000	1558.000000	10.633455
943.000000	1557.000000	10.637863
944.000000	1556.000000	10.626792
945.000000	1555.000000	10.637556
946.000000	1554.000000	10.639401
947.000000	1553.000000	10.610904
948.000000	1552.000000	10.607931
949.000000	1551.000000	10.618182
950.000000	1550.000000	10.609776
951.000000	1549.000000	10.615927
952.000000	1548.000000	10.608956
953.000000	1547.000000	10.601575
954.000000	1546.000000	10.610494
955.000000	1545.000000	10.607931
956.000000	1544.000000	10.592247
957.000000	1543.000000	10.591735
958.000000	1542.000000	10.590402
959.000000	1541.000000	10.590915
960.000000	1540.000000	10.584149
961.000000	1539.000000	10.572258
962.000000	1538.000000	10.579024
963.000000	1537.000000	10.595937
964.000000	1536.000000	10.593785
965.000000	1535.000000	10.582919
966.000000	1534.000000	10.588454
967.000000	1533.000000	10.587942
968.000000	1532.000000	10.577589
969.000000	1531.000000	10.581074
970.000000	1530.000000	10.575026
971.000000	1529.000000	10.570926
972.000000	1528.000000	10.549296
973.000000	1527.000000	10.533920
974.000000	1526.000000	10.541608
975.000000	1525.000000	10.537303
976.000000	1524.000000	10.517519
977.000000	1523.000000	10.512701
978.000000	1522.000000	10.497837
979.000000	1521.000000	10.491687
980.000000	1520.000000	10.471288
981.000000	1519.000000	10.449966
982.000000	1518.000000	10.434898
983.000000	1517.000000	10.429157
984.000000	1516.000000	10.414088
985.000000	1515.000000	10.394509
986.000000	1514.000000	10.386821
987.000000	1513.000000	10.371650
988.000000	1512.000000	10.355659
989.000000	1511.000000	10.343870
990.000000	1510.000000	10.331775
991.000000	1509.000000	10.303687
992.000000	1508.000000	10.298869
993.000000	1507.000000	10.280111
994.000000	1506.000000	10.260942
995.000000	1505.000000	10.256739
996.000000	1504.000000	10.221681
997.000000	1503.000000	10.203435
998.000000	1502.000000	10.198924
999.000000	1501.000000	10.179140
1000.000000	1500.000000	10.169504
1001.000000	1499.000000	10.156486
1002.000000	1498.000000	10.149515
1003.000000	1497.000000	10.121941
1004.000000	1496.000000	10.109537
1005.000000	1495.000000	10.115175
1006.000000	1494.000000	10.114970
1007.000000	1493.000000	10.090573
1008.000000	1492.000000	10.091086
1009.000000	1491.000000	10.074377
1010.000000	1490.000000	10.071302
1011.000000	1489.000000	10.065151
1012.000000	1488.000000	10.067817
1013.000000	1487.000000	10.069354
1014.000000	1486.000000	10.050185
1015.000000	1485.000000	10.033169
1016.000000	1484.000000	10.052133
1017.000000	1483.000000	10.054081
1018.000000	1482.000000	10.061666
1019.000000	1481.000000	10.037782
1020.000000	1480.000000	10.041677
1021.000000	1479.000000	10.042395
1022.000000	1478.000000	10.056233
1023.000000	1477.000000	10.050493
1024.000000	1476.000000	10.064536
1025.000000	1475.000000	10.048955
1026.000000	1474.000000	10.084525
1027.000000	1473.000000	10.061974
1028.000000	1472.000000	10.074582
1029.000000	1471.000000	10.093854
1030.000000	1470.000000	10.111485
1031.000000	1469.000000	10.094264
1032.000000	1468.000000	10.099799
1033.000000	1467.000000	10.121223
1034.000000	1466.000000	10.118045
1035.000000	1465.000000	10.102259
1036.000000	1464.000000	10.129219
1037.000000	1463.000000	10.134754
1038.000000	1462.000000	10.140495
1039.000000	1461.000000	10.190314
1040.000000	1460.000000	10.194926
1041.000000	1459.000000	10.192774
1042.000000	1458.000000	10.227319
1043.000000	1457.000000	10.257251
1044.000000	1456.000000	10.271500
1045.000000	1455.000000	10.300100
1046.000000	1454.000000	10.331570
1047.000000	1453.000000	10.340590
1048.000000	1452.000000	10.380773
1049.000000	1451.000000	10.400045
1050.000000	1450.000000	10.441868
1051.000000	1449.000000	10.463395
1052.000000	1448.000000	10.508293
1053.000000	1447.000000	10.539148
1054.000000	1446.000000	10.593580
1055.000000	1445.000000	10.609469
1056.000000	1444.000000	10.646166
1057.000000	1443.000000	10.658775
1058.000000	1442.000000	10.726533
1059.000000	1441.000000	10.767433
1060.000000	1440.000000	10.785372
1061.000000	1439.000000	10.865328
1062.000000	1438.000000	10.896901
1063.000000	1437.000000	10.897618
1064.000000	1436.000000	10.960866
1065.000000	1435.000000	11.004534
1066.000000	1434.000000	11.024626
1067.000000	1433.000000	11.074239
1068.000000	1432.000000	11.136462
1069.000000	1431.000000	11.150608
1070.000000	1430.000000	11.205347
1071.000000	1429.000000	11.266032
1072.000000	1428.000000	11.310520
1073.000000	1427.000000	11.380738
1074.000000	1426.000000	11.428199
1075.000000	1425.000000	11.492164
1076.000000	1424.000000	11.566175
1077.000000	1423.000000	11.629012
1078.000000	1422.000000	11.692465
1079.000000	1421.000000	11.751407
1080.000000	1420.000000	11.840896
1081.000000	1419.000000	11.926798
1082.000000	1418.000000	11.993838
1083.000000	1417.000000	12.024283
1084.000000	1416.000000	12.124126
1085.000000	1415.000000	12.214640
1086.000000	1414.000000	12.286088
1087.000000	1413.000000	12.339085
1088.000000	1412.000000	12.393927
1089.000000	1411.000000	12.492437
1090.000000	1410.000000	12.596277
1091.000000	1409.000000	12.691405
1092.000000	1408.000000	12.779151
1093.000000	1407.000000	12.889347
1094.000000	1406.000000	12.997391
1095.000000	1405.000000	13.104409
1096.000000	1404.000000	13.213478
1097.000000	1403.000000	13.308297
1098.000000	1402.000000	13.447401
1099.000000	1401.000000	13.559032
1100.000000	1400.000000	13.598292
1101.000000	1399.000000	13.638475
1102.000000	1398.000000	13.699673
1103.000000	1397.000000	13.763843
1104.000000	1396.000000	13.830473
1105.000000	1395.000000	13.821350
1106.000000	1394.000000	13.833753
1107.000000	1393.000000	13.850974
1108.000000	1392.000000	13.879882
1109.000000	1391.000000	13.882137
1110.000000	1390.000000	13.906841
1111.000000	1389.000000	13.977059
1112.000000	1388.000000	14.021548
1113.000000	1387.000000	14.083360
1114.000000	1386.000000	14.177975
1115.000000	1385.000000	14.327739
1116.000000	1384.000000	14.502207
1117.000000	1383.000000	14.678726
1118.000000	1382.000000	14.830130
1119.000000	1381.000000	14.979689
1120.000000	1380.000000	15.098803
1121.000000	1379.000000	15.303717
1122.000000	1378.000000	15.487924
1123.000000	1377.000000	15.641788
1124.000000	1376.000000	15.861667
1125.000000	1375.000000	16.088415
1126.000000	1374.000000	16.339559
1127.000000	1373.000000	16.584758
1128.000000	1372.000000	16.844001
1129.000000	1371.000000	17.073004
1130.000000	1370.000000	17.281710
1131.000000	1369.000000	17.454026
1132.000000	1368.000000	17.624291
1133.000000	1367.000000	17.766265
1134.000000	1366.000000	17.887429
1135.000000	1365.000000	17.990347
1136.000000	1364.000000	18.063230
1137.000000	1363.000000	18.156718
1138.000000	1362.000000	18.258303
1139.000000	1361.000000	18.294693
1140.000000	1360.000000	18.323293
1141.000000	1359.000000	18.362348
1142.000000	1358.000000	18.407144
1143.000000	1357.000000	18.481770
1144.000000	1356.000000	18.595041
1145.000000	1355.000000	18.738348
1146.000000	1354.000000	18.934958
1147.000000	1353.000000	19.152070
1148.000000	1352.000000	19.371949
1149.000000	1351.000000	19.590086
1150.000000	1350.000000	19.819294
1151.000000	1349.000000	20.016929
1152.000000	1348.000000	20.191603
1153.000000	1347.000000	20.361048
1154.000000	1346.000000	20.521883
1155.000000	1345.000000	20.690611
1156.000000	1344.000000	20.819054
1157.000000	1343.000000	20.974353
1158.000000	1342.000000	21.123092
1159.000000	1341.000000	21.260863
1160.000000	1340.000000	21.393303
1161.000000	1339.000000	21.528716
1162.000000	1338.000000	21.691601
1163.000000	1337.000000	21.808563
1164.000000	1336.000000	21.945616
1165.000000	1335.000000	22.059707
1166.000000	1334.000000	22.181692
1167.000000	1333.000000	22.290965
1168.000000	1332.000000	22.409772
1169.000000	1331.000000	22.519660
1170.000000	1330.000000	22.617863
1171.000000	1329.000000	22.731237
1172.000000	1328.000000	22.836102
1173.000000	1327.000000	22.930820
1174.000000	1326.000000	23.022359
1175.000000	1325.000000	23.109593
1176.000000	1324.000000	23.179094
1177.000000	1323.000000	23.256385
1178.000000	1322.000000	23.325680
1179.000000	1321.000000	23.400203
1180.000000	1320.000000	23.472984
1181.000000	1319.000000	23.534079
1182.000000	1318.000000	23.600914
1183.000000	1317.000000	23.672567
1184.000000	1316.000000	23.737762
1185.000000	1315.000000	23.795269
1186.000000	1314.000000	23.849291
1187.000000	1313.000000	23.888039
1188.000000	1312.000000	23.925864
1189.000000	1311.000000	23.962152
1190.000000	1310.000000	24.003155
1191.000000	1309.000000	24.038418
1192.000000	1308.000000	24.080856
1193.000000	1307.000000	24.110173
1194.000000	1306.000000	24.131187
1195.000000	1305.000000	24.136518
1196.000000	1304.000000	24.142566
1197.000000	1303.000000	24.168398
1198.000000	1302.000000	24.179674
1199.000000	1301.000000	24.191975
1200.000000	1300.000000	24.198023
1201.000000	1299.000000	24.201200
1202.000000	1298.000000	24.202635
1203.000000	1297.000000	24.201200
1204.000000	1296.000000	24.204481
1205.000000	1295.000000	24.207351
1206.000000	1294.000000	24.205813
1207.000000	1293.000000	24.208888
1208.000000	1292.000000	24.206121
1209.000000	1291.000000	24.196280
1210.000000	1290.000000	24.169115
1211.000000	1289.000000	24.147384
1212.000000	1288.000000	24.132212
1213.000000	1287.000000	24.121039
1214.000000	1286.000000	24.107098
1215.000000	1285.000000	24.076961
1216.000000	1284.000000	24.039135
1217.000000	1283.000000	24.014533
1218.000000	1282.000000	24.007973
1219.000000	1281.000000	23.986139
1220.000000	1280.000000	23.965330
1221.000000	1279.000000	23.943905
1222.000000	1278.000000	23.922071
1223.000000	1277.000000	23.896137
1224.000000	1276.000000	23.881068
1225.000000	1275.000000	23.857286
1226.000000	1274.000000	23.844575
1227.000000	1273.000000	23.823151
1228.000000	1272.000000	23.788811
1229.000000	1271.000000	23.779073
1230.000000	1270.000000	23.758264
1231.000000	1269.000000	23.743605
1232.000000	1268.000000	23.722283
1233.000000	1267.000000	23.684458
1234.000000	1266.000000	23.665186
1235.000000	1265.000000	23.638944
1236.000000	1264.000000	23.606039
1237.000000	1263.000000	23.580412
1238.000000	1262.000000	23.538897
1239.000000	1261.000000	23.510809
1240.000000	1260.000000	23.482620
1241.000000	1259.000000	23.440591
1242.000000	1258.000000	23.401331
1243.000000	1257.000000	23.376934
1244.000000	1256.000000	23.337981
1245.000000	1255.000000	23.301591
1246.000000	1254.000000	23.264585
1247.000000	1253.000000	23.212306
1248.000000	1252.000000	23.167715
1249.000000	1251.000000	23.127225
1250.000000	1250.000000	23.084889
1251.000000	1249.000000	23.032302
1252.000000	1248.000000	22.999807
1253.000000	1247.000000	22.935637
1254.000000	1246.000000	22.889201
1255.000000	1245.000000	22.832207
1256.000000	1244.000000	22.775212
1257.000000	1243.000000	22.719141
1258.000000	1242.000000	22.674037
1259.000000	1241.000000	22.620118
1260.000000	1240.000000	22.557691
1261.000000	1239.000000	22.498236
1262.000000	1238.000000	22.430991
1263.000000	1237.000000	22.359748
1264.000000	1236.000000	22.309006
1265.000000	1235.000000	22.240326
1266.000000	1234.000000	22.174003
1267.000000	1233.000000	22.124185
1268.000000	1232.000000	22.051814
1269.000000	1231.000000	21.976881
1270.000000	1230.000000	21.905638
1271.000000	1229.000000	21.817378
1272.000000	1228.000000	21.749928
1273.000000	1227.000000	21.679710
1274.000000	1226.000000	21.600574
1275.000000	1225.000000	21.511085
1276.000000	1224.000000	21.428463
1277.000000	1223.000000	21.346047
1278.000000	1222.000000	21.256762
1279.000000	1221.000000	21.191157
1280.000000	1220.000000	21.112021
1281.000000	1219.000000	21.037806
1282.000000	1218.000000	20.971380
1283.000000	1217.000000	20.912643
1284.000000	1216.000000	20.854931
1285.000000	1215.000000	20.795579
1286.000000	1214.000000	20.710805
1287.000000	1213.000000	20.675440
1288.000000	1212.000000	20.623161
1289.000000	1211.000000	20.562476
1290.000000	1210.000000	20.508352
1291.000000	1209.000000	20.466221
1292.000000	1208.000000	20.449205
1293.000000	1207.000000	20.407689
1294.000000	1206.000000	20.383395
1295.000000	1205.000000	20.346082
1296.000000	1204.000000	20.352848
1297.000000	1203.000000	20.343724
1298.000000	1202.000000	20.346800
1299.000000	1201.000000	20.330091
1300.000000	1200.000000	20.322813
1301.000000	1199.000000	20.286115
1302.000000	1198.000000	20.266638
1303.000000	1197.000000	20.205134
1304.000000	1196.000000	20.131020
1305.000000	1195.000000	20.020927
1306.000000	1194.000000	19.911448
1307.000000	1193.000000	19.753586
1308.000000	1192.000000	19.599619
1309.000000	1191.000000	19.377997
1310.000000	1190.000000	19.186820
1311.000000	1189.000000	19.029163
1312.000000	1188.000000	18.900720
1313.000000	1187.000000	18.851619
1314.000000	1186.000000	18.822609
1315.000000	1185.000000	18.854489
1316.000000	1184.000000	18.928500
1317.000000	1183.000000	19.049562
1318.000000	1182.000000	19.261651
1319.000000	1181.000000	19.466256
1320.000000	1180.000000	19.668197
1321.000000	1179.000000	19.874545
1322.000000	1178.000000	20.104368
1323.000000	1177.000000	20.243574
1324.000000	1176.000000	20.412815
1325.000000	1175.000000	20.532236
1326.000000	1174.000000	20.671852
1327.000000	1173.000000	20.806445
1328.000000	1172.000000	20.952006
1329.000000	1171.000000	21.110894
1330.000000	1170.000000	21.268756
1331.000000	1169.000000	21.419340
1332.000000	1168.000000	21.578022
1333.000000	1167.000000	21.753003
1334.000000	1166.000000	21.925012
1335.000000	1165.000000	22.085642
1336.000000	1164.000000	22.269541
1337.000000	1163.000000	22.467586
1338.000000	1162.000000	22.640517
1339.000000	1161.000000	22.818061
1340.000000	1160.000000	22.995297
1341.000000	1159.000000	23.165665
1342.000000	1158.000000	23.349564
1343.000000	1157.000000	23.478109
1344.000000	1156.000000	23.626746
1345.000000	1155.000000	23.728024
1346.000000	1154.000000	23.804905
1347.000000	1153.000000	23.867434
1348.000000	1152.000000	23.893164
1349.000000	1151.000000	23.914896
1350.000000	1150.000000	23.914896
1351.000000	1149.000000	23.928017
1352.000000	1148.000000	23.955489
1353.000000	1147.000000	23.966765
1354.000000	1146.000000	24.038418
1355.000000	1145.000000	24.132930
1356.000000	1144.000000	24.260142
1357.000000	1143.000000	24.422207
1358.000000	1142.000000	24.599956
1359.000000	1141.000000	24.778115
1360.000000	1140.000000	24.947663
1361.000000	1139.000000	25.147144
1362.000000	1138.000000	25.371841
1363.000000	1137.000000	25.557790
1364.000000	1136.000000	25.792226
1365.000000	1135.000000	26.014258
1366.000000	1134.000000	26.185036
1367.000000	1133.000000	26.358992
1368.000000	1132.000000	26.527720
1369.000000	1131.000000	26.712645
1370.000000	1130.000000	26.873070
1371.000000	1129.000000	26.988801
1372.000000	1128.000000	27.101867
1373.000000	1127.000000	27.161424
1374.000000	1126.000000	27.250606
1375.000000	1125.000000	27.276438
1376.000000	1124.000000	27.332510
1377.000000	1123.000000	27.387762
1378.000000	1122.000000	27.409289
1379.000000	1121.000000	27.435428
1380.000000	1120.000000	27.443219
1381.000000	1119.000000	27.482787
1382.000000	1118.000000	27.485759
1383.000000	1117.000000	27.460030
1384.000000	1116.000000	27.483914
1385.000000	1115.000000	27.470486
1386.000000	1114.000000	27.498470
1387.000000	1113.000000	27.488732
1388.000000	1112.000000	27.477661
1389.000000	1111.000000	27.481762
1390.000000	1110.000000	27.492730
1391.000000	1109.000000	27.478686
1392.000000	1108.000000	27.449472
1393.000000	1107.000000	27.435633
1394.000000	1106.000000	27.447422
1395.000000	1105.000000	27.442911
1396.000000	1104.000000	27.443629
1397.000000	1103.000000	27.416259
1398.000000	1102.000000	27.419642
1399.000000	1101.000000	27.408366
1400.000000	1100.000000	27.401908
1401.000000	1099.000000	27.382637
1402.000000	1098.000000	27.368080
1403.000000	1097.000000	27.354139
1404.000000	1096.000000	27.326155
1405.000000	1095.000000	27.325232
1406.000000	1094.000000	27.304423
1407.000000	1093.000000	27.299503
1408.000000	1092.000000	27.283511
1409.000000	1091.000000	27.253374
1410.000000	1090.000000	27.224159
1411.000000	1089.000000	27.199762
1412.000000	1088.000000	27.173725
1413.000000	1087.000000	27.138258
1414.000000	1086.000000	27.111606
1415.000000	1085.000000	27.072755
1416.000000	1084.000000	27.048256
1417.000000	1083.000000	27.019963
1418.000000	1082.000000	26.987571
1419.000000	1081.000000	26.954461
1420.000000	1080.000000	26.934267
1421.000000	1079.000000	26.901874
1422.000000	1078.000000	26.862921
1423.000000	1077.000000	26.835244
1424.000000	1076.000000	26.801929
1425.000000	1075.000000	26.779275
1426.000000	1074.000000	26.748317
1427.000000	1073.000000	26.718488
1428.000000	1072.000000	26.689273
1429.000000	1071.000000	26.664158
1430.000000	1070.000000	26.631766
1431.000000	1069.000000	26.579282
1432.000000	1068.000000	26.546069
1433.000000	1067.000000	26.523620
1434.000000	1066.000000	26.487435
1435.000000	1065.000000	26.453095
1436.000000	1064.000000	26.439564
1437.000000	1063.000000	26.408401
1438.000000	1062.000000	26.362888
1439.000000	1061.000000	26.337363
1440.000000	1060.000000	26.303536
1441.000000	1059.000000	26.267453
1442.000000	1058.000000	26.246644
1443.000000	1057.000000	26.207588
1444.000000	1056.000000	26.167815
1445.000000	1055.000000	26.148338
1446.000000	1054.000000	26.112871
1447.000000	1053.000000	26.084784
1448.000000	1052.000000	26.061924
1449.000000	1051.000000	26.040603
1450.000000	1050.000000	26.002675
1451.000000	1049.000000	25.976843
1452.000000	1048.000000	25.966899
1453.000000	1047.000000	25.949371
1454.000000	1046.000000	25.919336
1455.000000	1045.000000	25.886943
1456.000000	1044.000000	25.871055
1457.000000	1043.000000	25.853833
1458.000000	1042.000000	25.814470
1459.000000	1041.000000	25.787716
1460.000000	1040.000000	25.781975
1461.000000	1039.000000	25.764959
1462.000000	1038.000000	25.733899
1463.000000	1037.000000	25.684593
1464.000000	1036.000000	25.656403
1465.000000	1035.000000	25.636311
1466.000000	1034.000000	25.601664
1467.000000	1033.000000	25.568759
1468.000000	1032.000000	25.534624
1469.000000	1031.000000	25.492595
1470.000000	1030.000000	25.451490
1471.000000	1029.000000	25.431193
1472.000000	1028.000000	25.409051
1473.000000	1027.000000	25.352979
1474.000000	1026.000000	25.305416
1475.000000	1025.000000	25.276919
1476.000000	1024.000000	25.246576
1477.000000	1023.000000	25.207418
1478.000000	1022.000000	25.157087
1479.000000	1021.000000	25.133100
1480.000000	1020.000000	25.112188
1481.000000	1019.000000	25.072620
1482.000000	1018.000000	25.033155
1483.000000	1017.000000	25.006605
1484.000000	1016.000000	24.977800
1485.000000	1015.000000	24.958939
1486.000000	1014.000000	24.954224
1487.000000	1013.000000	24.930749
1488.000000	1012.000000	24.912503
1489.000000	1011.000000	24.909633
1490.000000	1010.000000	24.914451
1491.000000	1009.000000	24.931364
1492.000000	1008.000000	24.917731
1493.000000	1007.000000	24.917116
1494.000000	1006.000000	24.926546
1495.000000	1005.000000	24.932389
1496.000000	1004.000000	24.935977
1497.000000	1003.000000	24.935977
1498.000000	1002.000000	24.937617
1499.000000	1001.000000	24.937822
1500.000000	1000.000000	24.951968
1501.000000	999.000000	24.958734
1502.000000	998.000000	24.959451
1503.000000	997.000000	24.970010
1504.000000	996.000000	24.996047
1505.000000	995.000000	25.000455
1506.000000	994.000000	24.999532
1507.000000	993.000000	25.004145
1508.000000	992.000000	25.020956
1509.000000	991.000000	25.024442
1510.000000	990.000000	25.038690
1511.000000	989.000000	25.041355
1512.000000	988.000000	25.047711
1513.000000	987.000000	25.060832
1514.000000	986.000000	25.081846
1515.000000	985.000000	25.097632
1516.000000	984.000000	25.129205
1517.000000	983.000000	25.147349
1518.000000	982.000000	25.158829
1519.000000	981.000000	25.173796
1520.000000	980.000000	25.196347
1521.000000	979.000000	25.208546
1522.000000	978.000000	25.220539
1523.000000	977.000000	25.247499
1524.000000	976.000000	25.274151
1525.000000	975.000000	25.283684
1526.000000	974.000000	25.322535
1527.000000	973.000000	25.348059
1528.000000	972.000000	25.391112
1529.000000	971.000000	25.413357
1530.000000	970.000000	25.433141
1531.000000	969.000000	25.456820
1532.000000	968.000000	25.500591
1533.000000	967.000000	25.527550
1534.000000	966.000000	25.559738
1535.000000	965.000000	25.596538
1536.000000	964.000000	25.636926
1537.000000	963.000000	25.672292
1538.000000	962.000000	25.725596
1539.000000	961.000000	25.772339
1540.000000	960.000000	25.812010
1541.000000	959.000000	25.870542
1542.000000	958.000000	25.942503
1543.000000	957.000000	25.979303
1544.000000	956.000000	26.015898
1545.000000	955.000000	26.065615
1546.000000	954.000000	26.099135
1547.000000	953.000000	26.148031
1548.000000	952.000000	26.185959
1549.000000	951.000000	26.242338
1550.000000	950.000000	26.264993
1551.000000	949.000000	26.299538
1552.000000	948.000000	26.363093
1553.000000	947.000000	26.381647
1554.000000	946.000000	26.409939
1555.000000	945.000000	26.451147
1556.000000	944.000000	26.500863
1557.000000	943.000000	26.541251
1558.000000	942.000000	26.583382
1559.000000	941.000000	26.618440
1560.000000	940.000000	26.654215
1561.000000	939.000000	26.705572
1562.000000	938.000000	26.749035
1563.000000	937.000000	26.793626
1564.000000	936.000000	26.829504
1565.000000	935.000000	26.860564
1566.000000	934.000000	26.926374
1567.000000	933.000000	26.966557
1568.000000	932.000000	26.994644
1569.000000	931.000000	27.031854
1570.000000	930.000000	27.096639
1571.000000	929.000000	27.143691
1572.000000	928.000000	27.181413
1573.000000	927.000000	27.216369
1574.000000	926.000000	27.236358
1575.000000	925.000000	27.293147
1576.000000	924.000000	27.326052
1577.000000	923.000000	27.405906
1578.000000	922.000000	27.462080
1579.000000	921.000000	27.467308
1580.000000	920.000000	27.525738
1581.000000	919.000000	27.576479
1582.000000	918.000000	27.575864
1583.000000	917.000000	27.630603
1584.000000	916.000000	27.658690
1585.000000	915.000000	27.699899
1586.000000	914.000000	27.750332
1587.000000	913.000000	27.764581
1588.000000	912.000000	27.825266
1589.000000	911.000000	27.854378
1590.000000	910.000000	27.894766
1591.000000	909.000000	27.918958
1592.000000	908.000000	27.948480
1593.000000	907.000000	28.017878
1594.000000	906.000000	28.077845
1595.000000	905.000000	28.106548
1596.000000	904.000000	28.139658
1597.000000	903.000000	28.208235
1598.000000	902.000000	28.221766
1599.000000	901.000000	28.275378
1600.000000	900.000000	28.307258
1601.000000	899.000000	28.351747
1602.000000	898.000000	28.386907
1603.000000	897.000000	28.449437
1604.000000	896.000000	28.488697
1605.000000	895.000000	28.521500
1606.000000	894.000000	28.537388
1607.000000	893.000000	28.572139
1608.000000	892.000000	28.590180
1609.000000	891.000000	28.558402
1610.000000	890.000000	28.584029
1611.000000	889.000000	28.614679
1612.000000	888.000000	28.600943
1613.000000	887.000000	28.620215
1614.000000	886.000000	28.605454
1615.000000	885.000000	28.553072
1616.000000	884.000000	28.535851
1617.000000	883.000000	28.550099
1618.000000	882.000000	28.485519
1619.000000	881.000000	28.410074
1620.000000	880.000000	28.385984
1621.000000	879.000000	28.308181
1622.000000	878.000000	28.209978
1623.000000	877.000000	28.172050
1624.000000	876.000000	28.133097
1625.000000	875.000000	28.067492
1626.000000	874.000000	27.951863
1627.000000	873.000000	27.882465
1628.000000	872.000000	27.779752
1629.000000	871.000000	27.725833
1630.000000	870.000000	27.607334
1631.000000	869.000000	27.550852
1632.000000	868.000000	27.461568
1633.000000	867.000000	27.392375
1634.000000	866.000000	27.282896
1635.000000	865.000000	27.228362
1636.000000	864.000000	27.099920
1637.000000	863.000000	26.968812
1638.000000	862.000000	26.866407
1639.000000	861.000000	26.751393
1640.000000	860.000000	26.618337
1641.000000	859.000000	26.549555
1642.000000	858.000000	26.663133
1643.000000	857.000000	26.720500
1644.000000	856.000000	26.629800
1645.000000	855.000000	26.639100
1646.000000	854.000000	26.576100
1647.000000	853.000000	26.536300
1648.000000	852.000000	26.726200
1649.000000	851.000000	26.673400
1650.000000	850.000000	26.721600
1651.000000	849.000000	26.670200
1652.000000	848.000000	26.667400
1653.000000	847.000000	26.750700
1654.000000	846.000000	26.658200
1655.000000	845.000000	26.777400
1656.000000	844.000000	26.653500
1657.000000	843.000000	26.644400
1658.000000	842.000000	26.756700
1659.000000	841.000000	26.807300
1660.000000	840.000000	26.784100
1661.000000	839.000000	26.649400
1662.000000	838.000000	26.724000
1663.000000	837.000000	26.905200
1664.000000	836.000000	26.876900
1665.000000	835.000000	27.036400
1666.000000	834.000000	26.976300
1667.000000	833.000000	27.034800
1668.000000	832.000000	27.047200
1669.000000	831.000000	27.101100
1670.000000	830.000000	27.160600
1671.000000	829.000000	27.326100
1672.000000	828.000000	27.473100
1673.000000	827.000000	27.549400
1674.000000	826.000000	27.732900
1675.000000	825.000000	27.763500
1676.000000	824.000000	27.910200
1677.000000	823.000000	28.060400
1678.000000	822.000000	28.214300
1679.000000	821.000000	28.404700
1680.000000	820.000000	28.637200
1681.000000	819.000000	28.913000
1682.000000	818.000000	29.021400
1683.000000	817.000000	29.161500
1684.000000	816.000000	29.353700
1685.000000	815.000000	29.641300
1686.000000	814.000000	29.921000
1687.000000	813.000000	30.093000
1688.000000	812.000000	30.340900
1689.000000	811.000000	30.500900
1690.000000	810.000000	30.733400
1691.000000	809.000000	30.961100
1692.000000	808.000000	31.106800
1693.000000	807.000000	31.233700
1694.000000	806.000000	31.494000
1695.000000	805.000000	31.707100
1696.000000	804.000000	31.932600
1697.000000	803.000000	32.183600
1698.000000	802.000000	32.315600
1699.000000	801.000000	32.459900
1700.000000	800.000000	32.740300
1701.000000	799.000000	32.903500
1702.000000	798.000000	33.064900
1703.000000	797.000000	33.295000
1704.000000	796.000000	33.411500
1705.000000	795.000000	33.534600
1706.000000	794.000000	33.749600
1707.000000	793.000000	33.884600
1708.000000	792.000000	34.108500
1709.000000	791.000000	34.288800
1710.000000	790.000000	34.385500
1711.000000	789.000000	34.523100
1712.000000	788.000000	34.661600
1713.000000	787.000000	34.758600
1714.000000	786.000000	34.895300
1715.000000	785.000000	35.046400
1716.000000	784.000000	35.145600
1717.000000	783.000000	35.272400
1718.000000	782.000000	35.382900
1719.000000	781.000000	35.420700
1720.000000	780.000000	35.489200
1721.000000	779.000000	35.584500
1722.000000	778.000000	35.660300
1723.000000	777.000000	35.720600
1724.000000	776.000000	35.785700
1725.000000	775.000000	35.854700
1726.000000	774.000000	35.884500
1727.000000	773.000000	35.959200
1728.000000	772.000000	35.983800
1729.000000	771.000000	36.003800
1730.000000	770.000000	36.028900
1731.000000	769.000000	36.048300
1732.000000	768.000000	36.096900
1733.000000	767.000000	36.099400
1734.000000	766.000000	36.124200
1735.000000	765.000000	36.163900
1736.000000	764.000000	36.158200
1737.000000	763.000000	36.165400
1738.000000	762.000000	36.143000
1739.000000	761.000000	36.135800
1740.000000	760.000000	36.146900
1741.000000	759.000000	36.134900
1742.000000	758.000000	36.059700
1743.000000	757.000000	36.043500
1744.000000	756.000000	36.077600
1745.000000	755.000000	36.043800
1746.000000	754.000000	36.024900
1747.000000	753.000000	35.985800
1748.000000	752.000000	35.970000
1749.000000	751.000000	35.879000
1750.000000	750.000000	35.781100
1751.000000	749.000000	35.718300
1752.000000	748.000000	35.702200
1753.000000	747.000000	35.672500
1754.000000	746.000000	35.567500
1755.000000	745.000000	35.519400
1756.000000	744.000000	35.506700
1757.000000	743.000000	35.457900
1758.000000	742.000000	35.363400
1759.000000	741.000000	35.342400
1760.000000	740.000000	35.321700
1761.000000	739.000000	35.265600
1762.000000	738.000000	35.247500
1763.000000	737.000000	35.183600
1764.000000	736.000000	35.109400
1765.000000	735.000000	35.028600
1766.000000	734.000000	34.978000
1767.000000	733.000000	34.948300
1768.000000	732.000000	34.896300
1769.000000	731.000000	34.837200
1770.000000	730.000000	34.788500
1771.000000	729.000000	34.759900
1772.000000	728.000000	34.746300
1773.000000	727.000000	34.684800
1774.000000	726.000000	34.661900
1775.000000	725.000000	34.635800
1776.000000	724.000000	34.601400
1777.000000	723.000000	34.609300
1778.000000	722.000000	34.580300
1779.000000	721.000000	34.560600
1780.000000	720.000000	34.555500
1781.000000	719.000000	34.505500
1782.000000	718.000000	34.472800
1783.000000	717.000000	34.474000
1784.000000	716.000000	34.485800
1785.000000	715.000000	34.480500
1786.000000	714.000000	34.471100
1787.000000	713.000000	34.430200
1788.000000	712.000000	34.413100
1789.000000	711.000000	34.396600
1790.000000	710.000000	34.360600
1791.000000	709.000000	34.353100
1792.000000	708.000000	34.315200
1793.000000	707.000000	34.260700
1794.000000	706.000000	34.227400
1795.000000	705.000000	34.187700
1796.000000	704.000000	34.121300
1797.000000	703.000000	34.067200
1798.000000	702.000000	33.994800
1799.000000	701.000000	33.905200
1800.000000	700.000000	33.796200
1801.000000	699.000000	33.634500
1802.000000	698.000000	33.506600
1803.000000	697.000000	33.377300
1804.000000	696.000000	33.204100
1805.000000	695.000000	33.033600
1806.000000	694.000000	32.796600
1807.000000	693.000000	32.532300
1808.000000	692.000000	32.287900
1809.000000	691.000000	32.009500
1810.000000	690.000000	31.721700
1811.000000	689.000000	31.428000
1812.000000	688.000000	31.088800
1813.000000	687.000000	30.737800
1814.000000	686.000000	30.416000
1815.000000	685.000000	30.085700
1816.000000	684.000000	29.710900
1817.000000	683.000000	29.378900
1818.000000	682.000000	29.092300
1819.000000	681.000000	28.779100
1820.000000	680.000000	28.494400
1821.000000	679.000000	28.209000
1822.000000	678.000000	27.947700
1823.000000	677.000000	27.732800
1824.000000	676.000000	27.527800
1825.000000	675.000000	27.375300
1826.000000	674.000000	27.230000
1827.000000	673.000000	27.094300
1828.000000	672.000000	26.990800
1829.000000	671.000000	26.897400
1830.000000	670.000000	26.841200
1831.000000	669.000000	26.768000
1832.000000	668.000000	26.712700
1833.000000	667.000000	26.674200
1834.000000	666.000000	26.637200
1835.000000	665.000000	26.631200
1836.000000	664.000000	26.567800
1837.000000	663.000000	26.532300
1838.000000	662.000000	26.472500
1839.000000	661.000000	26.453000
1840.000000	660.000000	26.373800
1841.000000	659.000000	26.262700
1842.000000	658.000000	26.187000
1843.000000	657.000000	26.060200
1844.000000	656.000000	25.927300
1845.000000	655.000000	25.799800
1846.000000	654.000000	25.670900
1847.000000	653.000000	25.510400
1848.000000	652.000000	25.295600
1849.000000	651.000000	25.102400
1850.000000	650.000000	24.904700
1851.000000	649.000000	24.710200
1852.000000	648.000000	24.513300
1853.000000	647.000000	24.274800
1854.000000	646.000000	24.058000
1855.000000	645.000000	23.857200
1856.000000	644.000000	23.644500
1857.000000	643.000000	23.434000
1858.000000	642.000000	23.210400
1859.000000	641.000000	23.036900
1860.000000	640.000000	22.858500
1861.000000	639.000000	22.702400
1862.000000	638.000000	22.567100
1863.000000	637.000000	22.470100
1864.000000	636.000000	22.365600
1865.000000	635.000000	22.258500
1866.000000	634.000000	22.209900
1867.000000	633.000000	22.165100
1868.000000	632.000000	22.132800
1869.000000	631.000000	22.131800
1870.000000	630.000000	22.174800
1871.000000	629.000000	22.216400
1872.000000	628.000000	22.298600
1873.000000	627.000000	22.389200
1874.000000	626.000000	22.499100
1875.000000	625.000000	22.636600
1876.000000	624.000000	22.793300
1877.000000	623.000000	22.977300
1878.000000	622.000000	23.211700
1879.000000	621.000000	23.400700
1880.000000	620.000000	23.646900
1881.000000	619.000000	23.883300
1882.000000	618.000000	24.102400
1883.000000	617.000000	24.368600
1884.000000	616.000000	24.584900
1885.000000	615.000000	24.839400
1886.000000	614.000000	25.080100
1887.000000	613.000000	25.344700
1888.000000	612.000000	25.577800
1889.000000	611.000000	25.813600
1890.000000	610.000000	26.062400
1891.000000	609.000000	26.280300
1892.000000	608.000000	26.526800
1893.000000	607.000000	26.766800
1894.000000	606.000000	27.005100
1895.000000	605.000000	27.228300
1896.000000	604.000000	27.493800
1897.000000	603.000000	27.740300
1898.000000	602.000000	27.983400
1899.000000	601.000000	28.229400
1900.000000	600.000000	28.497700
1901.000000	599.000000	28.692000
1902.000000	598.000000	28.879100
1903.000000	597.000000	29.043600
1904.000000	596.000000	29.204500
1905.000000	595.000000	29.357300
1906.000000	594.000000	29.485300
1907.000000	593.000000	29.624400
1908.000000	592.000000	29.736600
1909.000000	591.000000	29.830000
1910.000000	590.000000	29.974900
1911.000000	589.000000	30.080600
1912.000000	588.000000	30.160900
1913.000000	587.000000	30.232800
1914.000000	586.000000	30.280400
1915.000000	585.000000	30.286200
1916.000000	584.000000	30.264700
1917.000000	583.000000	30.225300
1918.000000	582.000000	30.187200
1919.000000	581.000000	30.121700
1920.000000	580.000000	30.072600
1921.000000	579.000000	30.073600
1922.000000	578.000000	30.045100
1923.000000	577.000000	29.994800
1924.000000	576.000000	29.948900
1925.000000	575.000000	29.894000
1926.000000	574.000000	29.836600
1927.000000	573.000000	29.757000
1928.000000	572.000000	29.628900
1929.000000	571.000000	29.522700
1930.000000	570.000000	29.424000
1931.000000	569.000000	29.358000
1932.000000	568.000000	29.257000
1933.000000	567.000000	29.179800
1934.000000	566.000000	29.122200
1935.000000	565.000000	29.051200
1936.000000	564.000000	28.937200
1937.000000	563.000000	28.797900
1938.000000	562.000000	28.649800
1939.000000	561.000000	28.508600
1940.000000	560.000000	28.443700
1941.000000	559.000000	29.004900
1942.000000	558.000000	28.840900
1943.000000	557.000000	28.649400
1944.000000	556.000000	28.484300
1945.000000	555.000000	28.300400
1946.000000	554.000000	28.133400
1947.000000	553.000000	27.914100
1948.000000	552.000000	27.714200
1949.000000	551.000000	27.476900
1950.000000	550.000000	27.249600
1951.000000	549.000000	27.008900
1952.000000	548.000000	26.792000
1953.000000	547.000000	26.565900
1954.000000	546.000000	26.328700
1955.000000	545.000000	26.120500
1956.000000	544.000000	25.861900
1957.000000	543.000000	25.598100
1958.000000	542.000000	25.343500
1959.000000	541.000000	25.054100
1960.000000	540.000000	24.763900
1961.000000	539.000000	24.454900
1962.000000	538.000000	24.139600
1963.000000	537.000000	23.803700
1964.000000	536.000000	23.476500
1965.000000	535.000000	23.127400
1966.000000	534.000000	22.752700
1967.000000	533.000000	22.359100
1968.000000	532.000000	21.953400
1969.000000	531.000000	21.530100
1970.000000	530.000000	21.123700
1971.000000	529.000000	20.682000
1972.000000	528.000000	20.244900
1973.000000	527.000000	19.810700
1974.000000	526.000000	19.401900
1975.000000	525.000000	18.989700
1976.000000	524.000000	18.583800
1977.000000	523.000000	18.189000
1978.000000	522.000000	17.801600
1979.000000	521.000000	17.420000
1980.000000	520.000000	17.051900
1981.000000	519.000000	16.717000
1982.000000	518.000000	16.398300
1983.000000	517.000000	16.122200
1984.000000	516.000000	15.851200
1985.000000	515.000000	15.618500
1986.000000	514.000000	15.400400
1987.000000	513.000000	15.199500
1988.000000	512.000000	15.045000
1989.000000	511.000000	14.924100
1990.000000	510.000000	14.820400
1991.000000	509.000000	14.728300
1992.000000	508.000000	14.651200
1993.000000	507.000000	14.586100
1994.000000	506.000000	14.532700
1995.000000	505.000000	14.479800
1996.000000	504.000000	14.419700
1997.000000	503.000000	14.346400
1998.000000	502.000000	14.255400
1999.000000	501.000000	14.166400
2000.000000	500.000000	14.073500
2001.000000	499.000000	13.959100
2002.000000	498.000000	13.823600
2003.000000	497.000000	13.672300
2004.000000	496.000000	13.495800
2005.000000	495.000000	13.299100
2006.000000	494.000000	13.085500
2007.000000	493.000000	12.850000
2008.000000	492.000000	12.596200
2009.000000	491.000000	12.335200
2010.000000	490.000000	12.060100
2011.000000	489.000000	11.788500
2012.000000	488.000000	11.521000
2013.000000	487.000000	11.262600
2014.000000	486.000000	11.035700
2015.000000	485.000000	10.815600
2016.000000	484.000000	10.615500
2017.000000	483.000000	10.454600
2018.000000	482.000000	10.340200
2019.000000	481.000000	10.273300
2020.000000	480.000000	10.242700
2021.000000	479.000000	10.230800
2022.000000	478.000000	10.240500
2023.000000	477.000000	10.281900
2024.000000	476.000000	10.339300
2025.000000	475.000000	10.423400
2026.000000	474.000000	10.525700
2027.000000	473.000000	10.618900
2028.000000	472.000000	10.727000
2029.000000	471.000000	10.841000
2030.000000	470.000000	10.955100
2031.000000	469.000000	11.064900
2032.000000	468.000000	11.165000
2033.000000	467.000000	11.252800
2034.000000	466.000000	11.337200
2035.000000	465.000000	11.410300
2036.000000	464.000000	11.464000
2037.000000	463.000000	11.512500
2038.000000	462.000000	11.542000
2039.000000	461.000000	11.557300
2040.000000	460.000000	11.580900
2041.000000	459.000000	11.578200
2042.000000	458.000000	11.579600
2043.000000	457.000000	11.574200
2044.000000	456.000000	11.549300
2045.000000	455.000000	11.528200
2046.000000	454.000000	11.481800
2047.000000	453.000000	11.432900
2048.000000	452.000000	11.388500
2049.000000	451.000000	11.343300
2050.000000	450.000000	11.285400
2051.000000	449.000000	11.211500
2052.000000	448.000000	11.145000
2053.000000	447.000000	11.079000
2054.000000	446.000000	11.022700
2055.000000	445.000000	10.947500
2056.000000	444.000000	10.850500
2057.000000	443.000000	10.757500
2058.000000	442.000000	10.665400
2059.000000	441.000000	10.579000
2060.000000	440.000000	10.478800
2061.000000	439.000000	10.370600
2062.000000	438.000000	10.255000
2063.000000	437.000000	10.120900
2064.000000	436.000000	9.982500
2065.000000	435.000000	9.862500
2066.000000	434.000000	9.735200
2067.000000	433.000000	9.578500
2068.000000	432.000000	9.426600
2069.000000	431.000000	9.275600
2070.000000	430.000000	9.109800
2071.000000	429.000000	8.946300
2072.000000	428.000000	8.772700
2073.000000	427.000000	8.591200
2074.000000	426.000000	8.402300
2075.000000	425.000000	8.207900
2076.000000	424.000000	8.008600
2077.000000	423.000000	7.791800
2078.000000	422.000000	7.564400
2079.000000	421.000000	7.339900
2080.000000	420.000000	7.107100
2081.000000	419.000000	6.881500
2082.000000	418.000000	6.661900
2083.000000	417.000000	6.434900
2084.000000	416.000000	6.209300
2085.000000	415.000000	5.990600
2086.000000	414.000000	5.765100
2087.000000	413.000000	5.542100
2088.000000	412.000000	5.336200
2089.000000	411.000000	5.138800
2090.000000	410.000000	4.956600
2091.000000	409.000000	4.767000
2092.000000	408.000000	4.587700
2093.000000	407.000000	4.428700
2094.000000	406.000000	4.282600
2095.000000	405.000000	4.147400
2096.000000	404.000000	4.006300
2097.000000	403.000000	3.873400
2098.000000	402.000000	3.764100
2099.000000	401.000000	3.664400
2100.000000	400.000000	3.565400
2101.000000	399.000000	3.481800
2102.000000	398.000000	3.407000
2103.000000	397.000000	3.341300
2104.000000	396.000000	3.280700
2105.000000	395.000000	3.211300
2106.000000	394.000000	3.158000
2107.000000	393.000000	3.119300
2108.000000	392.000000	3.076300
2109.000000	391.000000	3.031700
2110.000000	390.000000	3.003900
2111.000000	389.000000	2.969400
2112.000000	388.000000	2.933600
2113.000000	387.000000	2.915100
2114.000000	386.000000	2.880600
2115.000000	385.000000	2.851000
2116.000000	384.000000	2.841300
2117.000000	383.000000	2.811800
2118.000000	382.000000	2.799200
2119.000000	381.000000	2.777800
2120.000000	380.000000	2.761000
2121.000000	379.000000	2.753500
2122.000000	378.000000	2.726100
2123.000000	377.000000	2.696000
2124.000000	376.000000	3.034100
2125.000000	375.000000	2.988600
2126.000000	374.000000	2.865300
2127.000000	373.000000	2.917200
2128.000000	372.000000	2.897600
2129.000000	371.000000	2.914700
2130.000000	370.000000	2.866300
2131.000000	369.000000	2.915200
2132.000000	368.000000	2.912400
2133.000000	367.000000	2.894200
2134.000000	366.000000	3.014000
2135.000000	365.000000	3.047900
2136.000000	364.000000	2.979000
2137.000000	363.000000	2.937000
2138.000000	362.000000	2.878300
2139.000000	361.000000	2.849300
2140.000000	360.000000	2.959700
2141.000000	359.000000	2.882300
2142.000000	358.000000	2.934300
2143.000000	357.000000	2.909700
2144.000000	356.000000	2.936600
2145.000000	355.000000	2.859900
2146.000000	354.000000	2.851500
2147.000000	353.000000	2.827300
2148.000000	352.000000	2.854800
2149.000000	351.000000	2.817400
2150.000000	350.000000	2.777700
2151.000000	349.000000	2.774000
2152.000000	348.000000	2.767700
2153.000000	347.000000	2.774000
2154.000000	346.000000	2.739000
2155.000000	345.000000	2.777000
2156.000000	344.000000	2.839400
2157.000000	343.000000	2.744300
2158.000000	342.000000	2.716200
2159.000000	341.000000	2.821100
2160.000000	340.000000	2.715600
2161.000000	339.000000	2.745000
2162.000000	338.000000	2.804800
2163.000000	337.000000	2.716500
2164.000000	336.000000	2.864900
2165.000000	335.000000	2.685600
2166.000000	334.000000	2.862400
2167.000000	333.000000	2.705900
2168.000000	332.000000	2.774400
2169.000000	331.000000	2.702300
2170.000000	330.000000	2.706100
2171.000000	329.000000	2.729500
2172.000000	328.000000	2.933000
2173.000000	327.000000	2.878700
2174.000000	326.000000	2.809600
2175.000000	325.000000	2.782600
2176.000000	324.000000	2.907000
2177.000000	323.000000	2.759500
2178.000000	322.000000	3.134700
2179.000000	321.000000	3.174300
2180.000000	320.000000	2.985300
2181.000000	319.000000	3.328500
2182.000000	318.000000	2.953100
2183.000000	317.000000	2.976500
2184.000000	316.000000	2.563700
2185.000000	315.000000	2.558600
2186.000000	314.000000	2.549400
2187.000000	313.000000	2.522300
2188.000000	312.000000	2.535000
2189.000000	311.000000	2.571900
2190.000000	310.000000	2.562700
2191.000000	309.000000	2.613700
2192.000000	308.000000	2.547700
2193.000000	307.000000	2.554400
2194.000000	306.000000	2.549600
2195.000000	305.000000	2.610300
2196.000000	304.000000	2.576400
2197.000000	303.000000	2.504800
2198.000000	302.000000	2.537900
2199.000000	301.000000	2.545900
2200.000000	300.000000	2.598100
2201.000000	299.000000	2.568200
2202.000000	298.000000	2.588500
2203.000000	297.000000	2.595500
2204.000000	296.000000	2.552600
2205.000000	295.000000	2.595600
2206.000000	294.000000	2.606700
2207.000000	293.000000	2.613900
2208.000000	292.000000	2.579000
2209.000000	291.000000	2.616900
2210.000000	290.000000	2.640800
2211.000000	289.000000	2.601900
2212.000000	288.000000	2.637800
2213.000000	287.000000	2.599200
2214.000000	286.000000	2.617800
2215.000000	285.000000	2.589400
2216.000000	284.000000	2.642800
2217.000000	283.000000	2.622800
2218.000000	282.000000	2.624400
2219.000000	281.000000	2.656900
2220.000000	280.000000	2.671900
2221.000000	279.000000	2.658800
2222.000000	278.000000	2.646000
2223.000000	277.000000	2.670800
2224.000000	276.000000	2.666200
2225.000000	275.000000	2.672600
2226.000000	274.000000	2.693300
2227.000000	273.000000	2.636400
2228.000000	272.000000	2.668900
2229.000000	271.000000	2.674500
2230.000000	270.000000	2.676300
2231.000000	269.000000	2.698500
2232.000000	268.000000	2.661000
2233.000000	267.000000	2.698000
2234.000000	266.000000	2.741800
2235.000000	265.000000	2.758400
2236.000000	264.000000	2.725000
2237.000000	263.000000	2.735100
2238.000000	262.000000	2.745400
2239.000000	261.000000	2.792300
2240.000000	260.000000	2.826600
2241.000000	259.000000	2.805600
2242.000000	258.000000	2.808100
2243.000000	257.000000	2.847900
2244.000000	256.000000	2.794700
2245.000000	255.000000	2.807400
2246.000000	254.000000	2.810500
2247.000000	253.000000	2.797000
2248.000000	252.000000	2.832000
2249.000000	251.000000	2.824300
2250.000000	250.000000	2.824100
