PE UV       SUBTECH     SPECTRUM    ASCII       PEDS        4.00        
   -1
CICIMAUCR0158-1.ASC
24/04/03
16:46:49.00
24/04/03
16:46:49.00
Vinicio Soto Monge
C. cupreomarginata
250,000000
1
Lambda 1050
1050L1511233
PerkinElmer UV WinLab 6.3.2.0749 / 2.02.05 Lambda 900 UV/VIS/NIR, Aug  7 2015 09:38:08

0
0
3350/servo 860,8/2
0
0
UV/VIS
1
1
1
DoubleDePol,CommonBeamDepol,RBeamAtt,SBeamAtt,60mm sphere, WB InGaAs Detector
0
0
0
0
Program
Program
3350/servo 860,8/2
3350/0,2 860,8/0,2
3350/0,2 860,8/0,2
0
15.00
 
 
 
0
 
860,8
319,2
860,8
Front
100
on
S:100 R:100
0
0
0
0
 
0
 
 
 
0
 
 
0
0
0
0
0
 
 
 
 
0
0


0
0
#HDR
-1
-1
#GR
nm
%R
1.0
0.0
2500,000000
-1,000000
2251
8
61,268000
5,280400
#DATA
501.000000	1999.000000	22.157918
502.000000	1998.000000	22.093238
503.000000	1997.000000	22.009522
504.000000	1996.000000	21.944842
505.000000	1995.000000	21.860330
506.000000	1994.000000	21.781797
507.000000	1993.000000	21.694594
508.000000	1992.000000	21.614566
509.000000	1991.000000	21.527761
510.000000	1990.000000	21.444644
511.000000	1989.000000	21.364118
512.000000	1988.000000	21.269341
513.000000	1987.000000	21.193299
514.000000	1986.000000	21.058259
515.000000	1985.000000	20.982018
516.000000	1984.000000	20.905877
517.000000	1983.000000	20.799439
518.000000	1982.000000	20.702967
519.000000	1981.000000	20.612176
520.000000	1980.000000	20.521684
521.000000	1979.000000	20.440959
522.000000	1978.000000	20.330933
523.000000	1977.000000	20.252002
524.000000	1976.000000	20.150248
525.000000	1975.000000	20.066533
526.000000	1974.000000	19.979030
527.000000	1973.000000	19.915247
528.000000	1972.000000	19.793462
529.000000	1971.000000	19.715726
530.000000	1970.000000	19.635698
531.000000	1969.000000	19.552880
532.000000	1968.000000	19.476739
533.000000	1967.000000	19.380965
534.000000	1966.000000	19.321766
535.000000	1965.000000	19.231274
536.000000	1964.000000	19.166694
537.000000	1963.000000	19.055173
538.000000	1962.000000	18.964880
539.000000	1961.000000	18.918040
540.000000	1960.000000	18.818578
541.000000	1959.000000	18.741441
542.000000	1958.000000	18.644969
543.000000	1957.000000	18.563048
544.000000	1956.000000	18.501158
545.000000	1955.000000	18.401995
546.000000	1954.000000	18.306819
547.000000	1953.000000	18.229183
548.000000	1952.000000	18.142578
549.000000	1951.000000	18.085971
550.000000	1950.000000	18.039230
551.000000	1949.000000	17.958903
552.000000	1948.000000	17.884356
553.000000	1947.000000	17.801339
554.000000	1946.000000	17.756591
555.000000	1945.000000	17.700681
556.000000	1944.000000	17.641383
557.000000	1943.000000	17.585075
558.000000	1942.000000	17.548300
559.000000	1941.000000	17.516109
560.000000	1940.000000	17.493187
561.000000	1939.000000	17.461993
562.000000	1938.000000	17.425916
563.000000	1937.000000	17.426315
564.000000	1936.000000	17.410170
565.000000	1935.000000	17.389939
566.000000	1934.000000	17.422229
567.000000	1933.000000	17.417545
568.000000	1932.000000	17.471361
569.000000	1931.000000	17.510728
570.000000	1930.000000	17.526474
571.000000	1929.000000	17.589559
572.000000	1928.000000	17.658525
573.000000	1927.000000	17.708754
574.000000	1926.000000	17.778517
575.000000	1925.000000	17.865521
576.000000	1924.000000	17.988203
577.000000	1923.000000	18.065042
578.000000	1922.000000	18.190415
579.000000	1921.000000	18.342797
580.000000	1920.000000	18.493086
581.000000	1919.000000	18.612579
582.000000	1918.000000	18.778116
583.000000	1917.000000	18.924019
584.000000	1916.000000	19.092247
585.000000	1915.000000	19.274627
586.000000	1914.000000	19.499262
587.000000	1913.000000	19.752999
588.000000	1912.000000	19.992684
589.000000	1911.000000	20.217519
590.000000	1910.000000	20.467170
591.000000	1909.000000	20.694197
592.000000	1908.000000	20.961588
593.000000	1907.000000	21.276715
594.000000	1906.000000	21.633701
595.000000	1905.000000	22.024372
596.000000	1904.000000	22.410857
597.000000	1903.000000	22.759969
598.000000	1902.000000	23.132103
599.000000	1901.000000	23.537524
600.000000	1900.000000	23.986596
601.000000	1899.000000	24.456896
602.000000	1898.000000	24.892315
603.000000	1897.000000	25.373976
604.000000	1896.000000	25.798532
605.000000	1895.000000	26.207640
606.000000	1894.000000	26.692391
607.000000	1893.000000	27.190098
608.000000	1892.000000	27.721390
609.000000	1891.000000	28.262848
610.000000	1890.000000	28.773511
611.000000	1889.000000	29.232649
612.000000	1888.000000	29.731452
613.000000	1887.000000	30.189793
614.000000	1886.000000	30.652020
615.000000	1885.000000	31.134180
616.000000	1884.000000	31.597105
617.000000	1883.000000	32.016080
618.000000	1882.000000	32.406352
619.000000	1881.000000	32.797720
620.000000	1880.000000	33.154507
621.000000	1879.000000	33.508702
622.000000	1878.000000	33.853429
623.000000	1877.000000	34.196063
624.000000	1876.000000	34.527635
625.000000	1875.000000	34.856217
626.000000	1874.000000	35.162276
627.000000	1873.000000	35.450695
628.000000	1872.000000	35.715693
629.000000	1871.000000	35.946010
630.000000	1870.000000	36.131678
631.000000	1869.000000	36.307978
632.000000	1868.000000	36.467137
633.000000	1867.000000	36.570884
634.000000	1866.000000	36.669050
635.000000	1865.000000	36.763728
636.000000	1864.000000	36.860000
637.000000	1863.000000	36.973215
638.000000	1862.000000	37.116029
639.000000	1861.000000	37.244193
640.000000	1860.000000	37.363886
641.000000	1859.000000	37.459062
642.000000	1858.000000	37.533708
643.000000	1857.000000	37.598488
644.000000	1856.000000	37.655394
645.000000	1855.000000	37.708414
646.000000	1854.000000	37.753062
647.000000	1853.000000	37.773692
648.000000	1852.000000	37.801099
649.000000	1851.000000	37.849534
650.000000	1850.000000	37.911822
651.000000	1849.000000	37.993544
652.000000	1848.000000	38.026033
653.000000	1847.000000	38.005005
654.000000	1846.000000	37.956071
655.000000	1845.000000	37.918400
656.000000	1844.000000	37.917802
657.000000	1843.000000	37.950291
658.000000	1842.000000	37.984873
659.000000	1841.000000	37.990554
660.000000	1840.000000	37.978096
661.000000	1839.000000	37.950291
662.000000	1838.000000	37.921090
663.000000	1837.000000	37.903949
664.000000	1836.000000	37.857108
665.000000	1835.000000	37.786648
666.000000	1834.000000	37.729442
667.000000	1833.000000	37.690375
668.000000	1832.000000	37.672337
669.000000	1831.000000	37.663666
670.000000	1830.000000	37.632572
671.000000	1829.000000	37.599385
672.000000	1828.000000	37.550451
673.000000	1827.000000	37.505006
674.000000	1826.000000	37.479592
675.000000	1825.000000	37.448997
676.000000	1824.000000	37.432552
677.000000	1823.000000	37.473114
678.000000	1822.000000	37.516168
679.000000	1821.000000	37.528327
680.000000	1820.000000	37.509491
681.000000	1819.000000	37.449395
682.000000	1818.000000	37.413717
683.000000	1817.000000	37.414713
684.000000	1816.000000	37.426672
685.000000	1815.000000	37.410428
686.000000	1814.000000	37.377141
687.000000	1813.000000	37.374151
688.000000	1812.000000	37.362192
689.000000	1811.000000	37.345847
690.000000	1810.000000	37.291632
691.000000	1809.000000	37.264723
692.000000	1808.000000	37.260936
693.000000	1807.000000	37.245290
694.000000	1806.000000	37.221570
695.000000	1805.000000	37.194562
696.000000	1804.000000	37.167355
697.000000	1803.000000	37.154498
698.000000	1802.000000	37.161375
699.000000	1801.000000	37.142738
700.000000	1800.000000	37.102475
701.000000	1799.000000	37.063508
702.000000	1798.000000	37.038991
703.000000	1797.000000	37.022149
704.000000	1796.000000	37.000423
705.000000	1795.000000	36.989958
706.000000	1794.000000	36.972717
707.000000	1793.000000	36.956073
708.000000	1792.000000	36.937636
709.000000	1791.000000	36.931457
710.000000	1790.000000	36.926375
711.000000	1789.000000	36.920096
712.000000	1788.000000	36.913718
713.000000	1787.000000	36.923983
714.000000	1786.000000	36.941124
715.000000	1785.000000	36.938234
716.000000	1784.000000	36.915511
717.000000	1783.000000	36.905745
718.000000	1782.000000	36.893187
719.000000	1781.000000	36.887208
720.000000	1780.000000	36.885713
721.000000	1779.000000	36.870963
722.000000	1778.000000	36.842360
723.000000	1777.000000	36.811565
724.000000	1776.000000	36.787248
725.000000	1775.000000	36.768711
726.000000	1774.000000	36.743098
727.000000	1773.000000	36.708316
728.000000	1772.000000	36.679016
729.000000	1771.000000	36.639152
730.000000	1770.000000	36.602676
731.000000	1769.000000	36.571382
732.000000	1768.000000	36.537099
733.000000	1767.000000	36.507400
734.000000	1766.000000	36.483581
735.000000	1765.000000	36.450194
736.000000	1764.000000	36.410928
737.000000	1763.000000	36.399766
738.000000	1762.000000	36.389302
739.000000	1761.000000	36.368772
740.000000	1760.000000	36.353324
741.000000	1759.000000	36.329904
742.000000	1758.000000	36.346746
743.000000	1757.000000	36.347145
744.000000	1756.000000	36.320735
745.000000	1755.000000	36.301102
746.000000	1754.000000	36.289641
747.000000	1753.000000	36.279675
748.000000	1752.000000	36.283860
749.000000	1751.000000	36.266519
750.000000	1750.000000	36.245591
751.000000	1749.000000	36.222868
752.000000	1748.000000	36.176027
753.000000	1747.000000	36.149617
754.000000	1746.000000	36.104670
755.000000	1745.000000	36.063311
756.000000	1744.000000	36.011288
757.000000	1743.000000	35.951292
758.000000	1742.000000	35.909135
759.000000	1741.000000	35.845352
760.000000	1740.000000	35.796817
761.000000	1739.000000	35.739811
762.000000	1738.000000	35.700146
763.000000	1737.000000	35.651512
764.000000	1736.000000	35.620318
765.000000	1735.000000	35.596698
766.000000	1734.000000	35.562614
767.000000	1733.000000	35.517268
768.000000	1732.000000	35.511687
769.000000	1731.000000	35.470129
770.000000	1730.000000	35.446011
771.000000	1729.000000	35.422192
772.000000	1728.000000	35.386713
773.000000	1727.000000	35.366581
774.000000	1726.000000	35.358508
775.000000	1725.000000	35.347247
776.000000	1724.000000	35.345453
777.000000	1723.000000	35.391397
778.000000	1722.000000	35.450994
779.000000	1721.000000	35.520557
780.000000	1720.000000	35.642841
781.000000	1719.000000	35.795223
782.000000	1718.000000	35.949000
783.000000	1717.000000	36.118324
784.000000	1716.000000	36.265124
785.000000	1715.000000	36.429365
786.000000	1714.000000	36.595799
787.000000	1713.000000	36.706522
788.000000	1712.000000	36.831198
789.000000	1711.000000	36.943118
790.000000	1710.000000	37.018262
791.000000	1709.000000	37.117823
792.000000	1708.000000	37.196456
793.000000	1707.000000	37.241702
794.000000	1706.000000	37.293625
795.000000	1705.000000	37.321032
796.000000	1704.000000	37.358205
797.000000	1703.000000	37.372756
798.000000	1702.000000	37.386310
799.000000	1701.000000	37.390994
800.000000	1700.000000	37.402056
801.000000	1699.000000	37.396575
802.000000	1698.000000	37.389698
803.000000	1697.000000	37.376742
804.000000	1696.000000	37.360498
805.000000	1695.000000	37.332991
806.000000	1694.000000	37.309671
807.000000	1693.000000	37.253761
808.000000	1692.000000	37.205325
809.000000	1691.000000	37.146924
810.000000	1690.000000	37.123305
811.000000	1689.000000	37.112342
812.000000	1688.000000	37.149914
813.000000	1687.000000	37.178218
814.000000	1686.000000	37.276184
815.000000	1685.000000	37.384516
816.000000	1684.000000	37.550053
817.000000	1683.000000	37.710607
818.000000	1682.000000	37.876243
819.000000	1681.000000	38.056031
820.000000	1680.000000	38.227149
821.000000	1679.000000	38.391390
822.000000	1678.000000	38.554037
823.000000	1677.000000	38.694061
824.000000	1676.000000	38.840861
825.000000	1675.000000	38.973311
826.000000	1674.000000	39.124496
827.000000	1673.000000	39.260534
828.000000	1672.000000	39.392684
829.000000	1671.000000	39.518356
830.000000	1670.000000	39.660473
831.000000	1669.000000	39.800397
832.000000	1668.000000	39.945503
833.000000	1667.000000	40.056326
834.000000	1666.000000	40.172531
835.000000	1665.000000	40.278869
836.000000	1664.000000	40.385506
837.000000	1663.000000	40.500714
838.000000	1662.000000	40.605159
839.000000	1661.000000	40.685286
840.000000	1660.000000	40.761328
841.000000	1659.000000	40.831190
842.000000	1658.000000	40.917198
843.000000	1657.000000	40.945302
844.000000	1656.000000	41.016858
845.000000	1655.000000	41.043667
846.000000	1654.000000	41.060510
847.000000	1653.000000	41.080243
848.000000	1652.000000	41.089810
849.000000	1651.000000	41.115622
850.000000	1650.000000	41.109344
851.000000	1649.000000	41.102866
852.000000	1648.000000	41.082136
853.000000	1647.000000	41.083631
854.000000	1646.000000	41.064197
855.000000	1645.000000	41.054431
856.000000	1644.000000	41.036492
857.000000	1643.000000	41.017855
858.000000	1642.000000	41.008985
859.000000	1641.000000	40.997425
860.000000	1640.000000	40.986761
861.000000	1639.000000	40.965433
862.000000	1638.000000	40.947993
863.000000	1637.000000	40.908926
864.000000	1636.000000	40.890787
865.000000	1635.000000	40.857102
866.000000	1634.000000	40.851720
867.000000	1633.000000	40.823716
868.000000	1632.000000	40.779964
869.000000	1631.000000	40.736014
870.000000	1630.000000	40.704421
871.000000	1629.000000	40.655986
872.000000	1628.000000	40.619909
873.000000	1627.000000	40.596389
874.000000	1626.000000	40.544266
875.000000	1625.000000	40.493340
876.000000	1624.000000	40.467428
877.000000	1623.000000	40.412415
878.000000	1622.000000	40.367866
879.000000	1621.000000	40.331091
880.000000	1620.000000	40.314049
881.000000	1619.000000	40.296609
882.000000	1618.000000	40.257243
883.000000	1617.000000	40.217677
884.000000	1616.000000	40.192862
885.000000	1615.000000	40.159874
886.000000	1614.000000	40.110143
887.000000	1613.000000	40.078152
888.000000	1612.000000	40.030614
889.000000	1611.000000	39.991148
890.000000	1610.000000	39.945703
891.000000	1609.000000	39.896570
892.000000	1608.000000	39.840461
893.000000	1607.000000	39.782956
894.000000	1606.000000	39.719771
895.000000	1605.000000	39.649112
896.000000	1604.000000	39.589415
897.000000	1603.000000	39.529518
898.000000	1602.000000	39.455969
899.000000	1601.000000	39.390093
900.000000	1600.000000	39.329698
901.000000	1599.000000	39.281363
902.000000	1598.000000	39.208810
903.000000	1597.000000	39.135559
904.000000	1596.000000	39.083735
905.000000	1595.000000	39.030915
906.000000	1594.000000	38.982081
907.000000	1593.000000	38.918697
908.000000	1592.000000	38.871956
909.000000	1591.000000	38.826909
910.000000	1590.000000	38.788340
911.000000	1589.000000	38.746084
912.000000	1588.000000	38.682998
913.000000	1587.000000	38.628085
914.000000	1586.000000	38.589815
915.000000	1585.000000	38.549253
916.000000	1584.000000	38.506200
917.000000	1583.000000	38.465538
918.000000	1582.000000	38.430258
919.000000	1581.000000	38.390792
920.000000	1580.000000	38.353918
921.000000	1579.000000	38.315847
922.000000	1578.000000	38.282860
923.000000	1577.000000	38.260735
924.000000	1576.000000	38.242796
925.000000	1575.000000	38.227747
926.000000	1574.000000	38.210904
927.000000	1573.000000	38.199443
928.000000	1572.000000	38.194859
929.000000	1571.000000	38.176422
930.000000	1570.000000	38.170741
931.000000	1569.000000	38.178814
932.000000	1568.000000	38.180209
933.000000	1567.000000	38.179810
934.000000	1566.000000	38.173731
935.000000	1565.000000	38.176222
936.000000	1564.000000	38.171538
937.000000	1563.000000	38.153001
938.000000	1562.000000	38.142836
939.000000	1561.000000	38.135461
940.000000	1560.000000	38.111443
941.000000	1559.000000	38.076960
942.000000	1558.000000	38.039288
943.000000	1557.000000	38.009589
944.000000	1556.000000	37.965240
945.000000	1555.000000	37.903251
946.000000	1554.000000	37.843355
947.000000	1553.000000	37.765918
948.000000	1552.000000	37.698946
949.000000	1551.000000	37.635362
950.000000	1550.000000	37.561015
951.000000	1549.000000	37.488662
952.000000	1548.000000	37.417205
953.000000	1547.000000	37.340765
954.000000	1546.000000	37.263328
955.000000	1545.000000	37.194961
956.000000	1544.000000	37.131776
957.000000	1543.000000	37.080052
958.000000	1542.000000	37.034108
959.000000	1541.000000	36.989659
960.000000	1540.000000	36.948798
961.000000	1539.000000	36.898669
962.000000	1538.000000	36.844752
963.000000	1537.000000	36.807180
964.000000	1536.000000	36.768213
965.000000	1535.000000	36.719379
966.000000	1534.000000	36.660678
967.000000	1533.000000	36.610051
968.000000	1532.000000	36.561316
969.000000	1531.000000	36.495042
970.000000	1530.000000	36.438235
971.000000	1529.000000	36.383820
972.000000	1528.000000	36.342561
973.000000	1527.000000	36.294325
974.000000	1526.000000	36.220875
975.000000	1525.000000	36.156693
976.000000	1524.000000	36.093907
977.000000	1523.000000	36.028728
978.000000	1522.000000	35.967038
979.000000	1521.000000	35.907341
980.000000	1520.000000	35.842562
981.000000	1519.000000	35.791336
982.000000	1518.000000	35.738117
983.000000	1517.000000	35.661577
984.000000	1516.000000	35.580653
985.000000	1515.000000	35.527035
986.000000	1514.000000	35.466242
987.000000	1513.000000	35.396280
988.000000	1512.000000	35.328710
989.000000	1511.000000	35.276089
990.000000	1510.000000	35.209914
991.000000	1509.000000	35.142045
992.000000	1508.000000	35.058130
993.000000	1507.000000	34.999330
994.000000	1506.000000	34.944716
995.000000	1505.000000	34.881332
996.000000	1504.000000	34.824126
997.000000	1503.000000	34.770011
998.000000	1502.000000	34.707025
999.000000	1501.000000	34.656696
1000.000000	1500.000000	34.615436
1001.000000	1499.000000	34.581751
1002.000000	1498.000000	34.535708
1003.000000	1497.000000	34.505411
1004.000000	1496.000000	34.452989
1005.000000	1495.000000	34.429569
1006.000000	1494.000000	34.408540
1007.000000	1493.000000	34.403856
1008.000000	1492.000000	34.406846
1009.000000	1491.000000	34.383824
1010.000000	1490.000000	34.378343
1011.000000	1489.000000	34.377247
1012.000000	1488.000000	34.380835
1013.000000	1487.000000	34.384921
1014.000000	1486.000000	34.373659
1015.000000	1485.000000	34.374656
1016.000000	1484.000000	34.369374
1017.000000	1483.000000	34.385618
1018.000000	1482.000000	34.381931
1019.000000	1481.000000	34.383226
1020.000000	1480.000000	34.372862
1021.000000	1479.000000	34.386017
1022.000000	1478.000000	34.401963
1023.000000	1477.000000	34.410633
1024.000000	1476.000000	34.414321
1025.000000	1475.000000	34.414221
1026.000000	1474.000000	34.467041
1027.000000	1473.000000	34.495943
1028.000000	1472.000000	34.517968
1029.000000	1471.000000	34.569592
1030.000000	1470.000000	34.577466
1031.000000	1469.000000	34.588229
1032.000000	1468.000000	34.616533
1033.000000	1467.000000	34.687392
1034.000000	1466.000000	34.705630
1035.000000	1465.000000	34.747687
1036.000000	1464.000000	34.815257
1037.000000	1463.000000	34.850337
1038.000000	1462.000000	34.894288
1039.000000	1461.000000	34.935547
1040.000000	1460.000000	35.005609
1041.000000	1459.000000	35.051652
1042.000000	1458.000000	35.121913
1043.000000	1457.000000	35.176926
1044.000000	1456.000000	35.238915
1045.000000	1455.000000	35.292234
1046.000000	1454.000000	35.343559
1047.000000	1453.000000	35.425780
1048.000000	1452.000000	35.507302
1049.000000	1451.000000	35.590021
1050.000000	1450.000000	35.626995
1051.000000	1449.000000	35.645034
1052.000000	1448.000000	35.712604
1053.000000	1447.000000	35.796120
1054.000000	1446.000000	35.895183
1055.000000	1445.000000	35.944116
1056.000000	1444.000000	35.970825
1057.000000	1443.000000	36.032316
1058.000000	1442.000000	36.102577
1059.000000	1441.000000	36.210410
1060.000000	1440.000000	36.256852
1061.000000	1439.000000	36.333392
1062.000000	1438.000000	36.421392
1063.000000	1437.000000	36.482485
1064.000000	1436.000000	36.567794
1065.000000	1435.000000	36.665960
1066.000000	1434.000000	36.773196
1067.000000	1433.000000	36.870664
1068.000000	1432.000000	36.985673
1069.000000	1431.000000	37.085533
1070.000000	1430.000000	37.163169
1071.000000	1429.000000	37.280669
1072.000000	1428.000000	37.420493
1073.000000	1427.000000	37.535502
1074.000000	1426.000000	37.667653
1075.000000	1425.000000	37.848238
1076.000000	1424.000000	38.023741
1077.000000	1423.000000	38.164263
1078.000000	1422.000000	38.307775
1079.000000	1421.000000	38.481484
1080.000000	1420.000000	38.724557
1081.000000	1419.000000	38.901654
1082.000000	1418.000000	39.079749
1083.000000	1417.000000	39.222862
1084.000000	1416.000000	39.481582
1085.000000	1415.000000	39.758739
1086.000000	1414.000000	40.000018
1087.000000	1413.000000	40.202629
1088.000000	1412.000000	40.416900
1089.000000	1411.000000	40.692362
1090.000000	1410.000000	40.967128
1091.000000	1409.000000	41.278867
1092.000000	1408.000000	41.506991
1093.000000	1407.000000	41.784945
1094.000000	1406.000000	42.035094
1095.000000	1405.000000	42.313447
1096.000000	1404.000000	42.491940
1097.000000	1403.000000	42.739797
1098.000000	1402.000000	43.037285
1099.000000	1401.000000	43.355303
1100.000000	1400.000000	43.562897
1101.000000	1399.000000	43.669534
1102.000000	1398.000000	43.790024
1103.000000	1397.000000	44.042166
1104.000000	1396.000000	44.282748
1105.000000	1395.000000	44.414500
1106.000000	1394.000000	44.497318
1107.000000	1393.000000	44.590002
1108.000000	1392.000000	44.722850
1109.000000	1391.000000	44.800387
1110.000000	1390.000000	44.892374
1111.000000	1389.000000	45.043460
1112.000000	1388.000000	45.246270
1113.000000	1387.000000	45.316929
1114.000000	1386.000000	45.442901
1115.000000	1385.000000	45.640429
1116.000000	1384.000000	45.910111
1117.000000	1383.000000	46.132056
1118.000000	1382.000000	46.406523
1119.000000	1381.000000	46.688962
1120.000000	1380.000000	46.972696
1121.000000	1379.000000	47.431037
1122.000000	1378.000000	47.892766
1123.000000	1377.000000	48.434722
1124.000000	1376.000000	48.986944
1125.000000	1375.000000	49.532388
1126.000000	1374.000000	50.099060
1127.000000	1373.000000	50.653674
1128.000000	1372.000000	51.130053
1129.000000	1371.000000	51.530790
1130.000000	1370.000000	51.833759
1131.000000	1369.000000	52.110218
1132.000000	1368.000000	52.364055
1133.000000	1367.000000	52.523512
1134.000000	1366.000000	52.706589
1135.000000	1365.000000	52.879102
1136.000000	1364.000000	53.013944
1137.000000	1363.000000	53.116196
1138.000000	1362.000000	53.277647
1139.000000	1361.000000	53.364352
1140.000000	1360.000000	53.387971
1141.000000	1359.000000	53.436905
1142.000000	1358.000000	53.500787
1143.000000	1357.000000	53.613803
1144.000000	1356.000000	53.730506
1145.000000	1355.000000	53.828772
1146.000000	1354.000000	53.946172
1147.000000	1353.000000	54.029389
1148.000000	1352.000000	54.169313
1149.000000	1351.000000	54.322392
1150.000000	1350.000000	54.483843
1151.000000	1349.000000	54.645593
1152.000000	1348.000000	54.816312
1153.000000	1347.000000	54.959325
1154.000000	1346.000000	55.106325
1155.000000	1345.000000	55.264288
1156.000000	1344.000000	55.427234
1157.000000	1343.000000	55.563769
1158.000000	1342.000000	55.695322
1159.000000	1341.000000	55.858566
1160.000000	1340.000000	56.002776
1161.000000	1339.000000	56.124761
1162.000000	1338.000000	56.256911
1163.000000	1337.000000	56.390556
1164.000000	1336.000000	56.503771
1165.000000	1335.000000	56.612601
1166.000000	1334.000000	56.736579
1167.000000	1333.000000	56.839429
1168.000000	1332.000000	56.928227
1169.000000	1331.000000	57.021709
1170.000000	1330.000000	57.117683
1171.000000	1329.000000	57.208573
1172.000000	1328.000000	57.296973
1173.000000	1327.000000	57.369426
1174.000000	1326.000000	57.449354
1175.000000	1325.000000	57.527787
1176.000000	1324.000000	57.602334
1177.000000	1323.000000	57.671698
1178.000000	1322.000000	57.735879
1179.000000	1321.000000	57.804446
1180.000000	1320.000000	57.854576
1181.000000	1319.000000	57.918159
1182.000000	1318.000000	57.974169
1183.000000	1317.000000	58.022604
1184.000000	1316.000000	58.072235
1185.000000	1315.000000	58.125554
1186.000000	1314.000000	58.173790
1187.000000	1313.000000	58.215847
1188.000000	1312.000000	58.261192
1189.000000	1311.000000	58.301156
1190.000000	1310.000000	58.338131
1191.000000	1309.000000	58.373710
1192.000000	1308.000000	58.402711
1193.000000	1307.000000	58.437393
1194.000000	1306.000000	58.472175
1195.000000	1305.000000	58.496392
1196.000000	1304.000000	58.504963
1197.000000	1303.000000	58.526988
1198.000000	1302.000000	58.550907
1199.000000	1301.000000	58.562268
1200.000000	1300.000000	58.576520
1201.000000	1299.000000	58.582200
1202.000000	1298.000000	58.587084
1203.000000	1297.000000	58.604225
1204.000000	1296.000000	58.611700
1205.000000	1295.000000	58.611501
1206.000000	1294.000000	58.615387
1207.000000	1293.000000	58.607813
1208.000000	1292.000000	58.607016
1209.000000	1291.000000	58.611401
1210.000000	1290.000000	58.608311
1211.000000	1289.000000	58.591170
1212.000000	1288.000000	58.566155
1213.000000	1287.000000	58.557983
1214.000000	1286.000000	58.550209
1215.000000	1285.000000	58.534164
1216.000000	1284.000000	58.525792
1217.000000	1283.000000	58.517321
1218.000000	1282.000000	58.505760
1219.000000	1281.000000	58.488021
1220.000000	1280.000000	58.465398
1221.000000	1279.000000	58.444568
1222.000000	1278.000000	58.436496
1223.000000	1277.000000	58.442276
1224.000000	1276.000000	58.438190
1225.000000	1275.000000	58.439884
1226.000000	1274.000000	58.444469
1227.000000	1273.000000	58.449552
1228.000000	1272.000000	58.446263
1229.000000	1271.000000	58.462806
1230.000000	1270.000000	58.481842
1231.000000	1269.000000	58.489914
1232.000000	1268.000000	58.499482
1233.000000	1267.000000	58.504764
1234.000000	1266.000000	58.508650
1235.000000	1265.000000	58.520909
1236.000000	1264.000000	58.519215
1237.000000	1263.000000	58.520610
1238.000000	1262.000000	58.520012
1239.000000	1261.000000	58.508152
1240.000000	1260.000000	58.512338
1241.000000	1259.000000	58.496093
1242.000000	1258.000000	58.496492
1243.000000	1257.000000	58.496093
1244.000000	1256.000000	58.482041
1245.000000	1255.000000	58.441678
1246.000000	1254.000000	58.418956
1247.000000	1253.000000	58.399721
1248.000000	1252.000000	58.373510
1249.000000	1251.000000	58.349990
1250.000000	1250.000000	58.317301
1251.000000	1249.000000	58.284214
1252.000000	1248.000000	58.224118
1253.000000	1247.000000	58.193024
1254.000000	1246.000000	58.175185
1255.000000	1245.000000	58.147180
1256.000000	1244.000000	58.110505
1257.000000	1243.000000	58.080108
1258.000000	1242.000000	58.070342
1259.000000	1241.000000	58.031275
1260.000000	1240.000000	58.006459
1261.000000	1239.000000	57.994799
1262.000000	1238.000000	57.980248
1263.000000	1237.000000	57.971578
1264.000000	1236.000000	57.974966
1265.000000	1235.000000	57.979351
1266.000000	1234.000000	57.969983
1267.000000	1233.000000	57.963306
1268.000000	1232.000000	57.940982
1269.000000	1231.000000	57.915070
1270.000000	1230.000000	57.919953
1271.000000	1229.000000	57.897131
1272.000000	1228.000000	57.890952
1273.000000	1227.000000	57.877697
1274.000000	1226.000000	57.840822
1275.000000	1225.000000	57.811721
1276.000000	1224.000000	57.801755
1277.000000	1223.000000	57.768469
1278.000000	1222.000000	57.744052
1279.000000	1221.000000	57.716944
1280.000000	1220.000000	57.677279
1281.000000	1219.000000	57.642597
1282.000000	1218.000000	57.611303
1283.000000	1217.000000	57.567951
1284.000000	1216.000000	57.549215
1285.000000	1215.000000	57.503968
1286.000000	1214.000000	57.455832
1287.000000	1213.000000	57.411284
1288.000000	1212.000000	57.368729
1289.000000	1211.000000	57.305543
1290.000000	1210.000000	57.239070
1291.000000	1209.000000	57.212859
1292.000000	1208.000000	57.158444
1293.000000	1207.000000	57.101139
1294.000000	1206.000000	57.041940
1295.000000	1205.000000	56.968988
1296.000000	1204.000000	56.938891
1297.000000	1203.000000	56.868929
1298.000000	1202.000000	56.814215
1299.000000	1201.000000	56.768371
1300.000000	1200.000000	56.700901
1301.000000	1199.000000	56.648678
1302.000000	1198.000000	56.585991
1303.000000	1197.000000	56.521112
1304.000000	1196.000000	56.459721
1305.000000	1195.000000	56.407897
1306.000000	1194.000000	56.345011
1307.000000	1193.000000	56.264286
1308.000000	1192.000000	56.196915
1309.000000	1191.000000	56.136521
1310.000000	1190.000000	56.084697
1311.000000	1189.000000	56.045231
1312.000000	1188.000000	56.013838
1313.000000	1187.000000	56.016329
1314.000000	1186.000000	55.998291
1315.000000	1185.000000	56.022110
1316.000000	1184.000000	56.036162
1317.000000	1183.000000	56.071243
1318.000000	1182.000000	56.115392
1319.000000	1181.000000	56.172996
1320.000000	1180.000000	56.229205
1321.000000	1179.000000	56.295679
1322.000000	1178.000000	56.382284
1323.000000	1177.000000	56.427630
1324.000000	1176.000000	56.500781
1325.000000	1175.000000	56.575029
1326.000000	1174.000000	56.621770
1327.000000	1173.000000	56.711863
1328.000000	1172.000000	56.771261
1329.000000	1171.000000	56.867633
1330.000000	1170.000000	56.963208
1331.000000	1169.000000	57.053999
1332.000000	1168.000000	57.168211
1333.000000	1167.000000	57.268868
1334.000000	1166.000000	57.393644
1335.000000	1165.000000	57.520512
1336.000000	1164.000000	57.613994
1337.000000	1163.000000	57.732491
1338.000000	1162.000000	57.888859
1339.000000	1161.000000	58.002771
1340.000000	1160.000000	58.116186
1341.000000	1159.000000	58.231095
1342.000000	1158.000000	58.364939
1343.000000	1157.000000	58.444967
1344.000000	1156.000000	58.545027
1345.000000	1155.000000	58.647378
1346.000000	1154.000000	58.736376
1347.000000	1153.000000	58.809627
1348.000000	1152.000000	58.878094
1349.000000	1151.000000	58.938787
1350.000000	1150.000000	59.017619
1351.000000	1149.000000	59.078013
1352.000000	1148.000000	59.159237
1353.000000	1147.000000	59.226409
1354.000000	1146.000000	59.315904
1355.000000	1145.000000	59.378192
1356.000000	1144.000000	59.454533
1357.000000	1143.000000	59.519511
1358.000000	1142.000000	59.581899
1359.000000	1141.000000	59.685547
1360.000000	1140.000000	59.774843
1361.000000	1139.000000	59.870717
1362.000000	1138.000000	59.991107
1363.000000	1137.000000	60.098043
1364.000000	1136.000000	60.247335
1365.000000	1135.000000	60.359653
1366.000000	1134.000000	60.438385
1367.000000	1133.000000	60.466290
1368.000000	1132.000000	60.542332
1369.000000	1131.000000	60.629236
1370.000000	1130.000000	60.724612
1371.000000	1129.000000	60.794873
1372.000000	1128.000000	60.841414
1373.000000	1127.000000	60.904699
1374.000000	1126.000000	60.963001
1375.000000	1125.000000	60.984826
1376.000000	1124.000000	61.008944
1377.000000	1123.000000	61.025986
1378.000000	1122.000000	61.047015
1379.000000	1121.000000	61.041633
1380.000000	1120.000000	61.045719
1381.000000	1119.000000	61.060270
1382.000000	1118.000000	61.056981
1383.000000	1117.000000	61.051599
1384.000000	1116.000000	61.041533
1385.000000	1115.000000	61.024093
1386.000000	1114.000000	61.018113
1387.000000	1113.000000	61.006253
1388.000000	1112.000000	61.001171
1389.000000	1111.000000	60.997782
1390.000000	1110.000000	60.981637
1391.000000	1109.000000	60.977352
1392.000000	1108.000000	60.957420
1393.000000	1107.000000	60.949746
1394.000000	1106.000000	60.946955
1395.000000	1105.000000	60.944962
1396.000000	1104.000000	60.927222
1397.000000	1103.000000	60.920844
1398.000000	1102.000000	60.901609
1399.000000	1101.000000	60.896327
1400.000000	1100.000000	60.885464
1401.000000	1099.000000	60.864635
1402.000000	1098.000000	60.850583
1403.000000	1097.000000	60.827362
1404.000000	1096.000000	60.800553
1405.000000	1095.000000	60.801949
1406.000000	1094.000000	60.786401
1407.000000	1093.000000	60.760091
1408.000000	1092.000000	60.721522
1409.000000	1091.000000	60.695112
1410.000000	1090.000000	60.685445
1411.000000	1089.000000	60.668104
1412.000000	1088.000000	60.642790
1413.000000	1087.000000	60.607410
1414.000000	1086.000000	60.595949
1415.000000	1085.000000	60.565852
1416.000000	1084.000000	60.534658
1417.000000	1083.000000	60.486721
1418.000000	1082.000000	60.462703
1419.000000	1081.000000	60.443368
1420.000000	1080.000000	60.412972
1421.000000	1079.000000	60.382775
1422.000000	1078.000000	60.344804
1423.000000	1077.000000	60.327861
1424.000000	1076.000000	60.292083
1425.000000	1075.000000	60.253913
1426.000000	1074.000000	60.213849
1427.000000	1073.000000	60.193917
1428.000000	1072.000000	60.167607
1429.000000	1071.000000	60.140100
1430.000000	1070.000000	60.106514
1431.000000	1069.000000	60.054890
1432.000000	1068.000000	60.016720
1433.000000	1067.000000	59.984828
1434.000000	1066.000000	59.956325
1435.000000	1065.000000	59.919351
1436.000000	1064.000000	59.878191
1437.000000	1063.000000	59.843410
1438.000000	1062.000000	59.804641
1439.000000	1061.000000	59.774145
1440.000000	1060.000000	59.733185
1441.000000	1059.000000	59.685846
1442.000000	1058.000000	59.660532
1443.000000	1057.000000	59.634421
1444.000000	1056.000000	59.597546
1445.000000	1055.000000	59.557881
1446.000000	1054.000000	59.529378
1447.000000	1053.000000	59.506257
1448.000000	1052.000000	59.456924
1449.000000	1051.000000	59.406297
1450.000000	1050.000000	59.381581
1451.000000	1049.000000	59.363741
1452.000000	1048.000000	59.330754
1453.000000	1047.000000	59.288298
1454.000000	1046.000000	59.253915
1455.000000	1045.000000	59.233186
1456.000000	1044.000000	59.201394
1457.000000	1043.000000	59.174087
1458.000000	1042.000000	59.135020
1459.000000	1041.000000	59.102231
1460.000000	1040.000000	59.072632
1461.000000	1039.000000	59.031272
1462.000000	1038.000000	58.994597
1463.000000	1037.000000	58.968885
1464.000000	1036.000000	58.941478
1465.000000	1035.000000	58.898524
1466.000000	1034.000000	58.854574
1467.000000	1033.000000	58.816204
1468.000000	1032.000000	58.784014
1469.000000	1031.000000	58.739764
1470.000000	1030.000000	58.700298
1471.000000	1029.000000	58.674387
1472.000000	1028.000000	58.626151
1473.000000	1027.000000	58.580008
1474.000000	1026.000000	58.560972
1475.000000	1025.000000	58.524696
1476.000000	1024.000000	58.481842
1477.000000	1023.000000	58.444469
1478.000000	1022.000000	58.390652
1479.000000	1021.000000	58.344110
1480.000000	1020.000000	58.311023
1481.000000	1019.000000	58.264282
1482.000000	1018.000000	58.233387
1483.000000	1017.000000	58.216644
1484.000000	1016.000000	58.174487
1485.000000	1015.000000	58.141400
1486.000000	1014.000000	58.114890
1487.000000	1013.000000	58.077717
1488.000000	1012.000000	58.057286
1489.000000	1011.000000	58.027288
1490.000000	1010.000000	58.003668
1491.000000	1009.000000	57.971677
1492.000000	1008.000000	57.935899
1493.000000	1007.000000	57.904705
1494.000000	1006.000000	57.873013
1495.000000	1005.000000	57.842517
1496.000000	1004.000000	57.827966
1497.000000	1003.000000	57.802553
1498.000000	1002.000000	57.771359
1499.000000	1001.000000	57.736976
1500.000000	1000.000000	57.701098
1501.000000	999.000000	57.684255
1502.000000	998.000000	57.653460
1503.000000	997.000000	57.624359
1504.000000	996.000000	57.592966
1505.000000	995.000000	57.558284
1506.000000	994.000000	57.539448
1507.000000	993.000000	57.514234
1508.000000	992.000000	57.482641
1509.000000	991.000000	57.449653
1510.000000	990.000000	57.418260
1511.000000	989.000000	57.395438
1512.000000	988.000000	57.380887
1513.000000	987.000000	57.351188
1514.000000	986.000000	57.322187
1515.000000	985.000000	57.316706
1516.000000	984.000000	57.312420
1517.000000	983.000000	57.287903
1518.000000	982.000000	57.273951
1519.000000	981.000000	57.248836
1520.000000	980.000000	57.246146
1521.000000	979.000000	57.213855
1522.000000	978.000000	57.211763
1523.000000	977.000000	57.188043
1524.000000	976.000000	57.186947
1525.000000	975.000000	57.166716
1526.000000	974.000000	57.155255
1527.000000	973.000000	57.134824
1528.000000	972.000000	57.131635
1529.000000	971.000000	57.133927
1530.000000	970.000000	57.119476
1531.000000	969.000000	57.094063
1532.000000	968.000000	57.086489
1533.000000	967.000000	57.084296
1534.000000	966.000000	57.066856
1535.000000	965.000000	57.064364
1536.000000	964.000000	57.070144
1537.000000	963.000000	57.064962
1538.000000	962.000000	57.062670
1539.000000	961.000000	57.048119
1540.000000	960.000000	57.047820
1541.000000	959.000000	57.069546
1542.000000	958.000000	57.075526
1543.000000	957.000000	57.056889
1544.000000	956.000000	57.050312
1545.000000	955.000000	57.061673
1546.000000	954.000000	57.048618
1547.000000	953.000000	57.049515
1548.000000	952.000000	57.062570
1549.000000	951.000000	57.050013
1550.000000	950.000000	57.028287
1551.000000	949.000000	57.014534
1552.000000	948.000000	57.036858
1553.000000	947.000000	57.005365
1554.000000	946.000000	57.018321
1555.000000	945.000000	57.008255
1556.000000	944.000000	57.013637
1557.000000	943.000000	57.029682
1558.000000	942.000000	57.027589
1559.000000	941.000000	57.038253
1560.000000	940.000000	57.036658
1561.000000	939.000000	57.075725
1562.000000	938.000000	57.095159
1563.000000	937.000000	57.094661
1564.000000	936.000000	57.138213
1565.000000	935.000000	57.133030
1566.000000	934.000000	57.180469
1567.000000	933.000000	57.181167
1568.000000	932.000000	57.176383
1569.000000	931.000000	57.207776
1570.000000	930.000000	57.216148
1571.000000	929.000000	57.218938
1572.000000	928.000000	57.221230
1573.000000	927.000000	57.261892
1574.000000	926.000000	57.242558
1575.000000	925.000000	57.247043
1576.000000	924.000000	57.276044
1577.000000	923.000000	57.327070
1578.000000	922.000000	57.324579
1579.000000	921.000000	57.349693
1580.000000	920.000000	57.357865
1581.000000	919.000000	57.404507
1582.000000	918.000000	57.425236
1583.000000	917.000000	57.440783
1584.000000	916.000000	57.480349
1585.000000	915.000000	57.531774
1586.000000	914.000000	57.558981
1587.000000	913.000000	57.550909
1588.000000	912.000000	57.606819
1589.000000	911.000000	57.637713
1590.000000	910.000000	57.645587
1591.000000	909.000000	57.691032
1592.000000	908.000000	57.720432
1593.000000	907.000000	57.766774
1594.000000	906.000000	57.789198
1595.000000	905.000000	57.819794
1596.000000	904.000000	57.838331
1597.000000	903.000000	57.890454
1598.000000	902.000000	57.892347
1599.000000	901.000000	57.925534
1600.000000	900.000000	57.953838
1601.000000	899.000000	57.965100
1602.000000	898.000000	58.004665
1603.000000	897.000000	58.033567
1604.000000	896.000000	58.040543
1605.000000	895.000000	58.075823
1606.000000	894.000000	58.102632
1607.000000	893.000000	58.125554
1608.000000	892.000000	58.132430
1609.000000	891.000000	58.146283
1610.000000	890.000000	58.169903
1611.000000	889.000000	58.194121
1612.000000	888.000000	58.204585
1613.000000	887.000000	58.208870
1614.000000	886.000000	58.200499
1615.000000	885.000000	58.229799
1616.000000	884.000000	58.226909
1617.000000	883.000000	58.251924
1618.000000	882.000000	58.246741
1619.000000	881.000000	58.288001
1620.000000	880.000000	58.288101
1621.000000	879.000000	58.301655
1622.000000	878.000000	58.315906
1623.000000	877.000000	58.322085
1624.000000	876.000000	58.340024
1625.000000	875.000000	58.377995
1626.000000	874.000000	58.389356
1627.000000	873.000000	58.417859
1628.000000	872.000000	58.453239
1629.000000	871.000000	58.475065
1630.000000	870.000000	58.483237
1631.000000	869.000000	58.513036
1632.000000	868.000000	58.549312
1633.000000	867.000000	58.574427
1634.000000	866.000000	58.638708
1635.000000	865.000000	58.661929
1636.000000	864.000000	58.694020
1637.000000	863.000000	58.709268
1638.000000	862.000000	58.724715
1639.000000	861.000000	58.720629
1640.000000	860.000000	58.716045
1641.000000	859.000000	58.667211
1642.000000	858.000000	58.592067
1643.000000	857.000000	58.533300
1644.000000	856.000000	58.373300
1645.000000	855.000000	58.869600
1646.000000	854.000000	59.213500
1647.000000	853.000000	58.852900
1648.000000	852.000000	59.254000
1649.000000	851.000000	58.836900
1650.000000	850.000000	58.984700
1651.000000	849.000000	59.174700
1652.000000	848.000000	59.011900
1653.000000	847.000000	59.219200
1654.000000	846.000000	59.456500
1655.000000	845.000000	59.086100
1656.000000	844.000000	59.254700
1657.000000	843.000000	59.362800
1658.000000	842.000000	59.237600
1659.000000	841.000000	59.344600
1660.000000	840.000000	59.200900
1661.000000	839.000000	59.362100
1662.000000	838.000000	59.600200
1663.000000	837.000000	59.563100
1664.000000	836.000000	59.523600
1665.000000	835.000000	59.431100
1666.000000	834.000000	59.527700
1667.000000	833.000000	59.401600
1668.000000	832.000000	59.512300
1669.000000	831.000000	59.297300
1670.000000	830.000000	59.373100
1671.000000	829.000000	59.316200
1672.000000	828.000000	59.193500
1673.000000	827.000000	59.365700
1674.000000	826.000000	59.354900
1675.000000	825.000000	59.194400
1676.000000	824.000000	59.102400
1677.000000	823.000000	59.115800
1678.000000	822.000000	58.909000
1679.000000	821.000000	58.878700
1680.000000	820.000000	58.863100
1681.000000	819.000000	58.929000
1682.000000	818.000000	58.792500
1683.000000	817.000000	58.702900
1684.000000	816.000000	58.745700
1685.000000	815.000000	58.795400
1686.000000	814.000000	58.672800
1687.000000	813.000000	58.557900
1688.000000	812.000000	58.606200
1689.000000	811.000000	58.511300
1690.000000	810.000000	58.420500
1691.000000	809.000000	58.385700
1692.000000	808.000000	58.372000
1693.000000	807.000000	58.282100
1694.000000	806.000000	58.245200
1695.000000	805.000000	58.037000
1696.000000	804.000000	57.972900
1697.000000	803.000000	57.920800
1698.000000	802.000000	57.929800
1699.000000	801.000000	57.871900
1700.000000	800.000000	57.781900
1701.000000	799.000000	57.762700
1702.000000	798.000000	57.613800
1703.000000	797.000000	57.480400
1704.000000	796.000000	57.464800
1705.000000	795.000000	57.313800
1706.000000	794.000000	57.229200
1707.000000	793.000000	57.125500
1708.000000	792.000000	56.949100
1709.000000	791.000000	56.914300
1710.000000	790.000000	56.843500
1711.000000	789.000000	56.649300
1712.000000	788.000000	56.587300
1713.000000	787.000000	56.511700
1714.000000	786.000000	56.387500
1715.000000	785.000000	56.211100
1716.000000	784.000000	56.105200
1717.000000	783.000000	56.058200
1718.000000	782.000000	55.965600
1719.000000	781.000000	55.831100
1720.000000	780.000000	55.660800
1721.000000	779.000000	55.557600
1722.000000	778.000000	55.406700
1723.000000	777.000000	55.282400
1724.000000	776.000000	55.230500
1725.000000	775.000000	55.127400
1726.000000	774.000000	54.931500
1727.000000	773.000000	54.871000
1728.000000	772.000000	54.760100
1729.000000	771.000000	54.659300
1730.000000	770.000000	54.529100
1731.000000	769.000000	54.324400
1732.000000	768.000000	54.201900
1733.000000	767.000000	54.158100
1734.000000	766.000000	54.043100
1735.000000	765.000000	53.950100
1736.000000	764.000000	53.821000
1737.000000	763.000000	53.619100
1738.000000	762.000000	53.589100
1739.000000	761.000000	53.464500
1740.000000	760.000000	53.302400
1741.000000	759.000000	53.202400
1742.000000	758.000000	53.060700
1743.000000	757.000000	52.961900
1744.000000	756.000000	52.877500
1745.000000	755.000000	52.795400
1746.000000	754.000000	52.688600
1747.000000	753.000000	52.572300
1748.000000	752.000000	52.477600
1749.000000	751.000000	52.356600
1750.000000	750.000000	52.292200
1751.000000	749.000000	52.230800
1752.000000	748.000000	52.093900
1753.000000	747.000000	52.018000
1754.000000	746.000000	51.927100
1755.000000	745.000000	51.798500
1756.000000	744.000000	51.743600
1757.000000	743.000000	51.671200
1758.000000	742.000000	51.624300
1759.000000	741.000000	51.605100
1760.000000	740.000000	51.535400
1761.000000	739.000000	51.474300
1762.000000	738.000000	51.391800
1763.000000	737.000000	51.304700
1764.000000	736.000000	51.259200
1765.000000	735.000000	51.243800
1766.000000	734.000000	51.190600
1767.000000	733.000000	51.173500
1768.000000	732.000000	51.124600
1769.000000	731.000000	51.068600
1770.000000	730.000000	51.080800
1771.000000	729.000000	51.028700
1772.000000	728.000000	50.883400
1773.000000	727.000000	50.812900
1774.000000	726.000000	50.765900
1775.000000	725.000000	50.705700
1776.000000	724.000000	50.618800
1777.000000	723.000000	50.528000
1778.000000	722.000000	50.447700
1779.000000	721.000000	50.381900
1780.000000	720.000000	50.319700
1781.000000	719.000000	50.226400
1782.000000	718.000000	50.171200
1783.000000	717.000000	50.069700
1784.000000	716.000000	49.920300
1785.000000	715.000000	49.822200
1786.000000	714.000000	49.733200
1787.000000	713.000000	49.567000
1788.000000	712.000000	49.381800
1789.000000	711.000000	49.288600
1790.000000	710.000000	49.161000
1791.000000	709.000000	49.022900
1792.000000	708.000000	48.893500
1793.000000	707.000000	48.755700
1794.000000	706.000000	48.637300
1795.000000	705.000000	48.497400
1796.000000	704.000000	48.400900
1797.000000	703.000000	48.247300
1798.000000	702.000000	48.100100
1799.000000	701.000000	47.998600
1800.000000	700.000000	47.907000
1801.000000	699.000000	47.828200
1802.000000	698.000000	47.733300
1803.000000	697.000000	47.651500
1804.000000	696.000000	47.547200
1805.000000	695.000000	47.416200
1806.000000	694.000000	47.386400
1807.000000	693.000000	47.312900
1808.000000	692.000000	47.262300
1809.000000	691.000000	47.237300
1810.000000	690.000000	47.185800
1811.000000	689.000000	47.156500
1812.000000	688.000000	47.141600
1813.000000	687.000000	47.087800
1814.000000	686.000000	47.084300
1815.000000	685.000000	47.088700
1816.000000	684.000000	47.085700
1817.000000	683.000000	47.072800
1818.000000	682.000000	47.003500
1819.000000	681.000000	46.998900
1820.000000	680.000000	47.004100
1821.000000	679.000000	46.972800
1822.000000	678.000000	46.964600
1823.000000	677.000000	46.965400
1824.000000	676.000000	46.948600
1825.000000	675.000000	46.915600
1826.000000	674.000000	46.890800
1827.000000	673.000000	46.854500
1828.000000	672.000000	46.799500
1829.000000	671.000000	46.772300
1830.000000	670.000000	46.711900
1831.000000	669.000000	46.605900
1832.000000	668.000000	46.517300
1833.000000	667.000000	46.444500
1834.000000	666.000000	46.324100
1835.000000	665.000000	46.160900
1836.000000	664.000000	46.032900
1837.000000	663.000000	45.855500
1838.000000	662.000000	45.700300
1839.000000	661.000000	45.500900
1840.000000	660.000000	45.287100
1841.000000	659.000000	45.052300
1842.000000	658.000000	44.831700
1843.000000	657.000000	44.565100
1844.000000	656.000000	44.352500
1845.000000	655.000000	44.122400
1846.000000	654.000000	43.864100
1847.000000	653.000000	43.547700
1848.000000	652.000000	43.287400
1849.000000	651.000000	42.977000
1850.000000	650.000000	42.696900
1851.000000	649.000000	42.368200
1852.000000	648.000000	42.073100
1853.000000	647.000000	41.735600
1854.000000	646.000000	41.431700
1855.000000	645.000000	41.114500
1856.000000	644.000000	40.771700
1857.000000	643.000000	40.473800
1858.000000	642.000000	40.182100
1859.000000	641.000000	39.867700
1860.000000	640.000000	39.579400
1861.000000	639.000000	39.362000
1862.000000	638.000000	39.140300
1863.000000	637.000000	38.970400
1864.000000	636.000000	38.852300
1865.000000	635.000000	38.808900
1866.000000	634.000000	38.841800
1867.000000	633.000000	38.912600
1868.000000	632.000000	39.067600
1869.000000	631.000000	39.272900
1870.000000	630.000000	39.556800
1871.000000	629.000000	39.884900
1872.000000	628.000000	40.214500
1873.000000	627.000000	40.579700
1874.000000	626.000000	40.993300
1875.000000	625.000000	41.401200
1876.000000	624.000000	41.846400
1877.000000	623.000000	42.326400
1878.000000	622.000000	42.741400
1879.000000	621.000000	43.208600
1880.000000	620.000000	43.665400
1881.000000	619.000000	44.067300
1882.000000	618.000000	44.539300
1883.000000	617.000000	44.941100
1884.000000	616.000000	45.398400
1885.000000	615.000000	45.846800
1886.000000	614.000000	46.328800
1887.000000	613.000000	46.804500
1888.000000	612.000000	47.283100
1889.000000	611.000000	47.727600
1890.000000	610.000000	48.221000
1891.000000	609.000000	48.646200
1892.000000	608.000000	49.028200
1893.000000	607.000000	49.411400
1894.000000	606.000000	49.784800
1895.000000	605.000000	50.169600
1896.000000	604.000000	50.504000
1897.000000	603.000000	50.822500
1898.000000	602.000000	51.110500
1899.000000	601.000000	51.378100
1900.000000	600.000000	51.568100
1901.000000	599.000000	51.741800
1902.000000	598.000000	51.920800
1903.000000	597.000000	52.082600
1904.000000	596.000000	52.200600
1905.000000	595.000000	52.321300
1906.000000	594.000000	52.466600
1907.000000	593.000000	52.581600
1908.000000	592.000000	52.697600
1909.000000	591.000000	52.852100
1910.000000	590.000000	52.948600
1911.000000	589.000000	53.106100
1912.000000	588.000000	53.295700
1913.000000	587.000000	53.433600
1914.000000	586.000000	53.584400
1915.000000	585.000000	53.728200
1916.000000	584.000000	53.869100
1917.000000	583.000000	53.971900
1918.000000	582.000000	54.092700
1919.000000	581.000000	54.213800
1920.000000	580.000000	54.285200
1921.000000	579.000000	54.322200
1922.000000	578.000000	54.304300
1923.000000	577.000000	54.351500
1924.000000	576.000000	54.409300
1925.000000	575.000000	54.433100
1926.000000	574.000000	54.456900
1927.000000	573.000000	54.477800
1928.000000	572.000000	54.479000
1929.000000	571.000000	54.503900
1930.000000	570.000000	54.562300
1931.000000	569.000000	54.592200
1932.000000	568.000000	54.594800
1933.000000	567.000000	54.609000
1934.000000	566.000000	54.590500
1935.000000	565.000000	54.553300
1936.000000	564.000000	54.525900
1937.000000	563.000000	54.450500
1938.000000	562.000000	54.412000
1939.000000	561.000000	54.370300
1940.000000	560.000000	54.318200
1941.000000	559.000000	54.121800
1942.000000	558.000000	54.061500
1943.000000	557.000000	53.992900
1944.000000	556.000000	53.935500
1945.000000	555.000000	53.806900
1946.000000	554.000000	53.663800
1947.000000	553.000000	53.488400
1948.000000	552.000000	53.284200
1949.000000	551.000000	53.041300
1950.000000	550.000000	52.766800
1951.000000	549.000000	52.436700
1952.000000	548.000000	52.094400
1953.000000	547.000000	51.680800
1954.000000	546.000000	51.242600
1955.000000	545.000000	50.785500
1956.000000	544.000000	50.243400
1957.000000	543.000000	49.645500
1958.000000	542.000000	49.027000
1959.000000	541.000000	48.366600
1960.000000	540.000000	47.644300
1961.000000	539.000000	46.906100
1962.000000	538.000000	46.132000
1963.000000	537.000000	45.301900
1964.000000	536.000000	44.484500
1965.000000	535.000000	43.589600
1966.000000	534.000000	42.712600
1967.000000	533.000000	41.829100
1968.000000	532.000000	40.951300
1969.000000	531.000000	40.114200
1970.000000	530.000000	39.306500
1971.000000	529.000000	38.498700
1972.000000	528.000000	37.702700
1973.000000	527.000000	36.959700
1974.000000	526.000000	36.234600
1975.000000	525.000000	35.545500
1976.000000	524.000000	34.870700
1977.000000	523.000000	34.214700
1978.000000	522.000000	33.611400
1979.000000	521.000000	32.998800
1980.000000	520.000000	32.414400
1981.000000	519.000000	31.862700
1982.000000	518.000000	31.301700
1983.000000	517.000000	30.801600
1984.000000	516.000000	30.335300
1985.000000	515.000000	29.887100
1986.000000	514.000000	29.459700
1987.000000	513.000000	29.056400
1988.000000	512.000000	28.694900
1989.000000	511.000000	28.355500
1990.000000	510.000000	28.007900
1991.000000	509.000000	27.682100
1992.000000	508.000000	27.394900
1993.000000	507.000000	27.110900
1994.000000	506.000000	26.845400
1995.000000	505.000000	26.576000
1996.000000	504.000000	26.333900
1997.000000	503.000000	26.089500
1998.000000	502.000000	25.838100
1999.000000	501.000000	25.579100
2000.000000	500.000000	25.303900
2001.000000	499.000000	25.047100
2002.000000	498.000000	24.792100
2003.000000	497.000000	24.538900
2004.000000	496.000000	24.270500
2005.000000	495.000000	24.008800
2006.000000	494.000000	23.758100
2007.000000	493.000000	23.486800
2008.000000	492.000000	23.203000
2009.000000	491.000000	22.907400
2010.000000	490.000000	22.630300
2011.000000	489.000000	22.341900
2012.000000	488.000000	22.053100
2013.000000	487.000000	21.787200
2014.000000	486.000000	21.516400
2015.000000	485.000000	21.251300
2016.000000	484.000000	20.973300
2017.000000	483.000000	20.697300
2018.000000	482.000000	20.422100
2019.000000	481.000000	20.159800
2020.000000	480.000000	19.896800
2021.000000	479.000000	19.643900
2022.000000	478.000000	19.396400
2023.000000	477.000000	19.153900
2024.000000	476.000000	18.940600
2025.000000	475.000000	18.741200
2026.000000	474.000000	18.535000
2027.000000	473.000000	18.329900
2028.000000	472.000000	18.159500
2029.000000	471.000000	17.992200
2030.000000	470.000000	17.836500
2031.000000	469.000000	17.692500
2032.000000	468.000000	17.562200
2033.000000	467.000000	17.439600
2034.000000	466.000000	17.317500
2035.000000	465.000000	17.184700
2036.000000	464.000000	17.041200
2037.000000	463.000000	16.896400
2038.000000	462.000000	16.741800
2039.000000	461.000000	16.585500
2040.000000	460.000000	16.407500
2041.000000	459.000000	16.208700
2042.000000	458.000000	16.001300
2043.000000	457.000000	15.782700
2044.000000	456.000000	15.548900
2045.000000	455.000000	15.310000
2046.000000	454.000000	15.056100
2047.000000	453.000000	14.788300
2048.000000	452.000000	14.527900
2049.000000	451.000000	14.259000
2050.000000	450.000000	13.971000
2051.000000	449.000000	13.689000
2052.000000	448.000000	13.426500
2053.000000	447.000000	13.175600
2054.000000	446.000000	12.923200
2055.000000	445.000000	12.679000
2056.000000	444.000000	12.447900
2057.000000	443.000000	12.245700
2058.000000	442.000000	12.061400
2059.000000	441.000000	11.894000
2060.000000	440.000000	11.740000
2061.000000	439.000000	11.616800
2062.000000	438.000000	11.531100
2063.000000	437.000000	11.457700
2064.000000	436.000000	11.405500
2065.000000	435.000000	11.366600
2066.000000	434.000000	11.354400
2067.000000	433.000000	11.372400
2068.000000	432.000000	11.402200
2069.000000	431.000000	11.453900
2070.000000	430.000000	11.519200
2071.000000	429.000000	11.564400
2072.000000	428.000000	11.599300
2073.000000	427.000000	11.651600
2074.000000	426.000000	11.713600
2075.000000	425.000000	11.765000
2076.000000	424.000000	11.805000
2077.000000	423.000000	11.843900
2078.000000	422.000000	11.892500
2079.000000	421.000000	11.925300
2080.000000	420.000000	11.940200
2081.000000	419.000000	11.956600
2082.000000	418.000000	11.949400
2083.000000	417.000000	11.932900
2084.000000	416.000000	11.914600
2085.000000	415.000000	11.885700
2086.000000	414.000000	11.850000
2087.000000	413.000000	11.802300
2088.000000	412.000000	11.742500
2089.000000	411.000000	11.668400
2090.000000	410.000000	11.611200
2091.000000	409.000000	11.540800
2092.000000	408.000000	11.453500
2093.000000	407.000000	11.366600
2094.000000	406.000000	11.252300
2095.000000	405.000000	11.151200
2096.000000	404.000000	11.053000
2097.000000	403.000000	10.919400
2098.000000	402.000000	10.779800
2099.000000	401.000000	10.647100
2100.000000	400.000000	10.511800
2101.000000	399.000000	10.363900
2102.000000	398.000000	10.211300
2103.000000	397.000000	10.037600
2104.000000	396.000000	9.877700
2105.000000	395.000000	9.722800
2106.000000	394.000000	9.540300
2107.000000	393.000000	9.347400
2108.000000	392.000000	9.162900
2109.000000	391.000000	8.964700
2110.000000	390.000000	8.790700
2111.000000	389.000000	8.611600
2112.000000	388.000000	8.422500
2113.000000	387.000000	8.239900
2114.000000	386.000000	8.075600
2115.000000	385.000000	7.894700
2116.000000	384.000000	7.712300
2117.000000	383.000000	7.552800
2118.000000	382.000000	7.402300
2119.000000	381.000000	7.253800
2120.000000	380.000000	7.095800
2121.000000	379.000000	6.937500
2122.000000	378.000000	6.795900
2123.000000	377.000000	6.688000
2124.000000	376.000000	6.642300
2125.000000	375.000000	6.442000
2126.000000	374.000000	6.252900
2127.000000	373.000000	6.128000
2128.000000	372.000000	6.086500
2129.000000	371.000000	6.130400
2130.000000	370.000000	6.015700
2131.000000	369.000000	5.957700
2132.000000	368.000000	5.867700
2133.000000	367.000000	5.882300
2134.000000	366.000000	5.814500
2135.000000	365.000000	5.788300
2136.000000	364.000000	5.816500
2137.000000	363.000000	5.789600
2138.000000	362.000000	5.682400
2139.000000	361.000000	5.669400
2140.000000	360.000000	5.680900
2141.000000	359.000000	5.674400
2142.000000	358.000000	5.635500
2143.000000	357.000000	5.601600
2144.000000	356.000000	5.661100
2145.000000	355.000000	5.514000
2146.000000	354.000000	5.550500
2147.000000	353.000000	5.568400
2148.000000	352.000000	5.543100
2149.000000	351.000000	5.471300
2150.000000	350.000000	5.540100
2151.000000	349.000000	5.463600
2152.000000	348.000000	5.439200
2153.000000	347.000000	5.599700
2154.000000	346.000000	5.522100
2155.000000	345.000000	5.416400
2156.000000	344.000000	5.446100
2157.000000	343.000000	5.461700
2158.000000	342.000000	5.510200
2159.000000	341.000000	5.536200
2160.000000	340.000000	5.564300
2161.000000	339.000000	5.472100
2162.000000	338.000000	5.531800
2163.000000	337.000000	5.523100
2164.000000	336.000000	5.407300
2165.000000	335.000000	5.426000
2166.000000	334.000000	5.280400
2167.000000	333.000000	5.314600
2168.000000	332.000000	5.409700
2169.000000	331.000000	5.579800
2170.000000	330.000000	5.397000
2171.000000	329.000000	5.363900
2172.000000	328.000000	5.476500
2173.000000	327.000000	5.551900
2174.000000	326.000000	5.520700
2175.000000	325.000000	5.616500
2176.000000	324.000000	5.634600
2177.000000	323.000000	5.662700
2178.000000	322.000000	5.538300
2179.000000	321.000000	5.547700
2180.000000	320.000000	5.709300
2181.000000	319.000000	5.690800
2182.000000	318.000000	5.822400
2183.000000	317.000000	5.915200
2184.000000	316.000000	5.448100
2185.000000	315.000000	5.450500
2186.000000	314.000000	5.406800
2187.000000	313.000000	5.402000
2188.000000	312.000000	5.395100
2189.000000	311.000000	5.414900
2190.000000	310.000000	5.341400
2191.000000	309.000000	5.407200
2192.000000	308.000000	5.375700
2193.000000	307.000000	5.356400
2194.000000	306.000000	5.419600
2195.000000	305.000000	5.393300
2196.000000	304.000000	5.319300
2197.000000	303.000000	5.402600
2198.000000	302.000000	5.390900
2199.000000	301.000000	5.392400
2200.000000	300.000000	5.394500
2201.000000	299.000000	5.378400
2202.000000	298.000000	5.413100
2203.000000	297.000000	5.390100
2204.000000	296.000000	5.392700
2205.000000	295.000000	5.423100
2206.000000	294.000000	5.375200
2207.000000	293.000000	5.427700
2208.000000	292.000000	5.374100
2209.000000	291.000000	5.395500
2210.000000	290.000000	5.415200
2211.000000	289.000000	5.403500
2212.000000	288.000000	5.437600
2213.000000	287.000000	5.407300
2214.000000	286.000000	5.373300
2215.000000	285.000000	5.414800
2216.000000	284.000000	5.424100
2217.000000	283.000000	5.450200
2218.000000	282.000000	5.412100
2219.000000	281.000000	5.428500
2220.000000	280.000000	5.420800
2221.000000	279.000000	5.472900
2222.000000	278.000000	5.435400
2223.000000	277.000000	5.458800
2224.000000	276.000000	5.455100
2225.000000	275.000000	5.486800
2226.000000	274.000000	5.495300
2227.000000	273.000000	5.454800
2228.000000	272.000000	5.519100
2229.000000	271.000000	5.583500
2230.000000	270.000000	5.583600
2231.000000	269.000000	5.613900
2232.000000	268.000000	5.587300
2233.000000	267.000000	5.564100
2234.000000	266.000000	5.635000
2235.000000	265.000000	5.661300
2236.000000	264.000000	5.666000
2237.000000	263.000000	5.705100
2238.000000	262.000000	5.779000
2239.000000	261.000000	5.789600
2240.000000	260.000000	5.816400
2241.000000	259.000000	5.838200
2242.000000	258.000000	5.851400
2243.000000	257.000000	5.867200
2244.000000	256.000000	5.945000
2245.000000	255.000000	5.937500
2246.000000	254.000000	5.932500
2247.000000	253.000000	5.884300
2248.000000	252.000000	5.897500
2249.000000	251.000000	5.911500
2250.000000	250.000000	5.895800
