PE UV       SUBTECH     SPECTRUM    ASCII       PEDS        4.00        
   -1
CICIMAUCR0101-1.ASC
24/04/03
16:31:32.00
24/04/03
16:31:32.00
Vinicio Soto Monge
C. resplendens
250,000000
1
Lambda 1050
1050L1511233
PerkinElmer UV WinLab 6.3.2.0749 / 2.02.05 Lambda 900 UV/VIS/NIR, Aug  7 2015 09:38:08

0
0
3350/servo 860,8/2
0
0
UV/VIS
1
1
1
DoubleDePol,CommonBeamDepol,RBeamAtt,SBeamAtt,60mm sphere, WB InGaAs Detector
0
0
0
0
Program
Program
3350/servo 860,8/2
3350/0,2 860,8/0,2
3350/0,2 860,8/0,2
0
15.00
 
 
 
0
 
860,8
319,2
860,8
Front
100
on
S:100 R:100
0
0
0
0
 
0
 
 
 
0
 
 
0
0
0
0
0
 
 
 
 
0
0


0
0
#HDR
-1
-1
#GR
nm
%R
1.0
0.0
2500,000000
-1,000000
2251
8
72,895300
3,379900
#DATA
501.000000	1999.000000	6.244158
502.000000	1998.000000	6.246997
503.000000	1997.000000	6.247403
504.000000	1996.000000	6.241724
505.000000	1995.000000	6.225904
506.000000	1994.000000	6.218906
507.000000	1993.000000	6.198320
508.000000	1992.000000	6.184731
509.000000	1991.000000	6.181790
510.000000	1990.000000	6.156235
511.000000	1989.000000	6.122972
512.000000	1988.000000	6.122059
513.000000	1987.000000	6.105834
514.000000	1986.000000	6.107760
515.000000	1985.000000	6.102588
516.000000	1984.000000	6.068717
517.000000	1983.000000	6.057866
518.000000	1982.000000	6.025922
519.000000	1981.000000	6.027849
520.000000	1980.000000	5.987082
521.000000	1979.000000	5.970957
522.000000	1978.000000	5.952095
523.000000	1977.000000	5.928061
524.000000	1976.000000	5.907373
525.000000	1975.000000	5.883136
526.000000	1974.000000	5.867417
527.000000	1973.000000	5.850786
528.000000	1972.000000	5.823709
529.000000	1971.000000	5.818740
530.000000	1970.000000	5.804441
531.000000	1969.000000	5.789939
532.000000	1968.000000	5.757691
533.000000	1967.000000	5.709217
534.000000	1966.000000	5.731527
535.000000	1965.000000	5.706073
536.000000	1964.000000	5.692281
537.000000	1963.000000	5.649993
538.000000	1962.000000	5.627277
539.000000	1961.000000	5.630826
540.000000	1960.000000	5.613890
541.000000	1959.000000	5.581743
542.000000	1958.000000	5.568053
543.000000	1957.000000	5.562780
544.000000	1956.000000	5.549292
545.000000	1955.000000	5.515826
546.000000	1954.000000	5.517652
547.000000	1953.000000	5.492401
548.000000	1952.000000	5.452952
549.000000	1951.000000	5.453662
550.000000	1950.000000	5.443419
551.000000	1949.000000	5.433177
552.000000	1948.000000	5.391801
553.000000	1947.000000	5.404883
554.000000	1946.000000	5.366854
555.000000	1945.000000	5.366043
556.000000	1944.000000	5.366449
557.000000	1943.000000	5.339068
558.000000	1942.000000	5.339879
559.000000	1941.000000	5.334606
560.000000	1940.000000	5.312295
561.000000	1939.000000	5.318177
562.000000	1938.000000	5.294447
563.000000	1937.000000	5.305501
564.000000	1936.000000	5.317264
565.000000	1935.000000	5.304689
566.000000	1934.000000	5.310267
567.000000	1933.000000	5.310166
568.000000	1932.000000	5.321118
569.000000	1931.000000	5.354482
570.000000	1930.000000	5.334504
571.000000	1929.000000	5.358234
572.000000	1928.000000	5.371113
573.000000	1927.000000	5.388455
574.000000	1926.000000	5.405694
575.000000	1925.000000	5.424962
576.000000	1924.000000	5.467048
577.000000	1923.000000	5.469076
578.000000	1922.000000	5.496153
579.000000	1921.000000	5.520593
580.000000	1920.000000	5.565720
581.000000	1919.000000	5.576673
582.000000	1918.000000	5.626465
583.000000	1917.000000	5.683255
584.000000	1916.000000	5.712056
585.000000	1915.000000	5.747347
586.000000	1914.000000	5.816915
587.000000	1913.000000	5.863259
588.000000	1912.000000	5.909908
589.000000	1911.000000	5.949864
590.000000	1910.000000	6.023691
591.000000	1909.000000	6.076526
592.000000	1908.000000	6.151367
593.000000	1907.000000	6.227831
594.000000	1906.000000	6.301860
595.000000	1905.000000	6.368690
596.000000	1904.000000	6.426190
597.000000	1903.000000	6.513910
598.000000	1902.000000	6.609135
599.000000	1901.000000	6.709734
600.000000	1900.000000	6.784372
601.000000	1899.000000	6.862458
602.000000	1898.000000	6.947339
603.000000	1897.000000	7.063556
604.000000	1896.000000	7.143569
605.000000	1895.000000	7.242647
606.000000	1894.000000	7.342435
607.000000	1893.000000	7.449829
608.000000	1892.000000	7.546879
609.000000	1891.000000	7.655490
610.000000	1890.000000	7.775864
611.000000	1889.000000	7.874841
612.000000	1888.000000	8.015700
613.000000	1887.000000	8.156255
614.000000	1886.000000	8.298332
615.000000	1885.000000	8.490099
616.000000	1884.000000	8.697991
617.000000	1883.000000	8.940870
618.000000	1882.000000	9.213259
619.000000	1881.000000	9.499946
620.000000	1880.000000	9.779536
621.000000	1879.000000	10.032961
622.000000	1878.000000	10.320257
623.000000	1877.000000	10.590821
624.000000	1876.000000	10.853677
625.000000	1875.000000	11.081344
626.000000	1874.000000	11.296436
627.000000	1873.000000	11.515382
628.000000	1872.000000	11.708062
629.000000	1871.000000	11.882488
630.000000	1870.000000	12.033793
631.000000	1869.000000	12.169784
632.000000	1868.000000	12.287725
633.000000	1867.000000	12.385485
634.000000	1866.000000	12.453227
635.000000	1865.000000	12.526243
636.000000	1864.000000	12.572081
637.000000	1863.000000	12.609501
638.000000	1862.000000	12.642561
639.000000	1861.000000	12.665277
640.000000	1860.000000	12.685458
641.000000	1859.000000	12.679373
642.000000	1858.000000	12.659801
643.000000	1857.000000	12.650065
644.000000	1856.000000	12.631304
645.000000	1855.000000	12.614166
646.000000	1854.000000	12.561128
647.000000	1853.000000	12.488620
648.000000	1852.000000	12.428483
649.000000	1851.000000	12.389034
650.000000	1850.000000	12.349687
651.000000	1849.000000	12.302125
652.000000	1848.000000	12.220388
653.000000	1847.000000	12.153964
654.000000	1846.000000	12.091394
655.000000	1845.000000	12.032272
656.000000	1844.000000	11.993533
657.000000	1843.000000	11.962298
658.000000	1842.000000	11.954997
659.000000	1841.000000	11.918083
660.000000	1840.000000	11.862409
661.000000	1839.000000	11.819106
662.000000	1838.000000	11.776514
663.000000	1837.000000	11.736862
664.000000	1836.000000	11.679870
665.000000	1835.000000	11.623283
666.000000	1834.000000	11.562335
667.000000	1833.000000	11.495607
668.000000	1832.000000	11.434862
669.000000	1831.000000	11.379998
670.000000	1830.000000	11.318239
671.000000	1829.000000	11.233156
672.000000	1828.000000	11.158010
673.000000	1827.000000	11.098077
674.000000	1826.000000	11.026684
675.000000	1825.000000	10.972125
676.000000	1824.000000	10.933589
677.000000	1823.000000	10.910467
678.000000	1822.000000	10.888258
679.000000	1821.000000	10.858849
680.000000	1820.000000	10.817068
681.000000	1819.000000	10.786949
682.000000	1818.000000	10.761495
683.000000	1817.000000	10.746587
684.000000	1816.000000	10.753179
685.000000	1815.000000	10.742227
686.000000	1814.000000	10.720626
687.000000	1813.000000	10.702474
688.000000	1812.000000	10.693955
689.000000	1811.000000	10.679859
690.000000	1810.000000	10.649842
691.000000	1809.000000	10.607756
692.000000	1808.000000	10.565874
693.000000	1807.000000	10.535653
694.000000	1806.000000	10.483123
695.000000	1805.000000	10.436474
696.000000	1804.000000	10.396417
697.000000	1803.000000	10.350477
698.000000	1802.000000	10.312043
699.000000	1801.000000	10.279084
700.000000	1800.000000	10.237506
701.000000	1799.000000	10.192277
702.000000	1798.000000	10.144817
703.000000	1797.000000	10.111757
704.000000	1796.000000	10.081841
705.000000	1795.000000	10.046550
706.000000	1794.000000	9.989963
707.000000	1793.000000	9.938953
708.000000	1792.000000	9.909848
709.000000	1791.000000	9.853565
710.000000	1790.000000	9.803773
711.000000	1789.000000	9.768989
712.000000	1788.000000	9.701551
713.000000	1787.000000	9.653989
714.000000	1786.000000	9.596185
715.000000	1785.000000	9.541221
716.000000	1784.000000	9.460802
717.000000	1783.000000	9.417804
718.000000	1782.000000	9.369431
719.000000	1781.000000	9.309396
720.000000	1780.000000	9.251490
721.000000	1779.000000	9.192368
722.000000	1778.000000	9.118845
723.000000	1777.000000	9.052827
724.000000	1776.000000	8.987011
725.000000	1775.000000	8.911359
726.000000	1774.000000	8.826681
727.000000	1773.000000	8.739671
728.000000	1772.000000	8.656818
729.000000	1771.000000	8.583194
730.000000	1770.000000	8.511801
731.000000	1769.000000	8.434729
732.000000	1768.000000	8.365263
733.000000	1767.000000	8.319628
734.000000	1766.000000	8.272168
735.000000	1765.000000	8.232313
736.000000	1764.000000	8.204425
737.000000	1763.000000	8.205034
738.000000	1762.000000	8.218319
739.000000	1761.000000	8.241136
740.000000	1760.000000	8.278354
741.000000	1759.000000	8.316890
742.000000	1758.000000	8.366581
743.000000	1757.000000	8.421444
744.000000	1756.000000	8.461907
745.000000	1755.000000	8.476916
746.000000	1754.000000	8.506832
747.000000	1753.000000	8.512612
748.000000	1752.000000	8.515553
749.000000	1751.000000	8.495575
750.000000	1750.000000	8.460893
751.000000	1749.000000	8.447203
752.000000	1748.000000	8.427326
753.000000	1747.000000	8.390717
754.000000	1746.000000	8.337679
755.000000	1745.000000	8.265272
756.000000	1744.000000	8.179174
757.000000	1743.000000	8.075025
758.000000	1742.000000	7.996736
759.000000	1741.000000	7.880520
760.000000	1740.000000	7.752844
761.000000	1739.000000	7.645450
762.000000	1738.000000	7.557020
763.000000	1737.000000	7.475689
764.000000	1736.000000	7.413321
765.000000	1735.000000	7.378841
766.000000	1734.000000	7.376509
767.000000	1733.000000	7.386549
768.000000	1732.000000	7.405005
769.000000	1731.000000	7.459159
770.000000	1730.000000	7.489683
771.000000	1729.000000	7.581865
772.000000	1728.000000	7.642813
773.000000	1727.000000	7.695547
774.000000	1726.000000	7.760855
775.000000	1725.000000	7.796450
776.000000	1724.000000	7.812879
777.000000	1723.000000	7.832958
778.000000	1722.000000	7.841172
779.000000	1721.000000	7.831437
780.000000	1720.000000	7.833465
781.000000	1719.000000	7.847156
782.000000	1718.000000	7.839043
783.000000	1717.000000	7.854153
784.000000	1716.000000	7.878390
785.000000	1715.000000	7.889647
786.000000	1714.000000	7.917940
787.000000	1713.000000	7.941265
788.000000	1712.000000	7.949783
789.000000	1711.000000	7.963778
790.000000	1710.000000	7.973716
791.000000	1709.000000	7.959214
792.000000	1708.000000	7.917433
793.000000	1707.000000	7.920881
794.000000	1706.000000	7.899788
795.000000	1705.000000	7.871291
796.000000	1704.000000	7.836710
797.000000	1703.000000	7.782253
798.000000	1702.000000	7.726781
799.000000	1701.000000	7.678206
800.000000	1700.000000	7.581156
801.000000	1699.000000	7.485424
802.000000	1698.000000	7.445772
803.000000	1697.000000	7.356531
804.000000	1696.000000	7.308868
805.000000	1695.000000	7.319313
806.000000	1694.000000	7.339291
807.000000	1693.000000	7.367788
808.000000	1692.000000	7.415755
809.000000	1691.000000	7.524264
810.000000	1690.000000	7.562192
811.000000	1689.000000	7.612694
812.000000	1688.000000	7.668065
813.000000	1687.000000	7.629731
814.000000	1686.000000	7.622734
815.000000	1685.000000	7.621111
816.000000	1684.000000	7.644740
817.000000	1683.000000	7.717350
818.000000	1682.000000	7.861049
819.000000	1681.000000	8.092265
820.000000	1680.000000	8.364147
821.000000	1679.000000	8.693225
822.000000	1678.000000	9.025750
823.000000	1677.000000	9.321464
824.000000	1676.000000	9.622349
825.000000	1675.000000	9.876383
826.000000	1674.000000	10.097052
827.000000	1673.000000	10.297237
828.000000	1672.000000	10.454626
829.000000	1671.000000	10.633616
830.000000	1670.000000	10.724480
831.000000	1669.000000	10.865441
832.000000	1668.000000	10.972328
833.000000	1667.000000	11.059845
834.000000	1666.000000	11.128500
835.000000	1665.000000	11.168050
836.000000	1664.000000	11.228795
837.000000	1663.000000	11.277675
838.000000	1662.000000	11.308301
839.000000	1661.000000	11.323817
840.000000	1660.000000	11.360020
841.000000	1659.000000	11.361440
842.000000	1658.000000	11.378781
843.000000	1657.000000	11.412247
844.000000	1656.000000	11.418940
845.000000	1655.000000	11.421678
846.000000	1654.000000	11.399064
847.000000	1653.000000	11.400280
848.000000	1652.000000	11.410726
849.000000	1651.000000	11.397542
850.000000	1650.000000	11.361339
851.000000	1649.000000	11.315603
852.000000	1648.000000	11.291264
853.000000	1647.000000	11.260841
854.000000	1646.000000	11.234981
855.000000	1645.000000	11.207296
856.000000	1644.000000	11.167949
857.000000	1643.000000	11.142799
858.000000	1642.000000	11.109232
859.000000	1641.000000	11.068871
860.000000	1640.000000	11.037129
861.000000	1639.000000	10.992407
862.000000	1638.000000	10.955088
863.000000	1637.000000	10.907830
864.000000	1636.000000	10.878928
865.000000	1635.000000	10.823761
866.000000	1634.000000	10.805913
867.000000	1633.000000	10.746587
868.000000	1632.000000	10.699229
869.000000	1631.000000	10.665865
870.000000	1630.000000	10.641120
871.000000	1629.000000	10.577333
872.000000	1628.000000	10.530279
873.000000	1627.000000	10.505636
874.000000	1626.000000	10.447426
875.000000	1625.000000	10.408282
876.000000	1624.000000	10.365486
877.000000	1623.000000	10.315896
878.000000	1622.000000	10.260830
879.000000	1621.000000	10.214587
880.000000	1620.000000	10.170169
881.000000	1619.000000	10.130923
882.000000	1618.000000	10.086303
883.000000	1617.000000	10.049592
884.000000	1616.000000	10.005073
885.000000	1615.000000	9.968565
886.000000	1614.000000	9.931043
887.000000	1613.000000	9.894028
888.000000	1612.000000	9.854377
889.000000	1611.000000	9.801237
890.000000	1610.000000	9.762397
891.000000	1609.000000	9.729844
892.000000	1608.000000	9.706520
893.000000	1607.000000	9.673866
894.000000	1606.000000	9.640502
895.000000	1605.000000	9.596489
896.000000	1604.000000	9.552984
897.000000	1603.000000	9.510290
898.000000	1602.000000	9.491124
899.000000	1601.000000	9.448531
900.000000	1600.000000	9.403505
901.000000	1599.000000	9.358681
902.000000	1598.000000	9.320348
903.000000	1597.000000	9.281305
904.000000	1596.000000	9.249868
905.000000	1595.000000	9.222487
906.000000	1594.000000	9.183444
907.000000	1593.000000	9.156063
908.000000	1592.000000	9.138215
909.000000	1591.000000	9.112456
910.000000	1590.000000	9.061751
911.000000	1589.000000	9.045830
912.000000	1588.000000	9.027576
913.000000	1587.000000	8.995023
914.000000	1586.000000	8.968656
915.000000	1585.000000	8.956385
916.000000	1584.000000	8.941072
917.000000	1583.000000	8.923123
918.000000	1582.000000	8.909027
919.000000	1581.000000	8.897162
920.000000	1580.000000	8.895945
921.000000	1579.000000	8.875865
922.000000	1578.000000	8.860857
923.000000	1577.000000	8.851527
924.000000	1576.000000	8.851223
925.000000	1575.000000	8.852642
926.000000	1574.000000	8.848991
927.000000	1573.000000	8.848586
928.000000	1572.000000	8.852135
929.000000	1571.000000	8.844124
930.000000	1570.000000	8.850614
931.000000	1569.000000	8.872620
932.000000	1568.000000	8.881037
933.000000	1567.000000	8.892801
934.000000	1566.000000	8.901015
935.000000	1565.000000	8.914097
936.000000	1564.000000	8.940160
937.000000	1563.000000	8.953647
938.000000	1562.000000	8.970380
939.000000	1561.000000	9.000702
940.000000	1560.000000	9.014494
941.000000	1559.000000	9.025750
942.000000	1558.000000	9.040049
943.000000	1557.000000	9.038731
944.000000	1556.000000	9.051914
945.000000	1555.000000	9.068546
946.000000	1554.000000	9.085075
947.000000	1553.000000	9.111442
948.000000	1552.000000	9.137505
949.000000	1551.000000	9.134057
950.000000	1550.000000	9.131217
951.000000	1549.000000	9.137606
952.000000	1548.000000	9.147747
953.000000	1547.000000	9.160525
954.000000	1546.000000	9.159511
955.000000	1545.000000	9.173607
956.000000	1544.000000	9.190340
957.000000	1543.000000	9.193483
958.000000	1542.000000	9.215185
959.000000	1541.000000	9.239118
960.000000	1540.000000	9.254026
961.000000	1539.000000	9.273395
962.000000	1538.000000	9.285564
963.000000	1537.000000	9.290128
964.000000	1536.000000	9.286578
965.000000	1535.000000	9.304224
966.000000	1534.000000	9.322681
967.000000	1533.000000	9.329171
968.000000	1532.000000	9.339616
969.000000	1531.000000	9.337588
970.000000	1530.000000	9.361521
971.000000	1529.000000	9.375820
972.000000	1528.000000	9.363346
973.000000	1527.000000	9.357566
974.000000	1526.000000	9.360101
975.000000	1525.000000	9.376428
976.000000	1524.000000	9.386772
977.000000	1523.000000	9.389409
978.000000	1522.000000	9.378558
979.000000	1521.000000	9.385758
980.000000	1520.000000	9.382006
981.000000	1519.000000	9.374096
982.000000	1518.000000	9.362231
983.000000	1517.000000	9.360912
984.000000	1516.000000	9.362839
985.000000	1515.000000	9.356045
986.000000	1514.000000	9.333024
987.000000	1513.000000	9.335661
988.000000	1512.000000	9.330692
989.000000	1511.000000	9.310207
990.000000	1510.000000	9.304630
991.000000	1509.000000	9.300979
992.000000	1508.000000	9.311120
993.000000	1507.000000	9.296618
994.000000	1506.000000	9.289114
995.000000	1505.000000	9.270048
996.000000	1504.000000	9.260820
997.000000	1503.000000	9.249056
998.000000	1502.000000	9.229991
999.000000	1501.000000	9.218938
1000.000000	1500.000000	9.206363
1001.000000	1499.000000	9.192571
1002.000000	1498.000000	9.185168
1003.000000	1497.000000	9.178880
1004.000000	1496.000000	9.182125
1005.000000	1495.000000	9.162959
1006.000000	1494.000000	9.146835
1007.000000	1493.000000	9.140750
1008.000000	1492.000000	9.153629
1009.000000	1491.000000	9.152006
1010.000000	1490.000000	9.157584
1011.000000	1489.000000	9.157381
1012.000000	1488.000000	9.156773
1013.000000	1487.000000	9.142068
1014.000000	1486.000000	9.145820
1015.000000	1485.000000	9.128378
1016.000000	1484.000000	9.151297
1017.000000	1483.000000	9.156570
1018.000000	1482.000000	9.157280
1019.000000	1481.000000	9.157178
1020.000000	1480.000000	9.159612
1021.000000	1479.000000	9.171477
1022.000000	1478.000000	9.193483
1023.000000	1477.000000	9.192875
1024.000000	1476.000000	9.198554
1025.000000	1475.000000	9.212751
1026.000000	1474.000000	9.240437
1027.000000	1473.000000	9.264471
1028.000000	1472.000000	9.271063
1029.000000	1471.000000	9.300979
1030.000000	1470.000000	9.305948
1031.000000	1469.000000	9.294488
1032.000000	1468.000000	9.335053
1033.000000	1467.000000	9.363143
1034.000000	1466.000000	9.398941
1035.000000	1465.000000	9.415776
1036.000000	1464.000000	9.442244
1037.000000	1463.000000	9.457455
1038.000000	1462.000000	9.493355
1039.000000	1461.000000	9.554607
1040.000000	1460.000000	9.603487
1041.000000	1459.000000	9.645166
1042.000000	1458.000000	9.706418
1043.000000	1457.000000	9.738261
1044.000000	1456.000000	9.779536
1045.000000	1455.000000	9.877397
1046.000000	1454.000000	9.895448
1047.000000	1453.000000	9.985399
1048.000000	1452.000000	10.043710
1049.000000	1451.000000	10.137819
1050.000000	1450.000000	10.181122
1051.000000	1449.000000	10.284662
1052.000000	1448.000000	10.329080
1053.000000	1447.000000	10.423189
1054.000000	1446.000000	10.511315
1055.000000	1445.000000	10.595384
1056.000000	1444.000000	10.685335
1057.000000	1443.000000	10.726204
1058.000000	1442.000000	10.846781
1059.000000	1441.000000	10.937848
1060.000000	1440.000000	11.016441
1061.000000	1439.000000	11.098685
1062.000000	1438.000000	11.203240
1063.000000	1437.000000	11.279298
1064.000000	1436.000000	11.348561
1065.000000	1435.000000	11.423402
1066.000000	1434.000000	11.546515
1067.000000	1433.000000	11.729561
1068.000000	1432.000000	11.822656
1069.000000	1431.000000	11.905813
1070.000000	1430.000000	11.990490
1071.000000	1429.000000	12.107214
1072.000000	1428.000000	12.212377
1073.000000	1427.000000	12.323726
1074.000000	1426.000000	12.435176
1075.000000	1425.000000	12.600374
1076.000000	1424.000000	12.747318
1077.000000	1423.000000	12.888177
1078.000000	1422.000000	12.982692
1079.000000	1421.000000	13.123856
1080.000000	1420.000000	13.278608
1081.000000	1419.000000	13.428595
1082.000000	1418.000000	13.539944
1083.000000	1417.000000	13.655552
1084.000000	1416.000000	13.800468
1085.000000	1415.000000	13.935749
1086.000000	1414.000000	14.084012
1087.000000	1413.000000	14.170515
1088.000000	1412.000000	14.283284
1089.000000	1411.000000	14.426983
1090.000000	1410.000000	14.577679
1091.000000	1409.000000	14.776951
1092.000000	1408.000000	14.992144
1093.000000	1407.000000	15.223462
1094.000000	1406.000000	15.460154
1095.000000	1405.000000	15.720475
1096.000000	1404.000000	15.942260
1097.000000	1403.000000	16.198018
1098.000000	1402.000000	16.446576
1099.000000	1401.000000	16.707404
1100.000000	1400.000000	16.913876
1101.000000	1399.000000	17.065079
1102.000000	1398.000000	17.163650
1103.000000	1397.000000	17.295078
1104.000000	1396.000000	17.393041
1105.000000	1395.000000	17.424783
1106.000000	1394.000000	17.429448
1107.000000	1393.000000	17.442124
1108.000000	1392.000000	17.471330
1109.000000	1391.000000	17.509258
1110.000000	1390.000000	17.553878
1111.000000	1389.000000	17.649813
1112.000000	1388.000000	17.793715
1113.000000	1387.000000	17.913886
1114.000000	1386.000000	18.122691
1115.000000	1385.000000	18.399136
1116.000000	1384.000000	18.719492
1117.000000	1383.000000	19.073010
1118.000000	1382.000000	19.411012
1119.000000	1381.000000	19.686240
1120.000000	1380.000000	19.873647
1121.000000	1379.000000	20.101415
1122.000000	1378.000000	20.342063
1123.000000	1377.000000	20.587578
1124.000000	1376.000000	20.889275
1125.000000	1375.000000	21.251513
1126.000000	1374.000000	21.724797
1127.000000	1373.000000	22.226374
1128.000000	1372.000000	22.762532
1129.000000	1371.000000	23.303152
1130.000000	1370.000000	23.771568
1131.000000	1369.000000	24.190800
1132.000000	1368.000000	24.584780
1133.000000	1367.000000	24.927852
1134.000000	1366.000000	25.211700
1135.000000	1365.000000	25.472529
1136.000000	1364.000000	25.724331
1137.000000	1363.000000	25.932730
1138.000000	1362.000000	26.108779
1139.000000	1361.000000	26.237571
1140.000000	1360.000000	26.321741
1141.000000	1359.000000	26.393844
1142.000000	1358.000000	26.520811
1143.000000	1357.000000	26.731542
1144.000000	1356.000000	27.077758
1145.000000	1355.000000	27.583695
1146.000000	1354.000000	28.253513
1147.000000	1353.000000	28.962880
1148.000000	1352.000000	29.713420
1149.000000	1351.000000	30.465685
1150.000000	1350.000000	31.161362
1151.000000	1349.000000	31.772868
1152.000000	1348.000000	32.365207
1153.000000	1347.000000	32.927428
1154.000000	1346.000000	33.401320
1155.000000	1345.000000	33.890525
1156.000000	1344.000000	34.368676
1157.000000	1343.000000	34.794094
1158.000000	1342.000000	35.195071
1159.000000	1341.000000	35.608421
1160.000000	1340.000000	36.010312
1161.000000	1339.000000	36.394658
1162.000000	1338.000000	36.742294
1163.000000	1337.000000	37.098448
1164.000000	1336.000000	37.442027
1165.000000	1335.000000	37.769178
1166.000000	1334.000000	38.076959
1167.000000	1333.000000	38.375005
1168.000000	1332.000000	38.669096
1169.000000	1331.000000	38.946860
1170.000000	1330.000000	39.210730
1171.000000	1329.000000	39.436775
1172.000000	1328.000000	39.665354
1173.000000	1327.000000	39.881359
1174.000000	1326.000000	40.096552
1175.000000	1325.000000	40.303937
1176.000000	1324.000000	40.482318
1177.000000	1323.000000	40.666784
1178.000000	1322.000000	40.834213
1179.000000	1321.000000	40.996876
1180.000000	1320.000000	41.141995
1181.000000	1319.000000	41.278189
1182.000000	1318.000000	41.418643
1183.000000	1317.000000	41.546319
1184.000000	1316.000000	41.660913
1185.000000	1315.000000	41.795992
1186.000000	1314.000000	41.915859
1187.000000	1313.000000	42.013720
1188.000000	1312.000000	42.103570
1189.000000	1311.000000	42.202141
1190.000000	1310.000000	42.290166
1191.000000	1309.000000	42.368353
1192.000000	1308.000000	42.439645
1193.000000	1307.000000	42.494711
1194.000000	1306.000000	42.538622
1195.000000	1305.000000	42.571479
1196.000000	1304.000000	42.602105
1197.000000	1303.000000	42.621880
1198.000000	1302.000000	42.623198
1199.000000	1301.000000	42.629486
1200.000000	1300.000000	42.636179
1201.000000	1299.000000	42.626545
1202.000000	1298.000000	42.611333
1203.000000	1297.000000	42.601699
1204.000000	1296.000000	42.594094
1205.000000	1295.000000	42.582026
1206.000000	1294.000000	42.563265
1207.000000	1293.000000	42.535174
1208.000000	1292.000000	42.502520
1209.000000	1291.000000	42.450902
1210.000000	1290.000000	42.403543
1211.000000	1289.000000	42.343913
1212.000000	1288.000000	42.259540
1213.000000	1287.000000	42.177600
1214.000000	1286.000000	42.098094
1215.000000	1285.000000	41.994959
1216.000000	1284.000000	41.881988
1217.000000	1283.000000	41.785546
1218.000000	1282.000000	41.680079
1219.000000	1281.000000	41.560719
1220.000000	1280.000000	41.446531
1221.000000	1279.000000	41.335283
1222.000000	1278.000000	41.224239
1223.000000	1277.000000	41.127493
1224.000000	1276.000000	41.032877
1225.000000	1275.000000	40.934610
1226.000000	1274.000000	40.848106
1227.000000	1273.000000	40.754403
1228.000000	1272.000000	40.667596
1229.000000	1271.000000	40.589104
1230.000000	1270.000000	40.496212
1231.000000	1269.000000	40.403624
1232.000000	1268.000000	40.318439
1233.000000	1267.000000	40.218651
1234.000000	1266.000000	40.126063
1235.000000	1265.000000	40.025565
1236.000000	1264.000000	39.927805
1237.000000	1263.000000	39.826394
1238.000000	1262.000000	39.711902
1239.000000	1261.000000	39.621748
1240.000000	1260.000000	39.539098
1241.000000	1259.000000	39.449958
1242.000000	1258.000000	39.359094
1243.000000	1257.000000	39.247035
1244.000000	1256.000000	39.135281
1245.000000	1255.000000	39.017847
1246.000000	1254.000000	38.894937
1247.000000	1253.000000	38.770811
1248.000000	1252.000000	38.659563
1249.000000	1251.000000	38.541420
1250.000000	1250.000000	38.427232
1251.000000	1249.000000	38.287183
1252.000000	1248.000000	38.138110
1253.000000	1247.000000	37.966320
1254.000000	1246.000000	37.795849
1255.000000	1245.000000	37.622132
1256.000000	1244.000000	37.428641
1257.000000	1243.000000	37.237989
1258.000000	1242.000000	37.039731
1259.000000	1241.000000	36.815918
1260.000000	1240.000000	36.588555
1261.000000	1239.000000	36.385024
1262.000000	1238.000000	36.164354
1263.000000	1237.000000	35.942062
1264.000000	1236.000000	35.698677
1265.000000	1235.000000	35.467765
1266.000000	1234.000000	35.225697
1267.000000	1233.000000	34.975619
1268.000000	1232.000000	34.731726
1269.000000	1231.000000	34.478402
1270.000000	1230.000000	34.229439
1271.000000	1229.000000	33.976521
1272.000000	1228.000000	33.730499
1273.000000	1227.000000	33.501209
1274.000000	1226.000000	33.244641
1275.000000	1225.000000	32.986550
1276.000000	1224.000000	32.764360
1277.000000	1223.000000	32.536186
1278.000000	1222.000000	32.308417
1279.000000	1221.000000	32.068378
1280.000000	1220.000000	31.852272
1281.000000	1219.000000	31.653812
1282.000000	1218.000000	31.462450
1283.000000	1217.000000	31.284474
1284.000000	1216.000000	31.119175
1285.000000	1215.000000	30.976794
1286.000000	1214.000000	30.838774
1287.000000	1213.000000	30.705217
1288.000000	1212.000000	30.555940
1289.000000	1211.000000	30.439825
1290.000000	1210.000000	30.319146
1291.000000	1209.000000	30.210130
1292.000000	1208.000000	30.122410
1293.000000	1207.000000	30.064098
1294.000000	1206.000000	30.017551
1295.000000	1205.000000	29.998993
1296.000000	1204.000000	29.970598
1297.000000	1203.000000	29.995849
1298.000000	1202.000000	29.985708
1299.000000	1201.000000	29.955792
1300.000000	1200.000000	29.894438
1301.000000	1199.000000	29.829434
1302.000000	1198.000000	29.712609
1303.000000	1197.000000	29.548932
1304.000000	1196.000000	29.315891
1305.000000	1195.000000	28.994013
1306.000000	1194.000000	28.567379
1307.000000	1193.000000	28.086794
1308.000000	1192.000000	27.499727
1309.000000	1191.000000	26.887917
1310.000000	1190.000000	26.316569
1311.000000	1189.000000	25.801606
1312.000000	1188.000000	25.423547
1313.000000	1187.000000	25.206934
1314.000000	1186.000000	25.133209
1315.000000	1185.000000	25.229042
1316.000000	1184.000000	25.473847
1317.000000	1183.000000	25.947739
1318.000000	1182.000000	26.502962
1319.000000	1181.000000	27.147833
1320.000000	1180.000000	27.825357
1321.000000	1179.000000	28.468706
1322.000000	1178.000000	29.052933
1323.000000	1177.000000	29.590612
1324.000000	1176.000000	30.046960
1325.000000	1175.000000	30.474710
1326.000000	1174.000000	30.897694
1327.000000	1173.000000	31.326762
1328.000000	1172.000000	31.816880
1329.000000	1171.000000	32.282355
1330.000000	1170.000000	32.779673
1331.000000	1169.000000	33.328913
1332.000000	1168.000000	33.855538
1333.000000	1167.000000	34.374964
1334.000000	1166.000000	34.889420
1335.000000	1165.000000	35.442108
1336.000000	1164.000000	36.003416
1337.000000	1163.000000	36.596769
1338.000000	1162.000000	37.185357
1339.000000	1161.000000	37.769482
1340.000000	1160.000000	38.282519
1341.000000	1159.000000	38.860356
1342.000000	1158.000000	39.368728
1343.000000	1157.000000	39.849110
1344.000000	1156.000000	40.276860
1345.000000	1155.000000	40.577036
1346.000000	1154.000000	40.803182
1347.000000	1153.000000	40.941404
1348.000000	1152.000000	40.997383
1349.000000	1151.000000	40.976594
1350.000000	1150.000000	40.969394
1351.000000	1149.000000	40.928119
1352.000000	1148.000000	40.919702
1353.000000	1147.000000	40.998701
1354.000000	1146.000000	41.156293
1355.000000	1145.000000	41.445314
1356.000000	1144.000000	41.891115
1357.000000	1143.000000	42.406382
1358.000000	1142.000000	42.969414
1359.000000	1141.000000	43.533866
1360.000000	1140.000000	44.150646
1361.000000	1139.000000	44.760428
1362.000000	1138.000000	45.400532
1363.000000	1137.000000	46.053819
1364.000000	1136.000000	46.734285
1365.000000	1135.000000	47.384732
1366.000000	1134.000000	48.022301
1367.000000	1133.000000	48.563226
1368.000000	1132.000000	49.089952
1369.000000	1131.000000	49.607451
1370.000000	1130.000000	50.073534
1371.000000	1129.000000	50.444900
1372.000000	1128.000000	50.764141
1373.000000	1127.000000	51.011684
1374.000000	1126.000000	51.200714
1375.000000	1125.000000	51.356480
1376.000000	1124.000000	51.512450
1377.000000	1123.000000	51.636779
1378.000000	1122.000000	51.770134
1379.000000	1121.000000	51.874182
1380.000000	1120.000000	51.974578
1381.000000	1119.000000	52.034715
1382.000000	1118.000000	52.090491
1383.000000	1117.000000	52.125579
1384.000000	1116.000000	52.138559
1385.000000	1115.000000	52.137647
1386.000000	1114.000000	52.131156
1387.000000	1113.000000	52.136734
1388.000000	1112.000000	52.140892
1389.000000	1111.000000	52.137139
1390.000000	1110.000000	52.136531
1391.000000	1109.000000	52.141703
1392.000000	1108.000000	52.136531
1393.000000	1107.000000	52.128317
1394.000000	1106.000000	52.111178
1395.000000	1105.000000	52.094040
1396.000000	1104.000000	52.088158
1397.000000	1103.000000	52.073149
1398.000000	1102.000000	52.055504
1399.000000	1101.000000	52.050332
1400.000000	1100.000000	52.032179
1401.000000	1099.000000	51.985429
1402.000000	1098.000000	51.953688
1403.000000	1097.000000	51.915253
1404.000000	1096.000000	51.869720
1405.000000	1095.000000	51.834632
1406.000000	1094.000000	51.779566
1407.000000	1093.000000	51.736466
1408.000000	1092.000000	51.710099
1409.000000	1091.000000	51.646515
1410.000000	1090.000000	51.579685
1411.000000	1089.000000	51.520563
1412.000000	1088.000000	51.477666
1413.000000	1087.000000	51.419152
1414.000000	1086.000000	51.367027
1415.000000	1085.000000	51.312367
1416.000000	1084.000000	51.251216
1417.000000	1083.000000	51.196556
1418.000000	1082.000000	51.142402
1419.000000	1081.000000	51.093928
1420.000000	1080.000000	51.053972
1421.000000	1079.000000	51.010569
1422.000000	1078.000000	50.955807
1423.000000	1077.000000	50.916764
1424.000000	1076.000000	50.867681
1425.000000	1075.000000	50.831782
1426.000000	1074.000000	50.791217
1427.000000	1073.000000	50.750045
1428.000000	1072.000000	50.710190
1429.000000	1071.000000	50.665772
1430.000000	1070.000000	50.609794
1431.000000	1069.000000	50.567607
1432.000000	1068.000000	50.520350
1433.000000	1067.000000	50.468630
1434.000000	1066.000000	50.419446
1435.000000	1065.000000	50.376448
1436.000000	1064.000000	50.312965
1437.000000	1063.000000	50.249076
1438.000000	1062.000000	50.197052
1439.000000	1061.000000	50.130933
1440.000000	1060.000000	50.048891
1441.000000	1059.000000	49.980541
1442.000000	1058.000000	49.900426
1443.000000	1057.000000	49.812300
1444.000000	1056.000000	49.715149
1445.000000	1055.000000	49.639294
1446.000000	1054.000000	49.550762
1447.000000	1053.000000	49.473487
1448.000000	1052.000000	49.388810
1449.000000	1051.000000	49.313867
1450.000000	1050.000000	49.253933
1451.000000	1049.000000	49.204344
1452.000000	1048.000000	49.147351
1453.000000	1047.000000	49.087823
1454.000000	1046.000000	49.044115
1455.000000	1045.000000	49.006289
1456.000000	1044.000000	48.946659
1457.000000	1043.000000	48.897881
1458.000000	1042.000000	48.866950
1459.000000	1041.000000	48.842713
1460.000000	1040.000000	48.806915
1461.000000	1039.000000	48.761788
1462.000000	1038.000000	48.721223
1463.000000	1037.000000	48.681876
1464.000000	1036.000000	48.647599
1465.000000	1035.000000	48.608556
1466.000000	1034.000000	48.572860
1467.000000	1033.000000	48.528442
1468.000000	1032.000000	48.475607
1469.000000	1031.000000	48.432406
1470.000000	1030.000000	48.384743
1471.000000	1029.000000	48.345294
1472.000000	1028.000000	48.299761
1473.000000	1027.000000	48.246520
1474.000000	1026.000000	48.185268
1475.000000	1025.000000	48.121481
1476.000000	1024.000000	48.073716
1477.000000	1023.000000	48.019969
1478.000000	1022.000000	47.968756
1479.000000	1021.000000	47.919674
1480.000000	1020.000000	47.860855
1481.000000	1019.000000	47.821711
1482.000000	1018.000000	47.792099
1483.000000	1017.000000	47.761879
1484.000000	1016.000000	47.734701
1485.000000	1015.000000	47.710565
1486.000000	1014.000000	47.700018
1487.000000	1013.000000	47.709449
1488.000000	1012.000000	47.738960
1489.000000	1011.000000	47.780133
1490.000000	1010.000000	47.838849
1491.000000	1009.000000	47.906592
1492.000000	1008.000000	47.983664
1493.000000	1007.000000	48.052014
1494.000000	1006.000000	48.114179
1495.000000	1005.000000	48.201494
1496.000000	1004.000000	48.278769
1497.000000	1003.000000	48.344787
1498.000000	1002.000000	48.402388
1499.000000	1001.000000	48.469319
1500.000000	1000.000000	48.548927
1501.000000	999.000000	48.617480
1502.000000	998.000000	48.674676
1503.000000	997.000000	48.748097
1504.000000	996.000000	48.832471
1505.000000	995.000000	48.891289
1506.000000	994.000000	48.980936
1507.000000	993.000000	49.060746
1508.000000	992.000000	49.141976
1509.000000	991.000000	49.218643
1510.000000	990.000000	49.289326
1511.000000	989.000000	49.376843
1512.000000	988.000000	49.474806
1513.000000	987.000000	49.558672
1514.000000	986.000000	49.641322
1515.000000	985.000000	49.746485
1516.000000	984.000000	49.842115
1517.000000	983.000000	49.933182
1518.000000	982.000000	50.049196
1519.000000	981.000000	50.136409
1520.000000	980.000000	50.237110
1521.000000	979.000000	50.322295
1522.000000	978.000000	50.395310
1523.000000	977.000000	50.463560
1524.000000	976.000000	50.530795
1525.000000	975.000000	50.610098
1526.000000	974.000000	50.660803
1527.000000	973.000000	50.735543
1528.000000	972.000000	50.818801
1529.000000	971.000000	50.901856
1530.000000	970.000000	50.964123
1531.000000	969.000000	51.065229
1532.000000	968.000000	51.168769
1533.000000	967.000000	51.265515
1534.000000	966.000000	51.371489
1535.000000	965.000000	51.460122
1536.000000	964.000000	51.576136
1537.000000	963.000000	51.702493
1538.000000	962.000000	51.846902
1539.000000	961.000000	51.977418
1540.000000	960.000000	52.138255
1541.000000	959.000000	52.287329
1542.000000	958.000000	52.430723
1543.000000	957.000000	52.563166
1544.000000	956.000000	52.678672
1545.000000	955.000000	52.807464
1546.000000	954.000000	52.912221
1547.000000	953.000000	53.009474
1548.000000	952.000000	53.131978
1549.000000	951.000000	53.214425
1550.000000	950.000000	53.304782
1551.000000	949.000000	53.401629
1552.000000	948.000000	53.494927
1553.000000	947.000000	53.589543
1554.000000	946.000000	53.671584
1555.000000	945.000000	53.751090
1556.000000	944.000000	53.823396
1557.000000	943.000000	53.886879
1558.000000	942.000000	53.955838
1559.000000	941.000000	54.016583
1560.000000	940.000000	54.111909
1561.000000	939.000000	54.187764
1562.000000	938.000000	54.246379
1563.000000	937.000000	54.291102
1564.000000	936.000000	54.353368
1565.000000	935.000000	54.429324
1566.000000	934.000000	54.484390
1567.000000	933.000000	54.540673
1568.000000	932.000000	54.616326
1569.000000	931.000000	54.694716
1570.000000	930.000000	54.741061
1571.000000	929.000000	54.816104
1572.000000	928.000000	54.879385
1573.000000	927.000000	54.945200
1574.000000	926.000000	55.027343
1575.000000	925.000000	55.070645
1576.000000	924.000000	55.183414
1577.000000	923.000000	55.217589
1578.000000	922.000000	55.282695
1579.000000	921.000000	55.346584
1580.000000	920.000000	55.426394
1581.000000	919.000000	55.477302
1582.000000	918.000000	55.555287
1583.000000	917.000000	55.644224
1584.000000	916.000000	55.681036
1585.000000	915.000000	55.725454
1586.000000	914.000000	55.768148
1587.000000	913.000000	55.829400
1588.000000	912.000000	55.912354
1589.000000	911.000000	55.993583
1590.000000	910.000000	56.062644
1591.000000	909.000000	56.173993
1592.000000	908.000000	56.273578
1593.000000	907.000000	56.449830
1594.000000	906.000000	56.552762
1595.000000	905.000000	56.706399
1596.000000	904.000000	56.885287
1597.000000	903.000000	57.042879
1598.000000	902.000000	57.225824
1599.000000	901.000000	57.402583
1600.000000	900.000000	57.606317
1601.000000	899.000000	57.781048
1602.000000	898.000000	57.968049
1603.000000	897.000000	58.133754
1604.000000	896.000000	58.330592
1605.000000	895.000000	58.500556
1606.000000	894.000000	58.658452
1607.000000	893.000000	58.790996
1608.000000	892.000000	58.912385
1609.000000	891.000000	59.068253
1610.000000	890.000000	59.156886
1611.000000	889.000000	59.250082
1612.000000	888.000000	59.370457
1613.000000	887.000000	59.470143
1614.000000	886.000000	59.535147
1615.000000	885.000000	59.592952
1616.000000	884.000000	59.629459
1617.000000	883.000000	59.694159
1618.000000	882.000000	59.717585
1619.000000	881.000000	59.771840
1620.000000	880.000000	59.778330
1621.000000	879.000000	59.822444
1622.000000	878.000000	59.848608
1623.000000	877.000000	59.845058
1624.000000	876.000000	59.892620
1625.000000	875.000000	59.922638
1626.000000	874.000000	59.956204
1627.000000	873.000000	59.990887
1628.000000	872.000000	60.054167
1629.000000	871.000000	60.101932
1630.000000	870.000000	60.154665
1631.000000	869.000000	60.194621
1632.000000	868.000000	60.291772
1633.000000	867.000000	60.359413
1634.000000	866.000000	60.442671
1635.000000	865.000000	60.501591
1636.000000	864.000000	60.578866
1637.000000	863.000000	60.631498
1638.000000	862.000000	60.688491
1639.000000	861.000000	60.686564
1640.000000	860.000000	60.682812
1641.000000	859.000000	60.675003
1642.000000	858.000000	60.835333
1643.000000	857.000000	60.826800
1644.000000	856.000000	61.022500
1645.000000	855.000000	60.656700
1646.000000	854.000000	61.107600
1647.000000	853.000000	61.204900
1648.000000	852.000000	61.194200
1649.000000	851.000000	61.125800
1650.000000	850.000000	61.043100
1651.000000	849.000000	61.356000
1652.000000	848.000000	61.815700
1653.000000	847.000000	61.702300
1654.000000	846.000000	61.665400
1655.000000	845.000000	61.684700
1656.000000	844.000000	61.633300
1657.000000	843.000000	61.519700
1658.000000	842.000000	61.485300
1659.000000	841.000000	61.492300
1660.000000	840.000000	61.500600
1661.000000	839.000000	61.219100
1662.000000	838.000000	61.205100
1663.000000	837.000000	60.999100
1664.000000	836.000000	60.932600
1665.000000	835.000000	60.879800
1666.000000	834.000000	60.944000
1667.000000	833.000000	60.810600
1668.000000	832.000000	60.757800
1669.000000	831.000000	60.766200
1670.000000	830.000000	60.635900
1671.000000	829.000000	60.629500
1672.000000	828.000000	60.759300
1673.000000	827.000000	60.618000
1674.000000	826.000000	60.783900
1675.000000	825.000000	61.035100
1676.000000	824.000000	61.123700
1677.000000	823.000000	61.083900
1678.000000	822.000000	61.102900
1679.000000	821.000000	61.277700
1680.000000	820.000000	61.516700
1681.000000	819.000000	61.657000
1682.000000	818.000000	61.771300
1683.000000	817.000000	61.751100
1684.000000	816.000000	61.842800
1685.000000	815.000000	61.909700
1686.000000	814.000000	62.110300
1687.000000	813.000000	62.322400
1688.000000	812.000000	62.389100
1689.000000	811.000000	62.497300
1690.000000	810.000000	62.525100
1691.000000	809.000000	62.663800
1692.000000	808.000000	62.829900
1693.000000	807.000000	62.972600
1694.000000	806.000000	63.062500
1695.000000	805.000000	63.151500
1696.000000	804.000000	63.284400
1697.000000	803.000000	63.552000
1698.000000	802.000000	63.748600
1699.000000	801.000000	63.903100
1700.000000	800.000000	64.075200
1701.000000	799.000000	64.294800
1702.000000	798.000000	64.567800
1703.000000	797.000000	64.837500
1704.000000	796.000000	65.084700
1705.000000	795.000000	65.390300
1706.000000	794.000000	65.688700
1707.000000	793.000000	65.887000
1708.000000	792.000000	66.092400
1709.000000	791.000000	66.350900
1710.000000	790.000000	66.460300
1711.000000	789.000000	66.590600
1712.000000	788.000000	66.632100
1713.000000	787.000000	66.742000
1714.000000	786.000000	66.851400
1715.000000	785.000000	66.877400
1716.000000	784.000000	66.859400
1717.000000	783.000000	66.861400
1718.000000	782.000000	66.831500
1719.000000	781.000000	66.766000
1720.000000	780.000000	66.753400
1721.000000	779.000000	66.602800
1722.000000	778.000000	66.383300
1723.000000	777.000000	66.278900
1724.000000	776.000000	66.194900
1725.000000	775.000000	66.203700
1726.000000	774.000000	66.137600
1727.000000	773.000000	66.122000
1728.000000	772.000000	66.208800
1729.000000	771.000000	66.283700
1730.000000	770.000000	66.235100
1731.000000	769.000000	66.328500
1732.000000	768.000000	66.549500
1733.000000	767.000000	66.744400
1734.000000	766.000000	66.894400
1735.000000	765.000000	67.049900
1736.000000	764.000000	67.296800
1737.000000	763.000000	67.584700
1738.000000	762.000000	67.823000
1739.000000	761.000000	68.075000
1740.000000	760.000000	68.274600
1741.000000	759.000000	68.483800
1742.000000	758.000000	68.650600
1743.000000	757.000000	68.799000
1744.000000	756.000000	68.973600
1745.000000	755.000000	69.097500
1746.000000	754.000000	69.190500
1747.000000	753.000000	69.295000
1748.000000	752.000000	69.328900
1749.000000	751.000000	69.341200
1750.000000	750.000000	69.377800
1751.000000	749.000000	69.387200
1752.000000	748.000000	69.443700
1753.000000	747.000000	69.445600
1754.000000	746.000000	69.322600
1755.000000	745.000000	69.196300
1756.000000	744.000000	69.123900
1757.000000	743.000000	69.012400
1758.000000	742.000000	68.919800
1759.000000	741.000000	68.766600
1760.000000	740.000000	68.658800
1761.000000	739.000000	68.547600
1762.000000	738.000000	68.397500
1763.000000	737.000000	68.311300
1764.000000	736.000000	68.271100
1765.000000	735.000000	68.233100
1766.000000	734.000000	68.135800
1767.000000	733.000000	68.075000
1768.000000	732.000000	68.008200
1769.000000	731.000000	67.963500
1770.000000	730.000000	67.900600
1771.000000	729.000000	67.856800
1772.000000	728.000000	67.792500
1773.000000	727.000000	67.696600
1774.000000	726.000000	67.555800
1775.000000	725.000000	67.403400
1776.000000	724.000000	67.283700
1777.000000	723.000000	67.143300
1778.000000	722.000000	66.905200
1779.000000	721.000000	66.708400
1780.000000	720.000000	66.509200
1781.000000	719.000000	66.180300
1782.000000	718.000000	65.922700
1783.000000	717.000000	65.610500
1784.000000	716.000000	65.292700
1785.000000	715.000000	65.073400
1786.000000	714.000000	64.790800
1787.000000	713.000000	64.425300
1788.000000	712.000000	64.108600
1789.000000	711.000000	63.868600
1790.000000	710.000000	63.578600
1791.000000	709.000000	63.297000
1792.000000	708.000000	62.998100
1793.000000	707.000000	62.765100
1794.000000	706.000000	62.597800
1795.000000	705.000000	62.462600
1796.000000	704.000000	62.345100
1797.000000	703.000000	62.188300
1798.000000	702.000000	62.095800
1799.000000	701.000000	62.089500
1800.000000	700.000000	62.065500
1801.000000	699.000000	62.105000
1802.000000	698.000000	62.110200
1803.000000	697.000000	62.134600
1804.000000	696.000000	62.162400
1805.000000	695.000000	62.242700
1806.000000	694.000000	62.241400
1807.000000	693.000000	62.257700
1808.000000	692.000000	62.270100
1809.000000	691.000000	62.298800
1810.000000	690.000000	62.299700
1811.000000	689.000000	62.233100
1812.000000	688.000000	62.214500
1813.000000	687.000000	62.196100
1814.000000	686.000000	62.173600
1815.000000	685.000000	62.166600
1816.000000	684.000000	62.134800
1817.000000	683.000000	62.120500
1818.000000	682.000000	62.110800
1819.000000	681.000000	62.067800
1820.000000	680.000000	62.013400
1821.000000	679.000000	61.969300
1822.000000	678.000000	61.916600
1823.000000	677.000000	61.878100
1824.000000	676.000000	61.741700
1825.000000	675.000000	61.554400
1826.000000	674.000000	61.425000
1827.000000	673.000000	61.234300
1828.000000	672.000000	60.977500
1829.000000	671.000000	60.745700
1830.000000	670.000000	60.435200
1831.000000	669.000000	60.103300
1832.000000	668.000000	59.781100
1833.000000	667.000000	59.431200
1834.000000	666.000000	59.043200
1835.000000	665.000000	58.581300
1836.000000	664.000000	58.070300
1837.000000	663.000000	57.557400
1838.000000	662.000000	56.971300
1839.000000	661.000000	56.316400
1840.000000	660.000000	55.691700
1841.000000	659.000000	54.973300
1842.000000	658.000000	54.212700
1843.000000	657.000000	53.423100
1844.000000	656.000000	52.570400
1845.000000	655.000000	51.784000
1846.000000	654.000000	50.952100
1847.000000	653.000000	50.117000
1848.000000	652.000000	49.334400
1849.000000	651.000000	48.607000
1850.000000	650.000000	47.940300
1851.000000	649.000000	47.323300
1852.000000	648.000000	46.850400
1853.000000	647.000000	46.470200
1854.000000	646.000000	46.168600
1855.000000	645.000000	46.035800
1856.000000	644.000000	46.005500
1857.000000	643.000000	46.071500
1858.000000	642.000000	46.295600
1859.000000	641.000000	46.649000
1860.000000	640.000000	47.120500
1861.000000	639.000000	47.708300
1862.000000	638.000000	48.439600
1863.000000	637.000000	49.262000
1864.000000	636.000000	50.134200
1865.000000	635.000000	51.122500
1866.000000	634.000000	52.207900
1867.000000	633.000000	53.348900
1868.000000	632.000000	54.487200
1869.000000	631.000000	55.637200
1870.000000	630.000000	56.809000
1871.000000	629.000000	58.007300
1872.000000	628.000000	59.133900
1873.000000	627.000000	60.229700
1874.000000	626.000000	61.275300
1875.000000	625.000000	62.275900
1876.000000	624.000000	63.182100
1877.000000	623.000000	64.096300
1878.000000	622.000000	64.918800
1879.000000	621.000000	65.636000
1880.000000	620.000000	66.362600
1881.000000	619.000000	67.026800
1882.000000	618.000000	67.605500
1883.000000	617.000000	68.145400
1884.000000	616.000000	68.657600
1885.000000	615.000000	69.110400
1886.000000	614.000000	69.505900
1887.000000	613.000000	69.916400
1888.000000	612.000000	70.239100
1889.000000	611.000000	70.543900
1890.000000	610.000000	70.865100
1891.000000	609.000000	71.082200
1892.000000	608.000000	71.336900
1893.000000	607.000000	71.505400
1894.000000	606.000000	71.770100
1895.000000	605.000000	71.920100
1896.000000	604.000000	72.088000
1897.000000	603.000000	72.209800
1898.000000	602.000000	72.358900
1899.000000	601.000000	72.482500
1900.000000	600.000000	72.592300
1901.000000	599.000000	72.645400
1902.000000	598.000000	72.767200
1903.000000	597.000000	72.823100
1904.000000	596.000000	72.845100
1905.000000	595.000000	72.883200
1906.000000	594.000000	72.862300
1907.000000	593.000000	72.895300
1908.000000	592.000000	72.841500
1909.000000	591.000000	72.779800
1910.000000	590.000000	72.691600
1911.000000	589.000000	72.620300
1912.000000	588.000000	72.513500
1913.000000	587.000000	72.412200
1914.000000	586.000000	72.259300
1915.000000	585.000000	72.097900
1916.000000	584.000000	71.987800
1917.000000	583.000000	71.847100
1918.000000	582.000000	71.754900
1919.000000	581.000000	71.613300
1920.000000	580.000000	71.405800
1921.000000	579.000000	71.316600
1922.000000	578.000000	71.134200
1923.000000	577.000000	70.960300
1924.000000	576.000000	70.819100
1925.000000	575.000000	70.614300
1926.000000	574.000000	70.435400
1927.000000	573.000000	70.170800
1928.000000	572.000000	69.945900
1929.000000	571.000000	69.685200
1930.000000	570.000000	69.385400
1931.000000	569.000000	69.074600
1932.000000	568.000000	68.681700
1933.000000	567.000000	68.318200
1934.000000	566.000000	67.873700
1935.000000	565.000000	67.482000
1936.000000	564.000000	67.021800
1937.000000	563.000000	66.582300
1938.000000	562.000000	66.083700
1939.000000	561.000000	65.613100
1940.000000	560.000000	65.081700
1941.000000	559.000000	64.325000
1942.000000	558.000000	63.814700
1943.000000	557.000000	63.270400
1944.000000	556.000000	62.735300
1945.000000	555.000000	62.161400
1946.000000	554.000000	61.577900
1947.000000	553.000000	60.980300
1948.000000	552.000000	60.385700
1949.000000	551.000000	59.744400
1950.000000	550.000000	59.101200
1951.000000	549.000000	58.417900
1952.000000	548.000000	57.701800
1953.000000	547.000000	56.990400
1954.000000	546.000000	56.212200
1955.000000	545.000000	55.407000
1956.000000	544.000000	54.547400
1957.000000	543.000000	53.654200
1958.000000	542.000000	52.695100
1959.000000	541.000000	51.728000
1960.000000	540.000000	50.710700
1961.000000	539.000000	49.710700
1962.000000	538.000000	48.626700
1963.000000	537.000000	47.522100
1964.000000	536.000000	46.361100
1965.000000	535.000000	45.209600
1966.000000	534.000000	43.973300
1967.000000	533.000000	42.763800
1968.000000	532.000000	41.513900
1969.000000	531.000000	40.266800
1970.000000	530.000000	39.055700
1971.000000	529.000000	37.863000
1972.000000	528.000000	36.686700
1973.000000	527.000000	35.582400
1974.000000	526.000000	34.571700
1975.000000	525.000000	33.619000
1976.000000	524.000000	32.727800
1977.000000	523.000000	31.934600
1978.000000	522.000000	31.222800
1979.000000	521.000000	30.599700
1980.000000	520.000000	30.057000
1981.000000	519.000000	29.588100
1982.000000	518.000000	29.190400
1983.000000	517.000000	28.864600
1984.000000	516.000000	28.570300
1985.000000	515.000000	28.351400
1986.000000	514.000000	28.179400
1987.000000	513.000000	28.039200
1988.000000	512.000000	27.920600
1989.000000	511.000000	27.810000
1990.000000	510.000000	27.707100
1991.000000	509.000000	27.613800
1992.000000	508.000000	27.499900
1993.000000	507.000000	27.369300
1994.000000	506.000000	27.204000
1995.000000	505.000000	27.005700
1996.000000	504.000000	26.784900
1997.000000	503.000000	26.548600
1998.000000	502.000000	26.283400
1999.000000	501.000000	25.990500
2000.000000	500.000000	25.686900
2001.000000	499.000000	25.362100
2002.000000	498.000000	24.999500
2003.000000	497.000000	24.654500
2004.000000	496.000000	24.274800
2005.000000	495.000000	23.904900
2006.000000	494.000000	23.555800
2007.000000	493.000000	23.198600
2008.000000	492.000000	22.859000
2009.000000	491.000000	22.549800
2010.000000	490.000000	22.278000
2011.000000	489.000000	22.025900
2012.000000	488.000000	21.826200
2013.000000	487.000000	21.665400
2014.000000	486.000000	21.516700
2015.000000	485.000000	21.418300
2016.000000	484.000000	21.351100
2017.000000	483.000000	21.295100
2018.000000	482.000000	21.271400
2019.000000	481.000000	21.254300
2020.000000	480.000000	21.268000
2021.000000	479.000000	21.282400
2022.000000	478.000000	21.298500
2023.000000	477.000000	21.324100
2024.000000	476.000000	21.367400
2025.000000	475.000000	21.422400
2026.000000	474.000000	21.460900
2027.000000	473.000000	21.501700
2028.000000	472.000000	21.542700
2029.000000	471.000000	21.560200
2030.000000	470.000000	21.565100
2031.000000	469.000000	21.561700
2032.000000	468.000000	21.556000
2033.000000	467.000000	21.540800
2034.000000	466.000000	21.503100
2035.000000	465.000000	21.453500
2036.000000	464.000000	21.398000
2037.000000	463.000000	21.341700
2038.000000	462.000000	21.263100
2039.000000	461.000000	21.165500
2040.000000	460.000000	21.047900
2041.000000	459.000000	20.911700
2042.000000	458.000000	20.788400
2043.000000	457.000000	20.647000
2044.000000	456.000000	20.485000
2045.000000	455.000000	20.336400
2046.000000	454.000000	20.161600
2047.000000	453.000000	19.969100
2048.000000	452.000000	19.778000
2049.000000	451.000000	19.560000
2050.000000	450.000000	19.345200
2051.000000	449.000000	19.114300
2052.000000	448.000000	18.864800
2053.000000	447.000000	18.617900
2054.000000	446.000000	18.366700
2055.000000	445.000000	18.090200
2056.000000	444.000000	17.795000
2057.000000	443.000000	17.511400
2058.000000	442.000000	17.199300
2059.000000	441.000000	16.872500
2060.000000	440.000000	16.547800
2061.000000	439.000000	16.211700
2062.000000	438.000000	15.867000
2063.000000	437.000000	15.508200
2064.000000	436.000000	15.141000
2065.000000	435.000000	14.759500
2066.000000	434.000000	14.373600
2067.000000	433.000000	13.987700
2068.000000	432.000000	13.617000
2069.000000	431.000000	13.243100
2070.000000	430.000000	12.844800
2071.000000	429.000000	12.469100
2072.000000	428.000000	12.104100
2073.000000	427.000000	11.732500
2074.000000	426.000000	11.353500
2075.000000	425.000000	10.992700
2076.000000	424.000000	10.641400
2077.000000	423.000000	10.294500
2078.000000	422.000000	9.956500
2079.000000	421.000000	9.639900
2080.000000	420.000000	9.342200
2081.000000	419.000000	9.037400
2082.000000	418.000000	8.757500
2083.000000	417.000000	8.498900
2084.000000	416.000000	8.254300
2085.000000	415.000000	8.020500
2086.000000	414.000000	7.790800
2087.000000	413.000000	7.577500
2088.000000	412.000000	7.395900
2089.000000	411.000000	7.235100
2090.000000	410.000000	7.062900
2091.000000	409.000000	6.907700
2092.000000	408.000000	6.782200
2093.000000	407.000000	6.654900
2094.000000	406.000000	6.538500
2095.000000	405.000000	6.431100
2096.000000	404.000000	6.336800
2097.000000	403.000000	6.244200
2098.000000	402.000000	6.173300
2099.000000	401.000000	6.102300
2100.000000	400.000000	6.027000
2101.000000	399.000000	5.973600
2102.000000	398.000000	5.920100
2103.000000	397.000000	5.856900
2104.000000	396.000000	5.807800
2105.000000	395.000000	5.757800
2106.000000	394.000000	5.719200
2107.000000	393.000000	5.673800
2108.000000	392.000000	5.644900
2109.000000	391.000000	5.604500
2110.000000	390.000000	5.564100
2111.000000	389.000000	5.529300
2112.000000	388.000000	5.497500
2113.000000	387.000000	5.464800
2114.000000	386.000000	5.445000
2115.000000	385.000000	5.417100
2116.000000	384.000000	5.369400
2117.000000	383.000000	5.343200
2118.000000	382.000000	5.314900
2119.000000	381.000000	5.300200
2120.000000	380.000000	5.291000
2121.000000	379.000000	5.254400
2122.000000	378.000000	5.238200
2123.000000	377.000000	5.213200
2124.000000	376.000000	5.249800
2125.000000	375.000000	5.243100
2126.000000	374.000000	5.237000
2127.000000	373.000000	5.243200
2128.000000	372.000000	5.182100
2129.000000	371.000000	5.134600
2130.000000	370.000000	5.140500
2131.000000	369.000000	5.116500
2132.000000	368.000000	5.111000
2133.000000	367.000000	5.079500
2134.000000	366.000000	5.071500
2135.000000	365.000000	5.074700
2136.000000	364.000000	5.090900
2137.000000	363.000000	5.044100
2138.000000	362.000000	5.025900
2139.000000	361.000000	4.981500
2140.000000	360.000000	4.952400
2141.000000	359.000000	4.953300
2142.000000	358.000000	4.918300
2143.000000	357.000000	4.956300
2144.000000	356.000000	4.962400
2145.000000	355.000000	4.889900
2146.000000	354.000000	4.888700
2147.000000	353.000000	4.850600
2148.000000	352.000000	4.891700
2149.000000	351.000000	4.900000
2150.000000	350.000000	4.851400
2151.000000	349.000000	4.865700
2152.000000	348.000000	4.819400
2153.000000	347.000000	4.828700
2154.000000	346.000000	4.848200
2155.000000	345.000000	4.770600
2156.000000	344.000000	4.803700
2157.000000	343.000000	4.867300
2158.000000	342.000000	4.855900
2159.000000	341.000000	4.882200
2160.000000	340.000000	4.837800
2161.000000	339.000000	4.796800
2162.000000	338.000000	4.815700
2163.000000	337.000000	4.842800
2164.000000	336.000000	4.840800
2165.000000	335.000000	4.892700
2166.000000	334.000000	4.866700
2167.000000	333.000000	4.822300
2168.000000	332.000000	4.870500
2169.000000	331.000000	4.924100
2170.000000	330.000000	4.919800
2171.000000	329.000000	4.815400
2172.000000	328.000000	4.775800
2173.000000	327.000000	4.864600
2174.000000	326.000000	4.863200
2175.000000	325.000000	4.857600
2176.000000	324.000000	4.840500
2177.000000	323.000000	4.911600
2178.000000	322.000000	4.933000
2179.000000	321.000000	4.898800
2180.000000	320.000000	4.829900
2181.000000	319.000000	4.952400
2182.000000	318.000000	4.961900
2183.000000	317.000000	4.774000
2184.000000	316.000000	4.832500
2185.000000	315.000000	4.792700
2186.000000	314.000000	4.833500
2187.000000	313.000000	4.833000
2188.000000	312.000000	4.888700
2189.000000	311.000000	4.823100
2190.000000	310.000000	4.830300
2191.000000	309.000000	4.858000
2192.000000	308.000000	4.824300
2193.000000	307.000000	4.841300
2194.000000	306.000000	4.846600
2195.000000	305.000000	4.850800
2196.000000	304.000000	4.869200
2197.000000	303.000000	4.889900
2198.000000	302.000000	4.863900
2199.000000	301.000000	4.906700
2200.000000	300.000000	4.860800
2201.000000	299.000000	4.883600
2202.000000	298.000000	4.879700
2203.000000	297.000000	4.877200
2204.000000	296.000000	4.901800
2205.000000	295.000000	4.883700
2206.000000	294.000000	4.886800
2207.000000	293.000000	4.924900
2208.000000	292.000000	4.914400
2209.000000	291.000000	4.926000
2210.000000	290.000000	4.891000
2211.000000	289.000000	4.916500
2212.000000	288.000000	4.920400
2213.000000	287.000000	4.945200
2214.000000	286.000000	4.919500
2215.000000	285.000000	4.966700
2216.000000	284.000000	4.987400
2217.000000	283.000000	4.988200
2218.000000	282.000000	4.980600
2219.000000	281.000000	4.981100
2220.000000	280.000000	4.995300
2221.000000	279.000000	5.012900
2222.000000	278.000000	4.997200
2223.000000	277.000000	5.006900
2224.000000	276.000000	5.056700
2225.000000	275.000000	5.028800
2226.000000	274.000000	5.065600
2227.000000	273.000000	5.027600
2228.000000	272.000000	5.092500
2229.000000	271.000000	5.055200
2230.000000	270.000000	5.102100
2231.000000	269.000000	5.115800
2232.000000	268.000000	5.149700
2233.000000	267.000000	5.130500
2234.000000	266.000000	5.140600
2235.000000	265.000000	5.177900
2236.000000	264.000000	5.166100
2237.000000	263.000000	5.199500
2238.000000	262.000000	5.218800
2239.000000	261.000000	5.227200
2240.000000	260.000000	5.275500
2241.000000	259.000000	5.257900
2242.000000	258.000000	5.274000
2243.000000	257.000000	5.291200
2244.000000	256.000000	5.271000
2245.000000	255.000000	5.287700
2246.000000	254.000000	5.308000
2247.000000	253.000000	5.317600
2248.000000	252.000000	5.340100
2249.000000	251.000000	5.329900
2250.000000	250.000000	5.335500
