PE UV       SUBTECH     SPECTRUM    ASCII       PEDS        4.00        
   -1
CICIMAUCR0113-1.ASC
24/04/03
16:15:49.00
24/04/03
16:15:49.00
Vinicio Soto Monge
C. kalinini
250,000000
1
Lambda 1050
1050L1511233
PerkinElmer UV WinLab 6.3.2.0749 / 2.02.05 Lambda 900 UV/VIS/NIR, Aug  7 2015 09:38:08

0
0
3350/servo 860,8/2
0
0
UV/VIS
1
1
1
DoubleDePol,CommonBeamDepol,RBeamAtt,SBeamAtt,60mm sphere, WB InGaAs Detector
0
0
0
0
Program
Program
3350/servo 860,8/2
3350/0,2 860,8/0,2
3350/0,2 860,8/0,2
0
15.00
 
 
 
0
 
860,8
319,2
860,8
Front
100
on
S:100 R:100
0
0
0
0
 
0
 
 
 
0
 
 
0
0
0
0
0
 
 
 
 
0
0


0
0
#HDR
-1
-1
#GR
nm
%R
1.0
0.0
2500,000000
-1,000000
2251
8
83,958100
4,718900
#DATA
501.000000	1999.000000	9.911824
502.000000	1998.000000	9.879629
503.000000	1997.000000	9.853288
504.000000	1996.000000	9.834717
505.000000	1995.000000	9.803834
506.000000	1994.000000	9.770630
507.000000	1993.000000	9.770226
508.000000	1992.000000	9.704827
509.000000	1991.000000	9.638620
510.000000	1990.000000	9.627620
511.000000	1989.000000	9.587149
512.000000	1988.000000	9.562220
513.000000	1987.000000	9.491775
514.000000	1986.000000	9.464828
515.000000	1985.000000	9.432431
516.000000	1984.000000	9.394685
517.000000	1983.000000	9.330295
518.000000	1982.000000	9.303651
519.000000	1981.000000	9.269438
520.000000	1980.000000	9.220792
521.000000	1979.000000	9.187991
522.000000	1978.000000	9.171843
523.000000	1977.000000	9.120473
524.000000	1976.000000	9.087874
525.000000	1975.000000	9.044375
526.000000	1974.000000	9.006125
527.000000	1973.000000	8.941937
528.000000	1972.000000	8.915797
529.000000	1971.000000	8.891474
530.000000	1970.000000	8.836167
531.000000	1969.000000	8.823552
532.000000	1968.000000	8.759566
533.000000	1967.000000	8.732417
534.000000	1966.000000	8.721416
535.000000	1965.000000	8.694267
536.000000	1964.000000	8.652888
537.000000	1963.000000	8.608077
538.000000	1962.000000	8.584865
539.000000	1961.000000	8.532989
540.000000	1960.000000	8.513612
541.000000	1959.000000	8.486968
542.000000	1958.000000	8.455075
543.000000	1957.000000	8.438927
544.000000	1956.000000	8.385135
545.000000	1955.000000	8.361518
546.000000	1954.000000	8.335480
547.000000	1953.000000	8.299147
548.000000	1952.000000	8.284311
549.000000	1951.000000	8.280980
550.000000	1950.000000	8.241619
551.000000	1949.000000	8.186515
552.000000	1948.000000	8.180459
553.000000	1947.000000	8.166834
554.000000	1946.000000	8.136456
555.000000	1945.000000	8.116675
556.000000	1944.000000	8.097398
557.000000	1943.000000	8.089324
558.000000	1942.000000	8.107390
559.000000	1941.000000	8.087205
560.000000	1940.000000	8.078626
561.000000	1939.000000	8.097095
562.000000	1938.000000	8.077314
563.000000	1937.000000	8.072268
564.000000	1936.000000	8.062074
565.000000	1935.000000	8.072470
566.000000	1934.000000	8.088618
567.000000	1933.000000	8.103756
568.000000	1932.000000	8.118996
569.000000	1931.000000	8.166128
570.000000	1930.000000	8.207507
571.000000	1929.000000	8.218003
572.000000	1928.000000	8.223251
573.000000	1927.000000	8.263217
574.000000	1926.000000	8.314083
575.000000	1925.000000	8.367069
576.000000	1924.000000	8.419146
577.000000	1923.000000	8.476068
578.000000	1922.000000	8.531778
579.000000	1921.000000	8.566698
580.000000	1920.000000	8.630079
581.000000	1919.000000	8.693157
582.000000	1918.000000	8.759364
583.000000	1917.000000	8.858270
584.000000	1916.000000	8.927908
585.000000	1915.000000	9.039834
586.000000	1914.000000	9.143786
587.000000	1913.000000	9.209589
588.000000	1912.000000	9.289925
589.000000	1911.000000	9.372986
590.000000	1910.000000	9.491573
591.000000	1909.000000	9.594314
592.000000	1908.000000	9.713709
593.000000	1907.000000	9.836130
594.000000	1906.000000	9.963598
595.000000	1905.000000	10.081075
596.000000	1904.000000	10.201579
597.000000	1903.000000	10.324808
598.000000	1902.000000	10.454900
599.000000	1901.000000	10.602755
600.000000	1900.000000	10.750206
601.000000	1899.000000	10.880096
602.000000	1898.000000	11.027648
603.000000	1897.000000	11.178632
604.000000	1896.000000	11.324872
605.000000	1895.000000	11.499169
606.000000	1894.000000	11.686586
607.000000	1893.000000	11.864416
608.000000	1892.000000	12.068284
609.000000	1891.000000	12.243691
610.000000	1890.000000	12.422732
611.000000	1889.000000	12.616608
612.000000	1888.000000	12.838037
613.000000	1887.000000	13.046245
614.000000	1886.000000	13.304209
615.000000	1885.000000	13.564797
616.000000	1884.000000	13.849203
617.000000	1883.000000	14.142894
618.000000	1882.000000	14.429117
619.000000	1881.000000	14.754902
620.000000	1880.000000	15.064640
621.000000	1879.000000	15.357827
622.000000	1878.000000	15.674932
623.000000	1877.000000	15.989919
624.000000	1876.000000	16.304703
625.000000	1875.000000	16.583457
626.000000	1874.000000	16.854037
627.000000	1873.000000	17.109275
628.000000	1872.000000	17.347559
629.000000	1871.000000	17.555969
630.000000	1870.000000	17.750854
631.000000	1869.000000	17.945236
632.000000	1868.000000	18.114184
633.000000	1867.000000	18.253763
634.000000	1866.000000	18.361550
635.000000	1865.000000	18.484981
636.000000	1864.000000	18.594283
637.000000	1863.000000	18.698336
638.000000	1862.000000	18.804711
639.000000	1861.000000	18.898066
640.000000	1860.000000	18.998184
641.000000	1859.000000	19.052380
642.000000	1858.000000	19.088411
643.000000	1857.000000	19.137056
644.000000	1856.000000	19.172885
645.000000	1855.000000	19.201043
646.000000	1854.000000	19.202859
647.000000	1853.000000	19.195492
648.000000	1852.000000	19.187317
649.000000	1851.000000	19.191152
650.000000	1850.000000	19.230412
651.000000	1849.000000	19.251606
652.000000	1848.000000	19.211943
653.000000	1847.000000	19.169655
654.000000	1846.000000	19.116670
655.000000	1845.000000	19.086897
656.000000	1844.000000	19.082759
657.000000	1843.000000	19.108596
658.000000	1842.000000	19.137561
659.000000	1841.000000	19.122624
660.000000	1840.000000	19.084172
661.000000	1839.000000	19.057730
662.000000	1838.000000	19.049958
663.000000	1837.000000	19.039260
664.000000	1836.000000	18.991119
665.000000	1835.000000	18.933794
666.000000	1834.000000	18.885855
667.000000	1833.000000	18.854972
668.000000	1832.000000	18.834383
669.000000	1831.000000	18.813189
670.000000	1830.000000	18.766965
671.000000	1829.000000	18.715594
672.000000	1828.000000	18.655241
673.000000	1827.000000	18.602962
674.000000	1826.000000	18.560271
675.000000	1825.000000	18.528783
676.000000	1824.000000	18.500827
677.000000	1823.000000	18.484981
678.000000	1822.000000	18.502038
679.000000	1821.000000	18.498001
680.000000	1820.000000	18.449254
681.000000	1819.000000	18.403737
682.000000	1818.000000	18.393443
683.000000	1817.000000	18.409893
684.000000	1816.000000	18.412517
685.000000	1815.000000	18.407471
686.000000	1814.000000	18.412416
687.000000	1813.000000	18.406159
688.000000	1812.000000	18.399195
689.000000	1811.000000	18.381836
690.000000	1810.000000	18.343384
691.000000	1809.000000	18.330163
692.000000	1808.000000	18.305032
693.000000	1807.000000	18.276471
694.000000	1806.000000	18.255377
695.000000	1805.000000	18.224393
696.000000	1804.000000	18.183216
697.000000	1803.000000	18.164848
698.000000	1802.000000	18.142039
699.000000	1801.000000	18.109642
700.000000	1800.000000	18.052418
701.000000	1799.000000	18.000139
702.000000	1798.000000	17.981468
703.000000	1797.000000	17.969155
704.000000	1796.000000	17.928179
705.000000	1795.000000	17.880745
706.000000	1794.000000	17.848852
707.000000	1793.000000	17.814841
708.000000	1792.000000	17.774269
709.000000	1791.000000	17.745505
710.000000	1790.000000	17.709374
711.000000	1789.000000	17.653967
712.000000	1788.000000	17.609358
713.000000	1787.000000	17.587154
714.000000	1786.000000	17.543252
715.000000	1785.000000	17.488551
716.000000	1784.000000	17.432033
717.000000	1783.000000	17.366836
718.000000	1782.000000	17.307996
719.000000	1781.000000	17.273682
720.000000	1780.000000	17.229780
721.000000	1779.000000	17.164683
722.000000	1778.000000	17.096155
723.000000	1777.000000	17.048317
724.000000	1776.000000	16.987762
725.000000	1775.000000	16.917821
726.000000	1774.000000	16.843944
727.000000	1773.000000	16.758360
728.000000	1772.000000	16.689630
729.000000	1771.000000	16.593247
730.000000	1770.000000	16.535821
731.000000	1769.000000	16.453163
732.000000	1768.000000	16.401591
733.000000	1767.000000	16.336292
734.000000	1766.000000	16.268168
735.000000	1765.000000	16.224468
736.000000	1764.000000	16.181575
737.000000	1763.000000	16.164922
738.000000	1762.000000	16.162904
739.000000	1761.000000	16.190456
740.000000	1760.000000	16.198429
741.000000	1759.000000	16.240414
742.000000	1758.000000	16.291986
743.000000	1757.000000	16.338311
744.000000	1756.000000	16.368286
745.000000	1755.000000	16.405729
746.000000	1754.000000	16.434694
747.000000	1753.000000	16.433079
748.000000	1752.000000	16.432171
749.000000	1751.000000	16.409160
750.000000	1750.000000	16.395939
751.000000	1749.000000	16.389177
752.000000	1748.000000	16.345578
753.000000	1747.000000	16.310052
754.000000	1746.000000	16.243845
755.000000	1745.000000	16.180465
756.000000	1744.000000	16.114359
757.000000	1743.000000	16.004553
758.000000	1742.000000	15.915537
759.000000	1741.000000	15.779692
760.000000	1740.000000	15.647884
761.000000	1739.000000	15.513654
762.000000	1738.000000	15.378516
763.000000	1737.000000	15.277490
764.000000	1736.000000	15.197962
765.000000	1735.000000	15.112378
766.000000	1734.000000	15.065447
767.000000	1733.000000	15.041226
768.000000	1732.000000	15.053841
769.000000	1731.000000	15.112680
770.000000	1730.000000	15.134379
771.000000	1729.000000	15.210375
772.000000	1728.000000	15.263159
773.000000	1727.000000	15.353487
774.000000	1726.000000	15.405665
775.000000	1725.000000	15.458852
776.000000	1724.000000	15.507094
777.000000	1723.000000	15.542216
778.000000	1722.000000	15.558768
779.000000	1721.000000	15.601358
780.000000	1720.000000	15.601156
781.000000	1719.000000	15.629920
782.000000	1718.000000	15.673015
783.000000	1717.000000	15.724285
784.000000	1716.000000	15.761122
785.000000	1715.000000	15.825613
786.000000	1714.000000	15.884351
787.000000	1713.000000	15.927143
788.000000	1712.000000	15.971449
789.000000	1711.000000	16.002130
790.000000	1710.000000	16.038262
791.000000	1709.000000	16.030793
792.000000	1708.000000	16.052492
793.000000	1707.000000	16.045124
794.000000	1706.000000	16.010104
795.000000	1705.000000	16.003947
796.000000	1704.000000	15.977909
797.000000	1703.000000	15.940365
798.000000	1702.000000	15.886874
799.000000	1701.000000	15.834696
800.000000	1700.000000	15.737607
801.000000	1699.000000	15.648086
802.000000	1698.000000	15.571484
803.000000	1697.000000	15.506287
804.000000	1696.000000	15.434025
805.000000	1695.000000	15.448053
806.000000	1694.000000	15.459357
807.000000	1693.000000	15.516480
808.000000	1692.000000	15.592174
809.000000	1691.000000	15.672510
810.000000	1690.000000	15.758397
811.000000	1689.000000	15.879305
812.000000	1688.000000	15.916243
813.000000	1687.000000	15.947026
814.000000	1686.000000	15.996882
815.000000	1685.000000	16.025040
816.000000	1684.000000	16.059254
817.000000	1683.000000	16.186722
818.000000	1682.000000	16.334779
819.000000	1681.000000	16.577604
820.000000	1680.000000	16.876139
821.000000	1679.000000	17.209797
822.000000	1678.000000	17.556372
823.000000	1677.000000	17.876203
824.000000	1676.000000	18.172417
825.000000	1675.000000	18.447841
826.000000	1674.000000	18.674316
827.000000	1673.000000	18.898369
828.000000	1672.000000	19.081245
829.000000	1671.000000	19.249588
830.000000	1670.000000	19.400066
831.000000	1669.000000	19.507148
832.000000	1668.000000	19.642791
833.000000	1667.000000	19.718989
834.000000	1666.000000	19.773791
835.000000	1665.000000	19.844337
836.000000	1664.000000	19.906709
837.000000	1663.000000	19.958786
838.000000	1662.000000	20.008138
839.000000	1661.000000	20.039324
840.000000	1660.000000	20.055775
841.000000	1659.000000	20.093723
842.000000	1658.000000	20.096447
843.000000	1657.000000	20.106641
844.000000	1656.000000	20.115926
845.000000	1655.000000	20.121578
846.000000	1654.000000	20.119055
847.000000	1653.000000	20.095035
848.000000	1652.000000	20.080501
849.000000	1651.000000	20.063041
850.000000	1650.000000	20.030039
851.000000	1649.000000	20.023983
852.000000	1648.000000	19.986641
853.000000	1647.000000	19.956768
854.000000	1646.000000	19.917205
855.000000	1645.000000	19.875523
856.000000	1644.000000	19.815776
857.000000	1643.000000	19.776415
858.000000	1642.000000	19.737559
859.000000	1641.000000	19.681949
860.000000	1640.000000	19.655305
861.000000	1639.000000	19.620486
862.000000	1638.000000	19.564877
863.000000	1637.000000	19.521883
864.000000	1636.000000	19.474549
865.000000	1635.000000	19.418435
866.000000	1634.000000	19.364137
867.000000	1633.000000	19.327905
868.000000	1632.000000	19.273910
869.000000	1631.000000	19.212144
870.000000	1630.000000	19.155828
871.000000	1629.000000	19.101026
872.000000	1628.000000	19.051674
873.000000	1627.000000	19.002423
874.000000	1626.000000	18.945905
875.000000	1625.000000	18.892314
876.000000	1624.000000	18.832667
877.000000	1623.000000	18.781397
878.000000	1622.000000	18.724173
879.000000	1621.000000	18.683299
880.000000	1620.000000	18.642727
881.000000	1619.000000	18.579447
882.000000	1618.000000	18.545637
883.000000	1617.000000	18.507084
884.000000	1616.000000	18.467521
885.000000	1615.000000	18.440373
886.000000	1614.000000	18.381130
887.000000	1613.000000	18.346412
888.000000	1612.000000	18.295949
889.000000	1611.000000	18.256387
890.000000	1610.000000	18.207337
891.000000	1609.000000	18.167775
892.000000	1608.000000	18.127506
893.000000	1607.000000	18.096320
894.000000	1606.000000	18.060492
895.000000	1605.000000	18.007607
896.000000	1604.000000	17.984293
897.000000	1603.000000	17.954722
898.000000	1602.000000	17.908398
899.000000	1601.000000	17.876607
900.000000	1600.000000	17.846026
901.000000	1599.000000	17.805051
902.000000	1598.000000	17.762864
903.000000	1597.000000	17.735312
904.000000	1596.000000	17.702410
905.000000	1595.000000	17.666481
906.000000	1594.000000	17.649627
907.000000	1593.000000	17.629946
908.000000	1592.000000	17.599467
909.000000	1591.000000	17.578979
910.000000	1590.000000	17.559703
911.000000	1589.000000	17.527508
912.000000	1588.000000	17.506717
913.000000	1587.000000	17.500965
914.000000	1586.000000	17.483908
915.000000	1585.000000	17.467962
916.000000	1584.000000	17.443135
917.000000	1583.000000	17.426078
918.000000	1582.000000	17.405793
919.000000	1581.000000	17.400443
920.000000	1580.000000	17.397315
921.000000	1579.000000	17.384800
922.000000	1578.000000	17.384296
923.000000	1577.000000	17.383185
924.000000	1576.000000	17.372285
925.000000	1575.000000	17.371781
926.000000	1574.000000	17.371175
927.000000	1573.000000	17.361487
928.000000	1572.000000	17.372487
929.000000	1571.000000	17.389947
930.000000	1570.000000	17.379956
931.000000	1569.000000	17.381369
932.000000	1568.000000	17.404682
933.000000	1567.000000	17.410435
934.000000	1566.000000	17.418711
935.000000	1565.000000	17.434152
936.000000	1564.000000	17.435666
937.000000	1563.000000	17.433749
938.000000	1562.000000	17.441217
939.000000	1561.000000	17.440511
940.000000	1560.000000	17.447273
941.000000	1559.000000	17.442327
942.000000	1558.000000	17.428904
943.000000	1557.000000	17.428702
944.000000	1556.000000	17.419720
945.000000	1555.000000	17.411747
946.000000	1554.000000	17.396205
947.000000	1553.000000	17.372992
948.000000	1552.000000	17.357550
949.000000	1551.000000	17.346550
950.000000	1550.000000	17.335246
951.000000	1549.000000	17.303354
952.000000	1548.000000	17.277113
953.000000	1547.000000	17.266012
954.000000	1546.000000	17.246029
955.000000	1545.000000	17.225339
956.000000	1544.000000	17.210907
957.000000	1543.000000	17.193245
958.000000	1542.000000	17.175583
959.000000	1541.000000	17.161353
960.000000	1540.000000	17.146113
961.000000	1539.000000	17.142379
962.000000	1538.000000	17.120983
963.000000	1537.000000	17.100495
964.000000	1536.000000	17.088889
965.000000	1535.000000	17.059822
966.000000	1534.000000	17.045491
967.000000	1533.000000	17.034490
968.000000	1532.000000	17.013599
969.000000	1531.000000	16.989377
970.000000	1530.000000	16.959907
971.000000	1529.000000	16.934575
972.000000	1528.000000	16.907022
973.000000	1527.000000	16.876341
974.000000	1526.000000	16.864028
975.000000	1525.000000	16.830622
976.000000	1524.000000	16.803675
977.000000	1523.000000	16.798629
978.000000	1522.000000	16.763003
979.000000	1521.000000	16.746249
980.000000	1520.000000	16.708301
981.000000	1519.000000	16.678730
982.000000	1518.000000	16.658041
983.000000	1517.000000	16.622717
984.000000	1516.000000	16.595366
985.000000	1515.000000	16.573869
986.000000	1514.000000	16.542482
987.000000	1513.000000	16.526838
988.000000	1512.000000	16.506452
989.000000	1511.000000	16.463660
990.000000	1510.000000	16.443777
991.000000	1509.000000	16.409665
992.000000	1508.000000	16.390186
993.000000	1507.000000	16.359404
994.000000	1506.000000	16.319337
995.000000	1505.000000	16.302987
996.000000	1504.000000	16.286537
997.000000	1503.000000	16.256057
998.000000	1502.000000	16.235670
999.000000	1501.000000	16.227193
1000.000000	1500.000000	16.198732
1001.000000	1499.000000	16.174712
1002.000000	1498.000000	16.148774
1003.000000	1497.000000	16.134140
1004.000000	1496.000000	16.133535
1005.000000	1495.000000	16.129296
1006.000000	1494.000000	16.104771
1007.000000	1493.000000	16.075503
1008.000000	1492.000000	16.066319
1009.000000	1491.000000	16.054813
1010.000000	1490.000000	16.055923
1011.000000	1489.000000	16.064502
1012.000000	1488.000000	16.063190
1013.000000	1487.000000	16.044115
1014.000000	1486.000000	16.030591
1015.000000	1485.000000	16.014645
1016.000000	1484.000000	16.003745
1017.000000	1483.000000	15.992341
1018.000000	1482.000000	16.006975
1019.000000	1481.000000	16.007883
1020.000000	1480.000000	15.985478
1021.000000	1479.000000	16.002736
1022.000000	1478.000000	16.001727
1023.000000	1477.000000	16.003543
1024.000000	1476.000000	16.003342
1025.000000	1475.000000	16.000919
1026.000000	1474.000000	16.017572
1027.000000	1473.000000	16.018077
1028.000000	1472.000000	16.027059
1029.000000	1471.000000	16.012627
1030.000000	1470.000000	16.006773
1031.000000	1469.000000	16.022013
1032.000000	1468.000000	16.031500
1033.000000	1467.000000	16.041390
1034.000000	1466.000000	16.034931
1035.000000	1465.000000	16.047042
1036.000000	1464.000000	16.036849
1037.000000	1463.000000	16.038564
1038.000000	1462.000000	16.078430
1039.000000	1461.000000	16.104670
1040.000000	1460.000000	16.107092
1041.000000	1459.000000	16.108001
1042.000000	1458.000000	16.127479
1043.000000	1457.000000	16.144334
1044.000000	1456.000000	16.172794
1045.000000	1455.000000	16.205898
1046.000000	1454.000000	16.247983
1047.000000	1453.000000	16.287243
1048.000000	1452.000000	16.342146
1049.000000	1451.000000	16.354257
1050.000000	1450.000000	16.411683
1051.000000	1449.000000	16.402600
1052.000000	1448.000000	16.464871
1053.000000	1447.000000	16.503929
1054.000000	1446.000000	16.581338
1055.000000	1445.000000	16.622414
1056.000000	1444.000000	16.648756
1057.000000	1443.000000	16.702649
1058.000000	1442.000000	16.768049
1059.000000	1441.000000	16.826585
1060.000000	1440.000000	16.861000
1061.000000	1439.000000	16.948502
1062.000000	1438.000000	17.000075
1063.000000	1437.000000	17.068502
1064.000000	1436.000000	17.148535
1065.000000	1435.000000	17.188703
1066.000000	1434.000000	17.285692
1067.000000	1433.000000	17.365221
1068.000000	1432.000000	17.410132
1069.000000	1431.000000	17.492487
1070.000000	1430.000000	17.568483
1071.000000	1429.000000	17.668298
1072.000000	1428.000000	17.764984
1073.000000	1427.000000	17.866110
1074.000000	1426.000000	18.005992
1075.000000	1425.000000	18.122964
1076.000000	1424.000000	18.256589
1077.000000	1423.000000	18.408278
1078.000000	1422.000000	18.495074
1079.000000	1421.000000	18.631726
1080.000000	1420.000000	18.824896
1081.000000	1419.000000	18.972347
1082.000000	1418.000000	19.114247
1083.000000	1417.000000	19.252514
1084.000000	1416.000000	19.422371
1085.000000	1415.000000	19.612008
1086.000000	1414.000000	19.751789
1087.000000	1413.000000	19.915893
1088.000000	1412.000000	20.048004
1089.000000	1411.000000	20.259946
1090.000000	1410.000000	20.491467
1091.000000	1409.000000	20.730558
1092.000000	1408.000000	20.933820
1093.000000	1407.000000	21.171801
1094.000000	1406.000000	21.398781
1095.000000	1405.000000	21.657653
1096.000000	1404.000000	21.866164
1097.000000	1403.000000	22.114540
1098.000000	1402.000000	22.336877
1099.000000	1401.000000	22.625623
1100.000000	1400.000000	22.827069
1101.000000	1399.000000	22.967051
1102.000000	1398.000000	23.079784
1103.000000	1397.000000	23.257008
1104.000000	1396.000000	23.437260
1105.000000	1395.000000	23.565737
1106.000000	1394.000000	23.621851
1107.000000	1393.000000	23.700472
1108.000000	1392.000000	23.810076
1109.000000	1391.000000	23.932296
1110.000000	1390.000000	24.058957
1111.000000	1389.000000	24.224675
1112.000000	1388.000000	24.436214
1113.000000	1387.000000	24.621007
1114.000000	1386.000000	24.876750
1115.000000	1385.000000	25.191636
1116.000000	1384.000000	25.552442
1117.000000	1383.000000	25.948572
1118.000000	1382.000000	26.365088
1119.000000	1381.000000	26.752135
1120.000000	1380.000000	27.057432
1121.000000	1379.000000	27.442359
1122.000000	1378.000000	27.772283
1123.000000	1377.000000	28.161146
1124.000000	1376.000000	28.535880
1125.000000	1375.000000	28.975205
1126.000000	1374.000000	29.432294
1127.000000	1373.000000	29.932477
1128.000000	1372.000000	30.434578
1129.000000	1371.000000	30.902465
1130.000000	1370.000000	31.308284
1131.000000	1369.000000	31.668888
1132.000000	1368.000000	31.990939
1133.000000	1367.000000	32.284529
1134.000000	1366.000000	32.522813
1135.000000	1365.000000	32.755949
1136.000000	1364.000000	32.925200
1137.000000	1363.000000	33.099800
1138.000000	1362.000000	33.293878
1139.000000	1361.000000	33.434466
1140.000000	1360.000000	33.513490
1141.000000	1359.000000	33.575963
1142.000000	1358.000000	33.676585
1143.000000	1357.000000	33.824742
1144.000000	1356.000000	34.035574
1145.000000	1355.000000	34.370544
1146.000000	1354.000000	34.803309
1147.000000	1353.000000	35.246672
1148.000000	1352.000000	35.738882
1149.000000	1351.000000	36.257635
1150.000000	1350.000000	36.747323
1151.000000	1349.000000	37.185235
1152.000000	1348.000000	37.599834
1153.000000	1347.000000	37.981330
1154.000000	1346.000000	38.347485
1155.000000	1345.000000	38.719393
1156.000000	1344.000000	39.098467
1157.000000	1343.000000	39.440702
1158.000000	1342.000000	39.784150
1159.000000	1341.000000	40.153938
1160.000000	1340.000000	40.467511
1161.000000	1339.000000	40.779974
1162.000000	1338.000000	41.108586
1163.000000	1337.000000	41.448702
1164.000000	1336.000000	41.786094
1165.000000	1335.000000	42.089575
1166.000000	1334.000000	42.386394
1167.000000	1333.000000	42.702995
1168.000000	1332.000000	42.999412
1169.000000	1331.000000	43.274936
1170.000000	1330.000000	43.555204
1171.000000	1329.000000	43.810241
1172.000000	1328.000000	44.078298
1173.000000	1327.000000	44.317489
1174.000000	1326.000000	44.552644
1175.000000	1325.000000	44.788001
1176.000000	1324.000000	44.995502
1177.000000	1323.000000	45.194627
1178.000000	1322.000000	45.406165
1179.000000	1321.000000	45.605088
1180.000000	1320.000000	45.799570
1181.000000	1319.000000	45.976693
1182.000000	1318.000000	46.143724
1183.000000	1317.000000	46.300359
1184.000000	1316.000000	46.455783
1185.000000	1315.000000	46.606464
1186.000000	1314.000000	46.755933
1187.000000	1313.000000	46.891980
1188.000000	1312.000000	47.016218
1189.000000	1311.000000	47.126630
1190.000000	1310.000000	47.235730
1191.000000	1309.000000	47.339178
1192.000000	1308.000000	47.435965
1193.000000	1307.000000	47.524375
1194.000000	1306.000000	47.597747
1195.000000	1305.000000	47.664458
1196.000000	1304.000000	47.719462
1197.000000	1303.000000	47.770026
1198.000000	1302.000000	47.802725
1199.000000	1301.000000	47.823516
1200.000000	1300.000000	47.841077
1201.000000	1299.000000	47.863583
1202.000000	1298.000000	47.876400
1203.000000	1297.000000	47.892952
1204.000000	1296.000000	47.910513
1205.000000	1295.000000	47.913339
1206.000000	1294.000000	47.917679
1207.000000	1293.000000	47.916568
1208.000000	1292.000000	47.897494
1209.000000	1291.000000	47.880942
1210.000000	1290.000000	47.846224
1211.000000	1289.000000	47.815543
1212.000000	1288.000000	47.773558
1213.000000	1287.000000	47.717444
1214.000000	1286.000000	47.660926
1215.000000	1285.000000	47.601885
1216.000000	1284.000000	47.538706
1217.000000	1283.000000	47.473408
1218.000000	1282.000000	47.409825
1219.000000	1281.000000	47.335343
1220.000000	1280.000000	47.262979
1221.000000	1279.000000	47.191626
1222.000000	1278.000000	47.118556
1223.000000	1277.000000	47.053561
1224.000000	1276.000000	46.988868
1225.000000	1275.000000	46.934368
1226.000000	1274.000000	46.879970
1227.000000	1273.000000	46.835361
1228.000000	1272.000000	46.789945
1229.000000	1271.000000	46.748465
1230.000000	1270.000000	46.701535
1231.000000	1269.000000	46.653696
1232.000000	1268.000000	46.603234
1233.000000	1267.000000	46.527843
1234.000000	1266.000000	46.479601
1235.000000	1265.000000	46.426313
1236.000000	1264.000000	46.360005
1237.000000	1263.000000	46.303891
1238.000000	1262.000000	46.254741
1239.000000	1261.000000	46.192268
1240.000000	1260.000000	46.112841
1241.000000	1259.000000	46.041386
1242.000000	1258.000000	45.979923
1243.000000	1257.000000	45.907761
1244.000000	1256.000000	45.820663
1245.000000	1255.000000	45.743658
1246.000000	1254.000000	45.669276
1247.000000	1253.000000	45.590757
1248.000000	1252.000000	45.485694
1249.000000	1251.000000	45.389008
1250.000000	1250.000000	45.299185
1251.000000	1249.000000	45.189278
1252.000000	1248.000000	45.087344
1253.000000	1247.000000	44.972996
1254.000000	1246.000000	44.839472
1255.000000	1245.000000	44.714628
1256.000000	1244.000000	44.579086
1257.000000	1243.000000	44.438801
1258.000000	1242.000000	44.314764
1259.000000	1241.000000	44.169433
1260.000000	1240.000000	44.009568
1261.000000	1239.000000	43.848593
1262.000000	1238.000000	43.690545
1263.000000	1237.000000	43.530478
1264.000000	1236.000000	43.351942
1265.000000	1235.000000	43.197224
1266.000000	1234.000000	43.010614
1267.000000	1233.000000	42.841061
1268.000000	1232.000000	42.652129
1269.000000	1231.000000	42.452298
1270.000000	1230.000000	42.256201
1271.000000	1229.000000	42.065454
1272.000000	1228.000000	41.868953
1273.000000	1227.000000	41.660947
1274.000000	1226.000000	41.457584
1275.000000	1225.000000	41.250183
1276.000000	1224.000000	41.066096
1277.000000	1223.000000	40.838410
1278.000000	1222.000000	40.646855
1279.000000	1221.000000	40.442179
1280.000000	1220.000000	40.266267
1281.000000	1219.000000	40.094493
1282.000000	1218.000000	39.919994
1283.000000	1217.000000	39.762047
1284.000000	1216.000000	39.610256
1285.000000	1215.000000	39.461796
1286.000000	1214.000000	39.319996
1287.000000	1213.000000	39.192528
1288.000000	1212.000000	39.057996
1289.000000	1211.000000	38.948997
1290.000000	1210.000000	38.841310
1291.000000	1209.000000	38.747248
1292.000000	1208.000000	38.650360
1293.000000	1207.000000	38.570428
1294.000000	1206.000000	38.485348
1295.000000	1205.000000	38.446492
1296.000000	1204.000000	38.430344
1297.000000	1203.000000	38.418435
1298.000000	1202.000000	38.387653
1299.000000	1201.000000	38.367771
1300.000000	1200.000000	38.332145
1301.000000	1199.000000	38.276232
1302.000000	1198.000000	38.203365
1303.000000	1197.000000	38.100724
1304.000000	1196.000000	37.931372
1305.000000	1195.000000	37.720338
1306.000000	1194.000000	37.451677
1307.000000	1193.000000	37.110349
1308.000000	1192.000000	36.737735
1309.000000	1191.000000	36.308199
1310.000000	1190.000000	35.904802
1311.000000	1189.000000	35.536730
1312.000000	1188.000000	35.255755
1313.000000	1187.000000	35.074898
1314.000000	1186.000000	34.987093
1315.000000	1185.000000	35.051887
1316.000000	1184.000000	35.207917
1317.000000	1183.000000	35.511801
1318.000000	1182.000000	35.881792
1319.000000	1181.000000	36.342816
1320.000000	1180.000000	36.821401
1321.000000	1179.000000	37.306951
1322.000000	1178.000000	37.744661
1323.000000	1177.000000	38.154517
1324.000000	1176.000000	38.476669
1325.000000	1175.000000	38.789536
1326.000000	1174.000000	39.099072
1327.000000	1173.000000	39.390442
1328.000000	1172.000000	39.701795
1329.000000	1171.000000	40.050894
1330.000000	1170.000000	40.392322
1331.000000	1169.000000	40.730521
1332.000000	1168.000000	41.091428
1333.000000	1167.000000	41.460712
1334.000000	1166.000000	41.812839
1335.000000	1165.000000	42.222694
1336.000000	1164.000000	42.590868
1337.000000	1163.000000	43.004660
1338.000000	1162.000000	43.411488
1339.000000	1161.000000	43.826692
1340.000000	1160.000000	44.185581
1341.000000	1159.000000	44.603308
1342.000000	1158.000000	44.967445
1343.000000	1157.000000	45.324517
1344.000000	1156.000000	45.633851
1345.000000	1155.000000	45.931781
1346.000000	1154.000000	46.151898
1347.000000	1153.000000	46.323269
1348.000000	1152.000000	46.423992
1349.000000	1151.000000	46.490299
1350.000000	1150.000000	46.553781
1351.000000	1149.000000	46.610703
1352.000000	1148.000000	46.655816
1353.000000	1147.000000	46.770769
1354.000000	1146.000000	46.934974
1355.000000	1145.000000	47.177799
1356.000000	1144.000000	47.503483
1357.000000	1143.000000	47.905366
1358.000000	1142.000000	48.310276
1359.000000	1141.000000	48.760602
1360.000000	1140.000000	49.215975
1361.000000	1139.000000	49.693047
1362.000000	1138.000000	50.167999
1363.000000	1137.000000	50.686348
1364.000000	1136.000000	51.224681
1365.000000	1135.000000	51.780171
1366.000000	1134.000000	52.315174
1367.000000	1133.000000	52.772767
1368.000000	1132.000000	53.260738
1369.000000	1131.000000	53.682503
1370.000000	1130.000000	54.062888
1371.000000	1129.000000	54.379489
1372.000000	1128.000000	54.648353
1373.000000	1127.000000	54.858579
1374.000000	1126.000000	55.028032
1375.000000	1125.000000	55.162262
1376.000000	1124.000000	55.273784
1377.000000	1123.000000	55.366029
1378.000000	1122.000000	55.453733
1379.000000	1121.000000	55.529124
1380.000000	1120.000000	55.588064
1381.000000	1119.000000	55.632269
1382.000000	1118.000000	55.649628
1383.000000	1117.000000	55.673143
1384.000000	1116.000000	55.654876
1385.000000	1115.000000	55.654573
1386.000000	1114.000000	55.628131
1387.000000	1113.000000	55.615515
1388.000000	1112.000000	55.604817
1389.000000	1111.000000	55.578577
1390.000000	1110.000000	55.565255
1391.000000	1109.000000	55.533564
1392.000000	1108.000000	55.520242
1393.000000	1107.000000	55.499755
1394.000000	1106.000000	55.489057
1395.000000	1105.000000	55.491176
1396.000000	1104.000000	55.475533
1397.000000	1103.000000	55.444650
1398.000000	1102.000000	55.433851
1399.000000	1101.000000	55.395297
1400.000000	1100.000000	55.374810
1401.000000	1099.000000	55.356340
1402.000000	1098.000000	55.328586
1403.000000	1097.000000	55.289730
1404.000000	1096.000000	55.262884
1405.000000	1095.000000	55.215752
1406.000000	1094.000000	55.179318
1407.000000	1093.000000	55.125122
1408.000000	1092.000000	55.074659
1409.000000	1091.000000	55.020362
1410.000000	1090.000000	54.957788
1411.000000	1089.000000	54.892692
1412.000000	1088.000000	54.816595
1413.000000	1087.000000	54.732423
1414.000000	1086.000000	54.647546
1415.000000	1085.000000	54.578715
1416.000000	1084.000000	54.513719
1417.000000	1083.000000	54.450036
1418.000000	1082.000000	54.369195
1419.000000	1081.000000	54.291584
1420.000000	1080.000000	54.214175
1421.000000	1079.000000	54.121929
1422.000000	1078.000000	54.049163
1423.000000	1077.000000	53.980332
1424.000000	1076.000000	53.903124
1425.000000	1075.000000	53.825210
1426.000000	1074.000000	53.735488
1427.000000	1073.000000	53.646069
1428.000000	1072.000000	53.566540
1429.000000	1071.000000	53.490443
1430.000000	1070.000000	53.410208
1431.000000	1069.000000	53.332294
1432.000000	1068.000000	53.241663
1433.000000	1067.000000	53.157290
1434.000000	1066.000000	53.071908
1435.000000	1065.000000	52.989048
1436.000000	1064.000000	52.894583
1437.000000	1063.000000	52.821816
1438.000000	1062.000000	52.742489
1439.000000	1061.000000	52.651455
1440.000000	1060.000000	52.571422
1441.000000	1059.000000	52.490480
1442.000000	1058.000000	52.411355
1443.000000	1057.000000	52.315577
1444.000000	1056.000000	52.211524
1445.000000	1055.000000	52.121196
1446.000000	1054.000000	52.042273
1447.000000	1053.000000	51.946193
1448.000000	1052.000000	51.863333
1449.000000	1051.000000	51.782795
1450.000000	1050.000000	51.710937
1451.000000	1049.000000	51.658052
1452.000000	1048.000000	51.607489
1453.000000	1047.000000	51.569239
1454.000000	1046.000000	51.503436
1455.000000	1045.000000	51.439449
1456.000000	1044.000000	51.362847
1457.000000	1043.000000	51.284328
1458.000000	1042.000000	51.227406
1459.000000	1041.000000	51.163622
1460.000000	1040.000000	51.087020
1461.000000	1039.000000	50.995986
1462.000000	1038.000000	50.917264
1463.000000	1037.000000	50.858829
1464.000000	1036.000000	50.777282
1465.000000	1035.000000	50.681807
1466.000000	1034.000000	50.597837
1467.000000	1033.000000	50.505188
1468.000000	1032.000000	50.408805
1469.000000	1031.000000	50.320193
1470.000000	1030.000000	50.226636
1471.000000	1029.000000	50.123087
1472.000000	1028.000000	50.037099
1473.000000	1027.000000	49.948084
1474.000000	1026.000000	49.832727
1475.000000	1025.000000	49.721205
1476.000000	1024.000000	49.625023
1477.000000	1023.000000	49.533182
1478.000000	1022.000000	49.442248
1479.000000	1021.000000	49.339608
1480.000000	1020.000000	49.228187
1481.000000	1019.000000	49.140584
1482.000000	1018.000000	49.057826
1483.000000	1017.000000	48.980013
1484.000000	1016.000000	48.909870
1485.000000	1015.000000	48.855775
1486.000000	1014.000000	48.800771
1487.000000	1013.000000	48.746473
1488.000000	1012.000000	48.711957
1489.000000	1011.000000	48.679661
1490.000000	1010.000000	48.661192
1491.000000	1009.000000	48.647466
1492.000000	1008.000000	48.641107
1493.000000	1007.000000	48.644741
1494.000000	1006.000000	48.647163
1495.000000	1005.000000	48.641410
1496.000000	1004.000000	48.637373
1497.000000	1003.000000	48.634749
1498.000000	1002.000000	48.620923
1499.000000	1001.000000	48.611537
1500.000000	1000.000000	48.609316
1501.000000	999.000000	48.615170
1502.000000	998.000000	48.615977
1503.000000	997.000000	48.622739
1504.000000	996.000000	48.630510
1505.000000	995.000000	48.641208
1506.000000	994.000000	48.663513
1507.000000	993.000000	48.691267
1508.000000	992.000000	48.692075
1509.000000	991.000000	48.720939
1510.000000	990.000000	48.757373
1511.000000	989.000000	48.785531
1512.000000	988.000000	48.829332
1513.000000	987.000000	48.861023
1514.000000	986.000000	48.916329
1515.000000	985.000000	48.987179
1516.000000	984.000000	49.047229
1517.000000	983.000000	49.103949
1518.000000	982.000000	49.172376
1519.000000	981.000000	49.240702
1520.000000	980.000000	49.310844
1521.000000	979.000000	49.392795
1522.000000	978.000000	49.463645
1523.000000	977.000000	49.553064
1524.000000	976.000000	49.635318
1525.000000	975.000000	49.734527
1526.000000	974.000000	49.837066
1527.000000	973.000000	49.928403
1528.000000	972.000000	50.028521
1529.000000	971.000000	50.139235
1530.000000	970.000000	50.252473
1531.000000	969.000000	50.361371
1532.000000	968.000000	50.473801
1533.000000	967.000000	50.614692
1534.000000	966.000000	50.733178
1535.000000	965.000000	50.851260
1536.000000	964.000000	50.985490
1537.000000	963.000000	51.149492
1538.000000	962.000000	51.307944
1539.000000	961.000000	51.451661
1540.000000	960.000000	51.620407
1541.000000	959.000000	51.799549
1542.000000	958.000000	51.963350
1543.000000	957.000000	52.137647
1544.000000	956.000000	52.297108
1545.000000	955.000000	52.461111
1546.000000	954.000000	52.625517
1547.000000	953.000000	52.796383
1548.000000	952.000000	52.957762
1549.000000	951.000000	53.125499
1550.000000	950.000000	53.295961
1551.000000	949.000000	53.466322
1552.000000	948.000000	53.642738
1553.000000	947.000000	53.833991
1554.000000	946.000000	53.989718
1555.000000	945.000000	54.178750
1556.000000	944.000000	54.365562
1557.000000	943.000000	54.561961
1558.000000	942.000000	54.753517
1559.000000	941.000000	54.971716
1560.000000	940.000000	55.149445
1561.000000	939.000000	55.346349
1562.000000	938.000000	55.553547
1563.000000	937.000000	55.763067
1564.000000	936.000000	55.959467
1565.000000	935.000000	56.180492
1566.000000	934.000000	56.362662
1567.000000	933.000000	56.580962
1568.000000	932.000000	56.773627
1569.000000	931.000000	56.954182
1570.000000	930.000000	57.140186
1571.000000	929.000000	57.346375
1572.000000	928.000000	57.517140
1573.000000	927.000000	57.703346
1574.000000	926.000000	57.856853
1575.000000	925.000000	58.079291
1576.000000	924.000000	58.234615
1577.000000	923.000000	58.404673
1578.000000	922.000000	58.586842
1579.000000	921.000000	58.741762
1580.000000	920.000000	58.940987
1581.000000	919.000000	59.099439
1582.000000	918.000000	59.273736
1583.000000	917.000000	59.432895
1584.000000	916.000000	59.579538
1585.000000	915.000000	59.746064
1586.000000	914.000000	59.907645
1587.000000	913.000000	60.081740
1588.000000	912.000000	60.246550
1589.000000	911.000000	60.416205
1590.000000	910.000000	60.641065
1591.000000	909.000000	60.794875
1592.000000	908.000000	60.969475
1593.000000	907.000000	61.160929
1594.000000	906.000000	61.391239
1595.000000	905.000000	61.589355
1596.000000	904.000000	61.826427
1597.000000	903.000000	62.038268
1598.000000	902.000000	62.262523
1599.000000	901.000000	62.460134
1600.000000	900.000000	62.681159
1601.000000	899.000000	62.905414
1602.000000	898.000000	63.134614
1603.000000	897.000000	63.362401
1604.000000	896.000000	63.573738
1605.000000	895.000000	63.778212
1606.000000	894.000000	64.011247
1607.000000	893.000000	64.211078
1608.000000	892.000000	64.412322
1609.000000	891.000000	64.557856
1610.000000	890.000000	64.775147
1611.000000	889.000000	64.957316
1612.000000	888.000000	65.165827
1613.000000	887.000000	65.374741
1614.000000	886.000000	65.569929
1615.000000	885.000000	65.747456
1616.000000	884.000000	65.907321
1617.000000	883.000000	66.099684
1618.000000	882.000000	66.287505
1619.000000	881.000000	66.467555
1620.000000	880.000000	66.681111
1621.000000	879.000000	66.867822
1622.000000	878.000000	67.048175
1623.000000	877.000000	67.235088
1624.000000	876.000000	67.427652
1625.000000	875.000000	67.607399
1626.000000	874.000000	67.829938
1627.000000	873.000000	68.031889
1628.000000	872.000000	68.229197
1629.000000	871.000000	68.402687
1630.000000	870.000000	68.612509
1631.000000	869.000000	68.812542
1632.000000	868.000000	69.018025
1633.000000	867.000000	69.182431
1634.000000	866.000000	69.387410
1635.000000	865.000000	69.528503
1636.000000	864.000000	69.666669
1637.000000	863.000000	69.812303
1638.000000	862.000000	69.871647
1639.000000	861.000000	69.928064
1640.000000	860.000000	69.933615
1641.000000	859.000000	69.998005
1642.000000	858.000000	70.252133
1643.000000	857.000000	70.204600
1644.000000	856.000000	70.175100
1645.000000	855.000000	70.376700
1646.000000	854.000000	70.412600
1647.000000	853.000000	70.799900
1648.000000	852.000000	71.395500
1649.000000	851.000000	71.709400
1650.000000	850.000000	71.561500
1651.000000	849.000000	71.990600
1652.000000	848.000000	72.306900
1653.000000	847.000000	72.558200
1654.000000	846.000000	72.738100
1655.000000	845.000000	73.047600
1656.000000	844.000000	73.470500
1657.000000	843.000000	73.823500
1658.000000	842.000000	74.476300
1659.000000	841.000000	74.460300
1660.000000	840.000000	74.653600
1661.000000	839.000000	74.949800
1662.000000	838.000000	75.173300
1663.000000	837.000000	75.552800
1664.000000	836.000000	75.880100
1665.000000	835.000000	76.249200
1666.000000	834.000000	76.484100
1667.000000	833.000000	76.855600
1668.000000	832.000000	77.238200
1669.000000	831.000000	77.618100
1670.000000	830.000000	77.817300
1671.000000	829.000000	78.217700
1672.000000	828.000000	78.611600
1673.000000	827.000000	78.955000
1674.000000	826.000000	79.187100
1675.000000	825.000000	79.610800
1676.000000	824.000000	79.844400
1677.000000	823.000000	80.172000
1678.000000	822.000000	80.476400
1679.000000	821.000000	80.898900
1680.000000	820.000000	81.150100
1681.000000	819.000000	81.347100
1682.000000	818.000000	81.545400
1683.000000	817.000000	81.857400
1684.000000	816.000000	82.011800
1685.000000	815.000000	82.313600
1686.000000	814.000000	82.441700
1687.000000	813.000000	82.789100
1688.000000	812.000000	83.037700
1689.000000	811.000000	83.087300
1690.000000	810.000000	83.136300
1691.000000	809.000000	83.376600
1692.000000	808.000000	83.586600
1693.000000	807.000000	83.566500
1694.000000	806.000000	83.742600
1695.000000	805.000000	83.804000
1696.000000	804.000000	83.871000
1697.000000	803.000000	83.878700
1698.000000	802.000000	83.949600
1699.000000	801.000000	83.950200
1700.000000	800.000000	83.948600
1701.000000	799.000000	83.945400
1702.000000	798.000000	83.958100
1703.000000	797.000000	83.879200
1704.000000	796.000000	83.655700
1705.000000	795.000000	83.626300
1706.000000	794.000000	83.647700
1707.000000	793.000000	83.663600
1708.000000	792.000000	83.562600
1709.000000	791.000000	83.550400
1710.000000	790.000000	83.468900
1711.000000	789.000000	83.313100
1712.000000	788.000000	83.307000
1713.000000	787.000000	83.304500
1714.000000	786.000000	83.168800
1715.000000	785.000000	83.229200
1716.000000	784.000000	83.170200
1717.000000	783.000000	83.077100
1718.000000	782.000000	83.011200
1719.000000	781.000000	82.891200
1720.000000	780.000000	82.864900
1721.000000	779.000000	82.847300
1722.000000	778.000000	82.845400
1723.000000	777.000000	82.695200
1724.000000	776.000000	82.648900
1725.000000	775.000000	82.738300
1726.000000	774.000000	82.726900
1727.000000	773.000000	82.689000
1728.000000	772.000000	82.771100
1729.000000	771.000000	82.791300
1730.000000	770.000000	82.740100
1731.000000	769.000000	82.733200
1732.000000	768.000000	82.750400
1733.000000	767.000000	82.758500
1734.000000	766.000000	82.691300
1735.000000	765.000000	82.671500
1736.000000	764.000000	82.743700
1737.000000	763.000000	82.724000
1738.000000	762.000000	82.651500
1739.000000	761.000000	82.629100
1740.000000	760.000000	82.541300
1741.000000	759.000000	82.377600
1742.000000	758.000000	82.315900
1743.000000	757.000000	82.207400
1744.000000	756.000000	82.087800
1745.000000	755.000000	81.959600
1746.000000	754.000000	81.753800
1747.000000	753.000000	81.654100
1748.000000	752.000000	81.495000
1749.000000	751.000000	81.247100
1750.000000	750.000000	81.099300
1751.000000	749.000000	80.880900
1752.000000	748.000000	80.618700
1753.000000	747.000000	80.431000
1754.000000	746.000000	80.217100
1755.000000	745.000000	79.937100
1756.000000	744.000000	79.716600
1757.000000	743.000000	79.495700
1758.000000	742.000000	79.183200
1759.000000	741.000000	78.873200
1760.000000	740.000000	78.570500
1761.000000	739.000000	78.288100
1762.000000	738.000000	77.874300
1763.000000	737.000000	77.481800
1764.000000	736.000000	77.073000
1765.000000	735.000000	76.667000
1766.000000	734.000000	76.318600
1767.000000	733.000000	75.851000
1768.000000	732.000000	75.338600
1769.000000	731.000000	74.822500
1770.000000	730.000000	74.362200
1771.000000	729.000000	73.847400
1772.000000	728.000000	73.361900
1773.000000	727.000000	72.835200
1774.000000	726.000000	72.292200
1775.000000	725.000000	71.738500
1776.000000	724.000000	71.152800
1777.000000	723.000000	70.693500
1778.000000	722.000000	70.241900
1779.000000	721.000000	69.694300
1780.000000	720.000000	69.209400
1781.000000	719.000000	68.785400
1782.000000	718.000000	68.426600
1783.000000	717.000000	68.093600
1784.000000	716.000000	67.791300
1785.000000	715.000000	67.472100
1786.000000	714.000000	67.266000
1787.000000	713.000000	67.130700
1788.000000	712.000000	66.956200
1789.000000	711.000000	66.825400
1790.000000	710.000000	66.769200
1791.000000	709.000000	66.718700
1792.000000	708.000000	66.753000
1793.000000	707.000000	66.838000
1794.000000	706.000000	66.898100
1795.000000	705.000000	66.985400
1796.000000	704.000000	67.076400
1797.000000	703.000000	67.260200
1798.000000	702.000000	67.370100
1799.000000	701.000000	67.483600
1800.000000	700.000000	67.628100
1801.000000	699.000000	67.726100
1802.000000	698.000000	67.800900
1803.000000	697.000000	67.812400
1804.000000	696.000000	67.744500
1805.000000	695.000000	67.703400
1806.000000	694.000000	67.610800
1807.000000	693.000000	67.454000
1808.000000	692.000000	67.190400
1809.000000	691.000000	66.884500
1810.000000	690.000000	66.519500
1811.000000	689.000000	66.137800
1812.000000	688.000000	65.672700
1813.000000	687.000000	65.110800
1814.000000	686.000000	64.544500
1815.000000	685.000000	63.998900
1816.000000	684.000000	63.340000
1817.000000	683.000000	62.675500
1818.000000	682.000000	61.952200
1819.000000	681.000000	61.297600
1820.000000	680.000000	60.653600
1821.000000	679.000000	59.926500
1822.000000	678.000000	59.249400
1823.000000	677.000000	58.623200
1824.000000	676.000000	57.976000
1825.000000	675.000000	57.382300
1826.000000	674.000000	56.821200
1827.000000	673.000000	56.266600
1828.000000	672.000000	55.745500
1829.000000	671.000000	55.238700
1830.000000	670.000000	54.794700
1831.000000	669.000000	54.292600
1832.000000	668.000000	53.929000
1833.000000	667.000000	53.619300
1834.000000	666.000000	53.357500
1835.000000	665.000000	53.129400
1836.000000	664.000000	52.987400
1837.000000	663.000000	52.807200
1838.000000	662.000000	52.739100
1839.000000	661.000000	52.696300
1840.000000	660.000000	52.730700
1841.000000	659.000000	52.808200
1842.000000	658.000000	52.905300
1843.000000	657.000000	53.054200
1844.000000	656.000000	53.218900
1845.000000	655.000000	53.393900
1846.000000	654.000000	53.548100
1847.000000	653.000000	53.735100
1848.000000	652.000000	53.871100
1849.000000	651.000000	54.038200
1850.000000	650.000000	54.144900
1851.000000	649.000000	54.316000
1852.000000	648.000000	54.367100
1853.000000	647.000000	54.478700
1854.000000	646.000000	54.545000
1855.000000	645.000000	54.623400
1856.000000	644.000000	54.632900
1857.000000	643.000000	54.721600
1858.000000	642.000000	54.852700
1859.000000	641.000000	54.985800
1860.000000	640.000000	55.184700
1861.000000	639.000000	55.363300
1862.000000	638.000000	55.683900
1863.000000	637.000000	55.976200
1864.000000	636.000000	56.367100
1865.000000	635.000000	56.810700
1866.000000	634.000000	57.220900
1867.000000	633.000000	57.781700
1868.000000	632.000000	58.361400
1869.000000	631.000000	58.956700
1870.000000	630.000000	59.563500
1871.000000	629.000000	60.201600
1872.000000	628.000000	60.794600
1873.000000	627.000000	61.382300
1874.000000	626.000000	61.966100
1875.000000	625.000000	62.528100
1876.000000	624.000000	63.110900
1877.000000	623.000000	63.640200
1878.000000	622.000000	64.059700
1879.000000	621.000000	64.567000
1880.000000	620.000000	64.984200
1881.000000	619.000000	65.417900
1882.000000	618.000000	65.820300
1883.000000	617.000000	66.151800
1884.000000	616.000000	66.524200
1885.000000	615.000000	66.872200
1886.000000	614.000000	67.096000
1887.000000	613.000000	67.345600
1888.000000	612.000000	67.528000
1889.000000	611.000000	67.760700
1890.000000	610.000000	67.956600
1891.000000	609.000000	68.103800
1892.000000	608.000000	68.237900
1893.000000	607.000000	68.381500
1894.000000	606.000000	68.510700
1895.000000	605.000000	68.677700
1896.000000	604.000000	68.766200
1897.000000	603.000000	68.824500
1898.000000	602.000000	68.844700
1899.000000	601.000000	68.882400
1900.000000	600.000000	68.901900
1901.000000	599.000000	68.836600
1902.000000	598.000000	68.883200
1903.000000	597.000000	68.844100
1904.000000	596.000000	68.867100
1905.000000	595.000000	68.839500
1906.000000	594.000000	68.825300
1907.000000	593.000000	68.802700
1908.000000	592.000000	68.733100
1909.000000	591.000000	68.595200
1910.000000	590.000000	68.507300
1911.000000	589.000000	68.351200
1912.000000	588.000000	68.156800
1913.000000	587.000000	68.005300
1914.000000	586.000000	67.792700
1915.000000	585.000000	67.599700
1916.000000	584.000000	67.388300
1917.000000	583.000000	67.134200
1918.000000	582.000000	66.893400
1919.000000	581.000000	66.699800
1920.000000	580.000000	66.460500
1921.000000	579.000000	66.165100
1922.000000	578.000000	65.882700
1923.000000	577.000000	65.572300
1924.000000	576.000000	65.282200
1925.000000	575.000000	64.981000
1926.000000	574.000000	64.696800
1927.000000	573.000000	64.373600
1928.000000	572.000000	64.073700
1929.000000	571.000000	63.784100
1930.000000	570.000000	63.414200
1931.000000	569.000000	63.031300
1932.000000	568.000000	62.590900
1933.000000	567.000000	62.159500
1934.000000	566.000000	61.671700
1935.000000	565.000000	61.217000
1936.000000	564.000000	60.665900
1937.000000	563.000000	60.099900
1938.000000	562.000000	59.511100
1939.000000	561.000000	58.911800
1940.000000	560.000000	58.281900
1941.000000	559.000000	57.444500
1942.000000	558.000000	56.748100
1943.000000	557.000000	56.035500
1944.000000	556.000000	55.333200
1945.000000	555.000000	54.628900
1946.000000	554.000000	53.917100
1947.000000	553.000000	53.213200
1948.000000	552.000000	52.514300
1949.000000	551.000000	51.773000
1950.000000	550.000000	51.109800
1951.000000	549.000000	50.392500
1952.000000	548.000000	49.704700
1953.000000	547.000000	49.055300
1954.000000	546.000000	48.352600
1955.000000	545.000000	47.671300
1956.000000	544.000000	47.002500
1957.000000	543.000000	46.313000
1958.000000	542.000000	45.613200
1959.000000	541.000000	44.902500
1960.000000	540.000000	44.195600
1961.000000	539.000000	43.484600
1962.000000	538.000000	42.795500
1963.000000	537.000000	42.106600
1964.000000	536.000000	41.433800
1965.000000	535.000000	40.758700
1966.000000	534.000000	40.052800
1967.000000	533.000000	39.387700
1968.000000	532.000000	38.726100
1969.000000	531.000000	38.079000
1970.000000	530.000000	37.412100
1971.000000	529.000000	36.725000
1972.000000	528.000000	36.030300
1973.000000	527.000000	35.347000
1974.000000	526.000000	34.644800
1975.000000	525.000000	33.946300
1976.000000	524.000000	33.199900
1977.000000	523.000000	32.409200
1978.000000	522.000000	31.618900
1979.000000	521.000000	30.838400
1980.000000	520.000000	30.025000
1981.000000	519.000000	29.201600
1982.000000	518.000000	28.407600
1983.000000	517.000000	27.621800
1984.000000	516.000000	26.865100
1985.000000	515.000000	26.122500
1986.000000	514.000000	25.428000
1987.000000	513.000000	24.771700
1988.000000	512.000000	24.188700
1989.000000	511.000000	23.691200
1990.000000	510.000000	23.267500
1991.000000	509.000000	22.980500
1992.000000	508.000000	22.767300
1993.000000	507.000000	22.624700
1994.000000	506.000000	22.602700
1995.000000	505.000000	22.646000
1996.000000	504.000000	22.780600
1997.000000	503.000000	22.993400
1998.000000	502.000000	23.240800
1999.000000	501.000000	23.511300
2000.000000	500.000000	23.835600
2001.000000	499.000000	24.176700
2002.000000	498.000000	24.515200
2003.000000	497.000000	24.871000
2004.000000	496.000000	25.195900
2005.000000	495.000000	25.491300
2006.000000	494.000000	25.763900
2007.000000	493.000000	26.007900
2008.000000	492.000000	26.231200
2009.000000	491.000000	26.425200
2010.000000	490.000000	26.595200
2011.000000	489.000000	26.750200
2012.000000	488.000000	26.853600
2013.000000	487.000000	26.913400
2014.000000	486.000000	26.980900
2015.000000	485.000000	27.021300
2016.000000	484.000000	27.014700
2017.000000	483.000000	27.029300
2018.000000	482.000000	27.020400
2019.000000	481.000000	26.959500
2020.000000	480.000000	26.883600
2021.000000	479.000000	26.783400
2022.000000	478.000000	26.690000
2023.000000	477.000000	26.594600
2024.000000	476.000000	26.474100
2025.000000	475.000000	26.364100
2026.000000	474.000000	26.254100
2027.000000	473.000000	26.117800
2028.000000	472.000000	25.968100
2029.000000	471.000000	25.820600
2030.000000	470.000000	25.678600
2031.000000	469.000000	25.534000
2032.000000	468.000000	25.382600
2033.000000	467.000000	25.232700
2034.000000	466.000000	25.072200
2035.000000	465.000000	24.910000
2036.000000	464.000000	24.734300
2037.000000	463.000000	24.536000
2038.000000	462.000000	24.328800
2039.000000	461.000000	24.131100
2040.000000	460.000000	23.924700
2041.000000	459.000000	23.709100
2042.000000	458.000000	23.476200
2043.000000	457.000000	23.253400
2044.000000	456.000000	23.009600
2045.000000	455.000000	22.734500
2046.000000	454.000000	22.464000
2047.000000	453.000000	22.191300
2048.000000	452.000000	21.898200
2049.000000	451.000000	21.578700
2050.000000	450.000000	21.235700
2051.000000	449.000000	20.900300
2052.000000	448.000000	20.564900
2053.000000	447.000000	20.196200
2054.000000	446.000000	19.797500
2055.000000	445.000000	19.395800
2056.000000	444.000000	18.984700
2057.000000	443.000000	18.557700
2058.000000	442.000000	18.098900
2059.000000	441.000000	17.632300
2060.000000	440.000000	17.166200
2061.000000	439.000000	16.678500
2062.000000	438.000000	16.195100
2063.000000	437.000000	15.689000
2064.000000	436.000000	15.183300
2065.000000	435.000000	14.684900
2066.000000	434.000000	14.172100
2067.000000	433.000000	13.656300
2068.000000	432.000000	13.158700
2069.000000	431.000000	12.661400
2070.000000	430.000000	12.170800
2071.000000	429.000000	11.711400
2072.000000	428.000000	11.252500
2073.000000	427.000000	10.817400
2074.000000	426.000000	10.409000
2075.000000	425.000000	10.010100
2076.000000	424.000000	9.623200
2077.000000	423.000000	9.266500
2078.000000	422.000000	8.938700
2079.000000	421.000000	8.622800
2080.000000	420.000000	8.328800
2081.000000	419.000000	8.060900
2082.000000	418.000000	7.815600
2083.000000	417.000000	7.589500
2084.000000	416.000000	7.378400
2085.000000	415.000000	7.198500
2086.000000	414.000000	7.047800
2087.000000	413.000000	6.883700
2088.000000	412.000000	6.747500
2089.000000	411.000000	6.625100
2090.000000	410.000000	6.504300
2091.000000	409.000000	6.418000
2092.000000	408.000000	6.329000
2093.000000	407.000000	6.261900
2094.000000	406.000000	6.191400
2095.000000	405.000000	6.114100
2096.000000	404.000000	6.063700
2097.000000	403.000000	6.024000
2098.000000	402.000000	5.973200
2099.000000	401.000000	5.926600
2100.000000	400.000000	5.894600
2101.000000	399.000000	5.852200
2102.000000	398.000000	5.815100
2103.000000	397.000000	5.785500
2104.000000	396.000000	5.767100
2105.000000	395.000000	5.738800
2106.000000	394.000000	5.712900
2107.000000	393.000000	5.688000
2108.000000	392.000000	5.666500
2109.000000	391.000000	5.654300
2110.000000	390.000000	5.627900
2111.000000	389.000000	5.610800
2112.000000	388.000000	5.603600
2113.000000	387.000000	5.568100
2114.000000	386.000000	5.552900
2115.000000	385.000000	5.523000
2116.000000	384.000000	5.496800
2117.000000	383.000000	5.471800
2118.000000	382.000000	5.447300
2119.000000	381.000000	5.429400
2120.000000	380.000000	5.405000
2121.000000	379.000000	5.404500
2122.000000	378.000000	5.375100
2123.000000	377.000000	5.368600
2124.000000	376.000000	5.299400
2125.000000	375.000000	5.197500
2126.000000	374.000000	5.172900
2127.000000	373.000000	5.151200
2128.000000	372.000000	5.195400
2129.000000	371.000000	5.210100
2130.000000	370.000000	5.214500
2131.000000	369.000000	5.221300
2132.000000	368.000000	5.207900
2133.000000	367.000000	5.229900
2134.000000	366.000000	5.276600
2135.000000	365.000000	5.209900
2136.000000	364.000000	5.184500
2137.000000	363.000000	5.214100
2138.000000	362.000000	5.143800
2139.000000	361.000000	5.133500
2140.000000	360.000000	5.136400
2141.000000	359.000000	5.104100
2142.000000	358.000000	5.041000
2143.000000	357.000000	5.046900
2144.000000	356.000000	5.070900
2145.000000	355.000000	5.113300
2146.000000	354.000000	5.100700
2147.000000	353.000000	5.067200
2148.000000	352.000000	5.065800
2149.000000	351.000000	4.994100
2150.000000	350.000000	5.075800
2151.000000	349.000000	5.090100
2152.000000	348.000000	4.941900
2153.000000	347.000000	4.942500
2154.000000	346.000000	4.921900
2155.000000	345.000000	4.955700
2156.000000	344.000000	4.950300
2157.000000	343.000000	5.006600
2158.000000	342.000000	4.946000
2159.000000	341.000000	4.950800
2160.000000	340.000000	4.929900
2161.000000	339.000000	4.952600
2162.000000	338.000000	4.885600
2163.000000	337.000000	4.827500
2164.000000	336.000000	4.894000
2165.000000	335.000000	4.883700
2166.000000	334.000000	4.911200
2167.000000	333.000000	4.938900
2168.000000	332.000000	4.836700
2169.000000	331.000000	5.066000
2170.000000	330.000000	5.035700
2171.000000	329.000000	5.007600
2172.000000	328.000000	5.021000
2173.000000	327.000000	4.927500
2174.000000	326.000000	5.050100
2175.000000	325.000000	5.015100
2176.000000	324.000000	4.900200
2177.000000	323.000000	4.793600
2178.000000	322.000000	5.039700
2179.000000	321.000000	4.995900
2180.000000	320.000000	4.930300
2181.000000	319.000000	5.226100
2182.000000	318.000000	4.992100
2183.000000	317.000000	5.061000
2184.000000	316.000000	4.836700
2185.000000	315.000000	4.814400
2186.000000	314.000000	4.768700
2187.000000	313.000000	4.799900
2188.000000	312.000000	4.800100
2189.000000	311.000000	4.790900
2190.000000	310.000000	4.805700
2191.000000	309.000000	4.833500
2192.000000	308.000000	4.826500
2193.000000	307.000000	4.847500
2194.000000	306.000000	4.792100
2195.000000	305.000000	4.788400
2196.000000	304.000000	4.844100
2197.000000	303.000000	4.880700
2198.000000	302.000000	4.819800
2199.000000	301.000000	4.850000
2200.000000	300.000000	4.880100
2201.000000	299.000000	4.867000
2202.000000	298.000000	4.931500
2203.000000	297.000000	4.884800
2204.000000	296.000000	4.888400
2205.000000	295.000000	4.934900
2206.000000	294.000000	4.877800
2207.000000	293.000000	4.937500
2208.000000	292.000000	4.940700
2209.000000	291.000000	5.001600
2210.000000	290.000000	5.011800
2211.000000	289.000000	4.935200
2212.000000	288.000000	4.965400
2213.000000	287.000000	4.994500
2214.000000	286.000000	5.032700
2215.000000	285.000000	5.002200
2216.000000	284.000000	5.031100
2217.000000	283.000000	4.977500
2218.000000	282.000000	5.033400
2219.000000	281.000000	5.054700
2220.000000	280.000000	5.055200
2221.000000	279.000000	5.045700
2222.000000	278.000000	5.100100
2223.000000	277.000000	5.094500
2224.000000	276.000000	5.064200
2225.000000	275.000000	5.025400
2226.000000	274.000000	5.106500
2227.000000	273.000000	5.101400
2228.000000	272.000000	5.111800
2229.000000	271.000000	5.048000
2230.000000	270.000000	5.166300
2231.000000	269.000000	5.163700
2232.000000	268.000000	5.174100
2233.000000	267.000000	5.130100
2234.000000	266.000000	5.160900
2235.000000	265.000000	5.211700
2236.000000	264.000000	5.275900
2237.000000	263.000000	5.266600
2238.000000	262.000000	5.212000
2239.000000	261.000000	5.244900
2240.000000	260.000000	5.272700
2241.000000	259.000000	5.282600
2242.000000	258.000000	5.345400
2243.000000	257.000000	5.424700
2244.000000	256.000000	5.340900
2245.000000	255.000000	5.355800
2246.000000	254.000000	5.350000
2247.000000	253.000000	5.341500
2248.000000	252.000000	5.415600
2249.000000	251.000000	5.394200
2250.000000	250.000000	5.484800
