PE UV       SUBTECH     SPECTRUM    ASCII       PEDS        4.00        
   -1
CICIMAUCR0112-2.Sample.ASC
24/04/04
15:29:38.00
24/04/04
15:29:38.00
Vinicio Soto Monge
C. resplendens
250,000000
1
Lambda 1050
1050L1511233
PerkinElmer UV WinLab 6.3.2.0749 / 2.02.05 Lambda 900 UV/VIS/NIR, Aug  7 2015 09:38:08

0
0
3350/servo 860,8/2
0
0
UV/VIS
1
1
1
DoubleDePol,CommonBeamDepol,RBeamAtt,SBeamAtt,60mm sphere, WB InGaAs Detector
0
0
0
0
Program
Program
3350/servo 860,8/2
3350/0,2 860,8/0,2
3350/0,2 860,8/0,2
0
15.00
 
 
 
0
 
860,8
319,2
860,8
Front
100
on
S:100 R:100
0
0
0
0
 
0
 
 
 
0
 
 
0
0
0
0
0
 
 
 
 
0
0


0
0
#HDR
-1
-1
#GR
nm
%R
1.0
0.0
2500,000000
-1,000000
2251
8
62,626100
4,604700
#DATA
250.000000	2250.000000	5.550500
251.000000	2249.000000	5.504700
252.000000	2248.000000	5.513150
253.000000	2247.000000	5.499150
254.000000	2246.000000	5.472000
255.000000	2245.000000	5.503850
256.000000	2244.000000	5.485050
257.000000	2243.000000	5.510350
258.000000	2242.000000	5.440150
259.000000	2241.000000	5.456100
260.000000	2240.000000	5.424500
261.000000	2239.000000	5.406500
262.000000	2238.000000	5.413650
263.000000	2237.000000	5.374600
264.000000	2236.000000	5.354300
265.000000	2235.000000	5.341900
266.000000	2234.000000	5.319100
267.000000	2233.000000	5.305500
268.000000	2232.000000	5.281700
269.000000	2231.000000	5.253150
270.000000	2230.000000	5.237400
271.000000	2229.000000	5.210750
272.000000	2228.000000	5.198750
273.000000	2227.000000	5.205650
274.000000	2226.000000	5.193700
275.000000	2225.000000	5.179350
276.000000	2224.000000	5.149550
277.000000	2223.000000	5.159100
278.000000	2222.000000	5.149450
279.000000	2221.000000	5.124650
280.000000	2220.000000	5.109900
281.000000	2219.000000	5.096850
282.000000	2218.000000	5.096050
283.000000	2217.000000	5.072950
284.000000	2216.000000	5.057950
285.000000	2215.000000	5.053050
286.000000	2214.000000	5.042750
287.000000	2213.000000	5.048000
288.000000	2212.000000	5.036000
289.000000	2211.000000	5.019200
290.000000	2210.000000	5.026100
291.000000	2209.000000	4.996700
292.000000	2208.000000	4.986450
293.000000	2207.000000	4.991350
294.000000	2206.000000	5.007400
295.000000	2205.000000	4.998200
296.000000	2204.000000	5.012050
297.000000	2203.000000	5.019450
298.000000	2202.000000	5.013100
299.000000	2201.000000	5.001850
300.000000	2200.000000	4.984650
301.000000	2199.000000	4.993300
302.000000	2198.000000	4.994750
303.000000	2197.000000	5.004800
304.000000	2196.000000	4.980750
305.000000	2195.000000	4.995950
306.000000	2194.000000	4.993600
307.000000	2193.000000	4.987400
308.000000	2192.000000	4.984400
309.000000	2191.000000	4.999200
310.000000	2190.000000	5.004200
311.000000	2189.000000	5.005750
312.000000	2188.000000	4.996250
313.000000	2187.000000	4.991600
314.000000	2186.000000	4.977250
315.000000	2185.000000	4.951600
316.000000	2184.000000	5.001700
317.000000	2183.000000	5.366500
318.000000	2182.000000	5.550500
319.000000	2181.000000	5.326700
320.000000	2180.000000	5.343450
321.000000	2179.000000	5.296700
322.000000	2178.000000	5.356650
323.000000	2177.000000	5.288450
324.000000	2176.000000	5.232650
325.000000	2175.000000	5.324350
326.000000	2174.000000	5.281350
327.000000	2173.000000	5.172650
328.000000	2172.000000	5.153950
329.000000	2171.000000	5.242300
330.000000	2170.000000	5.201400
331.000000	2169.000000	5.228950
332.000000	2168.000000	5.153250
333.000000	2167.000000	5.228300
334.000000	2166.000000	5.242500
335.000000	2165.000000	5.166450
336.000000	2164.000000	5.169750
337.000000	2163.000000	5.181750
338.000000	2162.000000	5.233200
339.000000	2161.000000	5.197850
340.000000	2160.000000	5.167050
341.000000	2159.000000	5.154100
342.000000	2158.000000	5.164550
343.000000	2157.000000	5.201150
344.000000	2156.000000	5.190800
345.000000	2155.000000	5.167150
346.000000	2154.000000	5.142550
347.000000	2153.000000	5.223250
348.000000	2152.000000	5.147500
349.000000	2151.000000	5.142050
350.000000	2150.000000	5.212900
351.000000	2149.000000	5.208550
352.000000	2148.000000	5.201750
353.000000	2147.000000	5.217000
354.000000	2146.000000	5.244250
355.000000	2145.000000	5.276200
356.000000	2144.000000	5.264800
357.000000	2143.000000	5.282650
358.000000	2142.000000	5.300950
359.000000	2141.000000	5.258900
360.000000	2140.000000	5.239250
361.000000	2139.000000	5.312800
362.000000	2138.000000	5.303900
363.000000	2137.000000	5.346050
364.000000	2136.000000	5.316850
365.000000	2135.000000	5.298800
366.000000	2134.000000	5.285800
367.000000	2133.000000	5.304900
368.000000	2132.000000	5.311400
369.000000	2131.000000	5.377250
370.000000	2130.000000	5.355800
371.000000	2129.000000	5.325150
372.000000	2128.000000	5.356800
373.000000	2127.000000	5.388450
374.000000	2126.000000	5.364950
375.000000	2125.000000	5.384600
376.000000	2124.000000	5.460100
377.000000	2123.000000	5.309800
378.000000	2122.000000	5.323000
379.000000	2121.000000	5.332450
380.000000	2120.000000	5.353950
381.000000	2119.000000	5.381450
382.000000	2118.000000	5.395750
383.000000	2117.000000	5.404450
384.000000	2116.000000	5.426200
385.000000	2115.000000	5.438900
386.000000	2114.000000	5.448050
387.000000	2113.000000	5.470950
388.000000	2112.000000	5.489750
389.000000	2111.000000	5.517800
390.000000	2110.000000	5.528850
391.000000	2109.000000	5.540500
392.000000	2108.000000	5.558900
393.000000	2107.000000	5.576250
394.000000	2106.000000	5.597850
395.000000	2105.000000	5.617050
396.000000	2104.000000	5.632750
397.000000	2103.000000	5.649550
398.000000	2102.000000	5.672350
399.000000	2101.000000	5.694450
400.000000	2100.000000	5.715000
401.000000	2099.000000	5.733000
402.000000	2098.000000	5.754750
403.000000	2097.000000	5.787500
404.000000	2096.000000	5.817000
405.000000	2095.000000	5.852900
406.000000	2094.000000	5.889000
407.000000	2093.000000	5.929650
408.000000	2092.000000	5.973900
409.000000	2091.000000	6.020750
410.000000	2090.000000	6.068850
411.000000	2089.000000	6.127600
412.000000	2088.000000	6.197750
413.000000	2087.000000	6.263100
414.000000	2086.000000	6.342400
415.000000	2085.000000	6.433000
416.000000	2084.000000	6.535400
417.000000	2083.000000	6.652150
418.000000	2082.000000	6.772150
419.000000	2081.000000	6.900000
420.000000	2080.000000	7.045450
421.000000	2079.000000	7.211350
422.000000	2078.000000	7.390200
423.000000	2077.000000	7.581400
424.000000	2076.000000	7.794750
425.000000	2075.000000	8.019650
426.000000	2074.000000	8.258950
427.000000	2073.000000	8.514550
428.000000	2072.000000	8.778750
429.000000	2071.000000	9.061500
430.000000	2070.000000	9.368900
431.000000	2069.000000	9.676650
432.000000	2068.000000	9.995600
433.000000	2067.000000	10.332400
434.000000	2066.000000	10.672600
435.000000	2065.000000	11.012550
436.000000	2064.000000	11.361000
437.000000	2063.000000	11.714350
438.000000	2062.000000	12.069850
439.000000	2061.000000	12.421350
440.000000	2060.000000	12.769750
441.000000	2059.000000	13.125100
442.000000	2058.000000	13.476800
443.000000	2057.000000	13.818350
444.000000	2056.000000	14.147550
445.000000	2055.000000	14.457950
446.000000	2054.000000	14.745850
447.000000	2053.000000	15.037700
448.000000	2052.000000	15.319800
449.000000	2051.000000	15.582400
450.000000	2050.000000	15.841250
451.000000	2049.000000	16.094550
452.000000	2048.000000	16.327200
453.000000	2047.000000	16.538250
454.000000	2046.000000	16.754050
455.000000	2045.000000	16.961000
456.000000	2044.000000	17.145300
457.000000	2043.000000	17.327600
458.000000	2042.000000	17.514750
459.000000	2041.000000	17.684900
460.000000	2040.000000	17.840200
461.000000	2039.000000	18.006000
462.000000	2038.000000	18.168500
463.000000	2037.000000	18.319100
464.000000	2036.000000	18.468550
465.000000	2035.000000	18.623250
466.000000	2034.000000	18.778650
467.000000	2033.000000	18.923550
468.000000	2032.000000	19.058900
469.000000	2031.000000	19.207400
470.000000	2030.000000	19.362550
471.000000	2029.000000	19.513150
472.000000	2028.000000	19.658250
473.000000	2027.000000	19.798900
474.000000	2026.000000	19.937350
475.000000	2025.000000	20.075650
476.000000	2024.000000	20.213400
477.000000	2023.000000	20.340100
478.000000	2022.000000	20.453900
479.000000	2021.000000	20.578250
480.000000	2020.000000	20.713450
481.000000	2019.000000	20.849700
482.000000	2018.000000	20.974400
483.000000	2017.000000	21.082950
484.000000	2016.000000	21.167400
485.000000	2015.000000	21.235850
486.000000	2014.000000	21.292400
487.000000	2013.000000	21.320650
488.000000	2012.000000	21.350200
489.000000	2011.000000	21.363300
490.000000	2010.000000	21.359300
491.000000	2009.000000	21.324000
492.000000	2008.000000	21.290450
493.000000	2007.000000	21.234650
494.000000	2006.000000	21.155250
495.000000	2005.000000	21.066600
496.000000	2004.000000	20.985850
497.000000	2003.000000	20.895550
498.000000	2002.000000	20.804300
499.000000	2001.000000	20.710750
500.000000	2000.000000	20.644550
501.000000	1999.000000	20.600650
502.000000	1998.000000	20.594850
503.000000	1997.000000	20.625300
504.000000	1996.000000	20.716400
505.000000	1995.000000	20.857550
506.000000	1994.000000	21.062150
507.000000	1993.000000	21.358200
508.000000	1992.000000	21.728150
509.000000	1991.000000	22.165400
510.000000	1990.000000	22.692600
511.000000	1989.000000	23.295200
512.000000	1988.000000	23.971750
513.000000	1987.000000	24.695600
514.000000	1986.000000	25.465600
515.000000	1985.000000	26.263250
516.000000	1984.000000	27.099550
517.000000	1983.000000	27.952500
518.000000	1982.000000	28.812250
519.000000	1981.000000	29.698400
520.000000	1980.000000	30.609700
521.000000	1979.000000	31.501450
522.000000	1978.000000	32.411800
523.000000	1977.000000	33.322650
524.000000	1976.000000	34.231700
525.000000	1975.000000	35.136200
526.000000	1974.000000	36.031700
527.000000	1973.000000	36.926300
528.000000	1972.000000	37.784350
529.000000	1971.000000	38.643200
530.000000	1970.000000	39.517300
531.000000	1969.000000	40.375550
532.000000	1968.000000	41.211300
533.000000	1967.000000	42.034200
534.000000	1966.000000	42.842900
535.000000	1965.000000	43.617350
536.000000	1964.000000	44.396800
537.000000	1963.000000	45.161200
538.000000	1962.000000	45.906700
539.000000	1961.000000	46.633450
540.000000	1960.000000	47.353950
541.000000	1959.000000	48.045300
542.000000	1958.000000	48.723400
543.000000	1957.000000	49.374650
544.000000	1956.000000	50.011700
545.000000	1955.000000	50.610950
546.000000	1954.000000	51.188800
547.000000	1953.000000	51.742250
548.000000	1952.000000	52.275800
549.000000	1951.000000	52.785150
550.000000	1950.000000	53.270650
551.000000	1949.000000	53.760700
552.000000	1948.000000	54.207100
553.000000	1947.000000	54.649700
554.000000	1946.000000	55.055100
555.000000	1945.000000	55.464800
556.000000	1944.000000	55.829700
557.000000	1943.000000	56.210300
558.000000	1942.000000	56.531900
559.000000	1941.000000	56.872700
560.000000	1940.000000	57.225200
561.000000	1939.000000	57.509500
562.000000	1938.000000	57.795750
563.000000	1937.000000	58.071000
564.000000	1936.000000	58.317950
565.000000	1935.000000	58.537900
566.000000	1934.000000	58.753000
567.000000	1933.000000	58.955050
568.000000	1932.000000	59.139450
569.000000	1931.000000	59.302100
570.000000	1930.000000	59.439750
571.000000	1929.000000	59.599300
572.000000	1928.000000	59.726650
573.000000	1927.000000	59.826500
574.000000	1926.000000	59.910300
575.000000	1925.000000	60.036450
576.000000	1924.000000	60.133350
577.000000	1923.000000	60.208650
578.000000	1922.000000	60.289650
579.000000	1921.000000	60.366450
580.000000	1920.000000	60.417850
581.000000	1919.000000	60.481650
582.000000	1918.000000	60.548400
583.000000	1917.000000	60.623200
584.000000	1916.000000	60.645900
585.000000	1915.000000	60.699700
586.000000	1914.000000	60.721100
587.000000	1913.000000	60.724450
588.000000	1912.000000	60.720000
589.000000	1911.000000	60.736800
590.000000	1910.000000	60.712650
591.000000	1909.000000	60.669950
592.000000	1908.000000	60.608600
593.000000	1907.000000	60.533900
594.000000	1906.000000	60.441950
595.000000	1905.000000	60.277000
596.000000	1904.000000	60.133500
597.000000	1903.000000	59.939750
598.000000	1902.000000	59.758100
599.000000	1901.000000	59.504000
600.000000	1900.000000	59.270700
601.000000	1899.000000	58.991250
602.000000	1898.000000	58.707250
603.000000	1897.000000	58.414600
604.000000	1896.000000	58.113250
605.000000	1895.000000	57.797700
606.000000	1894.000000	57.495150
607.000000	1893.000000	57.157900
608.000000	1892.000000	56.863050
609.000000	1891.000000	56.541000
610.000000	1890.000000	56.191900
611.000000	1889.000000	55.827450
612.000000	1888.000000	55.407350
613.000000	1887.000000	54.975650
614.000000	1886.000000	54.503450
615.000000	1885.000000	53.973700
616.000000	1884.000000	53.375750
617.000000	1883.000000	52.727400
618.000000	1882.000000	52.036700
619.000000	1881.000000	51.297050
620.000000	1880.000000	50.531100
621.000000	1879.000000	49.761550
622.000000	1878.000000	48.990400
623.000000	1877.000000	48.255150
624.000000	1876.000000	47.569450
625.000000	1875.000000	46.951950
626.000000	1874.000000	46.418500
627.000000	1873.000000	45.925900
628.000000	1872.000000	45.479200
629.000000	1871.000000	45.050550
630.000000	1870.000000	44.592100
631.000000	1869.000000	44.092800
632.000000	1868.000000	43.544600
633.000000	1867.000000	42.902850
634.000000	1866.000000	42.193650
635.000000	1865.000000	41.460450
636.000000	1864.000000	40.675850
637.000000	1863.000000	39.839750
638.000000	1862.000000	39.028150
639.000000	1861.000000	38.237650
640.000000	1860.000000	37.481950
641.000000	1859.000000	36.807750
642.000000	1858.000000	36.273350
643.000000	1857.000000	35.862300
644.000000	1856.000000	35.581950
645.000000	1855.000000	35.438450
646.000000	1854.000000	35.435450
647.000000	1853.000000	35.528750
648.000000	1852.000000	35.683700
649.000000	1851.000000	35.893550
650.000000	1850.000000	36.108050
651.000000	1849.000000	36.314350
652.000000	1848.000000	36.531400
653.000000	1847.000000	36.741500
654.000000	1846.000000	36.893800
655.000000	1845.000000	37.056550
656.000000	1844.000000	37.212200
657.000000	1843.000000	37.387400
658.000000	1842.000000	37.585650
659.000000	1841.000000	37.832550
660.000000	1840.000000	38.174750
661.000000	1839.000000	38.576000
662.000000	1838.000000	39.084750
663.000000	1837.000000	39.651050
664.000000	1836.000000	40.288500
665.000000	1835.000000	40.993900
666.000000	1834.000000	41.705600
667.000000	1833.000000	42.390400
668.000000	1832.000000	43.025800
669.000000	1831.000000	43.608100
670.000000	1830.000000	44.138900
671.000000	1829.000000	44.536000
672.000000	1828.000000	44.884100
673.000000	1827.000000	45.140050
674.000000	1826.000000	45.292200
675.000000	1825.000000	45.408600
676.000000	1824.000000	45.484800
677.000000	1823.000000	45.558200
678.000000	1822.000000	45.634950
679.000000	1821.000000	45.716850
680.000000	1820.000000	45.839500
681.000000	1819.000000	45.982100
682.000000	1818.000000	46.183150
683.000000	1817.000000	46.468550
684.000000	1816.000000	46.753850
685.000000	1815.000000	47.086250
686.000000	1814.000000	47.392550
687.000000	1813.000000	47.650200
688.000000	1812.000000	47.878600
689.000000	1811.000000	48.053400
690.000000	1810.000000	48.178700
691.000000	1809.000000	48.267000
692.000000	1808.000000	48.262800
693.000000	1807.000000	48.189350
694.000000	1806.000000	48.119700
695.000000	1805.000000	48.028900
696.000000	1804.000000	47.913350
697.000000	1803.000000	47.757500
698.000000	1802.000000	47.639700
699.000000	1801.000000	47.596000
700.000000	1800.000000	47.526900
701.000000	1799.000000	47.510050
702.000000	1798.000000	47.574250
703.000000	1797.000000	47.675650
704.000000	1796.000000	47.793900
705.000000	1795.000000	47.899100
706.000000	1794.000000	48.026500
707.000000	1793.000000	48.131100
708.000000	1792.000000	48.285000
709.000000	1791.000000	48.402750
710.000000	1790.000000	48.440000
711.000000	1789.000000	48.492800
712.000000	1788.000000	48.535750
713.000000	1787.000000	48.542700
714.000000	1786.000000	48.505500
715.000000	1785.000000	48.445750
716.000000	1784.000000	48.406550
717.000000	1783.000000	48.388100
718.000000	1782.000000	48.366100
719.000000	1781.000000	48.330950
720.000000	1780.000000	48.343400
721.000000	1779.000000	48.389100
722.000000	1778.000000	48.458350
723.000000	1777.000000	48.545600
724.000000	1776.000000	48.730000
725.000000	1775.000000	48.952350
726.000000	1774.000000	49.196000
727.000000	1773.000000	49.452700
728.000000	1772.000000	49.733250
729.000000	1771.000000	50.051600
730.000000	1770.000000	50.352550
731.000000	1769.000000	50.673800
732.000000	1768.000000	50.947950
733.000000	1767.000000	51.219850
734.000000	1766.000000	51.472600
735.000000	1765.000000	51.691800
736.000000	1764.000000	51.925850
737.000000	1763.000000	52.115200
738.000000	1762.000000	52.281150
739.000000	1761.000000	52.476450
740.000000	1760.000000	52.705500
741.000000	1759.000000	52.939300
742.000000	1758.000000	53.175150
743.000000	1757.000000	53.406300
744.000000	1756.000000	53.685850
745.000000	1755.000000	53.991650
746.000000	1754.000000	54.307950
747.000000	1753.000000	54.667500
748.000000	1752.000000	55.045900
749.000000	1751.000000	55.406950
750.000000	1750.000000	55.769600
751.000000	1749.000000	56.148850
752.000000	1748.000000	56.476150
753.000000	1747.000000	56.757900
754.000000	1746.000000	57.024300
755.000000	1745.000000	57.295050
756.000000	1744.000000	57.519750
757.000000	1743.000000	57.691700
758.000000	1742.000000	57.877450
759.000000	1741.000000	58.079750
760.000000	1740.000000	58.230600
761.000000	1739.000000	58.361000
762.000000	1738.000000	58.510400
763.000000	1737.000000	58.640250
764.000000	1736.000000	58.771300
765.000000	1735.000000	58.948900
766.000000	1734.000000	59.092150
767.000000	1733.000000	59.226850
768.000000	1732.000000	59.392100
769.000000	1731.000000	59.612050
770.000000	1730.000000	59.759550
771.000000	1729.000000	59.863500
772.000000	1728.000000	59.944150
773.000000	1727.000000	60.053400
774.000000	1726.000000	60.132100
775.000000	1725.000000	60.108600
776.000000	1724.000000	60.088600
777.000000	1723.000000	60.087450
778.000000	1722.000000	60.031100
779.000000	1721.000000	60.007650
780.000000	1720.000000	59.910350
781.000000	1719.000000	59.855950
782.000000	1718.000000	59.822950
783.000000	1717.000000	59.741500
784.000000	1716.000000	59.701100
785.000000	1715.000000	59.650300
786.000000	1714.000000	59.660350
787.000000	1713.000000	59.766000
788.000000	1712.000000	59.839450
789.000000	1711.000000	59.871550
790.000000	1710.000000	59.979200
791.000000	1709.000000	60.089200
792.000000	1708.000000	60.152850
793.000000	1707.000000	60.269550
794.000000	1706.000000	60.371050
795.000000	1705.000000	60.428450
796.000000	1704.000000	60.526100
797.000000	1703.000000	60.614800
798.000000	1702.000000	60.659100
799.000000	1701.000000	60.704900
800.000000	1700.000000	60.775300
801.000000	1699.000000	60.790500
802.000000	1698.000000	60.880250
803.000000	1697.000000	60.852450
804.000000	1696.000000	60.844050
805.000000	1695.000000	60.881050
806.000000	1694.000000	60.990800
807.000000	1693.000000	61.067900
808.000000	1692.000000	61.063550
809.000000	1691.000000	61.145300
810.000000	1690.000000	61.132300
811.000000	1689.000000	61.228000
812.000000	1688.000000	61.223750
813.000000	1687.000000	61.208650
814.000000	1686.000000	61.197500
815.000000	1685.000000	61.176400
816.000000	1684.000000	61.166350
817.000000	1683.000000	61.015600
818.000000	1682.000000	60.959850
819.000000	1681.000000	60.929200
820.000000	1680.000000	60.795950
821.000000	1679.000000	60.777150
822.000000	1678.000000	60.653250
823.000000	1677.000000	60.590400
824.000000	1676.000000	60.468100
825.000000	1675.000000	60.452850
826.000000	1674.000000	60.463200
827.000000	1673.000000	60.546300
828.000000	1672.000000	60.643550
829.000000	1671.000000	60.604950
830.000000	1670.000000	60.647750
831.000000	1669.000000	60.733050
832.000000	1668.000000	60.720550
833.000000	1667.000000	60.819800
834.000000	1666.000000	60.867200
835.000000	1665.000000	60.927450
836.000000	1664.000000	61.054900
837.000000	1663.000000	61.083750
838.000000	1662.000000	60.984350
839.000000	1661.000000	61.129100
840.000000	1660.000000	61.041100
841.000000	1659.000000	61.006900
842.000000	1658.000000	61.003200
843.000000	1657.000000	60.920950
844.000000	1656.000000	60.743250
845.000000	1655.000000	60.692700
846.000000	1654.000000	60.885050
847.000000	1653.000000	60.669800
848.000000	1652.000000	60.427200
849.000000	1651.000000	60.291350
850.000000	1650.000000	60.349700
851.000000	1649.000000	60.171900
852.000000	1648.000000	59.950900
853.000000	1647.000000	59.705900
854.000000	1646.000000	59.524150
855.000000	1645.000000	59.342950
856.000000	1644.000000	59.135550
857.000000	1643.000000	58.997200
858.000000	1642.000000	59.158567
859.000000	1641.000000	59.426867
860.000000	1640.000000	59.193100
861.000000	1639.000000	58.959317
862.000000	1638.000000	58.720497
863.000000	1637.000000	58.466757
864.000000	1636.000000	58.225072
865.000000	1635.000000	57.981831
866.000000	1634.000000	57.758565
867.000000	1633.000000	57.535370
868.000000	1632.000000	57.315391
869.000000	1631.000000	57.123904
870.000000	1630.000000	56.943297
871.000000	1629.000000	56.755648
872.000000	1628.000000	56.591400
873.000000	1627.000000	56.430893
874.000000	1626.000000	56.314977
875.000000	1625.000000	56.178592
876.000000	1624.000000	56.081059
877.000000	1623.000000	55.930752
878.000000	1622.000000	55.834464
879.000000	1621.000000	55.721835
880.000000	1620.000000	55.622401
881.000000	1619.000000	55.510990
882.000000	1618.000000	55.411612
883.000000	1617.000000	55.307186
884.000000	1616.000000	55.220270
885.000000	1615.000000	55.106401
886.000000	1614.000000	55.011556
887.000000	1613.000000	54.899084
888.000000	1612.000000	54.803455
889.000000	1611.000000	54.704679
890.000000	1610.000000	54.614771
891.000000	1609.000000	54.497951
892.000000	1608.000000	54.387810
893.000000	1607.000000	54.287706
894.000000	1606.000000	54.164960
895.000000	1605.000000	54.052953
896.000000	1604.000000	53.914197
897.000000	1603.000000	53.779697
898.000000	1602.000000	53.634352
899.000000	1601.000000	53.491657
900.000000	1600.000000	53.341790
901.000000	1599.000000	53.197707
902.000000	1598.000000	53.038099
903.000000	1597.000000	52.887637
904.000000	1596.000000	52.737427
905.000000	1595.000000	52.624896
906.000000	1594.000000	52.498173
907.000000	1593.000000	52.409488
908.000000	1592.000000	52.313061
909.000000	1591.000000	52.249741
910.000000	1590.000000	52.215519
911.000000	1589.000000	52.171433
912.000000	1588.000000	52.181376
913.000000	1587.000000	52.156635
914.000000	1586.000000	52.166668
915.000000	1585.000000	52.183768
916.000000	1584.000000	52.158072
917.000000	1583.000000	52.148411
918.000000	1582.000000	52.116307
919.000000	1581.000000	52.099340
920.000000	1580.000000	52.090309
921.000000	1579.000000	52.030727
922.000000	1578.000000	51.988140
923.000000	1577.000000	51.954515
924.000000	1576.000000	51.900384
925.000000	1575.000000	51.857498
926.000000	1574.000000	51.809739
927.000000	1573.000000	51.755049
928.000000	1572.000000	51.722540
929.000000	1571.000000	51.707611
930.000000	1570.000000	51.677035
931.000000	1569.000000	51.640053
932.000000	1568.000000	51.618819
933.000000	1567.000000	51.594823
934.000000	1566.000000	51.570349
935.000000	1565.000000	51.557827
936.000000	1564.000000	51.544326
937.000000	1563.000000	51.537529
938.000000	1562.000000	51.521206
939.000000	1561.000000	51.515073
940.000000	1560.000000	51.504071
941.000000	1559.000000	51.514093
942.000000	1558.000000	51.498608
943.000000	1557.000000	51.499083
944.000000	1556.000000	51.485033
945.000000	1555.000000	51.482116
946.000000	1554.000000	51.485211
947.000000	1553.000000	51.493878
948.000000	1552.000000	51.468272
949.000000	1551.000000	51.472898
950.000000	1550.000000	51.486497
951.000000	1549.000000	51.470980
952.000000	1548.000000	51.480137
953.000000	1547.000000	51.471360
954.000000	1546.000000	51.442500
955.000000	1545.000000	51.426772
956.000000	1544.000000	51.375128
957.000000	1543.000000	51.323079
958.000000	1542.000000	51.272806
959.000000	1541.000000	51.210651
960.000000	1540.000000	51.138589
961.000000	1539.000000	51.050284
962.000000	1538.000000	50.959266
963.000000	1537.000000	50.879142
964.000000	1536.000000	50.813510
965.000000	1535.000000	50.726916
966.000000	1534.000000	50.644580
967.000000	1533.000000	50.579172
968.000000	1532.000000	50.506796
969.000000	1531.000000	50.423952
970.000000	1530.000000	50.363707
971.000000	1529.000000	50.280664
972.000000	1528.000000	50.192028
973.000000	1527.000000	50.122446
974.000000	1526.000000	50.033700
975.000000	1525.000000	49.952831
976.000000	1524.000000	49.869997
977.000000	1523.000000	49.791452
978.000000	1522.000000	49.703012
979.000000	1521.000000	49.617919
980.000000	1520.000000	49.522210
981.000000	1519.000000	49.434801
982.000000	1518.000000	49.335821
983.000000	1517.000000	49.215879
984.000000	1516.000000	49.096965
985.000000	1515.000000	48.990193
986.000000	1514.000000	48.881328
987.000000	1513.000000	48.763938
988.000000	1512.000000	48.643284
989.000000	1511.000000	48.528526
990.000000	1510.000000	48.428709
991.000000	1509.000000	48.329715
992.000000	1508.000000	48.212146
993.000000	1507.000000	48.108761
994.000000	1506.000000	48.017972
995.000000	1505.000000	47.921766
996.000000	1504.000000	47.830410
997.000000	1503.000000	47.732028
998.000000	1502.000000	47.636202
999.000000	1501.000000	47.550315
1000.000000	1500.000000	47.461165
1001.000000	1499.000000	47.366858
1002.000000	1498.000000	47.270029
1003.000000	1497.000000	47.173715
1004.000000	1496.000000	47.077813
1005.000000	1495.000000	46.980335
1006.000000	1494.000000	46.875252
1007.000000	1493.000000	46.765851
1008.000000	1492.000000	46.663386
1009.000000	1491.000000	46.552625
1010.000000	1490.000000	46.445664
1011.000000	1489.000000	46.365154
1012.000000	1488.000000	46.294156
1013.000000	1487.000000	46.234402
1014.000000	1486.000000	46.177811
1015.000000	1485.000000	46.135905
1016.000000	1484.000000	46.120296
1017.000000	1483.000000	46.113454
1018.000000	1482.000000	46.116425
1019.000000	1481.000000	46.118825
1020.000000	1480.000000	46.119697
1021.000000	1479.000000	46.134455
1022.000000	1478.000000	46.156845
1023.000000	1477.000000	46.180492
1024.000000	1476.000000	46.208932
1025.000000	1475.000000	46.236866
1026.000000	1474.000000	46.259787
1027.000000	1473.000000	46.282343
1028.000000	1472.000000	46.301538
1029.000000	1471.000000	46.300992
1030.000000	1470.000000	46.307225
1031.000000	1469.000000	46.310686
1032.000000	1468.000000	46.305629
1033.000000	1467.000000	46.306585
1034.000000	1466.000000	46.309615
1035.000000	1465.000000	46.305163
1036.000000	1464.000000	46.285871
1037.000000	1463.000000	46.277916
1038.000000	1462.000000	46.267965
1039.000000	1461.000000	46.253679
1040.000000	1460.000000	46.241433
1041.000000	1459.000000	46.222235
1042.000000	1458.000000	46.202444
1043.000000	1457.000000	46.185835
1044.000000	1456.000000	46.177226
1045.000000	1455.000000	46.164383
1046.000000	1454.000000	46.151411
1047.000000	1453.000000	46.141557
1048.000000	1452.000000	46.137448
1049.000000	1451.000000	46.132620
1050.000000	1450.000000	46.131681
1051.000000	1449.000000	46.133290
1052.000000	1448.000000	46.138714
1053.000000	1447.000000	46.166882
1054.000000	1446.000000	46.196292
1055.000000	1445.000000	46.227937
1056.000000	1444.000000	46.256909
1057.000000	1443.000000	46.294911
1058.000000	1442.000000	46.329166
1059.000000	1441.000000	46.358705
1060.000000	1440.000000	46.392110
1061.000000	1439.000000	46.417884
1062.000000	1438.000000	46.450698
1063.000000	1437.000000	46.485835
1064.000000	1436.000000	46.515069
1065.000000	1435.000000	46.540645
1066.000000	1434.000000	46.567653
1067.000000	1433.000000	46.599673
1068.000000	1432.000000	46.628471
1069.000000	1431.000000	46.654896
1070.000000	1430.000000	46.686820
1071.000000	1429.000000	46.715750
1072.000000	1428.000000	46.749475
1073.000000	1427.000000	46.783902
1074.000000	1426.000000	46.802711
1075.000000	1425.000000	46.834618
1076.000000	1424.000000	46.875154
1077.000000	1423.000000	46.902637
1078.000000	1422.000000	46.929794
1079.000000	1421.000000	46.963529
1080.000000	1420.000000	47.005661
1081.000000	1419.000000	47.042600
1082.000000	1418.000000	47.073050
1083.000000	1417.000000	47.129255
1084.000000	1416.000000	47.172870
1085.000000	1415.000000	47.234155
1086.000000	1414.000000	47.293277
1087.000000	1413.000000	47.350379
1088.000000	1412.000000	47.394781
1089.000000	1411.000000	47.447451
1090.000000	1410.000000	47.498061
1091.000000	1409.000000	47.536372
1092.000000	1408.000000	47.572506
1093.000000	1407.000000	47.621702
1094.000000	1406.000000	47.647591
1095.000000	1405.000000	47.685849
1096.000000	1404.000000	47.707970
1097.000000	1403.000000	47.727594
1098.000000	1402.000000	47.744794
1099.000000	1401.000000	47.754712
1100.000000	1400.000000	47.769699
1101.000000	1399.000000	47.776380
1102.000000	1398.000000	47.775675
1103.000000	1397.000000	47.775758
1104.000000	1396.000000	47.777932
1105.000000	1395.000000	47.769350
1106.000000	1394.000000	47.770060
1107.000000	1393.000000	47.762446
1108.000000	1392.000000	47.742185
1109.000000	1391.000000	47.730555
1110.000000	1390.000000	47.723191
1111.000000	1389.000000	47.708298
1112.000000	1388.000000	47.696793
1113.000000	1387.000000	47.681952
1114.000000	1386.000000	47.673323
1115.000000	1385.000000	47.669032
1116.000000	1384.000000	47.652221
1117.000000	1383.000000	47.629451
1118.000000	1382.000000	47.589129
1119.000000	1381.000000	47.535645
1120.000000	1380.000000	47.449084
1121.000000	1379.000000	47.350637
1122.000000	1378.000000	47.247956
1123.000000	1377.000000	47.120438
1124.000000	1376.000000	46.990927
1125.000000	1375.000000	46.840902
1126.000000	1374.000000	46.689851
1127.000000	1373.000000	46.508920
1128.000000	1372.000000	46.262591
1129.000000	1371.000000	45.962048
1130.000000	1370.000000	45.615566
1131.000000	1369.000000	45.204456
1132.000000	1368.000000	44.705274
1133.000000	1367.000000	44.230457
1134.000000	1366.000000	43.710532
1135.000000	1365.000000	43.112395
1136.000000	1364.000000	42.468315
1137.000000	1363.000000	41.803013
1138.000000	1362.000000	41.166586
1139.000000	1361.000000	40.548171
1140.000000	1360.000000	39.942117
1141.000000	1359.000000	39.385871
1142.000000	1358.000000	38.819120
1143.000000	1357.000000	38.276134
1144.000000	1356.000000	37.786637
1145.000000	1355.000000	37.399248
1146.000000	1354.000000	37.111331
1147.000000	1353.000000	36.969649
1148.000000	1352.000000	36.928674
1149.000000	1351.000000	36.950235
1150.000000	1350.000000	37.005549
1151.000000	1349.000000	37.054406
1152.000000	1348.000000	37.067544
1153.000000	1347.000000	37.038626
1154.000000	1346.000000	36.929084
1155.000000	1345.000000	36.717584
1156.000000	1344.000000	36.414920
1157.000000	1343.000000	36.027228
1158.000000	1342.000000	35.579636
1159.000000	1341.000000	35.085837
1160.000000	1340.000000	34.584592
1161.000000	1339.000000	34.059499
1162.000000	1338.000000	33.544663
1163.000000	1337.000000	32.988067
1164.000000	1336.000000	32.449707
1165.000000	1335.000000	31.931058
1166.000000	1334.000000	31.417617
1167.000000	1333.000000	30.922632
1168.000000	1332.000000	30.443369
1169.000000	1331.000000	29.947433
1170.000000	1330.000000	29.468156
1171.000000	1329.000000	29.027310
1172.000000	1328.000000	28.566768
1173.000000	1327.000000	28.143795
1174.000000	1326.000000	27.751908
1175.000000	1325.000000	27.367086
1176.000000	1324.000000	26.982544
1177.000000	1323.000000	26.583949
1178.000000	1322.000000	26.121468
1179.000000	1321.000000	25.567989
1180.000000	1320.000000	24.967897
1181.000000	1319.000000	24.380282
1182.000000	1318.000000	23.792203
1183.000000	1317.000000	23.284617
1184.000000	1316.000000	22.895559
1185.000000	1315.000000	22.661895
1186.000000	1314.000000	22.582348
1187.000000	1313.000000	22.629097
1188.000000	1312.000000	22.822024
1189.000000	1311.000000	23.155352
1190.000000	1310.000000	23.596660
1191.000000	1309.000000	24.113590
1192.000000	1308.000000	24.645789
1193.000000	1307.000000	25.148615
1194.000000	1306.000000	25.589043
1195.000000	1305.000000	25.933994
1196.000000	1304.000000	26.213822
1197.000000	1303.000000	26.414197
1198.000000	1302.000000	26.543897
1199.000000	1301.000000	26.638932
1200.000000	1300.000000	26.686005
1201.000000	1299.000000	26.715446
1202.000000	1298.000000	26.712297
1203.000000	1297.000000	26.710886
1204.000000	1296.000000	26.688716
1205.000000	1295.000000	26.686222
1206.000000	1294.000000	26.685368
1207.000000	1293.000000	26.712728
1208.000000	1292.000000	26.754568
1209.000000	1291.000000	26.829151
1210.000000	1290.000000	26.920370
1211.000000	1289.000000	27.015774
1212.000000	1288.000000	27.118274
1213.000000	1287.000000	27.235826
1214.000000	1286.000000	27.365695
1215.000000	1285.000000	27.497936
1216.000000	1284.000000	27.636302
1217.000000	1283.000000	27.790437
1218.000000	1282.000000	27.955687
1219.000000	1281.000000	28.123506
1220.000000	1280.000000	28.314605
1221.000000	1279.000000	28.531968
1222.000000	1278.000000	28.736954
1223.000000	1277.000000	28.964918
1224.000000	1276.000000	29.184396
1225.000000	1275.000000	29.418646
1226.000000	1274.000000	29.657958
1227.000000	1273.000000	29.889599
1228.000000	1272.000000	30.147778
1229.000000	1271.000000	30.395564
1230.000000	1270.000000	30.640428
1231.000000	1269.000000	30.890570
1232.000000	1268.000000	31.132131
1233.000000	1267.000000	31.367239
1234.000000	1266.000000	31.618645
1235.000000	1265.000000	31.864601
1236.000000	1264.000000	32.093261
1237.000000	1263.000000	32.327866
1238.000000	1262.000000	32.558509
1239.000000	1261.000000	32.789377
1240.000000	1260.000000	32.998381
1241.000000	1259.000000	33.216113
1242.000000	1258.000000	33.414942
1243.000000	1257.000000	33.616653
1244.000000	1256.000000	33.810637
1245.000000	1255.000000	33.980213
1246.000000	1254.000000	34.160802
1247.000000	1253.000000	34.321729
1248.000000	1252.000000	34.456082
1249.000000	1251.000000	34.604746
1250.000000	1250.000000	34.724021
1251.000000	1249.000000	34.839655
1252.000000	1248.000000	34.961013
1253.000000	1247.000000	35.075325
1254.000000	1246.000000	35.177424
1255.000000	1245.000000	35.276888
1256.000000	1244.000000	35.377034
1257.000000	1243.000000	35.478074
1258.000000	1242.000000	35.574621
1259.000000	1241.000000	35.658822
1260.000000	1240.000000	35.745901
1261.000000	1239.000000	35.825186
1262.000000	1238.000000	35.908403
1263.000000	1237.000000	35.996524
1264.000000	1236.000000	36.072565
1265.000000	1235.000000	36.163000
1266.000000	1234.000000	36.252634
1267.000000	1233.000000	36.337576
1268.000000	1232.000000	36.431397
1269.000000	1231.000000	36.515895
1270.000000	1230.000000	36.601060
1271.000000	1229.000000	36.683506
1272.000000	1228.000000	36.773718
1273.000000	1227.000000	36.851289
1274.000000	1226.000000	36.931597
1275.000000	1225.000000	37.020308
1276.000000	1224.000000	37.119098
1277.000000	1223.000000	37.224056
1278.000000	1222.000000	37.329643
1279.000000	1221.000000	37.439852
1280.000000	1220.000000	37.553325
1281.000000	1219.000000	37.667994
1282.000000	1218.000000	37.777667
1283.000000	1217.000000	37.887020
1284.000000	1216.000000	37.996160
1285.000000	1215.000000	38.107586
1286.000000	1214.000000	38.215208
1287.000000	1213.000000	38.308071
1288.000000	1212.000000	38.397397
1289.000000	1211.000000	38.477154
1290.000000	1210.000000	38.552116
1291.000000	1209.000000	38.611751
1292.000000	1208.000000	38.660159
1293.000000	1207.000000	38.701789
1294.000000	1206.000000	38.738900
1295.000000	1205.000000	38.778057
1296.000000	1204.000000	38.806859
1297.000000	1203.000000	38.834210
1298.000000	1202.000000	38.859214
1299.000000	1201.000000	38.881413
1300.000000	1200.000000	38.905719
1301.000000	1199.000000	38.919003
1302.000000	1198.000000	38.930192
1303.000000	1197.000000	38.939554
1304.000000	1196.000000	38.935142
1305.000000	1195.000000	38.918408
1306.000000	1194.000000	38.896821
1307.000000	1193.000000	38.871999
1308.000000	1192.000000	38.826310
1309.000000	1191.000000	38.768348
1310.000000	1190.000000	38.717607
1311.000000	1189.000000	38.663972
1312.000000	1188.000000	38.594576
1313.000000	1187.000000	38.517011
1314.000000	1186.000000	38.431284
1315.000000	1185.000000	38.338716
1316.000000	1184.000000	38.242439
1317.000000	1183.000000	38.134991
1318.000000	1182.000000	38.020108
1319.000000	1181.000000	37.898838
1320.000000	1180.000000	37.784377
1321.000000	1179.000000	37.653625
1322.000000	1178.000000	37.506564
1323.000000	1177.000000	37.359922
1324.000000	1176.000000	37.206204
1325.000000	1175.000000	37.044325
1326.000000	1174.000000	36.870871
1327.000000	1173.000000	36.680256
1328.000000	1172.000000	36.491247
1329.000000	1171.000000	36.285405
1330.000000	1170.000000	36.065494
1331.000000	1169.000000	35.839822
1332.000000	1168.000000	35.596387
1333.000000	1167.000000	35.347292
1334.000000	1166.000000	35.083342
1335.000000	1165.000000	34.794343
1336.000000	1164.000000	34.506618
1337.000000	1163.000000	34.193154
1338.000000	1162.000000	33.871667
1339.000000	1161.000000	33.536040
1340.000000	1160.000000	33.184133
1341.000000	1159.000000	32.825381
1342.000000	1158.000000	32.434309
1343.000000	1157.000000	32.043458
1344.000000	1156.000000	31.635250
1345.000000	1155.000000	31.186402
1346.000000	1154.000000	30.733067
1347.000000	1153.000000	30.265767
1348.000000	1152.000000	29.763437
1349.000000	1151.000000	29.201181
1350.000000	1150.000000	28.606669
1351.000000	1149.000000	27.941426
1352.000000	1148.000000	27.237399
1353.000000	1147.000000	26.494898
1354.000000	1146.000000	25.819649
1355.000000	1145.000000	25.225108
1356.000000	1144.000000	24.757399
1357.000000	1143.000000	24.448349
1358.000000	1142.000000	24.269477
1359.000000	1141.000000	24.179620
1360.000000	1140.000000	24.121497
1361.000000	1139.000000	24.059766
1362.000000	1138.000000	23.943938
1363.000000	1137.000000	23.775442
1364.000000	1136.000000	23.595638
1365.000000	1135.000000	23.387597
1366.000000	1134.000000	23.156350
1367.000000	1133.000000	22.899366
1368.000000	1132.000000	22.602058
1369.000000	1131.000000	22.256407
1370.000000	1130.000000	21.863303
1371.000000	1129.000000	21.432021
1372.000000	1128.000000	20.955888
1373.000000	1127.000000	20.478772
1374.000000	1126.000000	20.035120
1375.000000	1125.000000	19.641112
1376.000000	1124.000000	19.319170
1377.000000	1123.000000	19.057222
1378.000000	1122.000000	18.874448
1379.000000	1121.000000	18.721904
1380.000000	1120.000000	18.551624
1381.000000	1119.000000	18.401119
1382.000000	1118.000000	18.207308
1383.000000	1117.000000	17.961687
1384.000000	1116.000000	17.707776
1385.000000	1115.000000	17.458953
1386.000000	1114.000000	17.259473
1387.000000	1113.000000	17.140181
1388.000000	1112.000000	17.033760
1389.000000	1111.000000	16.947201
1390.000000	1110.000000	16.906849
1391.000000	1109.000000	16.895145
1392.000000	1108.000000	16.906395
1393.000000	1107.000000	16.900431
1394.000000	1106.000000	16.920041
1395.000000	1105.000000	16.957472
1396.000000	1104.000000	16.945370
1397.000000	1103.000000	16.875906
1398.000000	1102.000000	16.786631
1399.000000	1101.000000	16.710219
1400.000000	1100.000000	16.614161
1401.000000	1099.000000	16.438035
1402.000000	1098.000000	16.191018
1403.000000	1097.000000	16.006104
1404.000000	1096.000000	15.776914
1405.000000	1095.000000	15.585017
1406.000000	1094.000000	15.379804
1407.000000	1093.000000	15.179091
1408.000000	1092.000000	14.979590
1409.000000	1091.000000	14.832798
1410.000000	1090.000000	14.658238
1411.000000	1089.000000	14.541074
1412.000000	1088.000000	14.434072
1413.000000	1087.000000	14.360085
1414.000000	1086.000000	14.275119
1415.000000	1085.000000	14.175980
1416.000000	1084.000000	14.067495
1417.000000	1083.000000	13.950150
1418.000000	1082.000000	13.861524
1419.000000	1081.000000	13.752317
1420.000000	1080.000000	13.626466
1421.000000	1079.000000	13.494761
1422.000000	1078.000000	13.376629
1423.000000	1077.000000	13.259279
1424.000000	1076.000000	13.152013
1425.000000	1075.000000	13.022386
1426.000000	1074.000000	12.876846
1427.000000	1073.000000	12.774094
1428.000000	1072.000000	12.680482
1429.000000	1071.000000	12.566260
1430.000000	1070.000000	12.472758
1431.000000	1069.000000	12.400179
1432.000000	1068.000000	12.350901
1433.000000	1067.000000	12.258223
1434.000000	1066.000000	12.196507
1435.000000	1065.000000	12.118567
1436.000000	1064.000000	12.065862
1437.000000	1063.000000	11.999899
1438.000000	1062.000000	11.924071
1439.000000	1061.000000	11.851118
1440.000000	1060.000000	11.781623
1441.000000	1059.000000	11.706813
1442.000000	1058.000000	11.639772
1443.000000	1057.000000	11.567361
1444.000000	1056.000000	11.487270
1445.000000	1055.000000	11.434996
1446.000000	1054.000000	11.345351
1447.000000	1053.000000	11.273540
1448.000000	1052.000000	11.197335
1449.000000	1051.000000	11.142765
1450.000000	1050.000000	11.082976
1451.000000	1049.000000	11.029532
1452.000000	1048.000000	10.965548
1453.000000	1047.000000	10.908335
1454.000000	1046.000000	10.850337
1455.000000	1045.000000	10.804382
1456.000000	1044.000000	10.765436
1457.000000	1043.000000	10.709891
1458.000000	1042.000000	10.649693
1459.000000	1041.000000	10.618275
1460.000000	1040.000000	10.589140
1461.000000	1039.000000	10.540506
1462.000000	1038.000000	10.505416
1463.000000	1037.000000	10.481713
1464.000000	1036.000000	10.447227
1465.000000	1035.000000	10.406078
1466.000000	1034.000000	10.390612
1467.000000	1033.000000	10.369422
1468.000000	1032.000000	10.343197
1469.000000	1031.000000	10.337090
1470.000000	1030.000000	10.315466
1471.000000	1029.000000	10.304990
1472.000000	1028.000000	10.281832
1473.000000	1027.000000	10.264176
1474.000000	1026.000000	10.255523
1475.000000	1025.000000	10.238971
1476.000000	1024.000000	10.217132
1477.000000	1023.000000	10.185968
1478.000000	1022.000000	10.168462
1479.000000	1021.000000	10.145084
1480.000000	1020.000000	10.144551
1481.000000	1019.000000	10.124919
1482.000000	1018.000000	10.107480
1483.000000	1017.000000	10.100865
1484.000000	1016.000000	10.078008
1485.000000	1015.000000	10.064732
1486.000000	1014.000000	10.063764
1487.000000	1013.000000	10.064711
1488.000000	1012.000000	10.039993
1489.000000	1011.000000	10.031733
1490.000000	1010.000000	10.019805
1491.000000	1009.000000	10.009078
1492.000000	1008.000000	10.010944
1493.000000	1007.000000	9.988270
1494.000000	1006.000000	9.992401
1495.000000	1005.000000	9.982507
1496.000000	1004.000000	9.981665
1497.000000	1003.000000	9.971920
1498.000000	1002.000000	9.968456
1499.000000	1001.000000	9.958227
1500.000000	1000.000000	9.962041
1501.000000	999.000000	9.964789
1502.000000	998.000000	9.954527
1503.000000	997.000000	9.948075
1504.000000	996.000000	9.953036
1505.000000	995.000000	9.949880
1506.000000	994.000000	9.947116
1507.000000	993.000000	9.951104
1508.000000	992.000000	9.945989
1509.000000	991.000000	9.945085
1510.000000	990.000000	9.955396
1511.000000	989.000000	9.946191
1512.000000	988.000000	9.948867
1513.000000	987.000000	9.943796
1514.000000	986.000000	9.943760
1515.000000	985.000000	9.942523
1516.000000	984.000000	9.945308
1517.000000	983.000000	9.953871
1518.000000	982.000000	9.934722
1519.000000	981.000000	9.912190
1520.000000	980.000000	9.880757
1521.000000	979.000000	9.840546
1522.000000	978.000000	9.847513
1523.000000	977.000000	9.854391
1524.000000	976.000000	9.834999
1525.000000	975.000000	9.819445
1526.000000	974.000000	9.824564
1527.000000	973.000000	9.825350
1528.000000	972.000000	9.814003
1529.000000	971.000000	9.811900
1530.000000	970.000000	9.812561
1531.000000	969.000000	9.803815
1532.000000	968.000000	9.797348
1533.000000	967.000000	9.794953
1534.000000	966.000000	9.796917
1535.000000	965.000000	9.780848
1536.000000	964.000000	9.769797
1537.000000	963.000000	9.764711
1538.000000	962.000000	9.752576
1539.000000	961.000000	9.746793
1540.000000	960.000000	9.740325
1541.000000	959.000000	9.723761
1542.000000	958.000000	9.714292
1543.000000	957.000000	9.707287
1544.000000	956.000000	9.710139
1545.000000	955.000000	9.708900
1546.000000	954.000000	9.698688
1547.000000	953.000000	9.690884
1548.000000	952.000000	9.685208
1549.000000	951.000000	9.683823
1550.000000	950.000000	9.682547
1551.000000	949.000000	9.672305
1552.000000	948.000000	9.660267
1553.000000	947.000000	9.653333
1554.000000	946.000000	9.656595
1555.000000	945.000000	9.646277
1556.000000	944.000000	9.638326
1557.000000	943.000000	9.635090
1558.000000	942.000000	9.625128
1559.000000	941.000000	9.604391
1560.000000	940.000000	9.589433
1561.000000	939.000000	9.586315
1562.000000	938.000000	9.585119
1563.000000	937.000000	9.576542
1564.000000	936.000000	9.561309
1565.000000	935.000000	9.541531
1566.000000	934.000000	9.527903
1567.000000	933.000000	9.520117
1568.000000	932.000000	9.507990
1569.000000	931.000000	9.499130
1570.000000	930.000000	9.498874
1571.000000	929.000000	9.482139
1572.000000	928.000000	9.462957
1573.000000	927.000000	9.463735
1574.000000	926.000000	9.459867
1575.000000	925.000000	9.463081
1576.000000	924.000000	9.467755
1577.000000	923.000000	9.462446
1578.000000	922.000000	9.450971
1579.000000	921.000000	9.446563
1580.000000	920.000000	9.456781
1581.000000	919.000000	9.460451
1582.000000	918.000000	9.459650
1583.000000	917.000000	9.468896
1584.000000	916.000000	9.482085
1585.000000	915.000000	9.498406
1586.000000	914.000000	9.509921
1587.000000	913.000000	9.514665
1588.000000	912.000000	9.522536
1589.000000	911.000000	9.538267
1590.000000	910.000000	9.544466
1591.000000	909.000000	9.557360
1592.000000	908.000000	9.586510
1593.000000	907.000000	9.605196
1594.000000	906.000000	9.615088
1595.000000	905.000000	9.630455
1596.000000	904.000000	9.645377
1597.000000	903.000000	9.665498
1598.000000	902.000000	9.692176
1599.000000	901.000000	9.716916
1600.000000	900.000000	9.742648
1601.000000	899.000000	9.759475
1602.000000	898.000000	9.784543
1603.000000	897.000000	9.824589
1604.000000	896.000000	9.844124
1605.000000	895.000000	9.854066
1606.000000	894.000000	9.890686
1607.000000	893.000000	9.916414
1608.000000	892.000000	9.940790
1609.000000	891.000000	9.964389
1610.000000	890.000000	9.986594
1611.000000	889.000000	10.020271
1612.000000	888.000000	10.042238
1613.000000	887.000000	10.073281
1614.000000	886.000000	10.107812
1615.000000	885.000000	10.133347
1616.000000	884.000000	10.160249
1617.000000	883.000000	10.193911
1618.000000	882.000000	10.235787
1619.000000	881.000000	10.267721
1620.000000	880.000000	10.293316
1621.000000	879.000000	10.339789
1622.000000	878.000000	10.375599
1623.000000	877.000000	10.410156
1624.000000	876.000000	10.442040
1625.000000	875.000000	10.486679
1626.000000	874.000000	10.525652
1627.000000	873.000000	10.567512
1628.000000	872.000000	10.590146
1629.000000	871.000000	10.634890
1630.000000	870.000000	10.671195
1631.000000	869.000000	10.713310
1632.000000	868.000000	10.741799
1633.000000	867.000000	10.774587
1634.000000	866.000000	10.819138
1635.000000	865.000000	10.861118
1636.000000	864.000000	10.901727
1637.000000	863.000000	10.942900
1638.000000	862.000000	10.972138
1639.000000	861.000000	10.991357
1640.000000	860.000000	11.032881
1641.000000	859.000000	11.068979
1642.000000	858.000000	11.104828
1643.000000	857.000000	11.127793
1644.000000	856.000000	11.161443
1645.000000	855.000000	11.189089
1646.000000	854.000000	11.228149
1647.000000	853.000000	11.246084
1648.000000	852.000000	11.275315
1649.000000	851.000000	11.311222
1650.000000	850.000000	11.329071
1651.000000	849.000000	11.344398
1652.000000	848.000000	11.371485
1653.000000	847.000000	11.379660
1654.000000	846.000000	11.390158
1655.000000	845.000000	11.403780
1656.000000	844.000000	11.408853
1657.000000	843.000000	11.409122
1658.000000	842.000000	11.407592
1659.000000	841.000000	11.391414
1660.000000	840.000000	11.379326
1661.000000	839.000000	11.360186
1662.000000	838.000000	11.334649
1663.000000	837.000000	11.312728
1664.000000	836.000000	11.266899
1665.000000	835.000000	11.225298
1666.000000	834.000000	11.185148
1667.000000	833.000000	11.132948
1668.000000	832.000000	11.046609
1669.000000	831.000000	10.966454
1670.000000	830.000000	10.868989
1671.000000	829.000000	10.780855
1672.000000	828.000000	10.665343
1673.000000	827.000000	10.519143
1674.000000	826.000000	10.348389
1675.000000	825.000000	10.148325
1676.000000	824.000000	9.950067
1677.000000	823.000000	9.711350
1678.000000	822.000000	9.446589
1679.000000	821.000000	9.196822
1680.000000	820.000000	8.950948
1681.000000	819.000000	8.732502
1682.000000	818.000000	8.553046
1683.000000	817.000000	8.436834
1684.000000	816.000000	8.386879
1685.000000	815.000000	8.363739
1686.000000	814.000000	8.361900
1687.000000	813.000000	8.382969
1688.000000	812.000000	8.371165
1689.000000	811.000000	8.351808
1690.000000	810.000000	8.301888
1691.000000	809.000000	8.263541
1692.000000	808.000000	8.195286
1693.000000	807.000000	8.158897
1694.000000	806.000000	8.123687
1695.000000	805.000000	8.101484
1696.000000	804.000000	8.123812
1697.000000	803.000000	8.139470
1698.000000	802.000000	8.187680
1699.000000	801.000000	8.238425
1700.000000	800.000000	8.292570
1701.000000	799.000000	8.353463
1702.000000	798.000000	8.403883
1703.000000	797.000000	8.432250
1704.000000	796.000000	8.466619
1705.000000	795.000000	8.503128
1706.000000	794.000000	8.521052
1707.000000	793.000000	8.550183
1708.000000	792.000000	8.549239
1709.000000	791.000000	8.568689
1710.000000	790.000000	8.583787
1711.000000	789.000000	8.575422
1712.000000	788.000000	8.562064
1713.000000	787.000000	8.534510
1714.000000	786.000000	8.539269
1715.000000	785.000000	8.523537
1716.000000	784.000000	8.497556
1717.000000	783.000000	8.490298
1718.000000	782.000000	8.483295
1719.000000	781.000000	8.470753
1720.000000	780.000000	8.475051
1721.000000	779.000000	8.487071
1722.000000	778.000000	8.473973
1723.000000	777.000000	8.493090
1724.000000	776.000000	8.477847
1725.000000	775.000000	8.453869
1726.000000	774.000000	8.432144
1727.000000	773.000000	8.363048
1728.000000	772.000000	8.331757
1729.000000	771.000000	8.283718
1730.000000	770.000000	8.246428
1731.000000	769.000000	8.196117
1732.000000	768.000000	8.148189
1733.000000	767.000000	8.133670
1734.000000	766.000000	8.150665
1735.000000	765.000000	8.157203
1736.000000	764.000000	8.178143
1737.000000	763.000000	8.236707
1738.000000	762.000000	8.287502
1739.000000	761.000000	8.364551
1740.000000	760.000000	8.444051
1741.000000	759.000000	8.546950
1742.000000	758.000000	8.645013
1743.000000	757.000000	8.730718
1744.000000	756.000000	8.797001
1745.000000	755.000000	8.873092
1746.000000	754.000000	8.932965
1747.000000	753.000000	8.981590
1748.000000	752.000000	9.021710
1749.000000	751.000000	9.049410
1750.000000	750.000000	9.073024
1751.000000	749.000000	9.095513
1752.000000	748.000000	9.116480
1753.000000	747.000000	9.121759
1754.000000	746.000000	9.115061
1755.000000	745.000000	9.111258
1756.000000	744.000000	9.091922
1757.000000	743.000000	9.064739
1758.000000	742.000000	9.022890
1759.000000	741.000000	8.972566
1760.000000	740.000000	8.952858
1761.000000	739.000000	8.922100
1762.000000	738.000000	8.881290
1763.000000	737.000000	8.865739
1764.000000	736.000000	8.888285
1765.000000	735.000000	8.909690
1766.000000	734.000000	8.937313
1767.000000	733.000000	8.978222
1768.000000	732.000000	9.024673
1769.000000	731.000000	9.075463
1770.000000	730.000000	9.132292
1771.000000	729.000000	9.197641
1772.000000	728.000000	9.260905
1773.000000	727.000000	9.338079
1774.000000	726.000000	9.409428
1775.000000	725.000000	9.472450
1776.000000	724.000000	9.528671
1777.000000	723.000000	9.591464
1778.000000	722.000000	9.647158
1779.000000	721.000000	9.703492
1780.000000	720.000000	9.746689
1781.000000	719.000000	9.788922
1782.000000	718.000000	9.838043
1783.000000	717.000000	9.883560
1784.000000	716.000000	9.939386
1785.000000	715.000000	9.979647
1786.000000	714.000000	10.022533
1787.000000	713.000000	10.063273
1788.000000	712.000000	10.108066
1789.000000	711.000000	10.153087
1790.000000	710.000000	10.188462
1791.000000	709.000000	10.223538
1792.000000	708.000000	10.264261
1793.000000	707.000000	10.299815
1794.000000	706.000000	10.329688
1795.000000	705.000000	10.360966
1796.000000	704.000000	10.387208
1797.000000	703.000000	10.410704
1798.000000	702.000000	10.436967
1799.000000	701.000000	10.469455
1800.000000	700.000000	10.504655
1801.000000	699.000000	10.548695
1802.000000	698.000000	10.569936
1803.000000	697.000000	10.594935
1804.000000	696.000000	10.631263
1805.000000	695.000000	10.664057
1806.000000	694.000000	10.704621
1807.000000	693.000000	10.731449
1808.000000	692.000000	10.755858
1809.000000	691.000000	10.789668
1810.000000	690.000000	10.818193
1811.000000	689.000000	10.832491
1812.000000	688.000000	10.851758
1813.000000	687.000000	10.871081
1814.000000	686.000000	10.879846
1815.000000	685.000000	10.908838
1816.000000	684.000000	10.915653
1817.000000	683.000000	10.915187
1818.000000	682.000000	10.926267
1819.000000	681.000000	10.949742
1820.000000	680.000000	10.976437
1821.000000	679.000000	11.001966
1822.000000	678.000000	11.018599
1823.000000	677.000000	11.022131
1824.000000	676.000000	11.044374
1825.000000	675.000000	11.089824
1826.000000	674.000000	11.139933
1827.000000	673.000000	11.184150
1828.000000	672.000000	11.246510
1829.000000	671.000000	11.321458
1830.000000	670.000000	11.382015
1831.000000	669.000000	11.439004
1832.000000	668.000000	11.497937
1833.000000	667.000000	11.561003
1834.000000	666.000000	11.624329
1835.000000	665.000000	11.690665
1836.000000	664.000000	11.753886
1837.000000	663.000000	11.795032
1838.000000	662.000000	11.829417
1839.000000	661.000000	11.867159
1840.000000	660.000000	11.910001
1841.000000	659.000000	11.942467
1842.000000	658.000000	11.961969
1843.000000	657.000000	11.980867
1844.000000	656.000000	12.007161
1845.000000	655.000000	12.062539
1846.000000	654.000000	12.127284
1847.000000	653.000000	12.205946
1848.000000	652.000000	12.275571
1849.000000	651.000000	12.328817
1850.000000	650.000000	12.380001
1851.000000	649.000000	12.432143
1852.000000	648.000000	12.488148
1853.000000	647.000000	12.553505
1854.000000	646.000000	12.618056
1855.000000	645.000000	12.667366
1856.000000	644.000000	12.717379
1857.000000	643.000000	12.763137
1858.000000	642.000000	12.795520
1859.000000	641.000000	12.819475
1860.000000	640.000000	12.850511
1861.000000	639.000000	12.855124
1862.000000	638.000000	12.840295
1863.000000	637.000000	12.830583
1864.000000	636.000000	12.831343
1865.000000	635.000000	12.811622
1866.000000	634.000000	12.788735
1867.000000	633.000000	12.762274
1868.000000	632.000000	12.714753
1869.000000	631.000000	12.638969
1870.000000	630.000000	12.556393
1871.000000	629.000000	12.446597
1872.000000	628.000000	12.325729
1873.000000	627.000000	12.182054
1874.000000	626.000000	12.001189
1875.000000	625.000000	11.826016
1876.000000	624.000000	11.644655
1877.000000	623.000000	11.444717
1878.000000	622.000000	11.236125
1879.000000	621.000000	11.021038
1880.000000	620.000000	10.805499
1881.000000	619.000000	10.585164
1882.000000	618.000000	10.362210
1883.000000	617.000000	10.163448
1884.000000	616.000000	9.969273
1885.000000	615.000000	9.793198
1886.000000	614.000000	9.637811
1887.000000	613.000000	9.511671
1888.000000	612.000000	9.412318
1889.000000	611.000000	9.305390
1890.000000	610.000000	9.220114
1891.000000	609.000000	9.122397
1892.000000	608.000000	9.013756
1893.000000	607.000000	8.915909
1894.000000	606.000000	8.829685
1895.000000	605.000000	8.751344
1896.000000	604.000000	8.674868
1897.000000	603.000000	8.591796
1898.000000	602.000000	8.516036
1899.000000	601.000000	8.447810
1900.000000	600.000000	8.326057
1901.000000	599.000000	8.235343
1902.000000	598.000000	8.174194
1903.000000	597.000000	8.106773
1904.000000	596.000000	8.042658
1905.000000	595.000000	7.953214
1906.000000	594.000000	7.860311
1907.000000	593.000000	7.786411
1908.000000	592.000000	7.697406
1909.000000	591.000000	7.647966
1910.000000	590.000000	7.609730
1911.000000	589.000000	7.561176
1912.000000	588.000000	7.491221
1913.000000	587.000000	7.437956
1914.000000	586.000000	7.358149
1915.000000	585.000000	7.296171
1916.000000	584.000000	7.253272
1917.000000	583.000000	7.228987
1918.000000	582.000000	7.191831
1919.000000	581.000000	7.139318
1920.000000	580.000000	7.091362
1921.000000	579.000000	7.048651
1922.000000	578.000000	7.001705
1923.000000	577.000000	6.958735
1924.000000	576.000000	6.929901
1925.000000	575.000000	6.912822
1926.000000	574.000000	6.886073
1927.000000	573.000000	6.857010
1928.000000	572.000000	6.842882
1929.000000	571.000000	6.810039
1930.000000	570.000000	6.787031
1931.000000	569.000000	6.772652
1932.000000	568.000000	6.758509
1933.000000	567.000000	6.736614
1934.000000	566.000000	6.736626
1935.000000	565.000000	6.731827
1936.000000	564.000000	6.730055
1937.000000	563.000000	6.715364
1938.000000	562.000000	6.712077
1939.000000	561.000000	6.711111
1940.000000	560.000000	6.718210
1941.000000	559.000000	6.722892
1942.000000	558.000000	6.714844
1943.000000	557.000000	6.722942
1944.000000	556.000000	6.727051
1945.000000	555.000000	6.717099
1946.000000	554.000000	6.748131
1947.000000	553.000000	6.745901
1948.000000	552.000000	6.760061
1949.000000	551.000000	6.757154
1950.000000	550.000000	6.780648
1951.000000	549.000000	6.798414
1952.000000	548.000000	6.804666
1953.000000	547.000000	6.826494
1954.000000	546.000000	6.841463
1955.000000	545.000000	6.826900
1956.000000	544.000000	6.847853
1957.000000	543.000000	6.866895
1958.000000	542.000000	6.889038
1959.000000	541.000000	6.904425
1960.000000	540.000000	6.920413
1961.000000	539.000000	6.935852
1962.000000	538.000000	6.953896
1963.000000	537.000000	6.963850
1964.000000	536.000000	6.980422
1965.000000	535.000000	7.006950
1966.000000	534.000000	7.024539
1967.000000	533.000000	7.037107
1968.000000	532.000000	7.043655
1969.000000	531.000000	7.068791
1970.000000	530.000000	7.074344
1971.000000	529.000000	7.101384
1972.000000	528.000000	7.124296
1973.000000	527.000000	7.147607
1974.000000	526.000000	7.152038
1975.000000	525.000000	7.179131
1976.000000	524.000000	7.205478
1977.000000	523.000000	7.237184
1978.000000	522.000000	7.251951
1979.000000	521.000000	7.258809
1980.000000	520.000000	7.289753
1981.000000	519.000000	7.298008
1982.000000	518.000000	7.331699
1983.000000	517.000000	7.337008
1984.000000	516.000000	7.354212
1985.000000	515.000000	7.379710
1986.000000	514.000000	7.384901
1987.000000	513.000000	7.403078
1988.000000	512.000000	7.424509
1989.000000	511.000000	7.433134
1990.000000	510.000000	7.449274
1991.000000	509.000000	7.460159
1992.000000	508.000000	7.494108
1993.000000	507.000000	7.484309
1994.000000	506.000000	7.498628
1995.000000	505.000000	7.494084
1996.000000	504.000000	7.526108
1997.000000	503.000000	7.519298
1998.000000	502.000000	7.525681
1999.000000	501.000000	7.534394
