PE UV       SUBTECH     SPECTRUM    ASCII       PEDS        4.00        
   -1
2-STRIGIDIA BELTI INBIO0004211063.ASC
23/11/17
10:41:59.00
23/11/17
10:41:59.00
Vinicio Soto Monge

250,000000
1
Lambda 1050
1050L1511233
PerkinElmer UV WinLab 6.3.2.0749 / 2.02.05 Lambda 900 UV/VIS/NIR, Aug  7 2015 09:38:08

0
0
3350/servo 860,8/2
0
0
UV/VIS
1
1
1
DoubleDePol,CommonBeamDepol,RBeamAtt,SBeamAtt,60mm sphere, WB InGaAs Detector
0
0
0
0
Program
Program
3350/servo 860,8/2
3350/0,4 860,8/0,4
3350/0,4 860,8/0,4
0
20.00
 
 
 
0
 
860,8
319,2
860,8
Front
100
on
S:100 R:100
0
0
0
0
 
0
 
 
 
0
 
 
0
0
0
0
0
 
 
 
 
0
0


0
0
#HDR
-1
-1
#GR
nm
%R
1.0
0.0
2200,000000
-1,000000
1951
8
108,797053
5,244670
#DATA
1999.000000	80.944825
1998.000000	81.128852
1997.000000	81.555470
1996.000000	81.584314
1995.000000	82.063469
1994.000000	81.842871
1993.000000	81.811711
1992.000000	81.006351
1991.000000	81.716688
1990.000000	81.693027
1989.000000	81.459709
1988.000000	81.272257
1987.000000	82.160963
1986.000000	80.259004
1985.000000	81.221630
1984.000000	80.963718
1983.000000	79.988986
1982.000000	79.884072
1981.000000	80.103562
1980.000000	79.731283
1979.000000	80.307331
1978.000000	80.155607
1977.000000	79.355158
1976.000000	79.422369
1975.000000	80.774556
1974.000000	80.318661
1973.000000	81.038879
1972.000000	80.309614
1971.000000	80.298628
1970.000000	79.412055
1969.000000	79.607944
1968.000000	78.284791
1967.000000	80.234546
1966.000000	78.153559
1965.000000	78.713647
1964.000000	77.961395
1963.000000	78.357422
1962.000000	79.451809
1961.000000	78.478876
1960.000000	79.307513
1959.000000	79.125185
1958.000000	78.316367
1957.000000	77.501353
1956.000000	78.322430
1955.000000	77.701258
1954.000000	77.081334
1953.000000	78.258953
1952.000000	76.540926
1951.000000	75.624244
1950.000000	76.426241
1949.000000	76.745932
1948.000000	76.409562
1947.000000	77.930650
1946.000000	77.112754
1945.000000	76.221649
1944.000000	76.283076
1943.000000	76.741186
1942.000000	77.045422
1941.000000	77.164615
1940.000000	74.609203
1939.000000	75.654544
1938.000000	74.131034
1937.000000	76.944527
1936.000000	76.588963
1935.000000	76.800326
1934.000000	75.141902
1933.000000	76.620439
1932.000000	76.341021
1931.000000	77.675182
1930.000000	77.380305
1929.000000	76.222453
1928.000000	76.979263
1927.000000	75.428725
1926.000000	76.486904
1925.000000	76.484723
1924.000000	77.058553
1923.000000	77.527541
1922.000000	76.907989
1921.000000	77.079839
1920.000000	78.066097
1919.000000	79.670329
1918.000000	76.070611
1917.000000	75.584885
1916.000000	74.148889
1915.000000	76.567803
1914.000000	79.168126
1913.000000	79.932373
1912.000000	78.089040
1911.000000	77.128510
1910.000000	78.656055
1909.000000	79.832089
1908.000000	81.562949
1907.000000	80.140372
1906.000000	83.758258
1905.000000	80.963575
1904.000000	82.430833
1903.000000	83.081574
1902.000000	87.319787
1901.000000	83.889120
1900.000000	84.185654
1899.000000	85.207053
1898.000000	85.564390
1897.000000	85.088459
1896.000000	85.365789
1895.000000	84.752461
1894.000000	87.051434
1893.000000	88.541380
1892.000000	87.386964
1891.000000	87.813509
1890.000000	87.589882
1889.000000	89.484081
1888.000000	88.771992
1887.000000	89.213824
1886.000000	90.785315
1885.000000	87.415312
1884.000000	88.781930
1883.000000	92.059807
1882.000000	90.639930
1881.000000	90.128983
1880.000000	91.572677
1879.000000	90.816958
1878.000000	91.712233
1877.000000	91.693453
1876.000000	93.740898
1875.000000	90.803832
1874.000000	92.102521
1873.000000	91.865283
1872.000000	94.403287
1871.000000	93.366274
1870.000000	100.447647
1869.000000	94.138369
1868.000000	90.753991
1867.000000	89.723807
1866.000000	91.132718
1865.000000	93.445597
1864.000000	92.781189
1863.000000	94.206058
1862.000000	93.037833
1861.000000	91.839967
1860.000000	91.197579
1859.000000	91.936930
1858.000000	90.101400
1857.000000	89.259771
1856.000000	90.134023
1855.000000	92.796075
1854.000000	93.919013
1853.000000	95.582797
1852.000000	93.274246
1851.000000	91.567091
1850.000000	91.134029
1849.000000	92.203198
1848.000000	92.865220
1847.000000	95.202074
1846.000000	92.940820
1845.000000	91.843997
1844.000000	93.291768
1843.000000	91.799377
1842.000000	92.503720
1841.000000	94.139018
1840.000000	91.211413
1839.000000	90.357516
1838.000000	90.397987
1837.000000	90.695140
1836.000000	90.756428
1835.000000	92.276753
1834.000000	93.462711
1833.000000	92.039481
1832.000000	91.044410
1831.000000	93.997162
1830.000000	96.282070
1829.000000	92.338497
1828.000000	91.509392
1827.000000	92.383743
1826.000000	93.280018
1825.000000	94.186428
1824.000000	91.586076
1823.000000	92.128488
1822.000000	91.441196
1821.000000	90.766207
1820.000000	92.257060
1819.000000	93.129165
1818.000000	92.348753
1817.000000	95.425793
1816.000000	92.775653
1815.000000	92.099796
1814.000000	92.767759
1813.000000	92.129920
1812.000000	92.822187
1811.000000	93.945075
1810.000000	93.304221
1809.000000	92.030390
1808.000000	91.730843
1807.000000	91.760892
1806.000000	92.488265
1805.000000	92.715401
1804.000000	91.612414
1803.000000	91.188594
1802.000000	92.042277
1801.000000	93.029128
1800.000000	93.659998
1799.000000	93.063905
1798.000000	92.271090
1797.000000	92.363809
1796.000000	92.436614
1795.000000	91.916349
1794.000000	90.635626
1793.000000	90.060365
1792.000000	91.004076
1791.000000	91.995523
1790.000000	92.141408
1789.000000	91.762774
1788.000000	92.361080
1787.000000	92.306342
1786.000000	91.984177
1785.000000	92.374919
1784.000000	92.262543
1783.000000	91.555830
1782.000000	91.763605
1781.000000	91.578844
1780.000000	91.230095
1779.000000	91.591927
1778.000000	92.067320
1777.000000	91.784023
1776.000000	92.287936
1775.000000	92.663666
1774.000000	92.598092
1773.000000	91.697910
1772.000000	91.188443
1771.000000	90.942884
1770.000000	92.364293
1769.000000	91.603987
1768.000000	90.959152
1767.000000	91.506881
1766.000000	91.562560
1765.000000	91.921211
1764.000000	91.457466
1763.000000	90.910735
1762.000000	91.124972
1761.000000	92.318246
1760.000000	92.384308
1759.000000	91.257678
1758.000000	90.946725
1757.000000	92.157388
1756.000000	91.107251
1755.000000	90.846260
1754.000000	90.272565
1753.000000	91.488803
1752.000000	91.633472
1751.000000	91.631019
1750.000000	92.140979
1749.000000	90.989071
1748.000000	91.382085
1747.000000	90.798907
1746.000000	90.490716
1745.000000	89.415831
1744.000000	90.464550
1743.000000	90.766475
1742.000000	91.107042
1741.000000	90.297396
1740.000000	90.627372
1739.000000	91.124919
1738.000000	91.118907
1737.000000	90.015166
1736.000000	90.636260
1735.000000	91.022222
1734.000000	91.626603
1733.000000	91.004037
1732.000000	90.360994
1731.000000	90.970408
1730.000000	90.878843
1729.000000	90.082988
1728.000000	89.790382
1727.000000	90.122973
1726.000000	89.975302
1725.000000	90.966977
1724.000000	90.650582
1723.000000	91.204775
1722.000000	89.781151
1721.000000	90.916573
1720.000000	90.353212
1719.000000	90.466293
1718.000000	91.155907
1717.000000	91.741655
1716.000000	90.754448
1715.000000	91.820248
1714.000000	91.844610
1713.000000	92.391990
1712.000000	91.449972
1711.000000	91.693267
1710.000000	91.476681
1709.000000	91.668122
1708.000000	90.893977
1707.000000	91.659202
1706.000000	92.096281
1705.000000	91.472331
1704.000000	92.080817
1703.000000	92.396936
1702.000000	92.553485
1701.000000	91.542067
1700.000000	91.492991
1699.000000	91.664680
1698.000000	93.789299
1697.000000	92.429334
1696.000000	92.034843
1695.000000	91.234090
1694.000000	91.345810
1693.000000	91.812279
1692.000000	92.837836
1691.000000	92.722426
1690.000000	92.784674
1689.000000	91.447662
1688.000000	91.483507
1687.000000	90.277596
1686.000000	91.029455
1685.000000	92.479221
1684.000000	92.305542
1683.000000	91.774978
1682.000000	91.595190
1681.000000	91.041732
1680.000000	91.363389
1679.000000	92.088721
1678.000000	93.549994
1677.000000	91.103058
1676.000000	93.408090
1675.000000	93.505619
1674.000000	92.588687
1673.000000	93.232859
1672.000000	92.487306
1671.000000	91.730398
1670.000000	94.248695
1669.000000	93.203941
1668.000000	92.188093
1667.000000	92.923677
1666.000000	93.001520
1665.000000	93.426252
1664.000000	92.969442
1663.000000	93.573261
1662.000000	92.651989
1661.000000	93.614569
1660.000000	92.616337
1659.000000	95.243232
1658.000000	95.005505
1657.000000	93.441257
1656.000000	93.994654
1655.000000	93.434497
1654.000000	94.370450
1653.000000	94.302902
1652.000000	95.107033
1651.000000	93.562863
1650.000000	94.491842
1649.000000	93.278470
1648.000000	94.459891
1647.000000	93.447921
1646.000000	93.229020
1645.000000	93.954342
1644.000000	94.442690
1643.000000	94.355180
1642.000000	94.602106
1641.000000	93.563294
1640.000000	92.650027
1639.000000	93.561741
1638.000000	93.125629
1637.000000	93.286535
1636.000000	94.287919
1635.000000	93.901618
1634.000000	93.996261
1633.000000	93.403228
1632.000000	93.481364
1631.000000	93.013576
1630.000000	92.484006
1629.000000	93.335152
1628.000000	92.771355
1627.000000	92.662517
1626.000000	92.497121
1625.000000	93.014898
1624.000000	92.836576
1623.000000	94.256727
1622.000000	93.702539
1621.000000	93.844785
1620.000000	93.796033
1619.000000	94.591210
1618.000000	92.827177
1617.000000	93.525841
1616.000000	92.483918
1615.000000	94.723866
1614.000000	93.519234
1613.000000	93.556876
1612.000000	92.958637
1611.000000	93.454387
1610.000000	93.920177
1609.000000	92.385500
1608.000000	92.699800
1607.000000	92.917506
1606.000000	93.468216
1605.000000	92.998874
1604.000000	92.175703
1603.000000	93.539088
1602.000000	94.358972
1601.000000	94.230677
1600.000000	93.426953
1599.000000	92.484918
1598.000000	93.986958
1597.000000	93.086501
1596.000000	93.110525
1595.000000	93.594524
1594.000000	93.451604
1593.000000	93.204641
1592.000000	92.917213
1591.000000	93.818577
1590.000000	93.290675
1589.000000	92.124167
1588.000000	93.353490
1587.000000	93.051175
1586.000000	93.389822
1585.000000	92.756733
1584.000000	92.074304
1583.000000	93.307123
1582.000000	93.151208
1581.000000	92.768938
1580.000000	92.236137
1579.000000	92.646461
1578.000000	91.828569
1577.000000	91.445290
1576.000000	91.232510
1575.000000	91.323253
1574.000000	92.521128
1573.000000	93.241158
1572.000000	92.683808
1571.000000	92.229286
1570.000000	92.419841
1569.000000	92.713069
1568.000000	92.525673
1567.000000	93.081347
1566.000000	93.033520
1565.000000	91.797758
1564.000000	93.114300
1563.000000	93.087281
1562.000000	92.513588
1561.000000	92.159410
1560.000000	92.429953
1559.000000	93.671336
1558.000000	93.169296
1557.000000	93.595981
1556.000000	93.075581
1555.000000	92.823218
1554.000000	92.480443
1553.000000	92.658767
1552.000000	93.407162
1551.000000	92.618018
1550.000000	92.436525
1549.000000	92.567867
1548.000000	93.122553
1547.000000	92.924366
1546.000000	91.462849
1545.000000	92.176532
1544.000000	92.924848
1543.000000	92.741070
1542.000000	92.764954
1541.000000	92.209636
1540.000000	91.387524
1539.000000	91.581712
1538.000000	91.474449
1537.000000	91.331710
1536.000000	91.103220
1535.000000	91.701447
1534.000000	92.307169
1533.000000	91.247802
1532.000000	91.352222
1531.000000	92.188616
1530.000000	92.181543
1529.000000	91.930052
1528.000000	91.790406
1527.000000	92.378431
1526.000000	92.164576
1525.000000	91.897279
1524.000000	92.124648
1523.000000	92.130256
1522.000000	91.964549
1521.000000	91.908428
1520.000000	92.108362
1519.000000	91.882887
1518.000000	91.694212
1517.000000	90.781231
1516.000000	91.398671
1515.000000	91.473182
1514.000000	90.949849
1513.000000	90.901919
1512.000000	90.544070
1511.000000	90.022447
1510.000000	90.688652
1509.000000	89.980774
1508.000000	89.675258
1507.000000	90.299093
1506.000000	91.175597
1505.000000	90.663721
1504.000000	90.435911
1503.000000	90.474367
1502.000000	90.147249
1501.000000	89.408596
1500.000000	90.352909
1499.000000	90.668750
1498.000000	89.243287
1497.000000	90.265054
1496.000000	91.247867
1495.000000	90.884693
1494.000000	89.780384
1493.000000	89.634746
1492.000000	90.534613
1491.000000	90.186637
1490.000000	90.191928
1489.000000	90.902211
1488.000000	90.625096
1487.000000	90.587026
1486.000000	90.133981
1485.000000	90.006824
1484.000000	90.067505
1483.000000	90.818372
1482.000000	89.697077
1481.000000	90.693081
1480.000000	91.134745
1479.000000	90.601594
1478.000000	89.574260
1477.000000	89.230750
1476.000000	88.791405
1475.000000	90.419315
1474.000000	91.400860
1473.000000	89.819813
1472.000000	90.809293
1471.000000	91.191462
1470.000000	91.018353
1469.000000	91.655488
1468.000000	90.938463
1467.000000	89.375193
1466.000000	90.054266
1465.000000	90.749629
1464.000000	91.170674
1463.000000	91.471922
1462.000000	91.596953
1461.000000	92.052098
1460.000000	91.066130
1459.000000	91.665760
1458.000000	92.555640
1457.000000	91.276851
1456.000000	92.450971
1455.000000	90.965265
1454.000000	91.379973
1453.000000	90.873184
1452.000000	91.533122
1451.000000	91.948680
1450.000000	92.814814
1449.000000	92.134047
1448.000000	91.740361
1447.000000	90.837638
1446.000000	90.500260
1445.000000	91.368495
1444.000000	91.602277
1443.000000	90.903930
1442.000000	91.250835
1441.000000	94.905290
1440.000000	92.877689
1439.000000	95.267751
1438.000000	94.087490
1437.000000	92.296443
1436.000000	91.333115
1435.000000	91.430928
1434.000000	91.639405
1433.000000	92.570770
1432.000000	94.105150
1431.000000	93.532671
1430.000000	92.693419
1429.000000	92.628595
1428.000000	92.410435
1427.000000	92.998858
1426.000000	92.365222
1425.000000	93.808194
1424.000000	92.744183
1423.000000	93.076025
1422.000000	93.960875
1421.000000	92.557320
1420.000000	94.023238
1419.000000	94.052966
1418.000000	93.096644
1417.000000	94.286566
1416.000000	93.992868
1415.000000	94.186879
1414.000000	95.383069
1413.000000	93.836757
1412.000000	94.117683
1411.000000	93.225063
1410.000000	94.570043
1409.000000	98.361016
1408.000000	94.760092
1407.000000	94.776240
1406.000000	96.002563
1405.000000	93.833255
1404.000000	93.556250
1403.000000	95.436742
1402.000000	95.273525
1401.000000	95.990340
1400.000000	103.759236
1399.000000	98.858117
1398.000000	96.635335
1397.000000	95.878870
1396.000000	91.898761
1395.000000	99.036326
1394.000000	96.899430
1393.000000	96.017336
1392.000000	93.888282
1391.000000	98.785270
1390.000000	98.861185
1389.000000	98.086788
1388.000000	94.188068
1387.000000	97.836750
1386.000000	96.167119
1385.000000	98.798123
1384.000000	96.829894
1383.000000	101.278646
1382.000000	107.767138
1381.000000	100.473104
1380.000000	109.205028
1379.000000	96.334694
1378.000000	101.771561
1377.000000	96.073772
1376.000000	97.996640
1375.000000	98.374218
1374.000000	98.975407
1373.000000	97.102841
1372.000000	97.254728
1371.000000	96.933198
1370.000000	96.613917
1369.000000	97.287649
1368.000000	101.583063
1367.000000	104.526816
1366.000000	96.705514
1365.000000	92.932139
1364.000000	101.521986
1363.000000	95.863651
1362.000000	93.547118
1361.000000	100.138936
1360.000000	100.723802
1359.000000	99.112787
1358.000000	96.651848
1357.000000	98.692750
1356.000000	97.600329
1355.000000	106.194522
1354.000000	101.491023
1353.000000	98.708169
1352.000000	96.184781
1351.000000	99.604697
1350.000000	97.394630
1349.000000	97.144849
1348.000000	98.135777
1347.000000	98.467264
1346.000000	98.720700
1345.000000	98.517859
1344.000000	98.913578
1343.000000	99.861842
1342.000000	99.055475
1341.000000	98.139012
1340.000000	98.534123
1339.000000	98.818323
1338.000000	99.083733
1337.000000	98.574974
1336.000000	99.248436
1335.000000	98.672939
1334.000000	100.005388
1333.000000	100.556084
1332.000000	99.169154
1331.000000	99.089356
1330.000000	99.374429
1329.000000	98.862822
1328.000000	98.387192
1327.000000	99.511457
1326.000000	98.873711
1325.000000	99.016783
1324.000000	98.273927
1323.000000	97.560246
1322.000000	98.155187
1321.000000	99.036307
1320.000000	99.542122
1319.000000	98.958108
1318.000000	99.129145
1317.000000	99.084734
1316.000000	99.046263
1315.000000	100.025033
1314.000000	99.777369
1313.000000	99.251064
1312.000000	99.393910
1311.000000	99.067176
1310.000000	98.475988
1309.000000	98.267576
1308.000000	98.431626
1307.000000	99.656603
1306.000000	99.202996
1305.000000	99.026162
1304.000000	99.711564
1303.000000	99.299425
1302.000000	99.224705
1301.000000	98.907941
1300.000000	98.014445
1299.000000	98.831797
1298.000000	99.239503
1297.000000	98.684649
1296.000000	99.044184
1295.000000	98.692796
1294.000000	98.853303
1293.000000	99.389180
1292.000000	99.334111
1291.000000	99.848823
1290.000000	100.010956
1289.000000	98.934850
1288.000000	98.296451
1287.000000	98.400931
1286.000000	98.480323
1285.000000	99.485963
1284.000000	100.101570
1283.000000	99.821407
1282.000000	98.913990
1281.000000	98.212901
1280.000000	98.146821
1279.000000	98.337315
1278.000000	98.763108
1277.000000	98.807160
1276.000000	98.345888
1275.000000	98.244751
1274.000000	98.684061
1273.000000	98.307320
1272.000000	98.296399
1271.000000	98.903943
1270.000000	99.361000
1269.000000	98.794230
1268.000000	98.329047
1267.000000	98.159720
1266.000000	98.361227
1265.000000	98.927651
1264.000000	99.461810
1263.000000	99.207726
1262.000000	98.134529
1261.000000	98.248301
1260.000000	99.095421
1259.000000	98.911367
1258.000000	98.960374
1257.000000	98.693510
1256.000000	98.863786
1255.000000	99.767235
1254.000000	99.749483
1253.000000	99.353984
1252.000000	99.802978
1251.000000	100.087195
1250.000000	99.257125
1249.000000	99.619357
1248.000000	99.172328
1247.000000	97.861296
1246.000000	98.635509
1245.000000	99.213561
1244.000000	98.742786
1243.000000	99.017592
1242.000000	99.616732
1241.000000	98.754875
1240.000000	98.484454
1239.000000	98.646158
1238.000000	98.597187
1237.000000	98.544359
1236.000000	98.477118
1235.000000	98.459000
1234.000000	98.313579
1233.000000	97.908728
1232.000000	98.574040
1231.000000	99.105622
1230.000000	98.847040
1229.000000	98.699742
1228.000000	98.954681
1227.000000	99.365365
1226.000000	99.213951
1225.000000	98.533175
1224.000000	98.007269
1223.000000	99.153007
1222.000000	98.780881
1221.000000	99.082696
1220.000000	98.976153
1219.000000	98.824889
1218.000000	98.720299
1217.000000	98.379207
1216.000000	99.961676
1215.000000	98.692097
1214.000000	98.499347
1213.000000	97.618919
1212.000000	97.870073
1211.000000	98.021335
1210.000000	98.002290
1209.000000	98.142462
1208.000000	97.369204
1207.000000	98.579567
1206.000000	98.991158
1205.000000	98.053289
1204.000000	99.317012
1203.000000	99.318938
1202.000000	98.100914
1201.000000	98.616002
1200.000000	98.685281
1199.000000	98.373531
1198.000000	98.667881
1197.000000	98.277888
1196.000000	98.646863
1195.000000	98.257957
1194.000000	98.073917
1193.000000	97.651863
1192.000000	99.037437
1191.000000	99.238402
1190.000000	98.402304
1189.000000	97.975813
1188.000000	97.767401
1187.000000	98.377324
1186.000000	97.713359
1185.000000	97.878581
1184.000000	98.107687
1183.000000	97.815122
1182.000000	98.113295
1181.000000	97.996251
1180.000000	99.536787
1179.000000	98.940598
1178.000000	98.487682
1177.000000	98.744371
1176.000000	98.635544
1175.000000	98.279940
1174.000000	98.667037
1173.000000	98.719073
1172.000000	98.419299
1171.000000	98.183592
1170.000000	97.794096
1169.000000	98.709570
1168.000000	99.065286
1167.000000	98.343693
1166.000000	97.516696
1165.000000	96.601004
1164.000000	97.711037
1163.000000	97.374184
1162.000000	97.637100
1161.000000	99.095797
1160.000000	98.140732
1159.000000	98.506790
1158.000000	97.068849
1157.000000	98.368764
1156.000000	99.158070
1155.000000	98.772255
1154.000000	99.379080
1153.000000	97.913373
1152.000000	99.578807
1151.000000	99.178720
1150.000000	98.017618
1149.000000	99.184542
1148.000000	98.966547
1147.000000	97.876166
1146.000000	99.163169
1145.000000	97.647112
1144.000000	99.862482
1143.000000	98.256385
1142.000000	100.050733
1141.000000	100.860289
1140.000000	98.496867
1139.000000	98.258724
1138.000000	99.918850
1137.000000	99.357469
1136.000000	98.067466
1135.000000	99.307487
1134.000000	99.822744
1133.000000	98.891837
1132.000000	99.632431
1131.000000	99.518962
1130.000000	99.876480
1129.000000	98.974136
1128.000000	99.853772
1127.000000	99.317074
1126.000000	99.483892
1125.000000	100.974798
1124.000000	98.710795
1123.000000	99.704079
1122.000000	100.117133
1121.000000	98.626044
1120.000000	100.746410
1119.000000	98.618607
1118.000000	99.717339
1117.000000	99.079364
1116.000000	98.753209
1115.000000	100.154240
1114.000000	99.042475
1113.000000	98.832765
1112.000000	99.223171
1111.000000	98.744521
1110.000000	100.111482
1109.000000	99.728540
1108.000000	98.229956
1107.000000	98.610215
1106.000000	98.777419
1105.000000	98.034831
1104.000000	99.657192
1103.000000	98.723790
1102.000000	97.445169
1101.000000	98.404604
1100.000000	98.667045
1099.000000	98.710038
1098.000000	99.816599
1097.000000	99.468414
1096.000000	99.372318
1095.000000	100.088218
1094.000000	98.917051
1093.000000	99.828134
1092.000000	98.183546
1091.000000	98.825550
1090.000000	98.788231
1089.000000	98.863939
1088.000000	98.588895
1087.000000	99.539085
1086.000000	99.755714
1085.000000	98.938957
1084.000000	99.314375
1083.000000	97.676488
1082.000000	98.595608
1081.000000	98.552846
1080.000000	99.079173
1079.000000	99.774780
1078.000000	98.836758
1077.000000	97.859110
1076.000000	98.944642
1075.000000	98.346585
1074.000000	99.139403
1073.000000	98.585513
1072.000000	98.144386
1071.000000	98.596358
1070.000000	99.182096
1069.000000	98.772476
1068.000000	98.803766
1067.000000	98.761108
1066.000000	99.870204
1065.000000	99.255786
1064.000000	98.065906
1063.000000	97.730419
1062.000000	98.420539
1061.000000	98.233057
1060.000000	98.807588
1059.000000	98.800696
1058.000000	97.939339
1057.000000	97.478177
1056.000000	97.650289
1055.000000	98.912644
1054.000000	98.471647
1053.000000	97.923560
1052.000000	97.650143
1051.000000	97.567352
1050.000000	98.065022
1049.000000	97.731824
1048.000000	98.194385
1047.000000	98.869537
1046.000000	99.033050
1045.000000	99.012531
1044.000000	98.245828
1043.000000	98.510889
1042.000000	99.015388
1041.000000	97.883500
1040.000000	98.406860
1039.000000	98.599225
1038.000000	98.078585
1037.000000	98.298178
1036.000000	98.230881
1035.000000	98.019557
1034.000000	97.978426
1033.000000	98.528781
1032.000000	98.685085
1031.000000	97.477852
1030.000000	97.759840
1029.000000	97.751988
1028.000000	97.151732
1027.000000	97.852350
1026.000000	97.779990
1025.000000	98.233170
1024.000000	99.008265
1023.000000	98.976987
1022.000000	98.165697
1021.000000	98.627418
1020.000000	98.195513
1019.000000	97.528404
1018.000000	97.376055
1017.000000	97.357076
1016.000000	97.816916
1015.000000	98.407467
1014.000000	98.338071
1013.000000	98.435536
1012.000000	97.845082
1011.000000	97.966061
1010.000000	97.742991
1009.000000	97.199623
1008.000000	98.445475
1007.000000	98.888980
1006.000000	98.372370
1005.000000	98.118442
1004.000000	97.282529
1003.000000	97.082619
1002.000000	97.277950
1001.000000	96.894070
1000.000000	97.341208
999.000000	97.942713
998.000000	96.968053
997.000000	96.866514
996.000000	97.528723
995.000000	97.795800
994.000000	97.652592
993.000000	97.865761
992.000000	97.670441
991.000000	97.354355
990.000000	96.273345
989.000000	96.328902
988.000000	97.143887
987.000000	97.084135
986.000000	96.884714
985.000000	96.704992
984.000000	97.211083
983.000000	97.896157
982.000000	97.604158
981.000000	97.768295
980.000000	97.942962
979.000000	97.008694
978.000000	96.673658
977.000000	96.867543
976.000000	96.526627
975.000000	96.041245
974.000000	95.864383
973.000000	96.035420
972.000000	96.418817
971.000000	96.780226
970.000000	96.913407
969.000000	97.129414
968.000000	96.089501
967.000000	95.937612
966.000000	96.196614
965.000000	96.551194
964.000000	97.459308
963.000000	96.727842
962.000000	95.757732
961.000000	95.932688
960.000000	96.022298
959.000000	95.823500
958.000000	95.637164
957.000000	95.559479
956.000000	95.944555
955.000000	95.946792
954.000000	95.452102
953.000000	95.282741
952.000000	95.579127
951.000000	96.073719
950.000000	95.938555
949.000000	96.265948
948.000000	95.573894
947.000000	96.519464
946.000000	97.204761
945.000000	96.700884
944.000000	95.289314
943.000000	94.830448
942.000000	95.473079
941.000000	96.468753
940.000000	95.503370
939.000000	96.103535
938.000000	94.726285
937.000000	95.239455
936.000000	95.395142
935.000000	95.783132
934.000000	95.997720
933.000000	95.032660
932.000000	94.992659
931.000000	95.552084
930.000000	94.765447
929.000000	94.291114
928.000000	94.566748
927.000000	96.124673
926.000000	95.445331
925.000000	94.556071
924.000000	93.680796
923.000000	93.506861
922.000000	93.379709
921.000000	94.438831
920.000000	94.268866
919.000000	94.066152
918.000000	93.650403
917.000000	92.843783
916.000000	94.074751
915.000000	93.707948
914.000000	95.234725
913.000000	94.830376
912.000000	93.565907
911.000000	93.628727
910.000000	93.808066
909.000000	93.129991
908.000000	93.134180
907.000000	92.614480
906.000000	93.748396
905.000000	93.105087
904.000000	92.781234
903.000000	92.518957
902.000000	93.706982
901.000000	93.756770
900.000000	93.736714
899.000000	92.988551
898.000000	92.940420
897.000000	93.120368
896.000000	92.607809
895.000000	92.439708
894.000000	91.892798
893.000000	90.871916
892.000000	91.962077
891.000000	92.554600
890.000000	92.114074
889.000000	92.115377
888.000000	91.684617
887.000000	92.066009
886.000000	91.766964
885.000000	92.017242
884.000000	92.649420
883.000000	91.415052
882.000000	91.892614
881.000000	91.903461
880.000000	90.054978
879.000000	90.237905
878.000000	91.441545
877.000000	91.529111
876.000000	91.311818
875.000000	91.279643
874.000000	89.756021
873.000000	90.897841
872.000000	90.093128
871.000000	90.503975
870.000000	90.786248
869.000000	90.066467
868.000000	90.691873
867.000000	90.357414
866.000000	88.892994
865.000000	88.594253
864.000000	89.422762
863.000000	89.430557
862.000000	90.063565
861.000000	90.792379
860.000000	88.947724
859.000000	90.061914
858.000000	89.609814
857.000000	89.811729
856.000000	89.622112
855.000000	89.395602
854.000000	88.983929
853.000000	89.085418
852.000000	88.679892
851.000000	88.981982
850.000000	89.449473
849.000000	88.887613
848.000000	88.506346
847.000000	88.638482
846.000000	88.248283
845.000000	88.204708
844.000000	87.937186
843.000000	87.705212
842.000000	87.918372
841.000000	87.816426
840.000000	87.303094
839.000000	87.348642
838.000000	87.125985
837.000000	87.059422
836.000000	86.776839
835.000000	86.782004
834.000000	86.432210
833.000000	86.570377
832.000000	86.128606
831.000000	86.174611
830.000000	86.105283
829.000000	85.918882
828.000000	85.636687
827.000000	85.709162
826.000000	85.685001
825.000000	85.337705
824.000000	85.031141
823.000000	84.964218
822.000000	84.667056
821.000000	84.768974
820.000000	84.608436
819.000000	84.251142
818.000000	84.208566
817.000000	83.972468
816.000000	83.959259
815.000000	83.731443
814.000000	83.614139
813.000000	83.575198
812.000000	83.307135
811.000000	83.080168
810.000000	82.943906
809.000000	82.704222
808.000000	82.327957
807.000000	82.376915
806.000000	82.167101
805.000000	81.997631
804.000000	81.924561
803.000000	81.842744
802.000000	81.533762
801.000000	81.275549
800.000000	81.089496
799.000000	81.030647
798.000000	80.688796
797.000000	80.465989
796.000000	80.199906
795.000000	80.088203
794.000000	79.992454
793.000000	79.787584
792.000000	79.684504
791.000000	79.487746
790.000000	79.213243
789.000000	79.061767
788.000000	79.011075
787.000000	78.739550
786.000000	78.446089
785.000000	78.386833
784.000000	78.034474
783.000000	77.832582
782.000000	77.724127
781.000000	77.511885
780.000000	77.394365
779.000000	77.138746
778.000000	76.978395
777.000000	76.850629
776.000000	76.565930
775.000000	76.409973
774.000000	76.245267
773.000000	76.030744
772.000000	75.841715
771.000000	75.593245
770.000000	75.378377
769.000000	75.247753
768.000000	74.867209
767.000000	74.600572
766.000000	74.368472
765.000000	74.260797
764.000000	74.055479
763.000000	73.779166
762.000000	73.593269
761.000000	73.336918
760.000000	73.170024
759.000000	72.971594
758.000000	72.590318
757.000000	72.376797
756.000000	72.260265
755.000000	72.108975
754.000000	71.781969
753.000000	71.517869
752.000000	71.350248
751.000000	71.124791
750.000000	70.948852
749.000000	70.751832
748.000000	70.520863
747.000000	70.261238
746.000000	70.053999
745.000000	69.779634
744.000000	69.499907
743.000000	69.301610
742.000000	69.021745
741.000000	68.733281
740.000000	68.546888
739.000000	68.323393
738.000000	68.062594
737.000000	67.843126
736.000000	67.585129
735.000000	67.285438
734.000000	67.046978
733.000000	66.848928
732.000000	66.596101
731.000000	66.312333
730.000000	66.059264
729.000000	65.818513
728.000000	65.567428
727.000000	65.319527
726.000000	65.097492
725.000000	64.841662
724.000000	64.602208
723.000000	64.343175
722.000000	64.037580
721.000000	63.715974
720.000000	63.448880
719.000000	63.166016
718.000000	62.934371
717.000000	62.754016
716.000000	62.500342
715.000000	62.194748
714.000000	61.946296
713.000000	61.649901
712.000000	61.319632
711.000000	61.002523
710.000000	60.717427
709.000000	60.470483
708.000000	60.193877
707.000000	59.931622
706.000000	59.647134
705.000000	59.308895
704.000000	59.018467
703.000000	58.740066
702.000000	58.462351
701.000000	58.200113
700.000000	57.880080
699.000000	57.561590
698.000000	57.250864
697.000000	56.938112
696.000000	56.657342
695.000000	56.363785
694.000000	56.057750
693.000000	55.755962
692.000000	55.435892
691.000000	55.121313
690.000000	54.796858
689.000000	54.448347
688.000000	54.104969
687.000000	53.851083
686.000000	53.566940
685.000000	53.188193
684.000000	52.849962
683.000000	52.525832
682.000000	52.160652
681.000000	51.831405
680.000000	51.475236
679.000000	51.136907
678.000000	50.828583
677.000000	50.509108
676.000000	50.122247
675.000000	49.807063
674.000000	49.468381
673.000000	49.153555
672.000000	48.874665
671.000000	48.470792
670.000000	48.082910
669.000000	47.709691
668.000000	47.329606
667.000000	46.971230
666.000000	46.615552
665.000000	46.287257
664.000000	45.942126
663.000000	45.563431
662.000000	45.204374
661.000000	44.794306
660.000000	44.368621
659.000000	43.979295
658.000000	43.590641
657.000000	43.207498
656.000000	42.838222
655.000000	42.435536
654.000000	42.052442
653.000000	41.689105
652.000000	41.301464
651.000000	40.930197
650.000000	40.534759
649.000000	40.181480
648.000000	39.808032
647.000000	39.412956
646.000000	39.056542
645.000000	38.722811
644.000000	38.372232
643.000000	38.005901
642.000000	37.639021
641.000000	37.261258
640.000000	36.934506
639.000000	36.568104
638.000000	36.218600
637.000000	35.863389
636.000000	35.508685
635.000000	35.184692
634.000000	34.840430
633.000000	34.466364
632.000000	34.102897
631.000000	33.749430
630.000000	33.385392
629.000000	33.018504
628.000000	32.680170
627.000000	32.330731
626.000000	31.980278
625.000000	31.624972
624.000000	31.301142
623.000000	30.968670
622.000000	30.617760
621.000000	30.315406
620.000000	30.011670
619.000000	29.727039
618.000000	29.424018
617.000000	29.133273
616.000000	28.848731
615.000000	28.605269
614.000000	28.275469
613.000000	28.005036
612.000000	27.694582
611.000000	27.426430
610.000000	27.094574
609.000000	26.762713
608.000000	26.424515
607.000000	26.088437
606.000000	25.730229
605.000000	25.373796
604.000000	25.021211
603.000000	24.643996
602.000000	24.259653
601.000000	23.865708
600.000000	23.460510
599.000000	23.074776
598.000000	22.712223
597.000000	22.368743
596.000000	22.007036
595.000000	21.664407
594.000000	21.310528
593.000000	20.987364
592.000000	20.680606
591.000000	20.424859
590.000000	20.169174
589.000000	19.899136
588.000000	19.670384
587.000000	19.424872
586.000000	19.244887
585.000000	19.037391
584.000000	18.845629
583.000000	18.633682
582.000000	18.415221
581.000000	18.219835
580.000000	18.002172
579.000000	17.736456
578.000000	17.500522
577.000000	17.243891
576.000000	16.955565
575.000000	16.643311
574.000000	16.350776
573.000000	16.014302
572.000000	15.676714
571.000000	15.327248
570.000000	14.973833
569.000000	14.640164
568.000000	14.313534
567.000000	13.995373
566.000000	13.701022
565.000000	13.407651
564.000000	13.187504
563.000000	12.980118
562.000000	12.807427
561.000000	12.670965
560.000000	12.578817
559.000000	12.560313
558.000000	12.553997
557.000000	12.593678
556.000000	12.703773
555.000000	12.809714
554.000000	12.950341
553.000000	13.087015
552.000000	13.258290
551.000000	13.486236
550.000000	13.697241
549.000000	13.903027
548.000000	14.105961
547.000000	14.313432
546.000000	14.511014
545.000000	14.686876
544.000000	14.852299
543.000000	15.017550
542.000000	15.163830
541.000000	15.289543
540.000000	15.405843
539.000000	15.481917
538.000000	15.515126
537.000000	15.554242
536.000000	15.536756
535.000000	15.515125
534.000000	15.457577
533.000000	15.390363
532.000000	15.288439
531.000000	15.172083
530.000000	15.007566
529.000000	14.823391
528.000000	14.633556
527.000000	14.416492
526.000000	14.172198
525.000000	13.922048
524.000000	13.660461
523.000000	13.363134
522.000000	13.076438
521.000000	12.765214
520.000000	12.448794
519.000000	12.127884
518.000000	11.808890
517.000000	11.486277
516.000000	11.181951
515.000000	10.864762
514.000000	10.560159
513.000000	10.251816
512.000000	9.941632
511.000000	9.661328
510.000000	9.384207
509.000000	9.114561
508.000000	8.840031
507.000000	8.596246
506.000000	8.362604
505.000000	8.140417
504.000000	7.912693
503.000000	7.705838
502.000000	7.511142
501.000000	7.326719
500.000000	7.155713
499.000000	6.998007
498.000000	6.844775
497.000000	6.707354
496.000000	6.581046
495.000000	6.465777
494.000000	6.352889
493.000000	6.256685
492.000000	6.157041
491.000000	6.070547
490.000000	6.000099
489.000000	5.932606
488.000000	5.855278
487.000000	5.799504
486.000000	5.753412
485.000000	5.709543
484.000000	5.666956
483.000000	5.624333
482.000000	5.586675
481.000000	5.553348
480.000000	5.530056
479.000000	5.514937
478.000000	5.496958
477.000000	5.476284
476.000000	5.458605
475.000000	5.445015
474.000000	5.436398
473.000000	5.424210
472.000000	5.419580
471.000000	5.405535
470.000000	5.400786
469.000000	5.407123
468.000000	5.400048
467.000000	5.396243
466.000000	5.398076
465.000000	5.383817
464.000000	5.379404
463.000000	5.375643
462.000000	5.362778
461.000000	5.359377
460.000000	5.365300
459.000000	5.360990
458.000000	5.359297
457.000000	5.355431
456.000000	5.345579
455.000000	5.346876
454.000000	5.348909
453.000000	5.354145
452.000000	5.358953
451.000000	5.348615
450.000000	5.339550
449.000000	5.341428
448.000000	5.348364
447.000000	5.349330
446.000000	5.332418
445.000000	5.338890
444.000000	5.336762
443.000000	5.315750
442.000000	5.309437
441.000000	5.308777
440.000000	5.304069
439.000000	5.306213
438.000000	5.297786
437.000000	5.294485
436.000000	5.311677
435.000000	5.309866
434.000000	5.304783
433.000000	5.306918
432.000000	5.306795
431.000000	5.308942
430.000000	5.307473
429.000000	5.296260
428.000000	5.290716
427.000000	5.298460
426.000000	5.291357
425.000000	5.282221
424.000000	5.280065
423.000000	5.278440
422.000000	5.274009
421.000000	5.279506
420.000000	5.268094
419.000000	5.258914
418.000000	5.266697
417.000000	5.266018
416.000000	5.267730
415.000000	5.273710
414.000000	5.276177
413.000000	5.267920
412.000000	5.264232
411.000000	5.256528
410.000000	5.265877
409.000000	5.268463
408.000000	5.266806
407.000000	5.264434
406.000000	5.244670
405.000000	5.250884
404.000000	5.263126
403.000000	5.254651
402.000000	5.248909
401.000000	5.251313
400.000000	5.245670
399.000000	5.244955
398.000000	5.250794
397.000000	5.262815
396.000000	5.267301
395.000000	5.255903
394.000000	5.251749
393.000000	5.264415
392.000000	5.268910
391.000000	5.263848
390.000000	5.265784
389.000000	5.269558
388.000000	5.263693
387.000000	5.254927
386.000000	5.254949
385.000000	5.265959
384.000000	5.272516
383.000000	5.270564
382.000000	5.279393
381.000000	5.284538
380.000000	5.300408
379.000000	5.307053
378.000000	5.302056
377.000000	5.307680
376.000000	5.446823
375.000000	5.566934
374.000000	5.580111
373.000000	5.570066
372.000000	5.590834
371.000000	5.587719
370.000000	5.623128
369.000000	5.584524
368.000000	5.573678
367.000000	5.652305
366.000000	5.592608
365.000000	5.584231
364.000000	5.632418
363.000000	5.629321
362.000000	5.585059
361.000000	5.616152
360.000000	5.598564
359.000000	5.647536
358.000000	5.677007
357.000000	5.646184
356.000000	5.639079
355.000000	5.695294
354.000000	5.611450
353.000000	5.598155
352.000000	5.685096
351.000000	5.682475
350.000000	5.596162
349.000000	5.620357
348.000000	5.658430
347.000000	5.637429
346.000000	5.650744
345.000000	5.646315
344.000000	5.664803
343.000000	5.627671
342.000000	5.644546
341.000000	5.687292
340.000000	5.668545
339.000000	5.624412
338.000000	5.717004
337.000000	5.736050
336.000000	5.662198
335.000000	5.623310
334.000000	5.642502
333.000000	5.547500
332.000000	5.633585
331.000000	5.612422
330.000000	5.695740
329.000000	5.572442
328.000000	5.623218
327.000000	5.721370
326.000000	5.897611
325.000000	5.832516
324.000000	5.803860
323.000000	5.584194
322.000000	5.924613
321.000000	5.672716
320.000000	5.817925
319.000000	5.792261
318.000000	5.913011
317.000000	5.828734
316.000000	5.559066
315.000000	5.486639
314.000000	5.557990
313.000000	5.575911
312.000000	5.531366
311.000000	5.568591
310.000000	5.562535
309.000000	5.691159
308.000000	5.673417
307.000000	5.604546
306.000000	5.649606
305.000000	5.755147
304.000000	5.703524
303.000000	5.675445
302.000000	5.677451
301.000000	5.720143
300.000000	5.765657
299.000000	5.700058
298.000000	5.702148
297.000000	5.683205
296.000000	5.651931
295.000000	5.696309
294.000000	5.704132
293.000000	5.713844
292.000000	5.761298
291.000000	5.763563
290.000000	5.716854
289.000000	5.778396
288.000000	5.725414
287.000000	5.802154
286.000000	5.761065
285.000000	5.772744
284.000000	5.769715
283.000000	5.782390
282.000000	5.837001
281.000000	5.826329
280.000000	5.858136
279.000000	5.856882
278.000000	5.835942
277.000000	5.868115
276.000000	5.808897
275.000000	5.827087
274.000000	5.783558
273.000000	5.934655
272.000000	5.948677
271.000000	5.917829
270.000000	5.913766
269.000000	5.911968
268.000000	5.964080
267.000000	5.926044
266.000000	6.034496
265.000000	5.991471
264.000000	5.989640
263.000000	6.080835
262.000000	6.015858
261.000000	6.071942
260.000000	6.128247
259.000000	6.136792
258.000000	6.145245
257.000000	6.123304
256.000000	6.214487
255.000000	6.185133
254.000000	6.277571
253.000000	6.276570
252.000000	6.313017
251.000000	6.420938
250.000000	6.431798
