PE UV       SUBTECH     SPECTRUM    ASCII       PEDS        4.00        
   -1
CICIMAUCR0101-1.ASC
24/04/03
16:31:32.00
24/04/03
16:31:32.00
Vinicio Soto Monge
C. resplendens
250,000000
1
Lambda 1050
1050L1511233
PerkinElmer UV WinLab 6.3.2.0749 / 2.02.05 Lambda 900 UV/VIS/NIR, Aug  7 2015 09:38:08

0
0
3350/servo 860,8/2
0
0
UV/VIS
1
1
1
DoubleDePol,CommonBeamDepol,RBeamAtt,SBeamAtt,60mm sphere, WB InGaAs Detector
0
0
0
0
Program
Program
3350/servo 860,8/2
3350/0,2 860,8/0,2
3350/0,2 860,8/0,2
0
15.00
 
 
 
0
 
860,8
319,2
860,8
Front
100
on
S:100 R:100
0
0
0
0
 
0
 
 
 
0
 
 
0
0
0
0
0
 
 
 
 
0
0


0
0
#HDR
-1
-1
#GR
nm
%R
1.0
0.0
2500,000000
-1,000000
2251
8
72,895300
3,379900
#DATA
2482.000000	3.664169
2481.000000	3.619143
2480.000000	3.697432
2479.000000	3.682423
2478.000000	3.703415
2477.000000	3.636079
2476.000000	3.624822
2475.000000	3.688711
2474.000000	3.648654
2473.000000	3.666299
2472.000000	3.666400
2471.000000	3.671572
2470.000000	3.673398
2469.000000	3.625735
2468.000000	3.646118
2467.000000	3.640439
2466.000000	3.662648
2465.000000	3.654738
2464.000000	3.650885
2463.000000	3.685770
2462.000000	3.699359
2461.000000	3.701286
2460.000000	3.693883
2459.000000	3.706559
2458.000000	3.700880
2457.000000	3.687494
2456.000000	3.719134
2455.000000	3.708486
2454.000000	3.738199
2453.000000	3.745197
2452.000000	3.758988
2451.000000	3.737996
2450.000000	3.759698
2449.000000	3.773186
2448.000000	3.779676
2447.000000	3.790527
2446.000000	3.790121
2445.000000	3.801885
2444.000000	3.814663
2443.000000	3.827745
2442.000000	3.825514
2441.000000	3.839914
2440.000000	3.847418
2439.000000	3.847216
2438.000000	3.861819
2437.000000	3.887577
2436.000000	3.879667
2435.000000	3.888591
2434.000000	3.907859
2433.000000	3.915769
2432.000000	3.928446
2431.000000	3.956232
2430.000000	3.951263
2429.000000	3.945178
2428.000000	3.967387
2427.000000	3.980368
2426.000000	3.982599
2425.000000	3.996695
2424.000000	4.006532
2423.000000	4.006329
2422.000000	4.011907
2421.000000	4.033507
2420.000000	4.051558
2419.000000	4.063727
2418.000000	4.059164
2417.000000	4.083705
2416.000000	4.081677
2415.000000	4.088167
2414.000000	4.088066
2413.000000	4.103176
2412.000000	4.121126
2411.000000	4.137960
2410.000000	4.146478
2409.000000	4.157735
2408.000000	4.145464
2407.000000	4.133498
2406.000000	4.167470
2405.000000	4.181871
2404.000000	4.184507
2403.000000	4.202660
2402.000000	4.217060
2401.000000	4.214322
2400.000000	4.233996
2399.000000	4.230649
2398.000000	4.229230
2397.000000	4.243630
2396.000000	4.259146
2395.000000	4.270402
2394.000000	4.285918
2393.000000	4.280848
2392.000000	4.282774
2391.000000	4.287541
2390.000000	4.300420
2389.000000	4.315327
2388.000000	4.297479
2387.000000	4.295045
2386.000000	4.320398
2385.000000	4.330133
2384.000000	4.325063
2383.000000	4.328308
2382.000000	4.331147
2381.000000	4.316443
2380.000000	4.332263
2379.000000	4.346764
2378.000000	4.345750
2377.000000	4.350111
2376.000000	4.343824
2375.000000	4.336522
2374.000000	4.339666
2373.000000	4.342201
2372.000000	4.343215
2371.000000	4.347677
2370.000000	4.342201
2369.000000	4.331959
2368.000000	4.329829
2367.000000	4.331046
2366.000000	4.328004
2365.000000	4.339362
2364.000000	4.334899
2363.000000	4.321108
2362.000000	4.321006
2361.000000	4.321817
2360.000000	4.307316
2359.000000	4.296566
2358.000000	4.290380
2357.000000	4.283586
2356.000000	4.279732
2355.000000	4.285107
2354.000000	4.285614
2353.000000	4.278008
2352.000000	4.278008
2351.000000	4.296262
2350.000000	4.302651
2349.000000	4.293321
2348.000000	4.281456
2347.000000	4.288048
2346.000000	4.290380
2345.000000	4.301028
2344.000000	4.307214
2343.000000	4.294639
2342.000000	4.288758
2341.000000	4.316240
2340.000000	4.314719
2339.000000	4.301333
2338.000000	4.295552
2337.000000	4.301637
2336.000000	4.302854
2335.000000	4.288048
2334.000000	4.275371
2333.000000	4.275473
2332.000000	4.282876
2331.000000	4.271112
2330.000000	4.273952
2329.000000	4.251743
2328.000000	4.239878
2327.000000	4.241906
2326.000000	4.223348
2325.000000	4.183392
2324.000000	4.173454
2323.000000	4.179031
2322.000000	4.168586
2321.000000	4.138264
2320.000000	4.140090
2319.000000	4.128732
2318.000000	4.120720
2317.000000	4.097497
2316.000000	4.081880
2315.000000	4.053891
2314.000000	4.047603
2313.000000	4.043040
2312.000000	4.029451
2311.000000	4.007343
2310.000000	3.984019
2309.000000	3.979252
2308.000000	3.980672
2307.000000	3.951871
2306.000000	3.944367
2305.000000	3.940006
2304.000000	3.940615
2303.000000	3.934125
2302.000000	3.924693
2301.000000	3.921955
2300.000000	3.894270
2299.000000	3.910090
2298.000000	3.891938
2297.000000	3.891532
2296.000000	3.903194
2295.000000	3.891329
2294.000000	3.885853
2293.000000	3.859892
2292.000000	3.864861
2291.000000	3.840421
2290.000000	3.834539
2289.000000	3.812128
2288.000000	3.801885
2287.000000	3.790020
2286.000000	3.772375
2285.000000	3.765681
2284.000000	3.736070
2283.000000	3.724002
2282.000000	3.716295
2281.000000	3.701590
2280.000000	3.674513
2279.000000	3.655042
2278.000000	3.643279
2277.000000	3.634760
2276.000000	3.613667
2275.000000	3.596021
2274.000000	3.553632
2273.000000	3.567221
2272.000000	3.548054
2271.000000	3.514284
2270.000000	3.507896
2269.000000	3.497349
2268.000000	3.467331
2267.000000	3.477270
2266.000000	3.463883
2265.000000	3.470678
2264.000000	3.446846
2263.000000	3.456785
2262.000000	3.431939
2261.000000	3.427578
2260.000000	3.429708
2259.000000	3.428288
2258.000000	3.433257
2257.000000	3.439241
2256.000000	3.450092
2255.000000	3.477270
2254.000000	3.462058
2253.000000	3.504549
2252.000000	3.488526
2251.000000	3.516313
2250.000000	3.519862
2249.000000	3.539637
2248.000000	3.523919
2247.000000	3.545012
2246.000000	3.555356
2245.000000	3.574015
2244.000000	3.582838
2243.000000	3.611842
2242.000000	3.631211
2241.000000	3.643380
2240.000000	3.615695
2239.000000	3.663155
2238.000000	3.666299
2237.000000	3.665285
2236.000000	3.669950
2235.000000	3.695100
2234.000000	3.714571
2233.000000	3.705545
2232.000000	3.695404
2231.000000	3.708182
2230.000000	3.713556
2229.000000	3.709399
2228.000000	3.676542
2227.000000	3.684350
2226.000000	3.661533
2225.000000	3.662851
2224.000000	3.662445
2223.000000	3.649668
2222.000000	3.606771
2221.000000	3.605554
2220.000000	3.577768
2219.000000	3.581114
2218.000000	3.530814
2217.000000	3.522195
2216.000000	3.552516
2215.000000	3.529090
2214.000000	3.498464
2213.000000	3.504143
2212.000000	3.490453
2211.000000	3.497450
2210.000000	3.509214
2209.000000	3.515197
2208.000000	3.552415
2207.000000	3.571582
2206.000000	3.604337
2205.000000	3.650479
2204.000000	3.679787
2203.000000	3.734853
2202.000000	3.782718
2201.000000	3.836466
2200.000000	3.902992
2199.000000	3.962824
2198.000000	4.035231
2197.000000	4.091210
2196.000000	4.153273
2195.000000	4.221218
2194.000000	4.298392
2193.000000	4.364309
2192.000000	4.416332
2191.000000	4.457505
2190.000000	4.495331
2189.000000	4.538836
2188.000000	4.604043
2187.000000	4.632438
2186.000000	4.658602
2185.000000	4.719753
2184.000000	4.755551
2183.000000	4.781918
2182.000000	4.804735
2181.000000	4.814065
2180.000000	4.827045
2179.000000	4.857266
2178.000000	4.885356
2177.000000	4.913346
2176.000000	4.925312
2175.000000	4.920242
2174.000000	4.932817
2173.000000	4.953809
2172.000000	4.987578
2171.000000	5.006238
2170.000000	5.010294
2169.000000	5.017393
2168.000000	5.054408
2167.000000	5.065766
2166.000000	5.074082
2165.000000	5.095074
2164.000000	5.101057
2163.000000	5.126917
2162.000000	5.135638
2161.000000	5.148111
2160.000000	5.158050
2159.000000	5.179042
2158.000000	5.189690
2157.000000	5.213116
2156.000000	5.225183
2155.000000	5.235426
2154.000000	5.244350
2153.000000	5.262503
2152.000000	5.277106
2151.000000	5.300430
2150.000000	5.312802
2149.000000	5.322436
2148.000000	5.325681
2147.000000	5.342211
2146.000000	5.365232
2145.000000	5.371722
2144.000000	5.385818
2143.000000	5.399001
2142.000000	5.411373
2141.000000	5.409954
2140.000000	5.415633
2139.000000	5.415430
2138.000000	5.436118
2137.000000	5.437943
2136.000000	5.439464
2135.000000	5.452141
2134.000000	5.452343
2133.000000	5.447171
2132.000000	5.449200
2131.000000	5.442608
2130.000000	5.441695
2129.000000	5.440073
2128.000000	5.441492
2127.000000	5.434394
2126.000000	5.431960
2125.000000	5.431047
2124.000000	5.421920
2123.000000	5.427295
2122.000000	5.417864
2121.000000	5.403970
2120.000000	5.394134
2119.000000	5.401334
2118.000000	5.391903
2117.000000	5.373750
2116.000000	5.363812
2115.000000	5.366550
2114.000000	5.366144
2113.000000	5.350831
2112.000000	5.345051
2111.000000	5.328217
2110.000000	5.321219
2109.000000	5.316859
2108.000000	5.301850
2107.000000	5.286638
2106.000000	5.276599
2105.000000	5.265241
2104.000000	5.254694
2103.000000	5.249421
2102.000000	5.245466
2101.000000	5.240091
2100.000000	5.225691
2099.000000	5.215448
2098.000000	5.199324
2097.000000	5.196484
2096.000000	5.210986
2095.000000	5.208349
2094.000000	5.195774
2093.000000	5.179853
2092.000000	5.169915
2091.000000	5.172957
2090.000000	5.163323
2089.000000	5.150241
2088.000000	5.143447
2087.000000	5.131886
2086.000000	5.115153
2085.000000	5.116370
2084.000000	5.120426
2083.000000	5.110589
2082.000000	5.117485
2081.000000	5.120426
2080.000000	5.104201
2079.000000	5.102781
2078.000000	5.102071
2077.000000	5.094668
2076.000000	5.081586
2075.000000	5.083209
2074.000000	5.090510
2073.000000	5.082093
2072.000000	5.077428
2071.000000	5.058769
2070.000000	5.043354
2069.000000	5.058160
2068.000000	5.063738
2067.000000	5.071952
2066.000000	5.061101
2065.000000	5.067287
2064.000000	5.057755
2063.000000	5.063839
2062.000000	5.056132
2061.000000	5.059276
2060.000000	5.056031
2059.000000	5.062521
2058.000000	5.067997
2057.000000	5.065462
2056.000000	5.064346
2055.000000	5.084527
2054.000000	5.107649
2053.000000	5.119311
2052.000000	5.132697
2051.000000	5.142432
2050.000000	5.160991
2049.000000	5.182388
2048.000000	5.202873
2047.000000	5.230457
2046.000000	5.260576
2045.000000	5.282379
2044.000000	5.317366
2043.000000	5.344949
2042.000000	5.381964
2041.000000	5.427498
2040.000000	5.461369
2039.000000	5.482158
2038.000000	5.519477
2037.000000	5.555681
2036.000000	5.563591
2035.000000	5.589552
2034.000000	5.624640
2033.000000	5.666117
2032.000000	5.698467
2031.000000	5.724732
2030.000000	5.764384
2029.000000	5.794097
2028.000000	5.826244
2027.000000	5.857175
2026.000000	5.879789
2025.000000	5.903215
2024.000000	5.918528
2023.000000	5.950270
2022.000000	5.987690
2021.000000	5.999454
2020.000000	6.020750
2019.000000	6.042350
2018.000000	6.060402
2017.000000	6.097822
2016.000000	6.108369
2015.000000	6.138691
2014.000000	6.164043
2013.000000	6.159480
2012.000000	6.189802
2011.000000	6.213734
2010.000000	6.213937
2009.000000	6.221137
2008.000000	6.229960
2007.000000	6.262107
2006.000000	6.265150
2005.000000	6.245577
2004.000000	6.251662
2003.000000	6.258964
2002.000000	6.275392
2001.000000	6.262513
2000.000000	6.248315
1999.000000	6.244158
1998.000000	6.246997
1997.000000	6.247403
1996.000000	6.241724
1995.000000	6.225904
1994.000000	6.218906
1993.000000	6.198320
1992.000000	6.184731
1991.000000	6.181790
1990.000000	6.156235
1989.000000	6.122972
1988.000000	6.122059
1987.000000	6.105834
1986.000000	6.107760
1985.000000	6.102588
1984.000000	6.068717
1983.000000	6.057866
1982.000000	6.025922
1981.000000	6.027849
1980.000000	5.987082
1979.000000	5.970957
1978.000000	5.952095
1977.000000	5.928061
1976.000000	5.907373
1975.000000	5.883136
1974.000000	5.867417
1973.000000	5.850786
1972.000000	5.823709
1971.000000	5.818740
1970.000000	5.804441
1969.000000	5.789939
1968.000000	5.757691
1967.000000	5.709217
1966.000000	5.731527
1965.000000	5.706073
1964.000000	5.692281
1963.000000	5.649993
1962.000000	5.627277
1961.000000	5.630826
1960.000000	5.613890
1959.000000	5.581743
1958.000000	5.568053
1957.000000	5.562780
1956.000000	5.549292
1955.000000	5.515826
1954.000000	5.517652
1953.000000	5.492401
1952.000000	5.452952
1951.000000	5.453662
1950.000000	5.443419
1949.000000	5.433177
1948.000000	5.391801
1947.000000	5.404883
1946.000000	5.366854
1945.000000	5.366043
1944.000000	5.366449
1943.000000	5.339068
1942.000000	5.339879
1941.000000	5.334606
1940.000000	5.312295
1939.000000	5.318177
1938.000000	5.294447
1937.000000	5.305501
1936.000000	5.317264
1935.000000	5.304689
1934.000000	5.310267
1933.000000	5.310166
1932.000000	5.321118
1931.000000	5.354482
1930.000000	5.334504
1929.000000	5.358234
1928.000000	5.371113
1927.000000	5.388455
1926.000000	5.405694
1925.000000	5.424962
1924.000000	5.467048
1923.000000	5.469076
1922.000000	5.496153
1921.000000	5.520593
1920.000000	5.565720
1919.000000	5.576673
1918.000000	5.626465
1917.000000	5.683255
1916.000000	5.712056
1915.000000	5.747347
1914.000000	5.816915
1913.000000	5.863259
1912.000000	5.909908
1911.000000	5.949864
1910.000000	6.023691
1909.000000	6.076526
1908.000000	6.151367
1907.000000	6.227831
1906.000000	6.301860
1905.000000	6.368690
1904.000000	6.426190
1903.000000	6.513910
1902.000000	6.609135
1901.000000	6.709734
1900.000000	6.784372
1899.000000	6.862458
1898.000000	6.947339
1897.000000	7.063556
1896.000000	7.143569
1895.000000	7.242647
1894.000000	7.342435
1893.000000	7.449829
1892.000000	7.546879
1891.000000	7.655490
1890.000000	7.775864
1889.000000	7.874841
1888.000000	8.015700
1887.000000	8.156255
1886.000000	8.298332
1885.000000	8.490099
1884.000000	8.697991
1883.000000	8.940870
1882.000000	9.213259
1881.000000	9.499946
1880.000000	9.779536
1879.000000	10.032961
1878.000000	10.320257
1877.000000	10.590821
1876.000000	10.853677
1875.000000	11.081344
1874.000000	11.296436
1873.000000	11.515382
1872.000000	11.708062
1871.000000	11.882488
1870.000000	12.033793
1869.000000	12.169784
1868.000000	12.287725
1867.000000	12.385485
1866.000000	12.453227
1865.000000	12.526243
1864.000000	12.572081
1863.000000	12.609501
1862.000000	12.642561
1861.000000	12.665277
1860.000000	12.685458
1859.000000	12.679373
1858.000000	12.659801
1857.000000	12.650065
1856.000000	12.631304
1855.000000	12.614166
1854.000000	12.561128
1853.000000	12.488620
1852.000000	12.428483
1851.000000	12.389034
1850.000000	12.349687
1849.000000	12.302125
1848.000000	12.220388
1847.000000	12.153964
1846.000000	12.091394
1845.000000	12.032272
1844.000000	11.993533
1843.000000	11.962298
1842.000000	11.954997
1841.000000	11.918083
1840.000000	11.862409
1839.000000	11.819106
1838.000000	11.776514
1837.000000	11.736862
1836.000000	11.679870
1835.000000	11.623283
1834.000000	11.562335
1833.000000	11.495607
1832.000000	11.434862
1831.000000	11.379998
1830.000000	11.318239
1829.000000	11.233156
1828.000000	11.158010
1827.000000	11.098077
1826.000000	11.026684
1825.000000	10.972125
1824.000000	10.933589
1823.000000	10.910467
1822.000000	10.888258
1821.000000	10.858849
1820.000000	10.817068
1819.000000	10.786949
1818.000000	10.761495
1817.000000	10.746587
1816.000000	10.753179
1815.000000	10.742227
1814.000000	10.720626
1813.000000	10.702474
1812.000000	10.693955
1811.000000	10.679859
1810.000000	10.649842
1809.000000	10.607756
1808.000000	10.565874
1807.000000	10.535653
1806.000000	10.483123
1805.000000	10.436474
1804.000000	10.396417
1803.000000	10.350477
1802.000000	10.312043
1801.000000	10.279084
1800.000000	10.237506
1799.000000	10.192277
1798.000000	10.144817
1797.000000	10.111757
1796.000000	10.081841
1795.000000	10.046550
1794.000000	9.989963
1793.000000	9.938953
1792.000000	9.909848
1791.000000	9.853565
1790.000000	9.803773
1789.000000	9.768989
1788.000000	9.701551
1787.000000	9.653989
1786.000000	9.596185
1785.000000	9.541221
1784.000000	9.460802
1783.000000	9.417804
1782.000000	9.369431
1781.000000	9.309396
1780.000000	9.251490
1779.000000	9.192368
1778.000000	9.118845
1777.000000	9.052827
1776.000000	8.987011
1775.000000	8.911359
1774.000000	8.826681
1773.000000	8.739671
1772.000000	8.656818
1771.000000	8.583194
1770.000000	8.511801
1769.000000	8.434729
1768.000000	8.365263
1767.000000	8.319628
1766.000000	8.272168
1765.000000	8.232313
1764.000000	8.204425
1763.000000	8.205034
1762.000000	8.218319
1761.000000	8.241136
1760.000000	8.278354
1759.000000	8.316890
1758.000000	8.366581
1757.000000	8.421444
1756.000000	8.461907
1755.000000	8.476916
1754.000000	8.506832
1753.000000	8.512612
1752.000000	8.515553
1751.000000	8.495575
1750.000000	8.460893
1749.000000	8.447203
1748.000000	8.427326
1747.000000	8.390717
1746.000000	8.337679
1745.000000	8.265272
1744.000000	8.179174
1743.000000	8.075025
1742.000000	7.996736
1741.000000	7.880520
1740.000000	7.752844
1739.000000	7.645450
1738.000000	7.557020
1737.000000	7.475689
1736.000000	7.413321
1735.000000	7.378841
1734.000000	7.376509
1733.000000	7.386549
1732.000000	7.405005
1731.000000	7.459159
1730.000000	7.489683
1729.000000	7.581865
1728.000000	7.642813
1727.000000	7.695547
1726.000000	7.760855
1725.000000	7.796450
1724.000000	7.812879
1723.000000	7.832958
1722.000000	7.841172
1721.000000	7.831437
1720.000000	7.833465
1719.000000	7.847156
1718.000000	7.839043
1717.000000	7.854153
1716.000000	7.878390
1715.000000	7.889647
1714.000000	7.917940
1713.000000	7.941265
1712.000000	7.949783
1711.000000	7.963778
1710.000000	7.973716
1709.000000	7.959214
1708.000000	7.917433
1707.000000	7.920881
1706.000000	7.899788
1705.000000	7.871291
1704.000000	7.836710
1703.000000	7.782253
1702.000000	7.726781
1701.000000	7.678206
1700.000000	7.581156
1699.000000	7.485424
1698.000000	7.445772
1697.000000	7.356531
1696.000000	7.308868
1695.000000	7.319313
1694.000000	7.339291
1693.000000	7.367788
1692.000000	7.415755
1691.000000	7.524264
1690.000000	7.562192
1689.000000	7.612694
1688.000000	7.668065
1687.000000	7.629731
1686.000000	7.622734
1685.000000	7.621111
1684.000000	7.644740
1683.000000	7.717350
1682.000000	7.861049
1681.000000	8.092265
1680.000000	8.364147
1679.000000	8.693225
1678.000000	9.025750
1677.000000	9.321464
1676.000000	9.622349
1675.000000	9.876383
1674.000000	10.097052
1673.000000	10.297237
1672.000000	10.454626
1671.000000	10.633616
1670.000000	10.724480
1669.000000	10.865441
1668.000000	10.972328
1667.000000	11.059845
1666.000000	11.128500
1665.000000	11.168050
1664.000000	11.228795
1663.000000	11.277675
1662.000000	11.308301
1661.000000	11.323817
1660.000000	11.360020
1659.000000	11.361440
1658.000000	11.378781
1657.000000	11.412247
1656.000000	11.418940
1655.000000	11.421678
1654.000000	11.399064
1653.000000	11.400280
1652.000000	11.410726
1651.000000	11.397542
1650.000000	11.361339
1649.000000	11.315603
1648.000000	11.291264
1647.000000	11.260841
1646.000000	11.234981
1645.000000	11.207296
1644.000000	11.167949
1643.000000	11.142799
1642.000000	11.109232
1641.000000	11.068871
1640.000000	11.037129
1639.000000	10.992407
1638.000000	10.955088
1637.000000	10.907830
1636.000000	10.878928
1635.000000	10.823761
1634.000000	10.805913
1633.000000	10.746587
1632.000000	10.699229
1631.000000	10.665865
1630.000000	10.641120
1629.000000	10.577333
1628.000000	10.530279
1627.000000	10.505636
1626.000000	10.447426
1625.000000	10.408282
1624.000000	10.365486
1623.000000	10.315896
1622.000000	10.260830
1621.000000	10.214587
1620.000000	10.170169
1619.000000	10.130923
1618.000000	10.086303
1617.000000	10.049592
1616.000000	10.005073
1615.000000	9.968565
1614.000000	9.931043
1613.000000	9.894028
1612.000000	9.854377
1611.000000	9.801237
1610.000000	9.762397
1609.000000	9.729844
1608.000000	9.706520
1607.000000	9.673866
1606.000000	9.640502
1605.000000	9.596489
1604.000000	9.552984
1603.000000	9.510290
1602.000000	9.491124
1601.000000	9.448531
1600.000000	9.403505
1599.000000	9.358681
1598.000000	9.320348
1597.000000	9.281305
1596.000000	9.249868
1595.000000	9.222487
1594.000000	9.183444
1593.000000	9.156063
1592.000000	9.138215
1591.000000	9.112456
1590.000000	9.061751
1589.000000	9.045830
1588.000000	9.027576
1587.000000	8.995023
1586.000000	8.968656
1585.000000	8.956385
1584.000000	8.941072
1583.000000	8.923123
1582.000000	8.909027
1581.000000	8.897162
1580.000000	8.895945
1579.000000	8.875865
1578.000000	8.860857
1577.000000	8.851527
1576.000000	8.851223
1575.000000	8.852642
1574.000000	8.848991
1573.000000	8.848586
1572.000000	8.852135
1571.000000	8.844124
1570.000000	8.850614
1569.000000	8.872620
1568.000000	8.881037
1567.000000	8.892801
1566.000000	8.901015
1565.000000	8.914097
1564.000000	8.940160
1563.000000	8.953647
1562.000000	8.970380
1561.000000	9.000702
1560.000000	9.014494
1559.000000	9.025750
1558.000000	9.040049
1557.000000	9.038731
1556.000000	9.051914
1555.000000	9.068546
1554.000000	9.085075
1553.000000	9.111442
1552.000000	9.137505
1551.000000	9.134057
1550.000000	9.131217
1549.000000	9.137606
1548.000000	9.147747
1547.000000	9.160525
1546.000000	9.159511
1545.000000	9.173607
1544.000000	9.190340
1543.000000	9.193483
1542.000000	9.215185
1541.000000	9.239118
1540.000000	9.254026
1539.000000	9.273395
1538.000000	9.285564
1537.000000	9.290128
1536.000000	9.286578
1535.000000	9.304224
1534.000000	9.322681
1533.000000	9.329171
1532.000000	9.339616
1531.000000	9.337588
1530.000000	9.361521
1529.000000	9.375820
1528.000000	9.363346
1527.000000	9.357566
1526.000000	9.360101
1525.000000	9.376428
1524.000000	9.386772
1523.000000	9.389409
1522.000000	9.378558
1521.000000	9.385758
1520.000000	9.382006
1519.000000	9.374096
1518.000000	9.362231
1517.000000	9.360912
1516.000000	9.362839
1515.000000	9.356045
1514.000000	9.333024
1513.000000	9.335661
1512.000000	9.330692
1511.000000	9.310207
1510.000000	9.304630
1509.000000	9.300979
1508.000000	9.311120
1507.000000	9.296618
1506.000000	9.289114
1505.000000	9.270048
1504.000000	9.260820
1503.000000	9.249056
1502.000000	9.229991
1501.000000	9.218938
1500.000000	9.206363
1499.000000	9.192571
1498.000000	9.185168
1497.000000	9.178880
1496.000000	9.182125
1495.000000	9.162959
1494.000000	9.146835
1493.000000	9.140750
1492.000000	9.153629
1491.000000	9.152006
1490.000000	9.157584
1489.000000	9.157381
1488.000000	9.156773
1487.000000	9.142068
1486.000000	9.145820
1485.000000	9.128378
1484.000000	9.151297
1483.000000	9.156570
1482.000000	9.157280
1481.000000	9.157178
1480.000000	9.159612
1479.000000	9.171477
1478.000000	9.193483
1477.000000	9.192875
1476.000000	9.198554
1475.000000	9.212751
1474.000000	9.240437
1473.000000	9.264471
1472.000000	9.271063
1471.000000	9.300979
1470.000000	9.305948
1469.000000	9.294488
1468.000000	9.335053
1467.000000	9.363143
1466.000000	9.398941
1465.000000	9.415776
1464.000000	9.442244
1463.000000	9.457455
1462.000000	9.493355
1461.000000	9.554607
1460.000000	9.603487
1459.000000	9.645166
1458.000000	9.706418
1457.000000	9.738261
1456.000000	9.779536
1455.000000	9.877397
1454.000000	9.895448
1453.000000	9.985399
1452.000000	10.043710
1451.000000	10.137819
1450.000000	10.181122
1449.000000	10.284662
1448.000000	10.329080
1447.000000	10.423189
1446.000000	10.511315
1445.000000	10.595384
1444.000000	10.685335
1443.000000	10.726204
1442.000000	10.846781
1441.000000	10.937848
1440.000000	11.016441
1439.000000	11.098685
1438.000000	11.203240
1437.000000	11.279298
1436.000000	11.348561
1435.000000	11.423402
1434.000000	11.546515
1433.000000	11.729561
1432.000000	11.822656
1431.000000	11.905813
1430.000000	11.990490
1429.000000	12.107214
1428.000000	12.212377
1427.000000	12.323726
1426.000000	12.435176
1425.000000	12.600374
1424.000000	12.747318
1423.000000	12.888177
1422.000000	12.982692
1421.000000	13.123856
1420.000000	13.278608
1419.000000	13.428595
1418.000000	13.539944
1417.000000	13.655552
1416.000000	13.800468
1415.000000	13.935749
1414.000000	14.084012
1413.000000	14.170515
1412.000000	14.283284
1411.000000	14.426983
1410.000000	14.577679
1409.000000	14.776951
1408.000000	14.992144
1407.000000	15.223462
1406.000000	15.460154
1405.000000	15.720475
1404.000000	15.942260
1403.000000	16.198018
1402.000000	16.446576
1401.000000	16.707404
1400.000000	16.913876
1399.000000	17.065079
1398.000000	17.163650
1397.000000	17.295078
1396.000000	17.393041
1395.000000	17.424783
1394.000000	17.429448
1393.000000	17.442124
1392.000000	17.471330
1391.000000	17.509258
1390.000000	17.553878
1389.000000	17.649813
1388.000000	17.793715
1387.000000	17.913886
1386.000000	18.122691
1385.000000	18.399136
1384.000000	18.719492
1383.000000	19.073010
1382.000000	19.411012
1381.000000	19.686240
1380.000000	19.873647
1379.000000	20.101415
1378.000000	20.342063
1377.000000	20.587578
1376.000000	20.889275
1375.000000	21.251513
1374.000000	21.724797
1373.000000	22.226374
1372.000000	22.762532
1371.000000	23.303152
1370.000000	23.771568
1369.000000	24.190800
1368.000000	24.584780
1367.000000	24.927852
1366.000000	25.211700
1365.000000	25.472529
1364.000000	25.724331
1363.000000	25.932730
1362.000000	26.108779
1361.000000	26.237571
1360.000000	26.321741
1359.000000	26.393844
1358.000000	26.520811
1357.000000	26.731542
1356.000000	27.077758
1355.000000	27.583695
1354.000000	28.253513
1353.000000	28.962880
1352.000000	29.713420
1351.000000	30.465685
1350.000000	31.161362
1349.000000	31.772868
1348.000000	32.365207
1347.000000	32.927428
1346.000000	33.401320
1345.000000	33.890525
1344.000000	34.368676
1343.000000	34.794094
1342.000000	35.195071
1341.000000	35.608421
1340.000000	36.010312
1339.000000	36.394658
1338.000000	36.742294
1337.000000	37.098448
1336.000000	37.442027
1335.000000	37.769178
1334.000000	38.076959
1333.000000	38.375005
1332.000000	38.669096
1331.000000	38.946860
1330.000000	39.210730
1329.000000	39.436775
1328.000000	39.665354
1327.000000	39.881359
1326.000000	40.096552
1325.000000	40.303937
1324.000000	40.482318
1323.000000	40.666784
1322.000000	40.834213
1321.000000	40.996876
1320.000000	41.141995
1319.000000	41.278189
1318.000000	41.418643
1317.000000	41.546319
1316.000000	41.660913
1315.000000	41.795992
1314.000000	41.915859
1313.000000	42.013720
1312.000000	42.103570
1311.000000	42.202141
1310.000000	42.290166
1309.000000	42.368353
1308.000000	42.439645
1307.000000	42.494711
1306.000000	42.538622
1305.000000	42.571479
1304.000000	42.602105
1303.000000	42.621880
1302.000000	42.623198
1301.000000	42.629486
1300.000000	42.636179
1299.000000	42.626545
1298.000000	42.611333
1297.000000	42.601699
1296.000000	42.594094
1295.000000	42.582026
1294.000000	42.563265
1293.000000	42.535174
1292.000000	42.502520
1291.000000	42.450902
1290.000000	42.403543
1289.000000	42.343913
1288.000000	42.259540
1287.000000	42.177600
1286.000000	42.098094
1285.000000	41.994959
1284.000000	41.881988
1283.000000	41.785546
1282.000000	41.680079
1281.000000	41.560719
1280.000000	41.446531
1279.000000	41.335283
1278.000000	41.224239
1277.000000	41.127493
1276.000000	41.032877
1275.000000	40.934610
1274.000000	40.848106
1273.000000	40.754403
1272.000000	40.667596
1271.000000	40.589104
1270.000000	40.496212
1269.000000	40.403624
1268.000000	40.318439
1267.000000	40.218651
1266.000000	40.126063
1265.000000	40.025565
1264.000000	39.927805
1263.000000	39.826394
1262.000000	39.711902
1261.000000	39.621748
1260.000000	39.539098
1259.000000	39.449958
1258.000000	39.359094
1257.000000	39.247035
1256.000000	39.135281
1255.000000	39.017847
1254.000000	38.894937
1253.000000	38.770811
1252.000000	38.659563
1251.000000	38.541420
1250.000000	38.427232
1249.000000	38.287183
1248.000000	38.138110
1247.000000	37.966320
1246.000000	37.795849
1245.000000	37.622132
1244.000000	37.428641
1243.000000	37.237989
1242.000000	37.039731
1241.000000	36.815918
1240.000000	36.588555
1239.000000	36.385024
1238.000000	36.164354
1237.000000	35.942062
1236.000000	35.698677
1235.000000	35.467765
1234.000000	35.225697
1233.000000	34.975619
1232.000000	34.731726
1231.000000	34.478402
1230.000000	34.229439
1229.000000	33.976521
1228.000000	33.730499
1227.000000	33.501209
1226.000000	33.244641
1225.000000	32.986550
1224.000000	32.764360
1223.000000	32.536186
1222.000000	32.308417
1221.000000	32.068378
1220.000000	31.852272
1219.000000	31.653812
1218.000000	31.462450
1217.000000	31.284474
1216.000000	31.119175
1215.000000	30.976794
1214.000000	30.838774
1213.000000	30.705217
1212.000000	30.555940
1211.000000	30.439825
1210.000000	30.319146
1209.000000	30.210130
1208.000000	30.122410
1207.000000	30.064098
1206.000000	30.017551
1205.000000	29.998993
1204.000000	29.970598
1203.000000	29.995849
1202.000000	29.985708
1201.000000	29.955792
1200.000000	29.894438
1199.000000	29.829434
1198.000000	29.712609
1197.000000	29.548932
1196.000000	29.315891
1195.000000	28.994013
1194.000000	28.567379
1193.000000	28.086794
1192.000000	27.499727
1191.000000	26.887917
1190.000000	26.316569
1189.000000	25.801606
1188.000000	25.423547
1187.000000	25.206934
1186.000000	25.133209
1185.000000	25.229042
1184.000000	25.473847
1183.000000	25.947739
1182.000000	26.502962
1181.000000	27.147833
1180.000000	27.825357
1179.000000	28.468706
1178.000000	29.052933
1177.000000	29.590612
1176.000000	30.046960
1175.000000	30.474710
1174.000000	30.897694
1173.000000	31.326762
1172.000000	31.816880
1171.000000	32.282355
1170.000000	32.779673
1169.000000	33.328913
1168.000000	33.855538
1167.000000	34.374964
1166.000000	34.889420
1165.000000	35.442108
1164.000000	36.003416
1163.000000	36.596769
1162.000000	37.185357
1161.000000	37.769482
1160.000000	38.282519
1159.000000	38.860356
1158.000000	39.368728
1157.000000	39.849110
1156.000000	40.276860
1155.000000	40.577036
1154.000000	40.803182
1153.000000	40.941404
1152.000000	40.997383
1151.000000	40.976594
1150.000000	40.969394
1149.000000	40.928119
1148.000000	40.919702
1147.000000	40.998701
1146.000000	41.156293
1145.000000	41.445314
1144.000000	41.891115
1143.000000	42.406382
1142.000000	42.969414
1141.000000	43.533866
1140.000000	44.150646
1139.000000	44.760428
1138.000000	45.400532
1137.000000	46.053819
1136.000000	46.734285
1135.000000	47.384732
1134.000000	48.022301
1133.000000	48.563226
1132.000000	49.089952
1131.000000	49.607451
1130.000000	50.073534
1129.000000	50.444900
1128.000000	50.764141
1127.000000	51.011684
1126.000000	51.200714
1125.000000	51.356480
1124.000000	51.512450
1123.000000	51.636779
1122.000000	51.770134
1121.000000	51.874182
1120.000000	51.974578
1119.000000	52.034715
1118.000000	52.090491
1117.000000	52.125579
1116.000000	52.138559
1115.000000	52.137647
1114.000000	52.131156
1113.000000	52.136734
1112.000000	52.140892
1111.000000	52.137139
1110.000000	52.136531
1109.000000	52.141703
1108.000000	52.136531
1107.000000	52.128317
1106.000000	52.111178
1105.000000	52.094040
1104.000000	52.088158
1103.000000	52.073149
1102.000000	52.055504
1101.000000	52.050332
1100.000000	52.032179
1099.000000	51.985429
1098.000000	51.953688
1097.000000	51.915253
1096.000000	51.869720
1095.000000	51.834632
1094.000000	51.779566
1093.000000	51.736466
1092.000000	51.710099
1091.000000	51.646515
1090.000000	51.579685
1089.000000	51.520563
1088.000000	51.477666
1087.000000	51.419152
1086.000000	51.367027
1085.000000	51.312367
1084.000000	51.251216
1083.000000	51.196556
1082.000000	51.142402
1081.000000	51.093928
1080.000000	51.053972
1079.000000	51.010569
1078.000000	50.955807
1077.000000	50.916764
1076.000000	50.867681
1075.000000	50.831782
1074.000000	50.791217
1073.000000	50.750045
1072.000000	50.710190
1071.000000	50.665772
1070.000000	50.609794
1069.000000	50.567607
1068.000000	50.520350
1067.000000	50.468630
1066.000000	50.419446
1065.000000	50.376448
1064.000000	50.312965
1063.000000	50.249076
1062.000000	50.197052
1061.000000	50.130933
1060.000000	50.048891
1059.000000	49.980541
1058.000000	49.900426
1057.000000	49.812300
1056.000000	49.715149
1055.000000	49.639294
1054.000000	49.550762
1053.000000	49.473487
1052.000000	49.388810
1051.000000	49.313867
1050.000000	49.253933
1049.000000	49.204344
1048.000000	49.147351
1047.000000	49.087823
1046.000000	49.044115
1045.000000	49.006289
1044.000000	48.946659
1043.000000	48.897881
1042.000000	48.866950
1041.000000	48.842713
1040.000000	48.806915
1039.000000	48.761788
1038.000000	48.721223
1037.000000	48.681876
1036.000000	48.647599
1035.000000	48.608556
1034.000000	48.572860
1033.000000	48.528442
1032.000000	48.475607
1031.000000	48.432406
1030.000000	48.384743
1029.000000	48.345294
1028.000000	48.299761
1027.000000	48.246520
1026.000000	48.185268
1025.000000	48.121481
1024.000000	48.073716
1023.000000	48.019969
1022.000000	47.968756
1021.000000	47.919674
1020.000000	47.860855
1019.000000	47.821711
1018.000000	47.792099
1017.000000	47.761879
1016.000000	47.734701
1015.000000	47.710565
1014.000000	47.700018
1013.000000	47.709449
1012.000000	47.738960
1011.000000	47.780133
1010.000000	47.838849
1009.000000	47.906592
1008.000000	47.983664
1007.000000	48.052014
1006.000000	48.114179
1005.000000	48.201494
1004.000000	48.278769
1003.000000	48.344787
1002.000000	48.402388
1001.000000	48.469319
1000.000000	48.548927
999.000000	48.617480
998.000000	48.674676
997.000000	48.748097
996.000000	48.832471
995.000000	48.891289
994.000000	48.980936
993.000000	49.060746
992.000000	49.141976
991.000000	49.218643
990.000000	49.289326
989.000000	49.376843
988.000000	49.474806
987.000000	49.558672
986.000000	49.641322
985.000000	49.746485
984.000000	49.842115
983.000000	49.933182
982.000000	50.049196
981.000000	50.136409
980.000000	50.237110
979.000000	50.322295
978.000000	50.395310
977.000000	50.463560
976.000000	50.530795
975.000000	50.610098
974.000000	50.660803
973.000000	50.735543
972.000000	50.818801
971.000000	50.901856
970.000000	50.964123
969.000000	51.065229
968.000000	51.168769
967.000000	51.265515
966.000000	51.371489
965.000000	51.460122
964.000000	51.576136
963.000000	51.702493
962.000000	51.846902
961.000000	51.977418
960.000000	52.138255
959.000000	52.287329
958.000000	52.430723
957.000000	52.563166
956.000000	52.678672
955.000000	52.807464
954.000000	52.912221
953.000000	53.009474
952.000000	53.131978
951.000000	53.214425
950.000000	53.304782
949.000000	53.401629
948.000000	53.494927
947.000000	53.589543
946.000000	53.671584
945.000000	53.751090
944.000000	53.823396
943.000000	53.886879
942.000000	53.955838
941.000000	54.016583
940.000000	54.111909
939.000000	54.187764
938.000000	54.246379
937.000000	54.291102
936.000000	54.353368
935.000000	54.429324
934.000000	54.484390
933.000000	54.540673
932.000000	54.616326
931.000000	54.694716
930.000000	54.741061
929.000000	54.816104
928.000000	54.879385
927.000000	54.945200
926.000000	55.027343
925.000000	55.070645
924.000000	55.183414
923.000000	55.217589
922.000000	55.282695
921.000000	55.346584
920.000000	55.426394
919.000000	55.477302
918.000000	55.555287
917.000000	55.644224
916.000000	55.681036
915.000000	55.725454
914.000000	55.768148
913.000000	55.829400
912.000000	55.912354
911.000000	55.993583
910.000000	56.062644
909.000000	56.173993
908.000000	56.273578
907.000000	56.449830
906.000000	56.552762
905.000000	56.706399
904.000000	56.885287
903.000000	57.042879
902.000000	57.225824
901.000000	57.402583
900.000000	57.606317
899.000000	57.781048
898.000000	57.968049
897.000000	58.133754
896.000000	58.330592
895.000000	58.500556
894.000000	58.658452
893.000000	58.790996
892.000000	58.912385
891.000000	59.068253
890.000000	59.156886
889.000000	59.250082
888.000000	59.370457
887.000000	59.470143
886.000000	59.535147
885.000000	59.592952
884.000000	59.629459
883.000000	59.694159
882.000000	59.717585
881.000000	59.771840
880.000000	59.778330
879.000000	59.822444
878.000000	59.848608
877.000000	59.845058
876.000000	59.892620
875.000000	59.922638
874.000000	59.956204
873.000000	59.990887
872.000000	60.054167
871.000000	60.101932
870.000000	60.154665
869.000000	60.194621
868.000000	60.291772
867.000000	60.359413
866.000000	60.442671
865.000000	60.501591
864.000000	60.578866
863.000000	60.631498
862.000000	60.688491
861.000000	60.686564
860.000000	60.682812
859.000000	60.675003
858.000000	60.835333
857.000000	60.826800
856.000000	61.022500
855.000000	60.656700
854.000000	61.107600
853.000000	61.204900
852.000000	61.194200
851.000000	61.125800
850.000000	61.043100
849.000000	61.356000
848.000000	61.815700
847.000000	61.702300
846.000000	61.665400
845.000000	61.684700
844.000000	61.633300
843.000000	61.519700
842.000000	61.485300
841.000000	61.492300
840.000000	61.500600
839.000000	61.219100
838.000000	61.205100
837.000000	60.999100
836.000000	60.932600
835.000000	60.879800
834.000000	60.944000
833.000000	60.810600
832.000000	60.757800
831.000000	60.766200
830.000000	60.635900
829.000000	60.629500
828.000000	60.759300
827.000000	60.618000
826.000000	60.783900
825.000000	61.035100
824.000000	61.123700
823.000000	61.083900
822.000000	61.102900
821.000000	61.277700
820.000000	61.516700
819.000000	61.657000
818.000000	61.771300
817.000000	61.751100
816.000000	61.842800
815.000000	61.909700
814.000000	62.110300
813.000000	62.322400
812.000000	62.389100
811.000000	62.497300
810.000000	62.525100
809.000000	62.663800
808.000000	62.829900
807.000000	62.972600
806.000000	63.062500
805.000000	63.151500
804.000000	63.284400
803.000000	63.552000
802.000000	63.748600
801.000000	63.903100
800.000000	64.075200
799.000000	64.294800
798.000000	64.567800
797.000000	64.837500
796.000000	65.084700
795.000000	65.390300
794.000000	65.688700
793.000000	65.887000
792.000000	66.092400
791.000000	66.350900
790.000000	66.460300
789.000000	66.590600
788.000000	66.632100
787.000000	66.742000
786.000000	66.851400
785.000000	66.877400
784.000000	66.859400
783.000000	66.861400
782.000000	66.831500
781.000000	66.766000
780.000000	66.753400
779.000000	66.602800
778.000000	66.383300
777.000000	66.278900
776.000000	66.194900
775.000000	66.203700
774.000000	66.137600
773.000000	66.122000
772.000000	66.208800
771.000000	66.283700
770.000000	66.235100
769.000000	66.328500
768.000000	66.549500
767.000000	66.744400
766.000000	66.894400
765.000000	67.049900
764.000000	67.296800
763.000000	67.584700
762.000000	67.823000
761.000000	68.075000
760.000000	68.274600
759.000000	68.483800
758.000000	68.650600
757.000000	68.799000
756.000000	68.973600
755.000000	69.097500
754.000000	69.190500
753.000000	69.295000
752.000000	69.328900
751.000000	69.341200
750.000000	69.377800
749.000000	69.387200
748.000000	69.443700
747.000000	69.445600
746.000000	69.322600
745.000000	69.196300
744.000000	69.123900
743.000000	69.012400
742.000000	68.919800
741.000000	68.766600
740.000000	68.658800
739.000000	68.547600
738.000000	68.397500
737.000000	68.311300
736.000000	68.271100
735.000000	68.233100
734.000000	68.135800
733.000000	68.075000
732.000000	68.008200
731.000000	67.963500
730.000000	67.900600
729.000000	67.856800
728.000000	67.792500
727.000000	67.696600
726.000000	67.555800
725.000000	67.403400
724.000000	67.283700
723.000000	67.143300
722.000000	66.905200
721.000000	66.708400
720.000000	66.509200
719.000000	66.180300
718.000000	65.922700
717.000000	65.610500
716.000000	65.292700
715.000000	65.073400
714.000000	64.790800
713.000000	64.425300
712.000000	64.108600
711.000000	63.868600
710.000000	63.578600
709.000000	63.297000
708.000000	62.998100
707.000000	62.765100
706.000000	62.597800
705.000000	62.462600
704.000000	62.345100
703.000000	62.188300
702.000000	62.095800
701.000000	62.089500
700.000000	62.065500
699.000000	62.105000
698.000000	62.110200
697.000000	62.134600
696.000000	62.162400
695.000000	62.242700
694.000000	62.241400
693.000000	62.257700
692.000000	62.270100
691.000000	62.298800
690.000000	62.299700
689.000000	62.233100
688.000000	62.214500
687.000000	62.196100
686.000000	62.173600
685.000000	62.166600
684.000000	62.134800
683.000000	62.120500
682.000000	62.110800
681.000000	62.067800
680.000000	62.013400
679.000000	61.969300
678.000000	61.916600
677.000000	61.878100
676.000000	61.741700
675.000000	61.554400
674.000000	61.425000
673.000000	61.234300
672.000000	60.977500
671.000000	60.745700
670.000000	60.435200
669.000000	60.103300
668.000000	59.781100
667.000000	59.431200
666.000000	59.043200
665.000000	58.581300
664.000000	58.070300
663.000000	57.557400
662.000000	56.971300
661.000000	56.316400
660.000000	55.691700
659.000000	54.973300
658.000000	54.212700
657.000000	53.423100
656.000000	52.570400
655.000000	51.784000
654.000000	50.952100
653.000000	50.117000
652.000000	49.334400
651.000000	48.607000
650.000000	47.940300
649.000000	47.323300
648.000000	46.850400
647.000000	46.470200
646.000000	46.168600
645.000000	46.035800
644.000000	46.005500
643.000000	46.071500
642.000000	46.295600
641.000000	46.649000
640.000000	47.120500
639.000000	47.708300
638.000000	48.439600
637.000000	49.262000
636.000000	50.134200
635.000000	51.122500
634.000000	52.207900
633.000000	53.348900
632.000000	54.487200
631.000000	55.637200
630.000000	56.809000
629.000000	58.007300
628.000000	59.133900
627.000000	60.229700
626.000000	61.275300
625.000000	62.275900
624.000000	63.182100
623.000000	64.096300
622.000000	64.918800
621.000000	65.636000
620.000000	66.362600
619.000000	67.026800
618.000000	67.605500
617.000000	68.145400
616.000000	68.657600
615.000000	69.110400
614.000000	69.505900
613.000000	69.916400
612.000000	70.239100
611.000000	70.543900
610.000000	70.865100
609.000000	71.082200
608.000000	71.336900
607.000000	71.505400
606.000000	71.770100
605.000000	71.920100
604.000000	72.088000
603.000000	72.209800
602.000000	72.358900
601.000000	72.482500
600.000000	72.592300
599.000000	72.645400
598.000000	72.767200
597.000000	72.823100
596.000000	72.845100
595.000000	72.883200
594.000000	72.862300
593.000000	72.895300
592.000000	72.841500
591.000000	72.779800
590.000000	72.691600
589.000000	72.620300
588.000000	72.513500
587.000000	72.412200
586.000000	72.259300
585.000000	72.097900
584.000000	71.987800
583.000000	71.847100
582.000000	71.754900
581.000000	71.613300
580.000000	71.405800
579.000000	71.316600
578.000000	71.134200
577.000000	70.960300
576.000000	70.819100
575.000000	70.614300
574.000000	70.435400
573.000000	70.170800
572.000000	69.945900
571.000000	69.685200
570.000000	69.385400
569.000000	69.074600
568.000000	68.681700
567.000000	68.318200
566.000000	67.873700
565.000000	67.482000
564.000000	67.021800
563.000000	66.582300
562.000000	66.083700
561.000000	65.613100
560.000000	65.081700
559.000000	64.325000
558.000000	63.814700
557.000000	63.270400
556.000000	62.735300
555.000000	62.161400
554.000000	61.577900
553.000000	60.980300
552.000000	60.385700
551.000000	59.744400
550.000000	59.101200
549.000000	58.417900
548.000000	57.701800
547.000000	56.990400
546.000000	56.212200
545.000000	55.407000
544.000000	54.547400
543.000000	53.654200
542.000000	52.695100
541.000000	51.728000
540.000000	50.710700
539.000000	49.710700
538.000000	48.626700
537.000000	47.522100
536.000000	46.361100
535.000000	45.209600
534.000000	43.973300
533.000000	42.763800
532.000000	41.513900
531.000000	40.266800
530.000000	39.055700
529.000000	37.863000
528.000000	36.686700
527.000000	35.582400
526.000000	34.571700
525.000000	33.619000
524.000000	32.727800
523.000000	31.934600
522.000000	31.222800
521.000000	30.599700
520.000000	30.057000
519.000000	29.588100
518.000000	29.190400
517.000000	28.864600
516.000000	28.570300
515.000000	28.351400
514.000000	28.179400
513.000000	28.039200
512.000000	27.920600
511.000000	27.810000
510.000000	27.707100
509.000000	27.613800
508.000000	27.499900
507.000000	27.369300
506.000000	27.204000
505.000000	27.005700
504.000000	26.784900
503.000000	26.548600
502.000000	26.283400
501.000000	25.990500
500.000000	25.686900
499.000000	25.362100
498.000000	24.999500
497.000000	24.654500
496.000000	24.274800
495.000000	23.904900
494.000000	23.555800
493.000000	23.198600
492.000000	22.859000
491.000000	22.549800
490.000000	22.278000
489.000000	22.025900
488.000000	21.826200
487.000000	21.665400
486.000000	21.516700
485.000000	21.418300
484.000000	21.351100
483.000000	21.295100
482.000000	21.271400
481.000000	21.254300
480.000000	21.268000
479.000000	21.282400
478.000000	21.298500
477.000000	21.324100
476.000000	21.367400
475.000000	21.422400
474.000000	21.460900
473.000000	21.501700
472.000000	21.542700
471.000000	21.560200
470.000000	21.565100
469.000000	21.561700
468.000000	21.556000
467.000000	21.540800
466.000000	21.503100
465.000000	21.453500
464.000000	21.398000
463.000000	21.341700
462.000000	21.263100
461.000000	21.165500
460.000000	21.047900
459.000000	20.911700
458.000000	20.788400
457.000000	20.647000
456.000000	20.485000
455.000000	20.336400
454.000000	20.161600
453.000000	19.969100
452.000000	19.778000
451.000000	19.560000
450.000000	19.345200
449.000000	19.114300
448.000000	18.864800
447.000000	18.617900
446.000000	18.366700
445.000000	18.090200
444.000000	17.795000
443.000000	17.511400
442.000000	17.199300
441.000000	16.872500
440.000000	16.547800
439.000000	16.211700
438.000000	15.867000
437.000000	15.508200
436.000000	15.141000
435.000000	14.759500
434.000000	14.373600
433.000000	13.987700
432.000000	13.617000
431.000000	13.243100
430.000000	12.844800
429.000000	12.469100
428.000000	12.104100
427.000000	11.732500
426.000000	11.353500
425.000000	10.992700
424.000000	10.641400
423.000000	10.294500
422.000000	9.956500
421.000000	9.639900
420.000000	9.342200
419.000000	9.037400
418.000000	8.757500
417.000000	8.498900
416.000000	8.254300
415.000000	8.020500
414.000000	7.790800
413.000000	7.577500
412.000000	7.395900
411.000000	7.235100
410.000000	7.062900
409.000000	6.907700
408.000000	6.782200
407.000000	6.654900
406.000000	6.538500
405.000000	6.431100
404.000000	6.336800
403.000000	6.244200
402.000000	6.173300
401.000000	6.102300
400.000000	6.027000
399.000000	5.973600
398.000000	5.920100
397.000000	5.856900
396.000000	5.807800
395.000000	5.757800
394.000000	5.719200
393.000000	5.673800
392.000000	5.644900
391.000000	5.604500
390.000000	5.564100
389.000000	5.529300
388.000000	5.497500
387.000000	5.464800
386.000000	5.445000
385.000000	5.417100
384.000000	5.369400
383.000000	5.343200
382.000000	5.314900
381.000000	5.300200
380.000000	5.291000
379.000000	5.254400
378.000000	5.238200
377.000000	5.213200
376.000000	5.249800
375.000000	5.243100
374.000000	5.237000
373.000000	5.243200
372.000000	5.182100
371.000000	5.134600
370.000000	5.140500
369.000000	5.116500
368.000000	5.111000
367.000000	5.079500
366.000000	5.071500
365.000000	5.074700
364.000000	5.090900
363.000000	5.044100
362.000000	5.025900
361.000000	4.981500
360.000000	4.952400
359.000000	4.953300
358.000000	4.918300
357.000000	4.956300
356.000000	4.962400
355.000000	4.889900
354.000000	4.888700
353.000000	4.850600
352.000000	4.891700
351.000000	4.900000
350.000000	4.851400
349.000000	4.865700
348.000000	4.819400
347.000000	4.828700
346.000000	4.848200
345.000000	4.770600
344.000000	4.803700
343.000000	4.867300
342.000000	4.855900
341.000000	4.882200
340.000000	4.837800
339.000000	4.796800
338.000000	4.815700
337.000000	4.842800
336.000000	4.840800
335.000000	4.892700
334.000000	4.866700
333.000000	4.822300
332.000000	4.870500
331.000000	4.924100
330.000000	4.919800
329.000000	4.815400
328.000000	4.775800
327.000000	4.864600
326.000000	4.863200
325.000000	4.857600
324.000000	4.840500
323.000000	4.911600
322.000000	4.933000
321.000000	4.898800
320.000000	4.829900
319.000000	4.952400
318.000000	4.961900
317.000000	4.774000
316.000000	4.832500
315.000000	4.792700
314.000000	4.833500
313.000000	4.833000
312.000000	4.888700
311.000000	4.823100
310.000000	4.830300
309.000000	4.858000
308.000000	4.824300
307.000000	4.841300
306.000000	4.846600
305.000000	4.850800
304.000000	4.869200
303.000000	4.889900
302.000000	4.863900
301.000000	4.906700
300.000000	4.860800
299.000000	4.883600
298.000000	4.879700
297.000000	4.877200
296.000000	4.901800
295.000000	4.883700
294.000000	4.886800
293.000000	4.924900
292.000000	4.914400
291.000000	4.926000
290.000000	4.891000
289.000000	4.916500
288.000000	4.920400
287.000000	4.945200
286.000000	4.919500
285.000000	4.966700
284.000000	4.987400
283.000000	4.988200
282.000000	4.980600
281.000000	4.981100
280.000000	4.995300
279.000000	5.012900
278.000000	4.997200
277.000000	5.006900
276.000000	5.056700
275.000000	5.028800
274.000000	5.065600
273.000000	5.027600
272.000000	5.092500
271.000000	5.055200
270.000000	5.102100
269.000000	5.115800
268.000000	5.149700
267.000000	5.130500
266.000000	5.140600
265.000000	5.177900
264.000000	5.166100
263.000000	5.199500
262.000000	5.218800
261.000000	5.227200
260.000000	5.275500
259.000000	5.257900
258.000000	5.274000
257.000000	5.291200
256.000000	5.271000
255.000000	5.287700
254.000000	5.308000
253.000000	5.317600
252.000000	5.340100
251.000000	5.329900
250.000000	5.335500
