PE UV       SUBTECH     SPECTRUM    ASCII       PEDS        4.00        
   -1
CICIMAUCR0209-1.Sample.ASC
24/06/07
13:36:42.00
24/06/07
13:36:42.00
Vinicio Soto Monge
C. cupreomarginata. Sex F. Ventral
250,000000
1
Lambda 1050
1050L1511233
PerkinElmer UV WinLab 6.3.2.0749 / 2.02.05 Lambda 900 UV/VIS/NIR, Aug  7 2015 09:38:08

0
0
3350/servo 860,8/2
0
0
UV/VIS
1
1
1
DoubleDePol,CommonBeamDepol,RBeamAtt,SBeamAtt,60mm sphere, WB InGaAs Detector
0
0
0
0
Program
Program
3350/servo 860,8/2
3350/0,2 860,8/0,2
3350/0,2 860,8/0,2
0
15.00
 
 
 
0
 
860,8
319,2
860,8
Front
100
on
S:100 R:100
0
0
0
0
 
0
 
 
 
0
 
 
0
0
0
0
0
 
 
 
 
0
0


0
0
#HDR
-1
-1
#GR
nm
%R
1.0
0.0
2500,000000
-1,000000
2251
8
55,875900
4,616300
#DATA
2482.000000	5.754528
2481.000000	5.719462
2480.000000	5.708656
2479.000000	5.652402
2478.000000	5.754740
2477.000000	5.710669
2476.000000	5.745205
2475.000000	5.669776
2474.000000	5.737154
2473.000000	5.743404
2472.000000	5.753786
2471.000000	5.725288
2470.000000	5.735565
2469.000000	5.783661
2468.000000	5.713317
2467.000000	5.685455
2466.000000	5.727195
2465.000000	5.688527
2464.000000	5.744040
2463.000000	5.702617
2462.000000	5.743828
2461.000000	5.770207
2460.000000	5.809193
2459.000000	5.799234
2458.000000	5.773809
2457.000000	5.798810
2456.000000	5.822753
2455.000000	5.869896
2454.000000	5.886740
2453.000000	5.866930
2452.000000	5.896487
2451.000000	5.916086
2450.000000	5.970538
2449.000000	5.997129
2448.000000	6.017999
2447.000000	6.042365
2446.000000	6.051370
2445.000000	6.073406
2444.000000	6.099679
2443.000000	6.132732
2442.000000	6.155615
2441.000000	6.184642
2440.000000	6.204665
2439.000000	6.253715
2438.000000	6.270877
2437.000000	6.294713
2436.000000	6.327660
2435.000000	6.365905
2434.000000	6.367494
2433.000000	6.386139
2432.000000	6.408175
2431.000000	6.437626
2430.000000	6.460297
2429.000000	6.470255
2428.000000	6.507122
2427.000000	6.526297
2426.000000	6.571321
2425.000000	6.581068
2424.000000	6.572699
2423.000000	6.573440
2422.000000	6.610943
2421.000000	6.635097
2420.000000	6.661900
2419.000000	6.677473
2418.000000	6.684994
2417.000000	6.692622
2416.000000	6.704911
2415.000000	6.721226
2414.000000	6.739024
2413.000000	6.756610
2412.000000	6.771229
2411.000000	6.764555
2410.000000	6.796019
2409.000000	6.806401
2408.000000	6.807566
2407.000000	6.815936
2406.000000	6.826424
2405.000000	6.847188
2404.000000	6.863820
2403.000000	6.876003
2402.000000	6.894119
2401.000000	6.904925
2400.000000	6.946135
2399.000000	6.977176
2398.000000	6.990206
2397.000000	7.008851
2396.000000	7.009593
2395.000000	7.017433
2394.000000	7.039256
2393.000000	7.051015
2392.000000	7.059173
2391.000000	7.081738
2390.000000	7.080361
2389.000000	7.094239
2388.000000	7.100913
2387.000000	7.101866
2386.000000	7.119135
2385.000000	7.129411
2384.000000	7.116274
2383.000000	7.128351
2382.000000	7.128669
2381.000000	7.123690
2380.000000	7.129834
2379.000000	7.139581
2378.000000	7.139369
2377.000000	7.148162
2376.000000	7.159392
2375.000000	7.137144
2374.000000	7.122419
2373.000000	7.128351
2372.000000	7.122207
2371.000000	7.108117
2370.000000	7.096781
2369.000000	7.078560
2368.000000	7.073157
2367.000000	7.071780
2366.000000	7.060868
2365.000000	7.041799
2364.000000	7.022094
2363.000000	7.006521
2362.000000	6.981519
2361.000000	6.958318
2360.000000	6.946241
2359.000000	6.916048
2358.000000	6.890305
2357.000000	6.883419
2356.000000	6.866151
2355.000000	6.864350
2354.000000	6.854074
2353.000000	6.850896
2352.000000	6.860960
2351.000000	6.841043
2350.000000	6.841467
2349.000000	6.862549
2348.000000	6.874732
2347.000000	6.878864
2346.000000	6.887975
2345.000000	6.916790
2344.000000	6.941686
2343.000000	6.953763
2342.000000	6.970819
2341.000000	6.995397
2340.000000	7.013831
2339.000000	7.032582
2338.000000	7.051651
2337.000000	7.055253
2336.000000	7.050380
2335.000000	7.046248
2334.000000	7.057160
2333.000000	7.057584
2332.000000	7.049532
2331.000000	7.023365
2330.000000	7.017962
2329.000000	7.025484
2328.000000	7.002919
2327.000000	6.972514
2326.000000	6.952915
2325.000000	6.940097
2324.000000	6.913612
2323.000000	6.876851
2322.000000	6.861913
2321.000000	6.839772
2320.000000	6.802693
2319.000000	6.759894
2318.000000	6.728430
2317.000000	6.668786
2316.000000	6.650352
2315.000000	6.618676
2314.000000	6.562316
2313.000000	6.534560
2312.000000	6.509135
2311.000000	6.469196
2310.000000	6.431057
2309.000000	6.408492
2308.000000	6.390589
2307.000000	6.393449
2306.000000	6.376816
2305.000000	6.374062
2304.000000	6.387410
2303.000000	6.395144
2302.000000	6.398428
2301.000000	6.423218
2300.000000	6.464217
2299.000000	6.495892
2298.000000	6.525661
2297.000000	6.580856
2296.000000	6.598124
2295.000000	6.630436
2294.000000	6.674824
2293.000000	6.700991
2292.000000	6.729065
2291.000000	6.739130
2290.000000	6.749512
2289.000000	6.768475
2288.000000	6.779704
2287.000000	6.788603
2286.000000	6.789239
2285.000000	6.795383
2284.000000	6.780128
2283.000000	6.780128
2282.000000	6.768687
2281.000000	6.757351
2280.000000	6.740401
2279.000000	6.695165
2278.000000	6.682134
2277.000000	6.688279
2276.000000	6.663171
2275.000000	6.655649
2274.000000	6.625456
2273.000000	6.637957
2272.000000	6.627257
2271.000000	6.640394
2270.000000	6.624291
2269.000000	6.642936
2268.000000	6.664018
2267.000000	6.683935
2266.000000	6.721755
2265.000000	6.767733
2264.000000	6.817843
2263.000000	6.879393
2262.000000	6.951538
2261.000000	7.042222
2260.000000	7.109494
2259.000000	7.180156
2258.000000	7.344892
2257.000000	7.424028
2256.000000	7.529650
2255.000000	7.655294
2254.000000	7.768438
2253.000000	7.867809
2252.000000	7.984978
2251.000000	8.105113
2250.000000	8.198764
2249.000000	8.332036
2248.000000	8.416364
2247.000000	8.525058
2246.000000	8.595931
2245.000000	8.714160
2244.000000	8.808022
2243.000000	8.862793
2242.000000	8.934938
2241.000000	9.012697
2240.000000	9.072341
2239.000000	9.127747
2238.000000	9.181988
2237.000000	9.229449
2236.000000	9.277546
2235.000000	9.343228
2234.000000	9.355941
2233.000000	9.384863
2232.000000	9.435714
2231.000000	9.461033
2230.000000	9.474487
2229.000000	9.478937
2228.000000	9.504256
2227.000000	9.502455
2226.000000	9.517075
2225.000000	9.525762
2224.000000	9.538899
2223.000000	9.511566
2222.000000	9.507647
2221.000000	9.509342
2220.000000	9.508282
2219.000000	9.480526
2218.000000	9.489213
2217.000000	9.470038
2216.000000	9.461563
2215.000000	9.438574
2214.000000	9.436773
2213.000000	9.400754
2212.000000	9.385604
2211.000000	9.380307
2210.000000	9.353610
2209.000000	9.351068
2208.000000	9.341957
2207.000000	9.329668
2206.000000	9.318968
2205.000000	9.293437
2204.000000	9.308162
2203.000000	9.296509
2202.000000	9.297463
2201.000000	9.295026
2200.000000	9.311341
2199.000000	9.275957
2198.000000	9.282207
2197.000000	9.267905
2196.000000	9.249896
2195.000000	9.257100
2194.000000	9.252756
2193.000000	9.246823
2192.000000	9.246929
2191.000000	9.247989
2190.000000	9.241844
2189.000000	9.237925
2188.000000	9.233581
2187.000000	9.217584
2186.000000	9.228708
2185.000000	9.212923
2184.000000	9.193854
2183.000000	9.192159
2182.000000	9.205295
2181.000000	9.183895
2180.000000	9.160483
2179.000000	9.172772
2178.000000	9.186968
2177.000000	9.182730
2176.000000	9.144592
2175.000000	9.140036
2174.000000	9.162602
2173.000000	9.151584
2172.000000	9.141837
2171.000000	9.152643
2170.000000	9.165780
2169.000000	9.174573
2168.000000	9.186862
2167.000000	9.194277
2166.000000	9.182306
2165.000000	9.193642
2164.000000	9.225741
2163.000000	9.218749
2162.000000	9.220233
2161.000000	9.248413
2160.000000	9.244493
2159.000000	9.272249
2158.000000	9.291848
2157.000000	9.320875
2156.000000	9.331893
2155.000000	9.344182
2154.000000	9.377129
2153.000000	9.386240
2152.000000	9.428828
2151.000000	9.447049
2150.000000	9.455736
2149.000000	9.492285
2148.000000	9.517075
2147.000000	9.533602
2146.000000	9.548115
2145.000000	9.561464
2144.000000	9.599178
2143.000000	9.607124
2142.000000	9.621637
2141.000000	9.646003
2140.000000	9.671747
2139.000000	9.691134
2138.000000	9.705859
2137.000000	9.730014
2136.000000	9.737959
2135.000000	9.748235
2134.000000	9.756392
2133.000000	9.764550
2132.000000	9.772389
2131.000000	9.780547
2130.000000	9.797073
2129.000000	9.805972
2128.000000	9.795272
2127.000000	9.805866
2126.000000	9.815930
2125.000000	9.820274
2124.000000	9.818261
2123.000000	9.803218
2122.000000	9.799086
2121.000000	9.807137
2120.000000	9.791564
2119.000000	9.790399
2118.000000	9.780864
2117.000000	9.759041
2116.000000	9.747070
2115.000000	9.731073
2114.000000	9.720267
2113.000000	9.706919
2112.000000	9.693888
2111.000000	9.692829
2110.000000	9.683506
2109.000000	9.658081
2108.000000	9.639223
2107.000000	9.620684
2106.000000	9.595788
2105.000000	9.584559
2104.000000	9.579685
2103.000000	9.563053
2102.000000	9.549810
2101.000000	9.531907
2100.000000	9.514003
2099.000000	9.497900
2098.000000	9.497688
2097.000000	9.479467
2096.000000	9.454783
2095.000000	9.447473
2094.000000	9.444083
2093.000000	9.424060
2092.000000	9.410182
2091.000000	9.406051
2090.000000	9.389630
2089.000000	9.384015
2088.000000	9.374481
2087.000000	9.354140
2086.000000	9.345347
2085.000000	9.349373
2084.000000	9.323947
2083.000000	9.304560
2082.000000	9.306150
2081.000000	9.282737
2080.000000	9.260278
2079.000000	9.241844
2078.000000	9.228602
2077.000000	9.213770
2076.000000	9.187285
2075.000000	9.161542
2074.000000	9.134951
2073.000000	9.110161
2072.000000	9.086643
2071.000000	9.063972
2070.000000	9.039712
2069.000000	9.024245
2068.000000	9.008671
2067.000000	8.977101
2066.000000	8.937268
2065.000000	8.922437
2064.000000	8.906652
2063.000000	8.874552
2062.000000	8.854529
2061.000000	8.836202
2060.000000	8.805374
2059.000000	8.792873
2058.000000	8.790436
2057.000000	8.782914
2056.000000	8.784080
2055.000000	8.795203
2054.000000	8.799229
2053.000000	8.802937
2052.000000	8.822112
2051.000000	8.856860
2050.000000	8.879107
2049.000000	8.904957
2048.000000	8.947544
2047.000000	8.972546
2046.000000	9.018736
2045.000000	9.069693
2044.000000	9.111645
2043.000000	9.155927
2042.000000	9.211122
2041.000000	9.256040
2040.000000	9.300959
2039.000000	9.346513
2038.000000	9.406792
2037.000000	9.441964
2036.000000	9.469932
2035.000000	9.524173
2034.000000	9.580215
2033.000000	9.582969
2032.000000	9.609031
2031.000000	9.663166
2030.000000	9.697278
2029.000000	9.698867
2028.000000	9.726941
2027.000000	9.745163
2026.000000	9.782454
2025.000000	9.800675
2024.000000	9.817625
2023.000000	9.817625
2022.000000	9.834258
2021.000000	9.837224
2020.000000	9.846971
2019.000000	9.860955
2018.000000	9.860425
2017.000000	9.889241
2016.000000	9.902059
2015.000000	9.900046
2014.000000	9.879388
2013.000000	9.887757
2012.000000	9.878753
2011.000000	9.878753
2010.000000	9.864769
2009.000000	9.868582
2008.000000	9.853115
2007.000000	9.832033
2006.000000	9.816778
2005.000000	9.797603
2004.000000	9.792200
2003.000000	9.749189
2002.000000	9.722068
2001.000000	9.706071
2000.000000	9.685625
1999.000000	9.656174
1998.000000	9.610938
1997.000000	9.579579
1996.000000	9.547162
1995.000000	9.532542
1994.000000	9.506905
1993.000000	9.442388
1992.000000	9.413784
1991.000000	9.384545
1990.000000	9.342487
1989.000000	9.308798
1988.000000	9.268223
1987.000000	9.230721
1986.000000	9.185908
1985.000000	9.130608
1984.000000	9.093105
1983.000000	9.053060
1982.000000	9.005811
1981.000000	8.960151
1980.000000	8.923390
1979.000000	8.886947
1978.000000	8.821264
1977.000000	8.818298
1976.000000	8.757701
1975.000000	8.721046
1974.000000	8.669135
1973.000000	8.650384
1972.000000	8.596673
1971.000000	8.562454
1970.000000	8.532367
1969.000000	8.497090
1968.000000	8.463189
1967.000000	8.417847
1966.000000	8.379497
1965.000000	8.350787
1964.000000	8.333519
1963.000000	8.264129
1962.000000	8.234783
1961.000000	8.218469
1960.000000	8.159884
1959.000000	8.143781
1958.000000	8.121746
1957.000000	8.067505
1956.000000	8.059454
1955.000000	8.045893
1954.000000	7.996102
1953.000000	7.965485
1952.000000	7.930949
1951.000000	7.907960
1950.000000	7.877979
1949.000000	7.855520
1948.000000	7.815157
1947.000000	7.812509
1946.000000	7.781998
1945.000000	7.743330
1944.000000	7.753606
1943.000000	7.707734
1942.000000	7.701696
1941.000000	7.709641
1940.000000	7.690148
1939.000000	7.682521
1938.000000	7.653811
1937.000000	7.670550
1936.000000	7.667901
1935.000000	7.664193
1934.000000	7.697670
1933.000000	7.675317
1932.000000	7.702437
1931.000000	7.710171
1930.000000	7.736126
1929.000000	7.753076
1928.000000	7.798525
1927.000000	7.805940
1926.000000	7.846091
1925.000000	7.900968
1924.000000	7.946310
1923.000000	7.967710
1922.000000	8.038266
1921.000000	8.091341
1920.000000	8.148549
1919.000000	8.223660
1918.000000	8.267942
1917.000000	8.351105
1916.000000	8.435433
1915.000000	8.473571
1914.000000	8.566586
1913.000000	8.666169
1912.000000	8.784080
1911.000000	8.864700
1910.000000	8.967143
1909.000000	9.059311
1908.000000	9.138447
1907.000000	9.252756
1906.000000	9.393020
1905.000000	9.517923
1904.000000	9.676726
1903.000000	9.793683
1902.000000	9.932888
1901.000000	10.074211
1900.000000	10.249329
1899.000000	10.465446
1898.000000	10.635690
1897.000000	10.808584
1896.000000	10.999381
1895.000000	11.162633
1894.000000	11.325462
1893.000000	11.522192
1892.000000	11.749962
1891.000000	12.023604
1890.000000	12.284321
1889.000000	12.542284
1888.000000	12.802259
1887.000000	13.080774
1886.000000	13.380795
1885.000000	13.712068
1884.000000	14.096310
1883.000000	14.520386
1882.000000	14.913527
1881.000000	15.328069
1880.000000	15.734029
1879.000000	16.106088
1878.000000	16.510777
1877.000000	16.942904
1876.000000	17.344309
1875.000000	17.739146
1874.000000	18.111841
1873.000000	18.504876
1872.000000	18.889755
1871.000000	19.239779
1870.000000	19.560034
1869.000000	19.898617
1868.000000	20.206477
1867.000000	20.416131
1866.000000	20.609788
1865.000000	20.784695
1864.000000	20.929408
1863.000000	21.071261
1862.000000	21.195952
1861.000000	21.349564
1860.000000	21.497985
1859.000000	21.605832
1858.000000	21.734760
1857.000000	21.820465
1856.000000	21.881274
1855.000000	21.907759
1854.000000	21.964967
1853.000000	22.019102
1852.000000	22.010732
1851.000000	22.017724
1850.000000	22.018254
1849.000000	21.996748
1848.000000	22.008508
1847.000000	22.032768
1846.000000	22.022280
1845.000000	21.967509
1844.000000	21.933820
1843.000000	21.904581
1842.000000	21.901615
1841.000000	21.900767
1840.000000	21.879367
1839.000000	21.866549
1838.000000	21.826927
1837.000000	21.787624
1836.000000	21.765165
1835.000000	21.720352
1834.000000	21.671832
1833.000000	21.608162
1832.000000	21.546506
1831.000000	21.485167
1830.000000	21.438447
1829.000000	21.376261
1828.000000	21.308142
1827.000000	21.246697
1826.000000	21.186841
1825.000000	21.121158
1824.000000	21.059925
1823.000000	21.014689
1822.000000	20.974644
1821.000000	20.967864
1820.000000	20.949748
1819.000000	20.916165
1818.000000	20.881947
1817.000000	20.849741
1816.000000	20.823998
1815.000000	20.819231
1814.000000	20.810756
1813.000000	20.778762
1812.000000	20.762871
1811.000000	20.739035
1810.000000	20.709583
1809.000000	20.678755
1808.000000	20.630235
1807.000000	20.584151
1806.000000	20.560738
1805.000000	20.513913
1804.000000	20.460626
1803.000000	20.424077
1802.000000	20.375874
1801.000000	20.335511
1800.000000	20.279045
1799.000000	20.222791
1798.000000	20.169186
1797.000000	20.116322
1796.000000	20.074900
1795.000000	20.033160
1794.000000	19.979342
1793.000000	19.927114
1792.000000	19.883467
1791.000000	19.837066
1790.000000	19.785367
1789.000000	19.727101
1788.000000	19.680275
1787.000000	19.631013
1786.000000	19.573382
1785.000000	19.520836
1784.000000	19.456319
1783.000000	19.375699
1782.000000	19.305249
1781.000000	19.248148
1780.000000	19.194860
1779.000000	19.131191
1778.000000	19.051842
1777.000000	18.968362
1776.000000	18.879055
1775.000000	18.790807
1774.000000	18.719192
1773.000000	18.622469
1772.000000	18.515153
1771.000000	18.411332
1770.000000	18.306558
1769.000000	18.213861
1768.000000	18.110464
1767.000000	18.010775
1766.000000	17.924858
1765.000000	17.856315
1764.000000	17.815210
1763.000000	17.780886
1762.000000	17.765843
1761.000000	17.778237
1760.000000	17.811397
1759.000000	17.862777
1758.000000	17.915005
1757.000000	17.965327
1756.000000	18.027725
1755.000000	18.067452
1754.000000	18.109087
1753.000000	18.144894
1752.000000	18.163539
1751.000000	18.160679
1750.000000	18.152098
1749.000000	18.140339
1748.000000	18.105908
1747.000000	18.059401
1746.000000	18.005372
1745.000000	17.930473
1744.000000	17.842013
1743.000000	17.725056
1742.000000	17.590195
1741.000000	17.430756
1740.000000	17.249811
1739.000000	17.072786
1738.000000	16.910593
1737.000000	16.754862
1736.000000	16.611949
1735.000000	16.478889
1734.000000	16.400494
1733.000000	16.367335
1732.000000	16.354199
1731.000000	16.343499
1730.000000	16.394244
1729.000000	16.460880
1728.000000	16.510777
1727.000000	16.591927
1726.000000	16.673077
1725.000000	16.755180
1724.000000	16.818849
1723.000000	16.867158
1722.000000	16.909004
1721.000000	16.955193
1720.000000	16.999794
1719.000000	17.018863
1718.000000	17.056366
1717.000000	17.110289
1716.000000	17.174064
1715.000000	17.234026
1714.000000	17.291234
1713.000000	17.389863
1712.000000	17.457029
1711.000000	17.500146
1710.000000	17.534047
1709.000000	17.566782
1708.000000	17.563498
1707.000000	17.566570
1706.000000	17.537119
1705.000000	17.506397
1704.000000	17.472390
1703.000000	17.426306
1702.000000	17.354797
1701.000000	17.270787
1700.000000	17.162941
1699.000000	17.029033
1698.000000	16.939938
1697.000000	16.822981
1696.000000	16.741513
1695.000000	16.664601
1694.000000	16.674454
1693.000000	16.708248
1692.000000	16.794059
1691.000000	16.918644
1690.000000	17.049162
1689.000000	17.171098
1688.000000	17.272164
1687.000000	17.355009
1686.000000	17.421645
1685.000000	17.443892
1684.000000	17.520699
1683.000000	17.619752
1682.000000	17.823685
1681.000000	18.106968
1680.000000	18.461547
1679.000000	18.892403
1678.000000	19.320187
1677.000000	19.787592
1676.000000	20.224592
1675.000000	20.647079
1674.000000	20.994031
1673.000000	21.304963
1672.000000	21.604031
1671.000000	21.836992
1670.000000	22.055333
1669.000000	22.248884
1668.000000	22.418600
1667.000000	22.558122
1666.000000	22.675291
1665.000000	22.785256
1664.000000	22.895327
1663.000000	22.968743
1662.000000	23.060699
1661.000000	23.115681
1660.000000	23.165049
1659.000000	23.225541
1658.000000	23.270777
1657.000000	23.311140
1656.000000	23.313788
1655.000000	23.331798
1654.000000	23.333281
1653.000000	23.319403
1652.000000	23.305631
1651.000000	23.293448
1650.000000	23.286986
1649.000000	23.252237
1648.000000	23.194818
1647.000000	23.154773
1646.000000	23.104664
1645.000000	23.066314
1644.000000	23.014191
1643.000000	22.953170
1642.000000	22.879648
1641.000000	22.836425
1640.000000	22.798287
1639.000000	22.738325
1638.000000	22.671689
1637.000000	22.598803
1636.000000	22.562148
1635.000000	22.478561
1634.000000	22.411502
1633.000000	22.320923
1632.000000	22.266894
1631.000000	22.199517
1630.000000	22.125889
1629.000000	22.034781
1628.000000	21.959140
1627.000000	21.862947
1626.000000	21.810931
1625.000000	21.715903
1624.000000	21.644288
1623.000000	21.545976
1622.000000	21.489298
1621.000000	21.413657
1620.000000	21.329330
1619.000000	21.273182
1618.000000	21.208347
1617.000000	21.124866
1616.000000	21.034394
1615.000000	20.975492
1614.000000	20.919661
1613.000000	20.854297
1612.000000	20.773147
1611.000000	20.712338
1610.000000	20.624938
1609.000000	20.567307
1608.000000	20.510417
1607.000000	20.437213
1606.000000	20.354156
1605.000000	20.289321
1604.000000	20.213363
1603.000000	20.147257
1602.000000	20.092168
1601.000000	20.009535
1600.000000	19.928068
1599.000000	19.884209
1598.000000	19.801046
1597.000000	19.729749
1596.000000	19.686102
1595.000000	19.629318
1594.000000	19.565755
1593.000000	19.515222
1592.000000	19.437674
1591.000000	19.394133
1590.000000	19.332582
1589.000000	19.281307
1588.000000	19.243275
1587.000000	19.172401
1586.000000	19.132038
1585.000000	19.098985
1584.000000	19.071971
1583.000000	19.015717
1582.000000	18.963912
1581.000000	18.941241
1580.000000	18.899501
1579.000000	18.877572
1578.000000	18.832335
1577.000000	18.806804
1576.000000	18.780425
1575.000000	18.770361
1574.000000	18.765170
1573.000000	18.753093
1572.000000	18.747266
1571.000000	18.735189
1570.000000	18.706903
1569.000000	18.709128
1568.000000	18.715060
1567.000000	18.708704
1566.000000	18.710081
1565.000000	18.720569
1564.000000	18.717391
1563.000000	18.710505
1562.000000	18.714107
1561.000000	18.698958
1560.000000	18.698110
1559.000000	18.689953
1558.000000	18.675651
1557.000000	18.667176
1556.000000	18.631474
1555.000000	18.619503
1554.000000	18.616537
1553.000000	18.587191
1552.000000	18.567487
1551.000000	18.538565
1550.000000	18.506466
1549.000000	18.474260
1548.000000	18.443432
1547.000000	18.414934
1546.000000	18.393958
1545.000000	18.350205
1544.000000	18.319906
1543.000000	18.314291
1542.000000	18.286429
1541.000000	18.250198
1540.000000	18.244583
1539.000000	18.231659
1538.000000	18.198288
1537.000000	18.181867
1536.000000	18.169048
1535.000000	18.142352
1534.000000	18.108981
1533.000000	18.093619
1532.000000	18.073491
1531.000000	18.038107
1530.000000	18.015012
1529.000000	17.974014
1528.000000	17.921044
1527.000000	17.877291
1526.000000	17.828029
1525.000000	17.803133
1524.000000	17.775059
1523.000000	17.718488
1522.000000	17.680561
1521.000000	17.655348
1520.000000	17.626850
1519.000000	17.580342
1518.000000	17.520593
1517.000000	17.479276
1516.000000	17.440714
1515.000000	17.384248
1514.000000	17.335093
1513.000000	17.290598
1512.000000	17.244938
1511.000000	17.189532
1510.000000	17.139846
1509.000000	17.098106
1508.000000	17.041322
1507.000000	16.979136
1506.000000	16.935701
1505.000000	16.892689
1504.000000	16.834634
1503.000000	16.787385
1502.000000	16.746281
1501.000000	16.704964
1500.000000	16.661741
1499.000000	16.605911
1498.000000	16.557285
1497.000000	16.517875
1496.000000	16.484716
1495.000000	16.463740
1494.000000	16.431323
1493.000000	16.396680
1492.000000	16.367759
1491.000000	16.328455
1490.000000	16.303560
1489.000000	16.286080
1488.000000	16.262985
1487.000000	16.223152
1486.000000	16.194654
1485.000000	16.187768
1484.000000	16.156304
1483.000000	16.159058
1482.000000	16.140942
1481.000000	16.110220
1480.000000	16.100474
1479.000000	16.096024
1478.000000	16.085112
1477.000000	16.082994
1476.000000	16.068374
1475.000000	16.059687
1474.000000	16.060534
1473.000000	16.070175
1472.000000	16.077591
1471.000000	16.076319
1470.000000	16.079286
1469.000000	16.092952
1468.000000	16.086066
1467.000000	16.100897
1466.000000	16.102169
1465.000000	16.124946
1464.000000	16.133845
1463.000000	16.152490
1462.000000	16.173254
1461.000000	16.194548
1460.000000	16.219126
1459.000000	16.267434
1458.000000	16.302182
1457.000000	16.353563
1456.000000	16.404096
1455.000000	16.459185
1454.000000	16.511519
1453.000000	16.555484
1452.000000	16.609619
1451.000000	16.676679
1450.000000	16.753802
1449.000000	16.821922
1448.000000	16.884002
1447.000000	16.960279
1446.000000	17.019499
1445.000000	17.109335
1444.000000	17.195994
1443.000000	17.267927
1442.000000	17.341661
1441.000000	17.428001
1440.000000	17.519533
1439.000000	17.605344
1438.000000	17.703762
1437.000000	17.799108
1436.000000	17.903670
1435.000000	17.992447
1434.000000	18.087899
1433.000000	18.209623
1432.000000	18.332089
1431.000000	18.448199
1430.000000	18.551808
1429.000000	18.682325
1428.000000	18.809982
1427.000000	18.973235
1426.000000	19.115936
1425.000000	19.284485
1424.000000	19.463099
1423.000000	19.630272
1422.000000	19.803801
1421.000000	19.997352
1420.000000	20.210608
1419.000000	20.444629
1418.000000	20.664983
1417.000000	20.881417
1416.000000	21.071579
1415.000000	21.317994
1414.000000	21.570448
1413.000000	21.872164
1412.000000	22.119744
1411.000000	22.364253
1410.000000	22.689063
1409.000000	23.030188
1408.000000	23.382755
1407.000000	23.784160
1406.000000	24.126662
1405.000000	24.521710
1404.000000	24.932226
1403.000000	25.344013
1402.000000	25.713000
1401.000000	26.113663
1400.000000	26.617829
1399.000000	27.038833
1398.000000	27.342879
1397.000000	27.641523
1396.000000	27.995785
1395.000000	28.397401
1394.000000	28.776877
1393.000000	29.054014
1392.000000	29.362298
1391.000000	29.749719
1390.000000	30.105676
1389.000000	30.458030
1388.000000	30.943233
1387.000000	31.430873
1386.000000	31.926882
1385.000000	32.438569
1384.000000	32.993375
1383.000000	33.625516
1382.000000	34.207229
1381.000000	34.761293
1380.000000	35.151150
1379.000000	35.482741
1378.000000	35.770367
1377.000000	35.973982
1376.000000	36.211605
1375.000000	36.429734
1374.000000	36.698185
1373.000000	36.972886
1372.000000	37.325453
1371.000000	37.707471
1370.000000	38.100930
1369.000000	38.408896
1368.000000	38.742923
1367.000000	39.087862
1366.000000	39.338303
1365.000000	39.544038
1364.000000	39.807403
1363.000000	39.982204
1362.000000	40.164949
1361.000000	40.385409
1360.000000	40.559892
1359.000000	40.598771
1358.000000	40.720708
1357.000000	40.872731
1356.000000	41.028250
1355.000000	41.312380
1354.000000	41.665900
1353.000000	42.104172
1352.000000	42.544986
1351.000000	43.017158
1350.000000	43.492403
1349.000000	43.908745
1348.000000	44.334198
1347.000000	44.757532
1346.000000	45.093149
1345.000000	45.466162
1344.000000	45.849239
1343.000000	46.172990
1342.000000	46.496847
1341.000000	46.822717
1340.000000	47.139900
1339.000000	47.439391
1338.000000	47.738882
1337.000000	48.035301
1336.000000	48.333838
1335.000000	48.599217
1334.000000	48.872646
1333.000000	49.157094
1332.000000	49.420354
1331.000000	49.681918
1330.000000	49.923249
1329.000000	50.158434
1328.000000	50.372856
1327.000000	50.618106
1326.000000	50.829561
1325.000000	51.016968
1324.000000	51.232131
1323.000000	51.403435
1322.000000	51.590418
1321.000000	51.758756
1320.000000	51.935252
1319.000000	52.075198
1318.000000	52.232412
1317.000000	52.375642
1316.000000	52.507537
1315.000000	52.657123
1314.000000	52.779907
1313.000000	52.912755
1312.000000	53.026005
1311.000000	53.134593
1310.000000	53.239579
1309.000000	53.326025
1308.000000	53.415968
1307.000000	53.524132
1306.000000	53.592569
1305.000000	53.656768
1304.000000	53.711539
1303.000000	53.784426
1302.000000	53.826484
1301.000000	53.867906
1300.000000	53.905303
1299.000000	53.930622
1298.000000	53.952128
1297.000000	53.992067
1296.000000	54.005521
1295.000000	54.015903
1294.000000	54.014950
1293.000000	54.020353
1292.000000	54.023213
1291.000000	54.018870
1290.000000	54.009547
1289.000000	53.981579
1288.000000	53.967383
1287.000000	53.942593
1286.000000	53.906256
1285.000000	53.863880
1284.000000	53.809533
1283.000000	53.771183
1282.000000	53.719591
1281.000000	53.670223
1280.000000	53.615982
1279.000000	53.563648
1278.000000	53.501461
1277.000000	53.461310
1276.000000	53.407387
1275.000000	53.357913
1274.000000	53.320940
1273.000000	53.292231
1272.000000	53.242439
1271.000000	53.213624
1270.000000	53.170082
1269.000000	53.131203
1268.000000	53.096137
1267.000000	53.056621
1266.000000	53.028971
1265.000000	52.987760
1264.000000	52.944007
1263.000000	52.903433
1262.000000	52.861269
1261.000000	52.812219
1260.000000	52.761262
1259.000000	52.720687
1258.000000	52.652568
1257.000000	52.587627
1256.000000	52.539107
1255.000000	52.477980
1254.000000	52.413462
1253.000000	52.340682
1252.000000	52.262393
1251.000000	52.179972
1250.000000	52.104013
1249.000000	52.021698
1248.000000	51.918089
1247.000000	51.806217
1246.000000	51.701973
1245.000000	51.602707
1244.000000	51.474944
1243.000000	51.331926
1242.000000	51.205646
1241.000000	51.090808
1240.000000	50.950544
1239.000000	50.795660
1238.000000	50.661011
1237.000000	50.523820
1236.000000	50.365228
1235.000000	50.212569
1234.000000	50.063406
1233.000000	49.895492
1232.000000	49.730968
1231.000000	49.553414
1230.000000	49.369185
1229.000000	49.199894
1228.000000	49.014711
1227.000000	48.815545
1226.000000	48.623795
1225.000000	48.424628
1224.000000	48.218682
1223.000000	48.017397
1222.000000	47.810709
1221.000000	47.605080
1220.000000	47.412376
1219.000000	47.220414
1218.000000	47.035656
1217.000000	46.851003
1216.000000	46.668363
1215.000000	46.492398
1214.000000	46.334866
1213.000000	46.185173
1212.000000	46.035269
1211.000000	45.890979
1210.000000	45.744253
1209.000000	45.618821
1208.000000	45.506525
1207.000000	45.393487
1206.000000	45.280874
1205.000000	45.199088
1204.000000	45.135419
1203.000000	45.077152
1202.000000	45.037107
1201.000000	44.986468
1200.000000	44.932968
1199.000000	44.879363
1198.000000	44.799802
1197.000000	44.688248
1196.000000	44.538238
1195.000000	44.352526
1194.000000	44.125286
1193.000000	43.853445
1192.000000	43.523337
1191.000000	43.151066
1190.000000	42.772014
1189.000000	42.370398
1188.000000	42.036794
1187.000000	41.795040
1186.000000	41.654882
1185.000000	41.614943
1184.000000	41.700013
1183.000000	41.897166
1182.000000	42.194644
1181.000000	42.617237
1180.000000	43.070446
1179.000000	43.524079
1178.000000	43.971779
1177.000000	44.385685
1176.000000	44.754142
1175.000000	45.077894
1174.000000	45.368380
1173.000000	45.672426
1172.000000	45.966408
1171.000000	46.269925
1170.000000	46.583082
1169.000000	46.872403
1168.000000	47.186196
1167.000000	47.512701
1166.000000	47.843444
1165.000000	48.185523
1164.000000	48.525695
1163.000000	48.875719
1162.000000	49.225743
1161.000000	49.601510
1160.000000	49.953018
1159.000000	50.294778
1158.000000	50.624356
1157.000000	50.950438
1156.000000	51.247492
1155.000000	51.516261
1154.000000	51.737780
1153.000000	51.942667
1152.000000	52.103060
1151.000000	52.207728
1150.000000	52.310383
1149.000000	52.411132
1148.000000	52.490163
1147.000000	52.596738
1146.000000	52.709669
1145.000000	52.910954
1144.000000	53.130355
1143.000000	53.399124
1142.000000	53.678804
1141.000000	54.005839
1140.000000	54.355757
1139.000000	54.703451
1138.000000	55.075298
1137.000000	55.432526
1136.000000	55.811790
1135.000000	56.221670
1134.000000	56.631126
1133.000000	56.985070
1132.000000	57.319097
1131.000000	57.617952
1130.000000	57.898798
1129.000000	58.166719
1128.000000	58.378386
1127.000000	58.550538
1126.000000	58.673004
1125.000000	58.797059
1124.000000	58.887743
1123.000000	58.984148
1122.000000	59.047076
1121.000000	59.080977
1120.000000	59.132887
1119.000000	59.145706
1118.000000	59.179395
1117.000000	59.179924
1116.000000	59.192213
1115.000000	59.194650
1114.000000	59.194332
1113.000000	59.156512
1112.000000	59.151956
1111.000000	59.141680
1110.000000	59.130345
1109.000000	59.111170
1108.000000	59.108627
1107.000000	59.074620
1106.000000	59.058518
1105.000000	59.061908
1104.000000	59.044746
1103.000000	59.017201
1102.000000	59.007243
1101.000000	58.993895
1100.000000	58.987326
1099.000000	58.943467
1098.000000	58.917088
1097.000000	58.895159
1096.000000	58.882340
1095.000000	58.830430
1094.000000	58.810090
1093.000000	58.765595
1092.000000	58.727881
1091.000000	58.679360
1090.000000	58.643976
1089.000000	58.619293
1088.000000	58.585816
1087.000000	58.525536
1086.000000	58.460807
1085.000000	58.429873
1084.000000	58.371818
1083.000000	58.338235
1082.000000	58.281663
1081.000000	58.229329
1080.000000	58.178478
1079.000000	58.126250
1078.000000	58.073068
1077.000000	58.033129
1076.000000	57.973379
1075.000000	57.930580
1074.000000	57.875279
1073.000000	57.819661
1072.000000	57.765632
1071.000000	57.724104
1070.000000	57.688296
1069.000000	57.613397
1068.000000	57.566995
1067.000000	57.497923
1066.000000	57.469425
1065.000000	57.426096
1064.000000	57.336895
1063.000000	57.288375
1062.000000	57.252037
1061.000000	57.177880
1060.000000	57.120778
1059.000000	57.079038
1058.000000	57.007847
1057.000000	56.968014
1056.000000	56.911548
1055.000000	56.841628
1054.000000	56.785798
1053.000000	56.713653
1052.000000	56.665450
1051.000000	56.615129
1050.000000	56.573813
1049.000000	56.520313
1048.000000	56.482599
1047.000000	56.429947
1046.000000	56.387253
1045.000000	56.336508
1044.000000	56.293391
1043.000000	56.253028
1042.000000	56.217538
1041.000000	56.200482
1040.000000	56.123676
1039.000000	56.099204
1038.000000	56.067104
1037.000000	56.022186
1036.000000	55.982035
1035.000000	55.930018
1034.000000	55.885418
1033.000000	55.819523
1032.000000	55.792509
1031.000000	55.756277
1030.000000	55.700977
1029.000000	55.624595
1028.000000	55.571731
1027.000000	55.537830
1026.000000	55.461766
1025.000000	55.402651
1024.000000	55.365361
1023.000000	55.309425
1022.000000	55.231135
1021.000000	55.200625
1020.000000	55.131658
1019.000000	55.100300
1018.000000	55.049025
1017.000000	54.990229
1016.000000	54.947853
1015.000000	54.908973
1014.000000	54.890434
1013.000000	54.861830
1012.000000	54.822950
1011.000000	54.816700
1010.000000	54.803246
1009.000000	54.783329
1008.000000	54.771252
1007.000000	54.784812
1006.000000	54.799220
1005.000000	54.791381
1004.000000	54.782482
1003.000000	54.762777
1002.000000	54.769133
1001.000000	54.770510
1000.000000	54.768709
999.000000	54.767544
998.000000	54.750912
997.000000	54.742013
996.000000	54.734809
995.000000	54.739894
994.000000	54.738835
993.000000	54.733749
992.000000	54.710866
991.000000	54.710231
990.000000	54.719765
989.000000	54.708430
988.000000	54.708324
987.000000	54.715952
986.000000	54.714045
985.000000	54.721566
984.000000	54.708218
983.000000	54.725910
982.000000	54.732584
981.000000	54.717858
980.000000	54.718706
979.000000	54.719448
978.000000	54.720613
977.000000	54.726651
976.000000	54.725380
975.000000	54.730359
974.000000	54.724639
973.000000	54.720083
972.000000	54.711290
971.000000	54.708854
970.000000	54.698895
969.000000	54.690314
968.000000	54.672093
967.000000	54.667537
966.000000	54.677390
965.000000	54.671563
964.000000	54.649739
963.000000	54.631200
962.000000	54.637239
961.000000	54.642006
960.000000	54.625585
959.000000	54.618275
958.000000	54.599524
957.000000	54.594121
956.000000	54.583951
955.000000	54.564034
954.000000	54.543906
953.000000	54.514031
952.000000	54.483414
951.000000	54.464663
950.000000	54.438602
949.000000	54.414872
948.000000	54.391353
947.000000	54.345481
946.000000	54.313487
945.000000	54.272383
944.000000	54.235940
943.000000	54.190280
942.000000	54.122690
941.000000	54.071310
940.000000	54.010395
939.000000	53.938356
938.000000	53.874474
937.000000	53.794596
936.000000	53.744698
935.000000	53.701369
934.000000	53.612486
933.000000	53.532395
932.000000	53.450504
931.000000	53.386623
930.000000	53.316173
929.000000	53.225595
928.000000	53.136500
927.000000	53.062130
926.000000	52.975154
925.000000	52.871439
924.000000	52.771538
923.000000	52.670684
922.000000	52.598327
921.000000	52.505842
920.000000	52.385494
919.000000	52.279979
918.000000	52.165246
917.000000	52.045535
916.000000	51.922751
915.000000	51.787360
914.000000	51.652711
913.000000	51.530563
912.000000	51.406190
911.000000	51.265926
910.000000	51.122484
909.000000	50.999382
908.000000	50.889946
907.000000	50.777333
906.000000	50.648828
905.000000	50.516192
904.000000	50.405591
903.000000	50.302936
902.000000	50.193712
901.000000	50.061606
900.000000	49.944225
899.000000	49.847502
898.000000	49.743257
897.000000	49.636470
896.000000	49.509661
895.000000	49.386559
894.000000	49.257948
893.000000	49.146606
892.000000	48.978268
891.000000	48.843831
890.000000	48.732277
889.000000	48.574109
888.000000	48.416895
887.000000	48.282034
886.000000	48.123336
885.000000	47.969724
884.000000	47.798314
883.000000	47.639405
882.000000	47.462274
881.000000	47.296479
880.000000	47.118500
879.000000	46.954612
878.000000	46.764133
877.000000	46.607448
876.000000	46.375970
875.000000	46.129767
874.000000	45.894581
873.000000	45.635771
872.000000	45.393487
871.000000	45.252588
870.000000	45.173557
869.000000	45.102366
868.000000	45.052256
867.000000	45.005855
866.000000	44.947482
865.000000	44.878939
864.000000	44.816011
863.000000	44.731683
862.000000	44.665577
861.000000	44.604874
860.000000	44.530292
859.000000	44.457088
858.000000	44.388333
857.000000	44.309200
856.000000	44.558500
855.000000	44.297300
854.000000	44.535600
853.000000	44.966400
852.000000	44.614300
851.000000	44.713900
850.000000	44.640300
849.000000	44.719100
848.000000	44.895000
847.000000	44.481900
846.000000	44.743500
845.000000	44.879400
844.000000	44.670000
843.000000	44.464700
842.000000	44.405000
841.000000	44.274800
840.000000	44.576800
839.000000	44.280400
838.000000	44.318300
837.000000	44.482300
836.000000	44.484500
835.000000	44.509800
834.000000	44.214000
833.000000	44.360800
832.000000	44.332000
831.000000	44.161500
830.000000	44.288300
829.000000	44.190600
828.000000	44.117100
827.000000	44.154300
826.000000	44.229900
825.000000	44.080600
824.000000	43.944700
823.000000	43.934300
822.000000	43.994800
821.000000	43.837500
820.000000	43.844900
819.000000	43.695500
818.000000	43.810000
817.000000	43.858300
816.000000	43.723000
815.000000	43.512000
814.000000	43.517500
813.000000	43.539300
812.000000	43.393000
811.000000	43.405300
810.000000	43.198600
809.000000	43.266500
808.000000	43.187800
807.000000	43.065800
806.000000	43.015100
805.000000	42.938500
804.000000	42.928600
803.000000	42.939000
802.000000	42.776400
801.000000	42.691500
800.000000	42.744100
799.000000	42.541200
798.000000	42.473800
797.000000	42.362000
796.000000	42.363300
795.000000	42.162200
794.000000	42.116800
793.000000	41.951700
792.000000	41.940200
791.000000	41.871200
790.000000	41.754500
789.000000	41.775100
788.000000	41.728500
787.000000	41.512400
786.000000	41.314800
785.000000	41.265100
784.000000	41.276800
783.000000	41.181000
782.000000	41.079600
781.000000	40.888600
780.000000	40.871400
779.000000	40.773000
778.000000	40.563800
777.000000	40.478400
776.000000	40.442500
775.000000	40.192700
774.000000	40.135300
773.000000	40.137200
772.000000	39.983500
771.000000	39.796200
770.000000	39.660400
769.000000	39.666900
768.000000	39.453600
767.000000	39.275400
766.000000	39.176400
765.000000	39.112200
764.000000	39.001600
763.000000	38.805300
762.000000	38.643900
761.000000	38.459300
760.000000	38.276400
759.000000	38.109100
758.000000	37.958200
757.000000	37.760600
756.000000	37.671900
755.000000	37.450700
754.000000	37.372200
753.000000	37.223900
752.000000	37.052200
751.000000	36.923900
750.000000	36.644400
749.000000	36.415500
748.000000	36.349900
747.000000	36.160800
746.000000	35.926300
745.000000	35.797400
744.000000	35.596700
743.000000	35.399000
742.000000	35.215900
741.000000	35.026700
740.000000	34.812500
739.000000	34.603300
738.000000	34.336800
737.000000	34.264200
736.000000	34.058300
735.000000	33.810200
734.000000	33.665300
733.000000	33.440500
732.000000	33.225700
731.000000	33.057700
730.000000	32.883900
729.000000	32.648400
728.000000	32.469100
727.000000	32.234600
726.000000	32.083000
725.000000	31.843100
724.000000	31.598500
723.000000	31.431600
722.000000	31.258300
721.000000	31.019100
720.000000	30.841700
719.000000	30.677000
718.000000	30.398600
717.000000	30.203800
716.000000	30.039100
715.000000	29.799200
714.000000	29.597500
713.000000	29.419900
712.000000	29.257600
711.000000	29.022400
710.000000	28.802900
709.000000	28.603700
708.000000	28.407500
707.000000	28.191800
706.000000	27.957400
705.000000	27.768600
704.000000	27.578400
703.000000	27.388400
702.000000	27.180000
701.000000	26.975500
700.000000	26.771200
699.000000	26.568600
698.000000	26.387100
697.000000	26.205500
696.000000	25.974300
695.000000	25.786000
694.000000	25.624100
693.000000	25.432900
692.000000	25.234200
691.000000	25.008700
690.000000	24.852300
689.000000	24.708800
688.000000	24.527800
687.000000	24.336700
686.000000	24.168800
685.000000	23.998400
684.000000	23.849100
683.000000	23.682600
682.000000	23.536400
681.000000	23.407900
680.000000	23.251600
679.000000	23.106900
678.000000	22.969300
677.000000	22.827500
676.000000	22.718700
675.000000	22.608500
674.000000	22.474000
673.000000	22.372900
672.000000	22.267400
671.000000	22.154900
670.000000	22.072300
669.000000	22.001100
668.000000	21.951200
667.000000	21.904900
666.000000	21.847700
665.000000	21.831400
664.000000	21.823200
663.000000	21.815300
662.000000	21.809700
661.000000	21.823500
660.000000	21.864200
659.000000	21.896100
658.000000	21.932100
657.000000	21.996200
656.000000	22.055000
655.000000	22.112200
654.000000	22.198400
653.000000	22.316900
652.000000	22.412900
651.000000	22.518100
650.000000	22.662600
649.000000	22.801400
648.000000	22.943600
647.000000	23.068100
646.000000	23.215000
645.000000	23.366000
644.000000	23.493700
643.000000	23.661100
642.000000	23.847100
641.000000	24.031100
640.000000	24.209600
639.000000	24.403000
638.000000	24.603900
637.000000	24.801800
636.000000	25.004700
635.000000	25.231700
634.000000	25.473000
633.000000	25.693500
632.000000	25.906000
631.000000	26.123800
630.000000	26.380900
629.000000	26.641800
628.000000	26.903300
627.000000	27.132700
626.000000	27.355500
625.000000	27.592900
624.000000	27.840200
623.000000	28.088100
622.000000	28.302400
621.000000	28.529000
620.000000	28.732700
619.000000	28.937500
618.000000	29.142100
617.000000	29.370700
616.000000	29.582400
615.000000	29.746500
614.000000	29.922200
613.000000	30.087500
612.000000	30.256600
611.000000	30.433500
610.000000	30.589700
609.000000	30.763900
608.000000	30.922700
607.000000	31.082600
606.000000	31.208000
605.000000	31.359800
604.000000	31.518300
603.000000	31.641500
602.000000	31.756600
601.000000	31.920800
600.000000	32.063200
599.000000	32.167100
598.000000	32.278600
597.000000	32.391200
596.000000	32.486900
595.000000	32.573000
594.000000	32.669000
593.000000	32.752800
592.000000	32.821800
591.000000	32.914600
590.000000	32.997600
589.000000	33.083200
588.000000	33.134600
587.000000	33.184500
586.000000	33.214300
585.000000	33.249300
584.000000	33.264400
583.000000	33.303000
582.000000	33.353400
581.000000	33.349700
580.000000	33.357400
579.000000	33.357200
578.000000	33.380300
577.000000	33.347100
576.000000	33.327500
575.000000	33.301600
574.000000	33.270100
573.000000	33.247300
572.000000	33.184700
571.000000	33.146300
570.000000	33.093600
569.000000	33.022200
568.000000	32.933800
567.000000	32.865500
566.000000	32.781500
565.000000	32.681600
564.000000	32.578000
563.000000	32.455300
562.000000	32.327100
561.000000	32.183200
560.000000	32.065200
559.000000	31.851700
558.000000	31.691300
557.000000	31.524100
556.000000	31.364900
555.000000	31.197200
554.000000	31.002000
553.000000	30.809300
552.000000	30.618800
551.000000	30.400100
550.000000	30.183100
549.000000	29.943400
548.000000	29.726600
547.000000	29.479100
546.000000	29.220800
545.000000	28.977500
544.000000	28.699200
543.000000	28.416200
542.000000	28.102300
541.000000	27.815800
540.000000	27.465600
539.000000	27.135800
538.000000	26.811700
537.000000	26.458900
536.000000	26.111600
535.000000	25.747200
534.000000	25.343200
533.000000	24.948300
532.000000	24.553600
531.000000	24.151800
530.000000	23.738700
529.000000	23.334200
528.000000	22.927900
527.000000	22.518000
526.000000	22.102700
525.000000	21.691500
524.000000	21.268400
523.000000	20.853800
522.000000	20.425300
521.000000	20.005300
520.000000	19.609700
519.000000	19.217300
518.000000	18.838800
517.000000	18.462400
516.000000	18.081000
515.000000	17.735500
514.000000	17.362500
513.000000	17.028200
512.000000	16.699200
511.000000	16.395000
510.000000	16.074800
509.000000	15.792300
508.000000	15.506600
507.000000	15.224900
506.000000	14.956300
505.000000	14.707400
504.000000	14.480000
503.000000	14.242000
502.000000	14.003700
501.000000	13.792800
500.000000	13.593600
499.000000	13.382200
498.000000	13.180600
497.000000	13.037500
496.000000	12.859700
495.000000	12.710300
494.000000	12.534200
493.000000	12.404700
492.000000	12.243400
491.000000	12.132000
490.000000	11.996900
489.000000	11.852200
488.000000	11.759600
487.000000	11.632500
486.000000	11.520000
485.000000	11.412800
484.000000	11.317700
483.000000	11.220000
482.000000	11.094600
481.000000	10.993800
480.000000	10.879600
479.000000	10.772700
478.000000	10.665100
477.000000	10.542100
476.000000	10.455600
475.000000	10.358600
474.000000	10.256900
473.000000	10.160100
472.000000	10.060600
471.000000	9.974400
470.000000	9.863200
469.000000	9.787500
468.000000	9.703900
467.000000	9.623300
466.000000	9.530500
465.000000	9.458600
464.000000	9.396100
463.000000	9.300600
462.000000	9.222200
461.000000	9.167000
460.000000	9.105900
459.000000	9.032200
458.000000	8.938900
457.000000	8.869900
456.000000	8.812300
455.000000	8.736400
454.000000	8.666200
453.000000	8.587600
452.000000	8.523100
451.000000	8.438500
450.000000	8.370500
449.000000	8.295900
448.000000	8.230200
447.000000	8.148300
446.000000	8.074900
445.000000	7.984100
444.000000	7.942300
443.000000	7.869100
442.000000	7.781700
441.000000	7.705900
440.000000	7.623900
439.000000	7.555600
438.000000	7.488200
437.000000	7.385300
436.000000	7.309200
435.000000	7.260600
434.000000	7.175500
433.000000	7.109600
432.000000	7.028900
431.000000	6.983000
430.000000	6.902900
429.000000	6.854500
428.000000	6.789200
427.000000	6.744400
426.000000	6.671000
425.000000	6.613100
424.000000	6.562900
423.000000	6.520400
422.000000	6.473100
421.000000	6.408500
420.000000	6.351800
419.000000	6.325300
418.000000	6.263000
417.000000	6.226100
416.000000	6.187600
415.000000	6.124900
414.000000	6.092900
413.000000	6.051000
412.000000	6.013200
411.000000	5.961000
410.000000	5.930900
409.000000	5.894600
408.000000	5.820900
407.000000	5.799700
406.000000	5.773200
405.000000	5.740000
404.000000	5.709800
403.000000	5.679000
402.000000	5.643200
401.000000	5.606700
400.000000	5.566900
399.000000	5.533300
398.000000	5.486100
397.000000	5.480100
396.000000	5.440300
395.000000	5.406900
394.000000	5.394200
393.000000	5.365900
392.000000	5.338600
391.000000	5.324800
390.000000	5.290400
389.000000	5.272600
388.000000	5.248800
387.000000	5.221200
386.000000	5.223600
385.000000	5.200800
384.000000	5.174400
383.000000	5.164400
382.000000	5.143800
381.000000	5.152900
380.000000	5.130800
379.000000	5.113700
378.000000	5.096900
377.000000	5.090600
376.000000	4.929400
375.000000	4.616300
374.000000	4.629200
373.000000	4.641400
372.000000	4.694500
371.000000	4.914200
370.000000	4.903200
369.000000	4.713500
368.000000	4.770100
367.000000	4.775600
366.000000	4.779600
365.000000	4.926400
364.000000	4.939600
363.000000	4.901600
362.000000	4.972300
361.000000	4.780600
360.000000	4.836400
359.000000	5.018000
358.000000	4.977900
357.000000	4.860000
356.000000	5.093700
355.000000	5.144800
354.000000	5.060700
353.000000	5.025000
352.000000	4.976300
351.000000	4.919500
350.000000	4.953200
349.000000	5.165700
348.000000	5.198100
347.000000	4.940400
346.000000	5.066700
345.000000	5.071700
344.000000	5.066100
343.000000	5.216900
342.000000	5.253000
341.000000	5.119800
340.000000	5.330800
339.000000	5.533600
338.000000	5.244900
337.000000	5.114800
336.000000	5.267700
335.000000	5.058100
334.000000	4.994300
333.000000	5.333400
332.000000	5.309200
331.000000	5.086000
330.000000	5.076700
329.000000	5.053400
328.000000	4.695500
327.000000	4.863000
326.000000	5.526600
325.000000	5.784400
324.000000	5.855100
323.000000	6.157400
322.000000	6.133500
321.000000	5.667700
320.000000	5.611000
319.000000	6.315700
318.000000	6.643900
317.000000	6.750200
316.000000	5.931200
315.000000	5.144300
314.000000	5.100100
313.000000	5.096000
312.000000	5.152200
311.000000	5.157300
310.000000	5.139900
309.000000	5.147000
308.000000	5.169600
307.000000	5.192000
306.000000	5.187400
305.000000	5.193200
304.000000	5.206000
303.000000	5.209000
302.000000	5.176400
301.000000	5.160900
300.000000	5.236600
299.000000	5.270500
298.000000	5.205000
297.000000	5.174200
296.000000	5.193200
295.000000	5.224100
294.000000	5.221200
293.000000	5.261700
292.000000	5.263200
291.000000	5.234800
290.000000	5.249400
289.000000	5.253000
288.000000	5.248600
287.000000	5.276700
286.000000	5.276500
285.000000	5.261700
284.000000	5.299100
283.000000	5.316900
282.000000	5.290900
281.000000	5.252300
280.000000	5.311700
279.000000	5.324600
278.000000	5.314500
277.000000	5.311200
276.000000	5.347300
275.000000	5.403600
274.000000	5.329800
273.000000	5.326300
272.000000	5.365100
271.000000	5.440500
270.000000	5.461700
269.000000	5.456100
268.000000	5.475300
267.000000	5.520700
266.000000	5.566400
265.000000	5.547600
264.000000	5.548200
263.000000	5.616300
262.000000	5.680500
261.000000	5.678900
260.000000	5.680500
259.000000	5.752800
258.000000	5.731900
257.000000	5.787000
256.000000	5.709400
255.000000	5.720200
254.000000	5.807900
253.000000	5.836100
252.000000	5.837800
251.000000	5.845900
250.000000	5.832600
