PE UV       SUBTECH     SPECTRUM    ASCII       PEDS        4.00        
   -1
CICIMAUCR0245-1.Sample.ASC
24/06/21
14:06:48.00
24/06/21
14:06:48.00
Vinicio Soto Monge
C. resplendens. Ventral. Sex M
250,000000
1
Lambda 1050
1050L1511233
PerkinElmer UV WinLab 6.3.2.0749 / 2.02.05 Lambda 900 UV/VIS/NIR, Aug  7 2015 09:38:08

0
0
3350/servo 860,8/2
0
0
UV/VIS
1
1
1
DoubleDePol,CommonBeamDepol,RBeamAtt,SBeamAtt,60mm sphere, WB InGaAs Detector
0
0
0
0
Program
Program
3350/servo 860,8/2
3350/0,2 860,8/0,2
3350/0,2 860,8/0,2
0
15.00
 
 
 
0
 
860,8
319,2
860,8
Front
100
on
S:100 R:100
0
0
0
0
 
0
 
 
 
0
 
 
0
0
0
0
0
 
 
 
 
0
0


0
0
#HDR
-1
-1
#GR
nm
%R
1.0
0.0
2500,000000
-1,000000
2251
8
53,412200
4,221700
#DATA
2482.000000	5.885661
2481.000000	5.832168
2480.000000	5.860199
2479.000000	5.874448
2478.000000	5.833103
2477.000000	5.893953
2476.000000	5.824810
2475.000000	5.814182
2474.000000	5.870010
2473.000000	5.850388
2472.000000	5.848403
2471.000000	5.804838
2470.000000	5.812547
2469.000000	5.817569
2468.000000	5.867791
2467.000000	5.811612
2466.000000	5.763026
2465.000000	5.802502
2464.000000	5.840461
2463.000000	5.855060
2462.000000	5.844666
2461.000000	5.824927
2460.000000	5.826679
2459.000000	5.828197
2458.000000	5.859615
2457.000000	5.847819
2456.000000	5.863703
2455.000000	5.842680
2454.000000	5.849921
2453.000000	5.862302
2452.000000	5.911706
2451.000000	5.922685
2450.000000	5.960059
2449.000000	5.983535
2448.000000	5.983652
2447.000000	5.993813
2446.000000	6.022077
2445.000000	6.033290
2444.000000	6.036560
2443.000000	6.030253
2442.000000	6.087833
2441.000000	6.088651
2440.000000	6.116565
2439.000000	6.142376
2438.000000	6.169473
2437.000000	6.187810
2436.000000	6.184656
2435.000000	6.206497
2434.000000	6.221096
2433.000000	6.253799
2432.000000	6.267815
2431.000000	6.274005
2430.000000	6.273421
2429.000000	6.310795
2428.000000	6.312547
2427.000000	6.322475
2426.000000	6.357163
2425.000000	6.375383
2424.000000	6.349922
2423.000000	6.364755
2422.000000	6.377719
2421.000000	6.392669
2420.000000	6.402947
2419.000000	6.437635
2418.000000	6.432262
2417.000000	6.435532
2416.000000	6.449548
2415.000000	6.457607
2414.000000	6.484236
2413.000000	6.478513
2412.000000	6.491477
2411.000000	6.504208
2410.000000	6.513435
2409.000000	6.515771
2408.000000	6.551043
2407.000000	6.561671
2406.000000	6.556883
2405.000000	6.565876
2404.000000	6.569847
2403.000000	6.581059
2402.000000	6.587483
2401.000000	6.603134
2400.000000	6.630347
2399.000000	6.623690
2398.000000	6.643194
2397.000000	6.654640
2396.000000	6.667137
2395.000000	6.687109
2394.000000	6.709067
2393.000000	6.711870
2392.000000	6.715841
2391.000000	6.737915
2390.000000	6.747609
2389.000000	6.742587
2388.000000	6.765362
2387.000000	6.768516
2386.000000	6.763844
2385.000000	6.784984
2384.000000	6.776691
2383.000000	6.791407
2382.000000	6.797130
2381.000000	6.792459
2380.000000	6.799116
2379.000000	6.802503
2378.000000	6.796663
2377.000000	6.796430
2376.000000	6.789422
2375.000000	6.794678
2374.000000	6.778794
2373.000000	6.768749
2372.000000	6.770618
2371.000000	6.762793
2370.000000	6.760690
2369.000000	6.754734
2368.000000	6.742237
2367.000000	6.746558
2366.000000	6.741536
2365.000000	6.722732
2364.000000	6.713855
2363.000000	6.686876
2362.000000	6.666553
2361.000000	6.662933
2360.000000	6.654757
2359.000000	6.635252
2358.000000	6.619835
2357.000000	6.604652
2356.000000	6.601615
2355.000000	6.597644
2354.000000	6.575220
2353.000000	6.568095
2352.000000	6.573701
2351.000000	6.578840
2350.000000	6.588067
2349.000000	6.600447
2348.000000	6.609674
2347.000000	6.596359
2346.000000	6.608740
2345.000000	6.630814
2344.000000	6.638289
2343.000000	6.653939
2342.000000	6.653122
2341.000000	6.677299
2340.000000	6.701125
2339.000000	6.694117
2338.000000	6.701709
2337.000000	6.704395
2336.000000	6.709184
2335.000000	6.706614
2334.000000	6.707899
2333.000000	6.718410
2332.000000	6.697387
2331.000000	6.692482
2330.000000	6.679751
2329.000000	6.678116
2328.000000	6.663633
2327.000000	6.632916
2326.000000	6.612828
2325.000000	6.601849
2324.000000	6.581643
2323.000000	6.559219
2322.000000	6.525815
2321.000000	6.507361
2320.000000	6.481199
2319.000000	6.449081
2318.000000	6.435182
2317.000000	6.391501
2316.000000	6.354243
2315.000000	6.347469
2314.000000	6.301218
2313.000000	6.268165
2312.000000	6.249244
2311.000000	6.225535
2310.000000	6.176481
2309.000000	6.165268
2308.000000	6.152888
2307.000000	6.141092
2306.000000	6.124974
2305.000000	6.123105
2304.000000	6.128011
2303.000000	6.139457
2302.000000	6.148567
2301.000000	6.158261
2300.000000	6.183956
2299.000000	6.202526
2298.000000	6.219929
2297.000000	6.249594
2296.000000	6.258938
2295.000000	6.279027
2294.000000	6.323409
2293.000000	6.366857
2292.000000	6.353425
2291.000000	6.360083
2290.000000	6.385311
2289.000000	6.393369
2288.000000	6.391501
2287.000000	6.392085
2286.000000	6.400144
2285.000000	6.386128
2284.000000	6.366390
2283.000000	6.369310
2282.000000	6.369193
2281.000000	6.360784
2280.000000	6.350155
2279.000000	6.334388
2278.000000	6.325161
2277.000000	6.304722
2276.000000	6.283232
2275.000000	6.262792
2274.000000	6.268165
2273.000000	6.265011
2272.000000	6.248894
2271.000000	6.246908
2270.000000	6.257303
2269.000000	6.272136
2268.000000	6.264077
2267.000000	6.280428
2266.000000	6.299232
2265.000000	6.348286
2264.000000	6.374332
2263.000000	6.417312
2262.000000	6.484119
2261.000000	6.534108
2260.000000	6.604068
2259.000000	6.649852
2258.000000	6.753449
2257.000000	6.816752
2256.000000	6.912991
2255.000000	6.961928
2254.000000	7.061204
2253.000000	7.162115
2252.000000	7.245858
2251.000000	7.331936
2250.000000	7.423386
2249.000000	7.501756
2248.000000	7.573702
2247.000000	7.640859
2246.000000	7.690497
2245.000000	7.772954
2244.000000	7.838944
2243.000000	7.911824
2242.000000	7.937402
2241.000000	7.996617
2240.000000	8.076505
2239.000000	8.098346
2238.000000	8.153590
2237.000000	8.183723
2236.000000	8.225536
2235.000000	8.246442
2234.000000	8.282181
2233.000000	8.327848
2232.000000	8.347704
2231.000000	8.367208
2230.000000	8.414627
2229.000000	8.419416
2228.000000	8.413342
2227.000000	8.423036
2226.000000	8.420934
2225.000000	8.419766
2224.000000	8.462630
2223.000000	8.456907
2222.000000	8.425489
2221.000000	8.445227
2220.000000	8.461812
2219.000000	8.444410
2218.000000	8.450133
2217.000000	8.433431
2216.000000	8.440672
2215.000000	8.414160
2214.000000	8.420701
2213.000000	8.398159
2212.000000	8.432730
2211.000000	8.394071
2210.000000	8.371530
2209.000000	8.365807
2208.000000	8.395940
2207.000000	8.367208
2206.000000	8.342798
2205.000000	8.357281
2204.000000	8.343966
2203.000000	8.340112
2202.000000	8.341280
2201.000000	8.349339
2200.000000	8.326914
2199.000000	8.321191
2198.000000	8.338477
2197.000000	8.325746
2196.000000	8.333454
2195.000000	8.344200
2194.000000	8.318271
2193.000000	8.295963
2192.000000	8.313483
2191.000000	8.282882
2190.000000	8.294328
2189.000000	8.282765
2188.000000	8.290474
2187.000000	8.273655
2186.000000	8.265012
2185.000000	8.282298
2184.000000	8.248544
2183.000000	8.257888
2182.000000	8.223901
2181.000000	8.247376
2180.000000	8.234763
2179.000000	8.239084
2178.000000	8.251698
2177.000000	8.216893
2176.000000	8.211520
2175.000000	8.219579
2174.000000	8.218762
2173.000000	8.201359
2172.000000	8.249479
2171.000000	8.239785
2170.000000	8.201009
2169.000000	8.219462
2168.000000	8.230441
2167.000000	8.221448
2166.000000	8.250296
2165.000000	8.238850
2164.000000	8.238033
2163.000000	8.256837
2162.000000	8.246909
2161.000000	8.260457
2160.000000	8.281364
2159.000000	8.271670
2158.000000	8.277977
2157.000000	8.298650
2156.000000	8.311380
2155.000000	8.331703
2154.000000	8.359617
2153.000000	8.363821
2152.000000	8.381574
2151.000000	8.390217
2150.000000	8.403064
2149.000000	8.433081
2148.000000	8.433782
2147.000000	8.442424
2146.000000	8.451418
2145.000000	8.475477
2144.000000	8.494865
2143.000000	8.498486
2142.000000	8.513786
2141.000000	8.525699
2140.000000	8.534109
2139.000000	8.557935
2138.000000	8.555949
2137.000000	8.568330
2136.000000	8.593324
2135.000000	8.590988
2134.000000	8.598229
2133.000000	8.618668
2132.000000	8.625559
2131.000000	8.622873
2130.000000	8.632567
2129.000000	8.626143
2128.000000	8.625559
2127.000000	8.630348
2126.000000	8.609558
2125.000000	8.616216
2124.000000	8.616566
2123.000000	8.623691
2122.000000	8.607573
2121.000000	8.603368
2120.000000	8.611661
2119.000000	8.599748
2118.000000	8.582228
2117.000000	8.572417
2116.000000	8.562840
2115.000000	8.558285
2114.000000	8.552679
2113.000000	8.529320
2112.000000	8.527685
2111.000000	8.526984
2110.000000	8.521495
2109.000000	8.506078
2108.000000	8.475945
2107.000000	8.452352
2106.000000	8.456089
2105.000000	8.450600
2104.000000	8.438804
2103.000000	8.419065
2102.000000	8.412174
2101.000000	8.405167
2100.000000	8.394422
2099.000000	8.391735
2098.000000	8.375034
2097.000000	8.371063
2096.000000	8.373982
2095.000000	8.355879
2094.000000	8.336608
2093.000000	8.331586
2092.000000	8.323060
2091.000000	8.326447
2090.000000	8.328432
2089.000000	8.321775
2088.000000	8.311380
2087.000000	8.313950
2086.000000	8.308227
2085.000000	8.291408
2084.000000	8.290591
2083.000000	8.294562
2082.000000	8.282065
2081.000000	8.263261
2080.000000	8.260107
2079.000000	8.256954
2078.000000	8.239434
2077.000000	8.237682
2076.000000	8.228456
2075.000000	8.208717
2074.000000	8.201242
2073.000000	8.205797
2072.000000	8.192599
2071.000000	8.170292
2070.000000	8.145414
2069.000000	8.114814
2068.000000	8.116683
2067.000000	8.117383
2066.000000	8.103368
2065.000000	8.089703
2064.000000	8.088885
2063.000000	8.073118
2062.000000	8.048241
2061.000000	8.057818
2060.000000	8.045905
2059.000000	8.033057
2058.000000	8.021728
2057.000000	8.004676
2056.000000	8.015538
2055.000000	8.038196
2054.000000	8.041934
2053.000000	8.051861
2052.000000	8.054314
2051.000000	8.069030
2050.000000	8.093440
2049.000000	8.122055
2048.000000	8.161182
2047.000000	8.185942
2046.000000	8.213739
2045.000000	8.248544
2044.000000	8.296898
2043.000000	8.343382
2042.000000	8.375150
2041.000000	8.409955
2040.000000	8.448615
2039.000000	8.498603
2038.000000	8.524531
2037.000000	8.552095
2036.000000	8.582228
2035.000000	8.635253
2034.000000	8.677066
2033.000000	8.701359
2032.000000	8.720631
2031.000000	8.740252
2030.000000	8.768283
2029.000000	8.798299
2028.000000	8.799818
2027.000000	8.821191
2026.000000	8.833338
2025.000000	8.857631
2024.000000	8.873983
2023.000000	8.885429
2022.000000	8.911357
2021.000000	8.936819
2020.000000	8.930862
2019.000000	8.919066
2018.000000	8.923387
2017.000000	8.939154
2016.000000	8.948965
2015.000000	8.947680
2014.000000	8.945228
2013.000000	8.951535
2012.000000	8.971623
2011.000000	8.974076
2010.000000	8.944877
2009.000000	8.928760
2008.000000	8.937519
2007.000000	8.926657
2006.000000	8.909138
2005.000000	8.904583
2004.000000	8.877253
2003.000000	8.865457
2002.000000	8.855529
2001.000000	8.829017
2000.000000	8.804022
1999.000000	8.773305
1998.000000	8.763728
1997.000000	8.749012
1996.000000	8.719112
1995.000000	8.702761
1994.000000	8.662700
1993.000000	8.646933
1992.000000	8.622756
1991.000000	8.587134
1990.000000	8.557001
1989.000000	8.519860
1988.000000	8.484821
1987.000000	8.461579
1986.000000	8.431446
1985.000000	8.409488
1984.000000	8.381224
1983.000000	8.326330
1982.000000	8.323644
1981.000000	8.294095
1980.000000	8.244690
1979.000000	8.202761
1978.000000	8.193067
1977.000000	8.145765
1976.000000	8.118084
1975.000000	8.102667
1974.000000	8.045671
1973.000000	8.016706
1972.000000	8.012852
1971.000000	7.962980
1970.000000	7.954104
1969.000000	7.916963
1968.000000	7.913809
1967.000000	7.847586
1966.000000	7.829016
1965.000000	7.798416
1964.000000	7.773655
1963.000000	7.742004
1962.000000	7.715024
1961.000000	7.697972
1960.000000	7.640509
1959.000000	7.647867
1958.000000	7.620420
1957.000000	7.600214
1956.000000	7.554080
1955.000000	7.550343
1954.000000	7.526633
1953.000000	7.507362
1952.000000	7.491244
1951.000000	7.484821
1950.000000	7.448497
1949.000000	7.435183
1948.000000	7.389048
1947.000000	7.367909
1946.000000	7.366857
1945.000000	7.349455
1944.000000	7.352024
1943.000000	7.328198
1942.000000	7.301919
1941.000000	7.283349
1940.000000	7.290941
1939.000000	7.276341
1938.000000	7.287320
1937.000000	7.276458
1936.000000	7.300985
1935.000000	7.282414
1934.000000	7.286385
1933.000000	7.295379
1932.000000	7.312197
1931.000000	7.347586
1930.000000	7.334856
1929.000000	7.327731
1928.000000	7.368259
1927.000000	7.398275
1926.000000	7.431796
1925.000000	7.458308
1924.000000	7.476294
1923.000000	7.519275
1922.000000	7.569497
1921.000000	7.611427
1920.000000	7.670058
1919.000000	7.747143
1918.000000	7.775641
1917.000000	7.826680
1916.000000	7.893721
1915.000000	7.937986
1914.000000	7.966367
1913.000000	8.065877
1912.000000	8.165503
1911.000000	8.234879
1910.000000	8.335323
1909.000000	8.418365
1908.000000	8.462163
1907.000000	8.535861
1906.000000	8.669941
1905.000000	8.765597
1904.000000	8.883443
1903.000000	9.005844
1902.000000	9.109792
1901.000000	9.200659
1900.000000	9.329951
1899.000000	9.488092
1898.000000	9.663985
1897.000000	9.802855
1896.000000	9.946046
1895.000000	10.048475
1894.000000	10.189914
1893.000000	10.345953
1892.000000	10.482953
1891.000000	10.699375
1890.000000	10.915096
1889.000000	11.105939
1888.000000	11.309396
1887.000000	11.521964
1886.000000	11.758474
1885.000000	11.997203
1884.000000	12.283702
1883.000000	12.633737
1882.000000	12.992882
1881.000000	13.311733
1880.000000	13.669360
1879.000000	14.006081
1878.000000	14.323647
1877.000000	14.695873
1876.000000	15.036915
1875.000000	15.356116
1874.000000	15.669945
1873.000000	15.994169
1872.000000	16.341518
1871.000000	16.652310
1870.000000	16.965087
1869.000000	17.250651
1868.000000	17.554202
1867.000000	17.758711
1866.000000	17.937758
1865.000000	18.080598
1864.000000	18.209073
1863.000000	18.314305
1862.000000	18.389638
1861.000000	18.513675
1860.000000	18.615287
1859.000000	18.707204
1858.000000	18.820379
1857.000000	18.883448
1856.000000	18.918137
1855.000000	18.949671
1854.000000	18.972329
1853.000000	19.015544
1852.000000	19.021500
1851.000000	19.003280
1850.000000	18.984943
1849.000000	18.965555
1848.000000	18.953409
1847.000000	18.963687
1846.000000	18.967190
1845.000000	18.945116
1844.000000	18.883565
1843.000000	18.803210
1842.000000	18.771325
1841.000000	18.793516
1840.000000	18.801575
1839.000000	18.791881
1838.000000	18.760113
1837.000000	18.721687
1836.000000	18.701131
1835.000000	18.681977
1834.000000	18.651493
1833.000000	18.594263
1832.000000	18.509587
1831.000000	18.439510
1830.000000	18.400267
1829.000000	18.363126
1828.000000	18.300407
1827.000000	18.239556
1826.000000	18.188867
1825.000000	18.144485
1824.000000	18.090292
1823.000000	18.039253
1822.000000	17.995454
1821.000000	17.967190
1820.000000	17.972563
1819.000000	17.954810
1818.000000	17.927129
1817.000000	17.897346
1816.000000	17.871535
1815.000000	17.863593
1814.000000	17.878075
1813.000000	17.868381
1812.000000	17.856235
1811.000000	17.831474
1810.000000	17.805312
1809.000000	17.787559
1808.000000	17.755440
1807.000000	17.714445
1806.000000	17.673216
1805.000000	17.646470
1804.000000	17.604541
1803.000000	17.544158
1802.000000	17.508652
1801.000000	17.482490
1800.000000	17.439976
1799.000000	17.396529
1798.000000	17.355533
1797.000000	17.302742
1796.000000	17.258360
1795.000000	17.229278
1794.000000	17.204751
1793.000000	17.155930
1792.000000	17.104190
1791.000000	17.062611
1790.000000	17.009586
1789.000000	16.960883
1788.000000	16.919303
1787.000000	16.863826
1786.000000	16.792347
1785.000000	16.739205
1784.000000	16.697743
1783.000000	16.641564
1782.000000	16.568451
1781.000000	16.505848
1780.000000	16.436822
1779.000000	16.374220
1778.000000	16.320378
1777.000000	16.258243
1776.000000	16.183260
1775.000000	16.100569
1774.000000	16.023017
1773.000000	15.928647
1772.000000	15.825750
1771.000000	15.748432
1770.000000	15.653711
1769.000000	15.556303
1768.000000	15.469174
1767.000000	15.384731
1766.000000	15.303559
1765.000000	15.233832
1764.000000	15.190851
1763.000000	15.161652
1762.000000	15.141797
1761.000000	15.158382
1760.000000	15.174850
1759.000000	15.224371
1758.000000	15.267002
1757.000000	15.322713
1756.000000	15.398747
1755.000000	15.444297
1754.000000	15.474897
1753.000000	15.482489
1752.000000	15.497672
1751.000000	15.527689
1750.000000	15.506899
1749.000000	15.474080
1748.000000	15.453524
1747.000000	15.441494
1746.000000	15.372468
1745.000000	15.295850
1744.000000	15.202414
1743.000000	15.110496
1742.000000	14.985992
1741.000000	14.848291
1740.000000	14.698092
1739.000000	14.539601
1738.000000	14.393490
1737.000000	14.227758
1736.000000	14.102320
1735.000000	14.006548
1734.000000	13.951070
1733.000000	13.893840
1732.000000	13.897695
1731.000000	13.907155
1730.000000	13.923390
1729.000000	13.985758
1728.000000	14.072420
1727.000000	14.157447
1726.000000	14.234766
1725.000000	14.284404
1724.000000	14.353079
1723.000000	14.393257
1722.000000	14.437873
1721.000000	14.440092
1720.000000	14.485642
1719.000000	14.482021
1718.000000	14.528622
1717.000000	14.571720
1716.000000	14.588071
1715.000000	14.636074
1714.000000	14.707669
1713.000000	14.757775
1712.000000	14.793047
1711.000000	14.831823
1710.000000	14.877606
1709.000000	14.893607
1708.000000	14.899798
1707.000000	14.874103
1706.000000	14.854831
1705.000000	14.837546
1704.000000	14.812201
1703.000000	14.763030
1702.000000	14.731963
1701.000000	14.645651
1700.000000	14.539251
1699.000000	14.430748
1698.000000	14.342334
1697.000000	14.238503
1696.000000	14.137008
1695.000000	14.104422
1694.000000	14.093093
1693.000000	14.103371
1692.000000	14.205684
1691.000000	14.282535
1690.000000	14.388585
1689.000000	14.521498
1688.000000	14.613299
1687.000000	14.671580
1686.000000	14.701479
1685.000000	14.742942
1684.000000	14.762797
1683.000000	14.854831
1682.000000	14.981554
1681.000000	15.214444
1680.000000	15.549179
1679.000000	15.884264
1678.000000	16.276112
1677.000000	16.715729
1676.000000	17.122877
1675.000000	17.509353
1674.000000	17.848993
1673.000000	18.141565
1672.000000	18.400033
1671.000000	18.649040
1670.000000	18.839884
1669.000000	19.016011
1668.000000	19.146471
1667.000000	19.305313
1666.000000	19.422458
1665.000000	19.512507
1664.000000	19.602206
1663.000000	19.671582
1662.000000	19.754040
1661.000000	19.810218
1660.000000	19.866864
1659.000000	19.869200
1658.000000	19.928765
1657.000000	19.945934
1656.000000	19.978987
1655.000000	20.001062
1654.000000	20.027808
1653.000000	20.001062
1652.000000	19.997791
1651.000000	19.995923
1650.000000	19.959599
1649.000000	19.940678
1648.000000	19.927013
1647.000000	19.895946
1646.000000	19.854133
1645.000000	19.796086
1644.000000	19.767471
1643.000000	19.703000
1642.000000	19.658384
1641.000000	19.617039
1640.000000	19.564014
1639.000000	19.521734
1638.000000	19.448854
1637.000000	19.406457
1636.000000	19.350629
1635.000000	19.275413
1634.000000	19.203117
1633.000000	19.138646
1632.000000	19.090993
1631.000000	19.036100
1630.000000	18.962402
1629.000000	18.895478
1628.000000	18.809400
1627.000000	18.759645
1626.000000	18.700080
1625.000000	18.616338
1624.000000	18.546027
1623.000000	18.459131
1622.000000	18.387302
1621.000000	18.339650
1620.000000	18.262448
1619.000000	18.190502
1618.000000	18.146938
1617.000000	18.096833
1616.000000	18.020565
1615.000000	17.941612
1614.000000	17.896879
1613.000000	17.832875
1612.000000	17.784873
1611.000000	17.704518
1610.000000	17.665391
1609.000000	17.587022
1608.000000	17.557239
1607.000000	17.490315
1606.000000	17.431334
1605.000000	17.378075
1604.000000	17.328904
1603.000000	17.282186
1602.000000	17.193188
1601.000000	17.130002
1600.000000	17.093562
1599.000000	17.033763
1598.000000	16.967540
1597.000000	16.944298
1596.000000	16.887185
1595.000000	16.804143
1594.000000	16.763265
1593.000000	16.741541
1592.000000	16.677421
1591.000000	16.637827
1590.000000	16.591926
1589.000000	16.554902
1588.000000	16.516827
1587.000000	16.478869
1586.000000	16.442779
1585.000000	16.407740
1584.000000	16.377490
1583.000000	16.343036
1582.000000	16.305545
1581.000000	16.284171
1580.000000	16.261396
1579.000000	16.249833
1578.000000	16.213977
1577.000000	16.215145
1576.000000	16.199378
1575.000000	16.180107
1574.000000	16.174734
1573.000000	16.163638
1572.000000	16.162237
1571.000000	16.167376
1570.000000	16.163638
1569.000000	16.174500
1568.000000	16.175552
1567.000000	16.185012
1566.000000	16.188866
1565.000000	16.194356
1564.000000	16.184078
1563.000000	16.193538
1562.000000	16.206152
1561.000000	16.215028
1560.000000	16.230912
1559.000000	16.237453
1558.000000	16.237687
1557.000000	16.240723
1556.000000	16.221686
1555.000000	16.221919
1554.000000	16.211408
1553.000000	16.210123
1552.000000	16.200546
1551.000000	16.179990
1550.000000	16.170413
1549.000000	16.143316
1548.000000	16.122760
1547.000000	16.124278
1546.000000	16.117388
1545.000000	16.097065
1544.000000	16.079196
1543.000000	16.077794
1542.000000	16.060158
1541.000000	16.040536
1540.000000	16.019630
1539.000000	16.027689
1538.000000	16.034113
1537.000000	16.014841
1536.000000	15.991716
1535.000000	15.992066
1534.000000	15.989847
1533.000000	15.982839
1532.000000	15.947567
1531.000000	15.912412
1530.000000	15.902601
1529.000000	15.888469
1528.000000	15.848759
1527.000000	15.824699
1526.000000	15.806712
1525.000000	15.776346
1524.000000	15.747848
1523.000000	15.702414
1522.000000	15.679289
1521.000000	15.663405
1520.000000	15.637476
1519.000000	15.605124
1518.000000	15.569034
1517.000000	15.535280
1516.000000	15.517060
1515.000000	15.480387
1514.000000	15.433435
1513.000000	15.407506
1512.000000	15.364058
1511.000000	15.321895
1510.000000	15.292346
1509.000000	15.250417
1508.000000	15.204750
1507.000000	15.164689
1506.000000	15.130468
1505.000000	15.089006
1504.000000	15.051865
1503.000000	15.032477
1502.000000	14.988796
1501.000000	14.955976
1500.000000	14.934019
1499.000000	14.891272
1498.000000	14.867095
1497.000000	14.835794
1496.000000	14.793514
1495.000000	14.769571
1494.000000	14.745161
1493.000000	14.724722
1492.000000	14.712808
1491.000000	14.690033
1490.000000	14.665039
1489.000000	14.636424
1488.000000	14.619606
1487.000000	14.605707
1486.000000	14.589006
1485.000000	14.579195
1484.000000	14.560741
1483.000000	14.552916
1482.000000	14.542287
1481.000000	14.527922
1480.000000	14.525819
1479.000000	14.521031
1478.000000	14.515425
1477.000000	14.525936
1476.000000	14.509001
1475.000000	14.505147
1474.000000	14.522082
1473.000000	14.528506
1472.000000	14.526987
1471.000000	14.525352
1470.000000	14.538083
1469.000000	14.556770
1468.000000	14.558639
1467.000000	14.557120
1466.000000	14.565763
1465.000000	14.582115
1464.000000	14.606174
1463.000000	14.619956
1462.000000	14.643199
1461.000000	14.649155
1460.000000	14.685011
1459.000000	14.721685
1458.000000	14.762914
1457.000000	14.794331
1456.000000	14.835794
1455.000000	14.887184
1454.000000	14.932851
1453.000000	14.995570
1452.000000	15.049295
1451.000000	15.112131
1450.000000	15.186647
1449.000000	15.237102
1448.000000	15.273075
1447.000000	15.337780
1446.000000	15.416616
1445.000000	15.528389
1444.000000	15.593094
1443.000000	15.646936
1442.000000	15.721218
1441.000000	15.785572
1440.000000	15.870482
1439.000000	15.950254
1438.000000	16.038551
1437.000000	16.126614
1436.000000	16.210941
1435.000000	16.294215
1434.000000	16.388820
1433.000000	16.495103
1432.000000	16.590291
1431.000000	16.701364
1430.000000	16.804260
1429.000000	16.895477
1428.000000	17.033646
1427.000000	17.141681
1426.000000	17.291530
1425.000000	17.451189
1424.000000	17.614001
1423.000000	17.799589
1422.000000	17.959014
1421.000000	18.124747
1420.000000	18.300407
1419.000000	18.491367
1418.000000	18.729979
1417.000000	18.923859
1416.000000	19.088774
1415.000000	19.306364
1414.000000	19.529793
1413.000000	19.820146
1412.000000	20.042991
1411.000000	20.253339
1410.000000	20.498726
1409.000000	20.831826
1408.000000	21.144136
1407.000000	21.530845
1406.000000	21.853784
1405.000000	22.219353
1404.000000	22.629070
1403.000000	23.012509
1402.000000	23.386604
1401.000000	23.714565
1400.000000	24.173687
1399.000000	24.635145
1398.000000	24.962755
1397.000000	25.176140
1396.000000	25.457150
1395.000000	25.876327
1394.000000	26.251474
1393.000000	26.463107
1392.000000	26.718187
1391.000000	27.044280
1390.000000	27.383920
1389.000000	27.655118
1388.000000	28.032601
1387.000000	28.522089
1386.000000	28.970466
1385.000000	29.433209
1384.000000	29.923748
1383.000000	30.521039
1382.000000	31.154303
1381.000000	31.746922
1380.000000	32.237695
1379.000000	32.570561
1378.000000	32.833351
1377.000000	33.033304
1376.000000	33.253229
1375.000000	33.451664
1374.000000	33.725432
1373.000000	34.011347
1372.000000	34.361499
1371.000000	34.754982
1370.000000	35.196234
1369.000000	35.602798
1368.000000	35.950147
1367.000000	36.303453
1366.000000	36.620085
1365.000000	36.905065
1364.000000	37.148116
1363.000000	37.377034
1362.000000	37.585747
1361.000000	37.794577
1360.000000	38.036226
1359.000000	38.126159
1358.000000	38.221580
1357.000000	38.348770
1356.000000	38.558301
1355.000000	38.815718
1354.000000	39.219946
1353.000000	39.794578
1352.000000	40.288972
1351.000000	40.916980
1350.000000	41.507847
1349.000000	42.089370
1348.000000	42.624993
1347.000000	43.114949
1346.000000	43.594627
1345.000000	44.026769
1344.000000	44.419201
1343.000000	44.848073
1342.000000	45.278113
1341.000000	45.639828
1340.000000	46.041954
1339.000000	46.423874
1338.000000	46.817240
1337.000000	47.173582
1336.000000	47.548845
1335.000000	47.887551
1334.000000	48.242258
1333.000000	48.575942
1332.000000	48.916400
1331.000000	49.230930
1330.000000	49.550248
1329.000000	49.836396
1328.000000	50.128851
1327.000000	50.396779
1326.000000	50.669963
1325.000000	50.924110
1324.000000	51.182461
1323.000000	51.423643
1322.000000	51.632473
1321.000000	51.858121
1320.000000	52.045694
1319.000000	52.235837
1318.000000	52.442447
1317.000000	52.614837
1316.000000	52.816426
1315.000000	52.978888
1314.000000	53.128386
1313.000000	53.288045
1312.000000	53.445368
1311.000000	53.590544
1310.000000	53.709675
1309.000000	53.842939
1308.000000	53.952142
1307.000000	54.062047
1306.000000	54.142635
1305.000000	54.226027
1304.000000	54.307200
1303.000000	54.373539
1302.000000	54.416754
1301.000000	54.476903
1300.000000	54.534833
1299.000000	54.560178
1298.000000	54.589961
1297.000000	54.613203
1296.000000	54.620678
1295.000000	54.648125
1294.000000	54.665177
1293.000000	54.679543
1292.000000	54.693792
1291.000000	54.682463
1290.000000	54.664827
1289.000000	54.652563
1288.000000	54.618342
1287.000000	54.562631
1286.000000	54.523037
1285.000000	54.476319
1284.000000	54.418856
1283.000000	54.354268
1282.000000	54.276366
1281.000000	54.202434
1280.000000	54.128386
1279.000000	54.061579
1278.000000	53.978421
1277.000000	53.898767
1276.000000	53.832194
1275.000000	53.801360
1274.000000	53.736421
1273.000000	53.673469
1272.000000	53.615188
1271.000000	53.557141
1270.000000	53.510306
1269.000000	53.476202
1268.000000	53.415585
1267.000000	53.341070
1266.000000	53.277767
1265.000000	53.212945
1264.000000	53.137496
1263.000000	53.068003
1262.000000	53.010422
1261.000000	52.965573
1260.000000	52.898766
1259.000000	52.826704
1258.000000	52.748451
1257.000000	52.670198
1256.000000	52.610749
1255.000000	52.544643
1254.000000	52.449105
1253.000000	52.342354
1252.000000	52.247633
1251.000000	52.142517
1250.000000	52.057374
1249.000000	51.952141
1248.000000	51.827054
1247.000000	51.707806
1246.000000	51.571506
1245.000000	51.417803
1244.000000	51.271225
1243.000000	51.117523
1242.000000	50.953309
1241.000000	50.789095
1240.000000	50.610748
1239.000000	50.427497
1238.000000	50.253121
1237.000000	50.053752
1236.000000	49.855901
1235.000000	49.659685
1234.000000	49.449220
1233.000000	49.236302
1232.000000	49.011822
1231.000000	48.795284
1230.000000	48.569635
1229.000000	48.335811
1228.000000	48.117171
1227.000000	47.882763
1226.000000	47.635157
1225.000000	47.386383
1224.000000	47.142982
1223.000000	46.907523
1222.000000	46.649873
1221.000000	46.397361
1220.000000	46.158982
1219.000000	45.919786
1218.000000	45.708620
1217.000000	45.494067
1216.000000	45.281850
1215.000000	45.079911
1214.000000	44.878557
1213.000000	44.691684
1212.000000	44.506564
1211.000000	44.330203
1210.000000	44.170310
1209.000000	44.016958
1208.000000	43.873183
1207.000000	43.746344
1206.000000	43.624877
1205.000000	43.532842
1204.000000	43.440924
1203.000000	43.371665
1202.000000	43.347488
1201.000000	43.306143
1200.000000	43.249263
1199.000000	43.179186
1198.000000	43.100350
1197.000000	42.982854
1196.000000	42.813267
1195.000000	42.590772
1194.000000	42.318639
1193.000000	41.978648
1192.000000	41.551528
1191.000000	41.046156
1190.000000	40.537279
1189.000000	40.039614
1188.000000	39.560871
1187.000000	39.207215
1186.000000	38.996750
1185.000000	38.898525
1184.000000	38.945360
1183.000000	39.153256
1182.000000	39.511350
1181.000000	40.024081
1180.000000	40.594158
1179.000000	41.165053
1178.000000	41.779162
1177.000000	42.331253
1176.000000	42.795748
1175.000000	43.217729
1174.000000	43.602803
1173.000000	43.975846
1172.000000	44.364190
1171.000000	44.739570
1170.000000	45.147886
1169.000000	45.557604
1168.000000	45.977950
1167.000000	46.401683
1166.000000	46.836161
1165.000000	47.275778
1164.000000	47.695306
1163.000000	48.168093
1162.000000	48.650107
1161.000000	49.120792
1160.000000	49.575359
1159.000000	50.038101
1158.000000	50.494303
1157.000000	50.922942
1156.000000	51.333360
1155.000000	51.682695
1154.000000	51.994304
1153.000000	52.253473
1152.000000	52.439294
1151.000000	52.590427
1150.000000	52.676855
1149.000000	52.752422
1148.000000	52.823667
1147.000000	52.942564
1146.000000	53.057725
1145.000000	53.236772
1144.000000	53.532964
1143.000000	53.889540
1142.000000	54.292133
1141.000000	54.720071
1140.000000	55.204537
1139.000000	55.685967
1138.000000	56.186318
1137.000000	56.708743
1136.000000	57.234555
1135.000000	57.816779
1134.000000	58.415938
1133.000000	58.988235
1132.000000	59.466044
1131.000000	59.919559
1130.000000	60.313627
1129.000000	60.716687
1128.000000	61.042195
1127.000000	61.313510
1126.000000	61.527596
1125.000000	61.704774
1124.000000	61.821686
1123.000000	61.947358
1122.000000	62.070110
1121.000000	62.174408
1120.000000	62.269245
1119.000000	62.304050
1118.000000	62.342242
1117.000000	62.369339
1116.000000	62.380201
1115.000000	62.382887
1114.000000	62.376931
1113.000000	62.379967
1112.000000	62.365134
1111.000000	62.342242
1110.000000	62.322854
1109.000000	62.297627
1108.000000	62.276720
1107.000000	62.267610
1106.000000	62.233740
1105.000000	62.237944
1104.000000	62.214001
1103.000000	62.197183
1102.000000	62.166232
1101.000000	62.131193
1100.000000	62.100710
1099.000000	62.050138
1098.000000	62.045583
1097.000000	61.992090
1096.000000	61.940700
1095.000000	61.918276
1094.000000	61.838505
1093.000000	61.792137
1092.000000	61.749273
1091.000000	61.664597
1090.000000	61.628740
1089.000000	61.541728
1088.000000	61.479827
1087.000000	61.391179
1086.000000	61.329745
1085.000000	61.287231
1084.000000	61.190291
1083.000000	61.086928
1082.000000	60.996178
1081.000000	60.941985
1080.000000	60.838387
1079.000000	60.769595
1078.000000	60.701387
1077.000000	60.620097
1076.000000	60.566839
1075.000000	60.487418
1074.000000	60.391879
1073.000000	60.311524
1072.000000	60.228716
1071.000000	60.134696
1070.000000	60.057495
1069.000000	59.976906
1068.000000	59.882652
1067.000000	59.820868
1066.000000	59.733154
1065.000000	59.633411
1064.000000	59.544530
1063.000000	59.444086
1062.000000	59.381134
1061.000000	59.303582
1060.000000	59.164362
1059.000000	59.074196
1058.000000	58.978657
1057.000000	58.883236
1056.000000	58.761885
1055.000000	58.671720
1054.000000	58.551304
1053.000000	58.458802
1052.000000	58.357424
1051.000000	58.252308
1050.000000	58.151397
1049.000000	58.078750
1048.000000	57.967912
1047.000000	57.907178
1046.000000	57.815844
1045.000000	57.731051
1044.000000	57.646491
1043.000000	57.565435
1042.000000	57.495008
1041.000000	57.412434
1040.000000	57.304982
1039.000000	57.246701
1038.000000	57.166346
1037.000000	57.078049
1036.000000	56.967911
1035.000000	56.882300
1034.000000	56.780104
1033.000000	56.682580
1032.000000	56.558894
1031.000000	56.456932
1030.000000	56.336399
1029.000000	56.248453
1028.000000	56.162491
1027.000000	56.038572
1026.000000	55.901454
1025.000000	55.781155
1024.000000	55.666696
1023.000000	55.541725
1022.000000	55.426565
1021.000000	55.302528
1020.000000	55.165878
1019.000000	55.056558
1018.000000	54.942799
1017.000000	54.822266
1016.000000	54.738758
1015.000000	54.643453
1014.000000	54.544411
1013.000000	54.457865
1012.000000	54.380897
1011.000000	54.318996
1010.000000	54.257328
1009.000000	54.206289
1008.000000	54.176739
1007.000000	54.147774
1006.000000	54.088676
1005.000000	54.039038
1004.000000	54.002014
1003.000000	53.963238
1002.000000	53.922126
1001.000000	53.860341
1000.000000	53.832310
999.000000	53.812338
998.000000	53.775898
997.000000	53.734670
996.000000	53.686200
995.000000	53.648942
994.000000	53.623948
993.000000	53.588676
992.000000	53.543476
991.000000	53.530278
990.000000	53.491736
989.000000	53.487881
988.000000	53.463237
987.000000	53.436959
986.000000	53.406008
985.000000	53.387087
984.000000	53.367465
983.000000	53.369801
982.000000	53.353684
981.000000	53.323083
980.000000	53.320514
979.000000	53.318411
978.000000	53.296571
977.000000	53.258496
976.000000	53.248334
975.000000	53.246232
974.000000	53.225910
973.000000	53.202434
972.000000	53.182228
971.000000	53.189703
970.000000	53.156767
969.000000	53.134342
968.000000	53.146839
967.000000	53.129670
966.000000	53.095333
965.000000	53.087391
964.000000	53.072090
963.000000	53.070105
962.000000	53.091712
961.000000	53.087858
960.000000	53.083186
959.000000	53.096968
958.000000	53.085171
957.000000	53.086339
956.000000	53.088208
955.000000	53.059944
954.000000	53.062280
953.000000	53.057608
952.000000	53.010656
951.000000	52.995239
950.000000	52.980406
949.000000	52.948404
948.000000	52.952492
947.000000	52.929483
946.000000	52.885919
945.000000	52.864428
944.000000	52.854034
943.000000	52.827404
942.000000	52.770992
941.000000	52.733267
940.000000	52.695426
939.000000	52.629553
938.000000	52.586222
937.000000	52.575477
936.000000	52.535300
935.000000	52.474333
934.000000	52.437075
933.000000	52.413833
932.000000	52.365596
931.000000	52.339901
930.000000	52.313272
929.000000	52.253356
928.000000	52.222172
927.000000	52.160153
926.000000	52.072323
925.000000	52.007152
924.000000	51.940462
923.000000	51.859172
922.000000	51.837448
921.000000	51.794584
920.000000	51.719018
919.000000	51.639948
918.000000	51.581316
917.000000	51.502713
916.000000	51.424110
915.000000	51.345273
914.000000	51.239574
913.000000	51.147773
912.000000	51.040905
911.000000	50.954360
910.000000	50.876341
909.000000	50.819461
908.000000	50.767254
907.000000	50.691454
906.000000	50.636443
905.000000	50.589725
904.000000	50.536583
903.000000	50.487062
902.000000	50.446768
901.000000	50.377391
900.000000	50.338499
899.000000	50.320512
898.000000	50.305329
897.000000	50.282787
896.000000	50.270641
895.000000	50.210841
894.000000	50.119274
893.000000	50.043941
892.000000	50.012406
891.000000	49.917335
890.000000	49.849711
889.000000	49.781386
888.000000	49.722170
887.000000	49.603623
886.000000	49.514509
885.000000	49.418152
884.000000	49.312686
883.000000	49.179657
882.000000	49.076760
881.000000	48.964870
880.000000	48.835695
879.000000	48.679773
878.000000	48.566832
877.000000	48.420605
876.000000	48.222170
875.000000	48.002945
874.000000	47.828219
873.000000	47.617404
872.000000	47.422706
871.000000	47.327051
870.000000	47.322146
869.000000	47.342235
868.000000	47.357184
867.000000	47.379375
866.000000	47.400749
865.000000	47.424342
864.000000	47.433101
863.000000	47.476432
862.000000	47.517895
861.000000	47.522566
860.000000	47.535998
859.000000	47.558890
858.000000	47.598600
857.000000	46.616200
856.000000	47.989300
855.000000	48.190300
854.000000	48.261500
853.000000	48.838500
852.000000	48.062900
851.000000	48.163400
850.000000	48.380300
849.000000	48.376800
848.000000	48.237200
847.000000	48.551500
846.000000	48.574000
845.000000	48.601900
844.000000	48.476800
843.000000	48.464100
842.000000	48.451800
841.000000	48.437900
840.000000	48.416800
839.000000	48.361300
838.000000	48.295700
837.000000	48.364400
836.000000	48.279200
835.000000	48.324200
834.000000	48.324600
833.000000	48.405600
832.000000	48.260500
831.000000	48.238900
830.000000	48.087300
829.000000	48.270600
828.000000	48.180300
827.000000	48.246800
826.000000	48.286800
825.000000	48.153100
824.000000	48.176700
823.000000	48.097300
822.000000	48.163000
821.000000	48.016500
820.000000	48.030100
819.000000	48.217900
818.000000	48.025600
817.000000	47.906800
816.000000	47.876100
815.000000	47.887700
814.000000	47.790200
813.000000	47.654600
812.000000	47.658400
811.000000	47.537200
810.000000	47.624000
809.000000	47.498600
808.000000	47.500000
807.000000	47.436300
806.000000	47.424300
805.000000	47.404000
804.000000	47.319100
803.000000	47.094000
802.000000	47.230500
801.000000	47.118300
800.000000	47.060200
799.000000	47.076100
798.000000	47.020200
797.000000	46.874800
796.000000	46.904800
795.000000	46.666300
794.000000	46.629600
793.000000	46.681800
792.000000	46.621800
791.000000	46.398100
790.000000	46.440400
789.000000	46.335500
788.000000	46.309300
787.000000	46.230300
786.000000	46.154000
785.000000	46.004200
784.000000	46.139700
783.000000	45.940700
782.000000	45.817900
781.000000	45.771500
780.000000	45.630800
779.000000	45.504600
778.000000	45.451900
777.000000	45.433700
776.000000	45.351200
775.000000	45.230300
774.000000	45.001000
773.000000	44.948200
772.000000	44.815800
771.000000	44.862100
770.000000	44.692700
769.000000	44.675700
768.000000	44.524700
767.000000	44.441400
766.000000	44.270800
765.000000	44.151900
764.000000	44.111700
763.000000	44.011800
762.000000	43.824400
761.000000	43.719900
760.000000	43.680500
759.000000	43.613000
758.000000	43.363400
757.000000	43.199400
756.000000	43.094000
755.000000	42.901300
754.000000	42.743200
753.000000	42.709800
752.000000	42.665300
751.000000	42.467500
750.000000	42.312000
749.000000	42.101600
748.000000	42.029500
747.000000	41.912900
746.000000	41.711500
745.000000	41.535700
744.000000	41.290400
743.000000	41.228100
742.000000	41.055100
741.000000	40.863400
740.000000	40.638200
739.000000	40.407200
738.000000	40.234200
737.000000	40.042900
736.000000	39.860600
735.000000	39.692500
734.000000	39.480400
733.000000	39.334200
732.000000	39.105900
731.000000	38.885400
730.000000	38.685700
729.000000	38.521400
728.000000	38.310100
727.000000	38.059800
726.000000	37.853300
725.000000	37.693600
724.000000	37.450700
723.000000	37.203900
722.000000	36.993400
721.000000	36.745700
720.000000	36.508900
719.000000	36.319900
718.000000	36.093900
717.000000	35.882100
716.000000	35.651500
715.000000	35.431200
714.000000	35.248100
713.000000	34.999500
712.000000	34.754100
711.000000	34.530500
710.000000	34.312000
709.000000	34.090200
708.000000	33.864900
707.000000	33.623800
706.000000	33.432000
705.000000	33.243400
704.000000	32.987400
703.000000	32.781100
702.000000	32.596400
701.000000	32.404000
700.000000	32.195600
699.000000	31.984700
698.000000	31.801700
697.000000	31.607500
696.000000	31.390700
695.000000	31.191900
694.000000	31.014400
693.000000	30.810300
692.000000	30.623200
691.000000	30.429800
690.000000	30.268600
689.000000	30.112800
688.000000	29.899300
687.000000	29.750900
686.000000	29.611800
685.000000	29.438300
684.000000	29.269600
683.000000	29.105900
682.000000	28.962700
681.000000	28.800400
680.000000	28.629300
679.000000	28.472200
678.000000	28.322100
677.000000	28.198000
676.000000	28.058200
675.000000	27.906000
674.000000	27.746600
673.000000	27.612400
672.000000	27.477500
671.000000	27.328900
670.000000	27.224200
669.000000	27.096900
668.000000	26.952600
667.000000	26.823800
666.000000	26.725400
665.000000	26.591800
664.000000	26.472200
663.000000	26.380000
662.000000	26.283400
661.000000	26.178700
660.000000	26.083700
659.000000	25.981800
658.000000	25.868300
657.000000	25.784800
656.000000	25.708400
655.000000	25.637900
654.000000	25.567800
653.000000	25.511700
652.000000	25.442100
651.000000	25.362300
650.000000	25.297400
649.000000	25.217700
648.000000	25.202100
647.000000	25.189600
646.000000	25.125000
645.000000	25.058400
644.000000	25.018600
643.000000	24.974900
642.000000	24.928200
641.000000	24.910000
640.000000	24.895100
639.000000	24.880600
638.000000	24.871000
637.000000	24.879000
636.000000	24.894400
635.000000	24.883200
634.000000	24.879300
633.000000	24.883000
632.000000	24.899100
631.000000	24.933500
630.000000	24.957100
629.000000	24.988300
628.000000	25.026500
627.000000	25.058000
626.000000	25.104800
625.000000	25.170500
624.000000	25.254800
623.000000	25.324400
622.000000	25.387600
621.000000	25.466600
620.000000	25.537900
619.000000	25.611300
618.000000	25.705300
617.000000	25.786600
616.000000	25.869000
615.000000	25.988600
614.000000	26.086200
613.000000	26.191800
612.000000	26.291700
611.000000	26.402400
610.000000	26.519600
609.000000	26.651200
608.000000	26.738400
607.000000	26.858300
606.000000	26.957200
605.000000	27.046700
604.000000	27.179700
603.000000	27.284800
602.000000	27.420100
601.000000	27.540300
600.000000	27.649200
599.000000	27.753300
598.000000	27.863000
597.000000	27.966300
596.000000	28.079400
595.000000	28.173500
594.000000	28.257600
593.000000	28.367700
592.000000	28.447500
591.000000	28.515800
590.000000	28.597100
589.000000	28.674200
588.000000	28.725300
587.000000	28.785900
586.000000	28.826000
585.000000	28.863200
584.000000	28.901500
583.000000	28.941000
582.000000	28.975600
581.000000	29.002200
580.000000	28.997200
579.000000	29.015800
578.000000	28.992200
577.000000	28.977500
576.000000	28.972100
575.000000	28.942200
574.000000	28.918200
573.000000	28.874400
572.000000	28.824900
571.000000	28.779400
570.000000	28.728300
569.000000	28.642000
568.000000	28.556200
567.000000	28.489700
566.000000	28.374900
565.000000	28.290800
564.000000	28.171200
563.000000	28.036900
562.000000	27.907000
561.000000	27.779100
560.000000	27.631300
559.000000	27.491100
558.000000	27.355600
557.000000	27.195000
556.000000	27.015800
555.000000	26.846400
554.000000	26.639000
553.000000	26.428300
552.000000	26.205300
551.000000	25.989300
550.000000	25.757400
549.000000	25.531700
548.000000	25.291900
547.000000	25.056900
546.000000	24.808500
545.000000	24.560500
544.000000	24.294900
543.000000	24.014500
542.000000	23.726500
541.000000	23.425200
540.000000	23.165500
539.000000	22.859100
538.000000	22.577000
537.000000	22.296100
536.000000	22.016400
535.000000	21.703900
534.000000	21.428000
533.000000	21.113600
532.000000	20.823500
531.000000	20.534200
530.000000	20.241700
529.000000	19.970000
528.000000	19.692300
527.000000	19.424800
526.000000	19.148600
525.000000	18.887600
524.000000	18.600100
523.000000	18.326000
522.000000	18.076800
521.000000	17.811000
520.000000	17.576500
519.000000	17.339600
518.000000	17.089200
517.000000	16.865900
516.000000	16.619800
515.000000	16.404700
514.000000	16.190200
513.000000	15.982400
512.000000	15.767700
511.000000	15.588300
510.000000	15.404900
509.000000	15.213600
508.000000	15.032500
507.000000	14.884500
506.000000	14.718000
505.000000	14.564600
504.000000	14.433700
503.000000	14.282900
502.000000	14.157800
501.000000	14.008900
500.000000	13.909100
499.000000	13.797000
498.000000	13.683300
497.000000	13.553000
496.000000	13.472500
495.000000	13.377900
494.000000	13.297500
493.000000	13.204300
492.000000	13.120500
491.000000	13.043700
490.000000	12.979900
489.000000	12.912000
488.000000	12.864300
487.000000	12.783200
486.000000	12.713500
485.000000	12.646000
484.000000	12.599700
483.000000	12.514900
482.000000	12.437000
481.000000	12.337200
480.000000	12.239500
479.000000	12.149100
478.000000	12.071200
477.000000	11.986800
476.000000	11.908400
475.000000	11.832300
474.000000	11.751900
473.000000	11.644400
472.000000	11.569400
471.000000	11.470500
470.000000	11.392200
469.000000	11.295900
468.000000	11.230200
467.000000	11.160500
466.000000	11.069600
465.000000	10.991200
464.000000	10.875700
463.000000	10.808900
462.000000	10.720700
461.000000	10.636700
460.000000	10.551200
459.000000	10.478900
458.000000	10.380100
457.000000	10.307900
456.000000	10.200000
455.000000	10.124700
454.000000	10.034700
453.000000	9.942900
452.000000	9.842100
451.000000	9.758900
450.000000	9.658700
449.000000	9.562800
448.000000	9.442500
447.000000	9.358100
446.000000	9.260600
445.000000	9.165000
444.000000	9.084600
443.000000	8.984100
442.000000	8.884200
441.000000	8.785700
440.000000	8.678200
439.000000	8.571200
438.000000	8.482400
437.000000	8.385000
436.000000	8.272600
435.000000	8.174200
434.000000	8.076300
433.000000	7.974800
432.000000	7.885900
431.000000	7.803900
430.000000	7.700900
429.000000	7.618400
428.000000	7.528100
427.000000	7.417100
426.000000	7.333600
425.000000	7.247500
424.000000	7.172700
423.000000	7.093800
422.000000	6.997200
421.000000	6.920400
420.000000	6.831000
419.000000	6.745500
418.000000	6.671000
417.000000	6.590700
416.000000	6.525400
415.000000	6.455200
414.000000	6.384300
413.000000	6.319800
412.000000	6.262300
411.000000	6.183900
410.000000	6.111300
409.000000	6.047600
408.000000	5.988400
407.000000	5.929300
406.000000	5.868000
405.000000	5.823300
404.000000	5.756000
403.000000	5.704000
402.000000	5.654100
401.000000	5.593200
400.000000	5.542000
399.000000	5.510200
398.000000	5.471700
397.000000	5.416900
396.000000	5.357700
395.000000	5.339200
394.000000	5.303100
393.000000	5.237200
392.000000	5.203600
391.000000	5.169200
390.000000	5.142800
389.000000	5.101900
388.000000	5.060900
387.000000	5.011100
386.000000	4.991000
385.000000	4.976400
384.000000	4.965600
383.000000	4.927800
382.000000	4.902500
381.000000	4.883700
380.000000	4.867300
379.000000	4.829900
378.000000	4.799400
377.000000	4.783300
376.000000	4.736500
375.000000	4.560800
374.000000	4.439700
373.000000	4.474300
372.000000	4.548900
371.000000	4.522800
370.000000	4.397900
369.000000	4.389600
368.000000	4.457100
367.000000	4.480800
366.000000	4.550900
365.000000	4.490900
364.000000	4.488200
363.000000	4.526600
362.000000	4.496900
361.000000	4.436400
360.000000	4.481700
359.000000	4.488400
358.000000	4.490500
357.000000	4.483300
356.000000	4.456900
355.000000	4.379900
354.000000	4.410900
353.000000	4.442600
352.000000	4.421100
351.000000	4.345500
350.000000	4.340000
349.000000	4.360700
348.000000	4.372100
347.000000	4.369400
346.000000	4.478500
345.000000	4.489200
344.000000	4.432100
343.000000	4.495100
342.000000	4.553600
341.000000	4.524600
340.000000	4.466400
339.000000	4.550800
338.000000	4.533800
337.000000	4.433600
336.000000	4.470000
335.000000	4.374800
334.000000	4.238200
333.000000	4.432000
332.000000	4.642800
331.000000	4.560900
330.000000	4.346700
329.000000	4.390200
328.000000	4.520500
327.000000	4.435300
326.000000	4.379800
325.000000	4.390200
324.000000	4.461100
323.000000	4.362300
322.000000	4.221700
321.000000	4.435200
320.000000	4.632300
319.000000	4.612900
318.000000	4.402300
317.000000	4.468500
316.000000	4.507900
315.000000	4.398300
314.000000	4.411800
313.000000	4.428100
312.000000	4.416000
311.000000	4.425400
310.000000	4.407500
309.000000	4.383900
308.000000	4.370300
307.000000	4.388200
306.000000	4.430800
305.000000	4.423400
304.000000	4.421900
303.000000	4.430800
302.000000	4.417600
301.000000	4.407400
300.000000	4.415200
299.000000	4.422400
298.000000	4.421000
297.000000	4.431600
296.000000	4.455100
295.000000	4.446100
294.000000	4.434200
293.000000	4.425600
292.000000	4.416300
291.000000	4.428900
290.000000	4.447300
289.000000	4.458600
288.000000	4.444500
287.000000	4.408800
286.000000	4.403500
285.000000	4.418200
284.000000	4.432200
283.000000	4.458700
282.000000	4.434000
281.000000	4.436200
280.000000	4.435200
279.000000	4.441300
278.000000	4.440100
277.000000	4.439600
276.000000	4.472600
275.000000	4.482100
274.000000	4.464500
273.000000	4.472300
272.000000	4.486900
271.000000	4.484100
270.000000	4.514700
269.000000	4.547500
268.000000	4.537700
267.000000	4.601000
266.000000	4.593000
265.000000	4.585300
264.000000	4.594900
263.000000	4.609300
262.000000	4.626800
261.000000	4.676300
260.000000	4.688300
259.000000	4.718900
258.000000	4.702600
257.000000	4.718100
256.000000	4.758500
255.000000	4.716800
254.000000	4.776400
253.000000	4.770500
252.000000	4.759700
251.000000	4.740400
250.000000	4.767600
