PE UV       SUBTECH     SPECTRUM    ASCII       PEDS        4.00        
   -1
CICIMAUCR0253-1.Sample.ASC
24/06/26
16:05:43.00
24/06/26
16:05:43.00
Vinicio Soto Monge
C. resplendens. Sex M. Ventral
250,000000
1
Lambda 1050
1050L1511233
PerkinElmer UV WinLab 6.3.2.0749 / 2.02.05 Lambda 900 UV/VIS/NIR, Aug  7 2015 09:38:08

0
0
3350/servo 860,8/2
0
0
UV/VIS
1
1
1
DoubleDePol,CommonBeamDepol,RBeamAtt,SBeamAtt,60mm sphere, WB InGaAs Detector
0
0
0
0
Program
Program
3350/servo 860,8/2
3350/0,2 860,8/0,2
3350/0,2 860,8/0,2
0
15.00
 
 
 
0
 
860,8
319,2
860,8
Front
100
on
S:100 R:100
0
0
0
0
 
0
 
 
 
0
 
 
0
0
0
0
0
 
 
 
 
0
0


0
0
#HDR
-1
-1
#GR
nm
%R
1.0
0.0
2500,000000
-1,000000
2251
8
61,810600
4,609400
#DATA
2482.000000	6.196493
2481.000000	6.155095
2480.000000	6.174663
2479.000000	6.164822
2478.000000	6.244903
2477.000000	6.251463
2476.000000	6.231556
2475.000000	6.196719
2474.000000	6.231217
2473.000000	6.167085
2472.000000	6.218322
2471.000000	6.128289
2470.000000	6.149892
2469.000000	6.155208
2468.000000	6.169007
2467.000000	6.156792
2466.000000	6.178169
2465.000000	6.166858
2464.000000	6.205202
2463.000000	6.182354
2462.000000	6.207577
2461.000000	6.201809
2460.000000	6.217870
2459.000000	6.228389
2458.000000	6.212780
2457.000000	6.216060
2456.000000	6.259607
2455.000000	6.280192
2454.000000	6.292182
2453.000000	6.298403
2452.000000	6.340931
2451.000000	6.375881
2450.000000	6.398729
2449.000000	6.409927
2448.000000	6.397937
2447.000000	6.476774
2446.000000	6.500526
2445.000000	6.510027
2444.000000	6.520886
2443.000000	6.543960
2442.000000	6.592143
2441.000000	6.607413
2440.000000	6.624379
2439.000000	6.653222
2438.000000	6.679123
2437.000000	6.714187
2436.000000	6.763162
2435.000000	6.798113
2434.000000	6.789516
2433.000000	6.800601
2432.000000	6.829896
2431.000000	6.871519
2430.000000	6.882152
2429.000000	6.892897
2428.000000	6.923210
2427.000000	6.927960
2426.000000	6.958952
2425.000000	6.982139
2424.000000	7.007136
2423.000000	7.009285
2422.000000	7.019917
2421.000000	7.040842
2420.000000	7.054528
2419.000000	7.074322
2418.000000	7.087442
2417.000000	7.115267
2416.000000	7.126804
2415.000000	7.143996
2414.000000	7.159605
2413.000000	7.179964
2412.000000	7.194216
2411.000000	7.212313
2410.000000	7.220231
2409.000000	7.238102
2408.000000	7.242060
2407.000000	7.247489
2406.000000	7.255746
2405.000000	7.273957
2404.000000	7.288887
2403.000000	7.305966
2402.000000	7.325873
2401.000000	7.328475
2400.000000	7.334809
2399.000000	7.360145
2398.000000	7.369533
2397.000000	7.392267
2396.000000	7.412061
2395.000000	7.438642
2394.000000	7.445880
2393.000000	7.470538
2392.000000	7.503000
2391.000000	7.525282
2390.000000	7.538063
2389.000000	7.540438
2388.000000	7.533200
2387.000000	7.544058
2386.000000	7.568376
2385.000000	7.585568
2384.000000	7.590771
2383.000000	7.597445
2382.000000	7.607059
2381.000000	7.625495
2380.000000	7.620745
2379.000000	7.628323
2378.000000	7.652981
2377.000000	7.633300
2376.000000	7.626174
2375.000000	7.624364
2374.000000	7.616560
2373.000000	7.620519
2372.000000	7.624817
2371.000000	7.618370
2370.000000	7.627871
2369.000000	7.623007
2368.000000	7.617012
2367.000000	7.615655
2366.000000	7.607511
2365.000000	7.602761
2364.000000	7.601630
2363.000000	7.585116
2362.000000	7.558536
2361.000000	7.547338
2360.000000	7.540778
2359.000000	7.534670
2358.000000	7.532295
2357.000000	7.515329
2356.000000	7.499154
2355.000000	7.500738
2354.000000	7.493612
2353.000000	7.484337
2352.000000	7.501190
2351.000000	7.496553
2350.000000	7.496892
2349.000000	7.503905
2348.000000	7.500625
2347.000000	7.514197
2346.000000	7.536593
2345.000000	7.548695
2344.000000	7.557178
2343.000000	7.569394
2342.000000	7.589980
2341.000000	7.598915
2340.000000	7.604571
2339.000000	7.633865
2338.000000	7.636241
2337.000000	7.632282
2336.000000	7.663160
2335.000000	7.682841
2334.000000	7.669721
2333.000000	7.659880
2332.000000	7.676168
2331.000000	7.671870
2330.000000	7.677525
2329.000000	7.688496
2328.000000	7.657392
2327.000000	7.625043
2326.000000	7.637259
2325.000000	7.626627
2324.000000	7.605475
2323.000000	7.583872
2322.000000	7.571656
2321.000000	7.536367
2320.000000	7.508655
2319.000000	7.473592
2318.000000	7.439999
2317.000000	7.429140
2316.000000	7.394982
2315.000000	7.354942
2314.000000	7.324516
2313.000000	7.291262
2312.000000	7.237536
2311.000000	7.209825
2310.000000	7.174761
2309.000000	7.153497
2308.000000	7.145127
2307.000000	7.134834
2306.000000	7.125559
2305.000000	7.101920
2304.000000	7.100449
2303.000000	7.107688
2302.000000	7.127030
2301.000000	7.134042
2300.000000	7.149651
2299.000000	7.156325
2298.000000	7.179399
2297.000000	7.216046
2296.000000	7.242513
2295.000000	7.287869
2294.000000	7.331415
2293.000000	7.336618
2292.000000	7.355734
2291.000000	7.372134
2290.000000	7.401881
2289.000000	7.423598
2288.000000	7.437397
2287.000000	7.441017
2286.000000	7.448482
2285.000000	7.449387
2284.000000	7.443279
2283.000000	7.437963
2282.000000	7.450292
2281.000000	7.416246
2280.000000	7.411269
2279.000000	7.412627
2278.000000	7.377337
2277.000000	7.367384
2276.000000	7.353698
2275.000000	7.326326
2274.000000	7.302234
2273.000000	7.296918
2272.000000	7.282553
2271.000000	7.278933
2270.000000	7.312074
2269.000000	7.304609
2268.000000	7.319200
2267.000000	7.337410
2266.000000	7.357430
2265.000000	7.407424
2264.000000	7.447803
2263.000000	7.495648
2262.000000	7.542701
2261.000000	7.616107
2260.000000	7.686800
2259.000000	7.751611
2258.000000	7.854199
2257.000000	7.935411
2256.000000	8.031891
2255.000000	8.146922
2254.000000	8.255732
2253.000000	8.356284
2252.000000	8.420756
2251.000000	8.537822
2250.000000	8.657829
2249.000000	8.736100
2248.000000	8.839028
2247.000000	8.921257
2246.000000	9.006427
2245.000000	9.095217
2244.000000	9.148378
2243.000000	9.222011
2242.000000	9.274719
2241.000000	9.363395
2240.000000	9.407281
2239.000000	9.461347
2238.000000	9.521068
2237.000000	9.559977
2236.000000	9.561221
2235.000000	9.613590
2234.000000	9.639378
2233.000000	9.693896
2232.000000	9.676477
2231.000000	9.693444
2230.000000	9.729186
2229.000000	9.768208
2228.000000	9.756897
2227.000000	9.767077
2226.000000	9.792074
2225.000000	9.771036
2224.000000	9.775786
2223.000000	9.762892
2222.000000	9.757915
2221.000000	9.729751
2220.000000	9.719345
2219.000000	9.709505
2218.000000	9.679192
2217.000000	9.664149
2216.000000	9.655326
2215.000000	9.627615
2214.000000	9.617888
2213.000000	9.602844
2212.000000	9.577621
2211.000000	9.548553
2210.000000	9.551041
2209.000000	9.523556
2208.000000	9.530682
2207.000000	9.522651
2206.000000	9.504328
2205.000000	9.490302
2204.000000	9.481706
2203.000000	9.465871
2202.000000	9.454221
2201.000000	9.444380
2200.000000	9.446077
2199.000000	9.452977
2198.000000	9.444946
2197.000000	9.442118
2196.000000	9.415312
2195.000000	9.394048
2194.000000	9.411014
2193.000000	9.412371
2192.000000	9.392125
2191.000000	9.400947
2190.000000	9.386017
2189.000000	9.370634
2188.000000	9.374367
2187.000000	9.381832
2186.000000	9.361925
2185.000000	9.351180
2184.000000	9.335684
2183.000000	9.327766
2182.000000	9.351067
2181.000000	9.329237
2180.000000	9.330594
2179.000000	9.346655
2178.000000	9.325391
2177.000000	9.293269
2176.000000	9.299716
2175.000000	9.317926
2174.000000	9.314307
2173.000000	9.298132
2172.000000	9.295078
2171.000000	9.306615
2170.000000	9.314420
2169.000000	9.320075
2168.000000	9.312836
2167.000000	9.317361
2166.000000	9.329802
2165.000000	9.351745
2164.000000	9.347560
2163.000000	9.363056
2162.000000	9.360228
2161.000000	9.392012
2160.000000	9.402983
2159.000000	9.415990
2158.000000	9.429790
2157.000000	9.445625
2156.000000	9.473562
2155.000000	9.485212
2154.000000	9.502405
2153.000000	9.527741
2152.000000	9.552398
2151.000000	9.585539
2150.000000	9.611327
2149.000000	9.641188
2148.000000	9.675346
2147.000000	9.690277
2146.000000	9.692765
2145.000000	9.731787
2144.000000	9.760517
2143.000000	9.776465
2142.000000	9.798068
2141.000000	9.825893
2140.000000	9.854735
2139.000000	9.867743
2138.000000	9.879506
2137.000000	9.911855
2136.000000	9.912759
2135.000000	9.922487
2134.000000	9.953478
2133.000000	9.962074
2132.000000	9.966599
2131.000000	9.976439
2130.000000	9.984017
2129.000000	9.998834
2128.000000	10.009353
2127.000000	10.015574
2126.000000	10.024284
2125.000000	10.022361
2124.000000	10.030278
2123.000000	10.026772
2122.000000	10.047358
2121.000000	10.041815
2120.000000	10.015461
2119.000000	10.007544
2118.000000	9.990238
2117.000000	10.006865
2116.000000	9.998608
2115.000000	9.991709
2114.000000	9.965581
2113.000000	9.968182
2112.000000	9.946126
2111.000000	9.929726
2110.000000	9.914682
2109.000000	9.913777
2108.000000	9.922374
2107.000000	9.894662
2106.000000	9.862540
2105.000000	9.862653
2104.000000	9.842520
2103.000000	9.820351
2102.000000	9.825214
2101.000000	9.804629
2100.000000	9.782686
2099.000000	9.777143
2098.000000	9.758028
2097.000000	9.758141
2096.000000	9.753617
2095.000000	9.730656
2094.000000	9.729299
2093.000000	9.729977
2092.000000	9.716744
2091.000000	9.697516
2090.000000	9.688354
2089.000000	9.672971
2088.000000	9.670596
2087.000000	9.672858
2086.000000	9.656231
2085.000000	9.627954
2084.000000	9.609857
2083.000000	9.612345
2082.000000	9.600922
2081.000000	9.578752
2080.000000	9.576151
2079.000000	9.559977
2078.000000	9.527175
2077.000000	9.496523
2076.000000	9.479444
2075.000000	9.455804
2074.000000	9.412258
2073.000000	9.393595
2072.000000	9.369616
2071.000000	9.345524
2070.000000	9.330142
2069.000000	9.289423
2068.000000	9.259223
2067.000000	9.233774
2066.000000	9.202217
2065.000000	9.178577
2064.000000	9.140008
2063.000000	9.098045
2062.000000	9.076328
2061.000000	9.050313
2060.000000	9.028257
2059.000000	9.004391
2058.000000	8.982222
2057.000000	8.971477
2056.000000	8.957226
2055.000000	8.928270
2054.000000	8.942748
2053.000000	8.959375
2052.000000	8.941391
2051.000000	8.964578
2050.000000	8.988443
2049.000000	9.023054
2048.000000	9.044092
2047.000000	9.073953
2046.000000	9.104152
2045.000000	9.140234
2044.000000	9.175750
2043.000000	9.214546
2042.000000	9.232304
2041.000000	9.266462
2040.000000	9.322903
2039.000000	9.365544
2038.000000	9.395970
2037.000000	9.426283
2036.000000	9.467794
2035.000000	9.495279
2034.000000	9.525252
2033.000000	9.550476
2032.000000	9.569591
2031.000000	9.601148
2030.000000	9.630782
2029.000000	9.645147
2028.000000	9.665506
2027.000000	9.683603
2026.000000	9.689937
2025.000000	9.687449
2024.000000	9.696724
2023.000000	9.717309
2022.000000	9.724435
2021.000000	9.714821
2020.000000	9.735972
2019.000000	9.732240
2018.000000	9.723078
2017.000000	9.737103
2016.000000	9.741741
2015.000000	9.736311
2014.000000	9.716065
2013.000000	9.713577
2012.000000	9.710636
2011.000000	9.690164
2010.000000	9.669917
2009.000000	9.664941
2008.000000	9.636890
2007.000000	9.631234
2006.000000	9.602618
2005.000000	9.591986
2004.000000	9.599112
2003.000000	9.557828
2002.000000	9.513829
2001.000000	9.486457
2000.000000	9.478200
1999.000000	9.442345
1998.000000	9.426283
1997.000000	9.386356
1996.000000	9.330933
1995.000000	9.305484
1994.000000	9.268385
1993.000000	9.251193
1992.000000	9.210474
1991.000000	9.175071
1990.000000	9.132543
1989.000000	9.106528
1988.000000	9.077007
1987.000000	9.035496
1986.000000	8.972156
1985.000000	8.963447
1984.000000	8.914697
1983.000000	8.880199
1982.000000	8.814257
1981.000000	8.785528
1980.000000	8.788130
1979.000000	8.736552
1978.000000	8.704543
1977.000000	8.657716
1976.000000	8.606818
1975.000000	8.583065
1974.000000	8.558408
1973.000000	8.520517
1972.000000	8.464755
1971.000000	8.427768
1970.000000	8.412499
1969.000000	8.372233
1968.000000	8.347914
1967.000000	8.298486
1966.000000	8.279371
1965.000000	8.243177
1964.000000	8.196916
1963.000000	8.173050
1962.000000	8.148958
1961.000000	8.110501
1960.000000	8.084600
1959.000000	8.071366
1958.000000	8.035285
1957.000000	8.017640
1956.000000	7.964253
1955.000000	7.960747
1954.000000	7.930660
1953.000000	7.897746
1952.000000	7.867320
1951.000000	7.841079
1950.000000	7.815290
1949.000000	7.797532
1948.000000	7.795044
1947.000000	7.768124
1946.000000	7.759189
1945.000000	7.694944
1944.000000	7.692455
1943.000000	7.719149
1942.000000	7.685556
1941.000000	7.642575
1940.000000	7.646647
1939.000000	7.643253
1938.000000	7.639973
1937.000000	7.645968
1936.000000	7.607398
1935.000000	7.628662
1934.000000	7.640539
1933.000000	7.647778
1932.000000	7.638503
1931.000000	7.690645
1930.000000	7.682615
1929.000000	7.712362
1928.000000	7.718922
1927.000000	7.745955
1926.000000	7.789954
1925.000000	7.795949
1924.000000	7.834292
1923.000000	7.888132
1922.000000	7.924100
1921.000000	7.957467
1920.000000	7.995358
1919.000000	8.060055
1918.000000	8.118193
1917.000000	8.148392
1916.000000	8.242046
1915.000000	8.314434
1914.000000	8.353117
1913.000000	8.439984
1912.000000	8.523005
1911.000000	8.631588
1910.000000	8.701489
1909.000000	8.770824
1908.000000	8.869002
1907.000000	8.960393
1906.000000	9.072595
1905.000000	9.191811
1904.000000	9.331047
1903.000000	9.440309
1902.000000	9.580788
1901.000000	9.694349
1900.000000	9.873285
1899.000000	10.017610
1898.000000	10.198583
1897.000000	10.383514
1896.000000	10.556229
1895.000000	10.746024
1894.000000	10.913650
1893.000000	11.112606
1892.000000	11.311789
1891.000000	11.564132
1890.000000	11.819642
1889.000000	12.081260
1888.000000	12.346046
1887.000000	12.630398
1886.000000	12.914186
1885.000000	13.228625
1884.000000	13.564103
1883.000000	13.918921
1882.000000	14.287992
1881.000000	14.648014
1880.000000	15.030883
1879.000000	15.372242
1878.000000	15.742670
1877.000000	16.112419
1876.000000	16.483299
1875.000000	16.854180
1874.000000	17.229245
1873.000000	17.580783
1872.000000	17.938656
1871.000000	18.278771
1870.000000	18.621940
1869.000000	18.949726
1868.000000	19.258397
1867.000000	19.505085
1866.000000	19.736390
1865.000000	19.930483
1864.000000	20.117789
1863.000000	20.289261
1862.000000	20.451118
1861.000000	20.599402
1860.000000	20.783654
1859.000000	20.947095
1858.000000	21.090516
1857.000000	21.238121
1856.000000	21.335507
1855.000000	21.407670
1854.000000	21.480059
1853.000000	21.578802
1852.000000	21.637504
1851.000000	21.671663
1850.000000	21.722901
1849.000000	21.773686
1848.000000	21.784884
1847.000000	21.805583
1846.000000	21.825716
1845.000000	21.817911
1844.000000	21.794046
1843.000000	21.787598
1842.000000	21.793706
1841.000000	21.818137
1840.000000	21.830466
1839.000000	21.808523
1838.000000	21.810220
1837.000000	21.792236
1836.000000	21.761357
1835.000000	21.738170
1834.000000	21.699148
1833.000000	21.660692
1832.000000	21.623366
1831.000000	21.585362
1830.000000	21.547131
1829.000000	21.508222
1828.000000	21.477005
1827.000000	21.420564
1826.000000	21.366046
1825.000000	21.333471
1824.000000	21.281215
1823.000000	21.233371
1822.000000	21.209844
1821.000000	21.195027
1820.000000	21.174781
1819.000000	21.148314
1818.000000	21.120150
1817.000000	21.089611
1816.000000	21.082033
1815.000000	21.057488
1814.000000	21.047535
1813.000000	21.046290
1812.000000	21.020502
1811.000000	20.981027
1810.000000	20.956709
1809.000000	20.933070
1808.000000	20.898911
1807.000000	20.863056
1806.000000	20.836476
1805.000000	20.805145
1804.000000	20.761825
1803.000000	20.706628
1802.000000	20.670094
1801.000000	20.641139
1800.000000	20.590466
1799.000000	20.538776
1798.000000	20.493533
1797.000000	20.464238
1796.000000	20.422954
1795.000000	20.380991
1794.000000	20.357351
1793.000000	20.317990
1792.000000	20.261662
1791.000000	20.222414
1790.000000	20.189613
1789.000000	20.152626
1788.000000	20.107157
1787.000000	20.062140
1786.000000	20.020969
1785.000000	19.984435
1784.000000	19.937383
1783.000000	19.901527
1782.000000	19.856624
1781.000000	19.796111
1780.000000	19.765911
1779.000000	19.703928
1778.000000	19.642285
1777.000000	19.589237
1776.000000	19.540488
1775.000000	19.479070
1774.000000	19.414825
1773.000000	19.348204
1772.000000	19.276494
1771.000000	19.198224
1770.000000	19.114863
1769.000000	19.049148
1768.000000	18.984337
1767.000000	18.905501
1766.000000	18.830737
1765.000000	18.763098
1764.000000	18.720796
1763.000000	18.695347
1762.000000	18.673178
1761.000000	18.677136
1760.000000	18.708467
1759.000000	18.745001
1758.000000	18.772599
1757.000000	18.821462
1756.000000	18.854942
1755.000000	18.910591
1754.000000	18.958322
1753.000000	18.990445
1752.000000	19.027318
1751.000000	19.046659
1750.000000	19.045415
1749.000000	19.034331
1748.000000	19.032973
1747.000000	19.006845
1746.000000	18.960471
1745.000000	18.915454
1744.000000	18.847137
1743.000000	18.777350
1742.000000	18.676232
1741.000000	18.572738
1740.000000	18.456237
1739.000000	18.312364
1738.000000	18.178445
1737.000000	18.051085
1736.000000	17.940353
1735.000000	17.826340
1734.000000	17.743545
1733.000000	17.685634
1732.000000	17.648874
1731.000000	17.634283
1730.000000	17.655661
1729.000000	17.707690
1728.000000	17.741623
1727.000000	17.794331
1726.000000	17.863100
1725.000000	17.922142
1724.000000	17.983221
1723.000000	18.039661
1722.000000	18.080719
1721.000000	18.136934
1720.000000	18.176069
1719.000000	18.206721
1718.000000	18.280920
1717.000000	18.349803
1716.000000	18.416649
1715.000000	18.510189
1714.000000	18.573982
1713.000000	18.681774
1712.000000	18.755520
1711.000000	18.808454
1710.000000	18.854489
1709.000000	18.930158
1708.000000	18.956060
1707.000000	18.966579
1706.000000	18.958209
1705.000000	18.924842
1704.000000	18.929593
1703.000000	18.862746
1702.000000	18.794995
1701.000000	18.751901
1700.000000	18.680530
1699.000000	18.586876
1698.000000	18.491979
1697.000000	18.397195
1696.000000	18.322544
1695.000000	18.241332
1694.000000	18.214526
1693.000000	18.187946
1692.000000	18.232510
1691.000000	18.277753
1690.000000	18.365185
1689.000000	18.451373
1688.000000	18.537448
1687.000000	18.627821
1686.000000	18.703151
1685.000000	18.777802
1684.000000	18.853132
1683.000000	18.974610
1682.000000	19.114863
1681.000000	19.300925
1680.000000	19.575777
1679.000000	19.882412
1678.000000	20.212008
1677.000000	20.600420
1676.000000	20.978765
1675.000000	21.330417
1674.000000	21.643273
1673.000000	21.972869
1672.000000	22.223968
1671.000000	22.453916
1670.000000	22.653777
1669.000000	22.843685
1668.000000	23.025449
1667.000000	23.192509
1666.000000	23.291818
1665.000000	23.416463
1664.000000	23.508758
1663.000000	23.625146
1662.000000	23.672878
1661.000000	23.750696
1660.000000	23.805892
1659.000000	23.844462
1658.000000	23.918548
1657.000000	23.957570
1656.000000	23.977137
1655.000000	23.998062
1654.000000	24.019213
1653.000000	24.005075
1652.000000	23.991050
1651.000000	23.968428
1650.000000	23.957909
1649.000000	23.942753
1648.000000	23.912327
1647.000000	23.886425
1646.000000	23.859279
1645.000000	23.811435
1644.000000	23.758840
1643.000000	23.713710
1642.000000	23.661454
1641.000000	23.617907
1640.000000	23.565765
1639.000000	23.506496
1638.000000	23.455145
1637.000000	23.398026
1636.000000	23.358664
1635.000000	23.306069
1634.000000	23.236056
1633.000000	23.171697
1632.000000	23.128264
1631.000000	23.055649
1630.000000	22.969008
1629.000000	22.897637
1628.000000	22.848096
1627.000000	22.757384
1626.000000	22.689745
1625.000000	22.598694
1624.000000	22.539312
1623.000000	22.448487
1622.000000	22.397136
1621.000000	22.338772
1620.000000	22.265478
1619.000000	22.194447
1618.000000	22.127035
1617.000000	22.047972
1616.000000	21.988704
1615.000000	21.923328
1614.000000	21.857838
1613.000000	21.779568
1612.000000	21.726860
1611.000000	21.661483
1610.000000	21.604138
1609.000000	21.531183
1608.000000	21.454722
1607.000000	21.388668
1606.000000	21.320237
1605.000000	21.275560
1604.000000	21.192991
1603.000000	21.104428
1602.000000	21.051493
1601.000000	20.985099
1600.000000	20.899590
1599.000000	20.815890
1598.000000	20.769177
1597.000000	20.709003
1596.000000	20.623494
1595.000000	20.576780
1594.000000	20.502356
1593.000000	20.431889
1592.000000	20.381217
1591.000000	20.321270
1590.000000	20.237005
1589.000000	20.190631
1588.000000	20.125820
1587.000000	20.079785
1586.000000	20.021422
1585.000000	19.978441
1584.000000	19.929917
1583.000000	19.874382
1582.000000	19.841354
1581.000000	19.786723
1580.000000	19.732318
1579.000000	19.686623
1578.000000	19.640362
1577.000000	19.616948
1576.000000	19.586522
1575.000000	19.547500
1574.000000	19.514473
1573.000000	19.489363
1572.000000	19.465384
1571.000000	19.444798
1570.000000	19.427832
1569.000000	19.425457
1568.000000	19.399216
1567.000000	19.391751
1566.000000	19.386774
1565.000000	19.381119
1564.000000	19.372183
1563.000000	19.355330
1562.000000	19.340400
1561.000000	19.317665
1560.000000	19.310313
1559.000000	19.293460
1558.000000	19.266428
1557.000000	19.247991
1556.000000	19.212701
1555.000000	19.181371
1554.000000	19.164404
1553.000000	19.115203
1552.000000	19.082854
1551.000000	19.028223
1550.000000	18.990219
1549.000000	18.946785
1548.000000	18.901090
1547.000000	18.859240
1546.000000	18.827683
1545.000000	18.784476
1544.000000	18.745340
1543.000000	18.703830
1542.000000	18.666844
1541.000000	18.634834
1540.000000	18.600676
1539.000000	18.572964
1538.000000	18.542878
1537.000000	18.515053
1536.000000	18.472185
1535.000000	18.429091
1534.000000	18.397534
1533.000000	18.374800
1532.000000	18.358173
1531.000000	18.315757
1530.000000	18.260335
1529.000000	18.216336
1528.000000	18.174486
1527.000000	18.141232
1526.000000	18.088750
1525.000000	18.030273
1524.000000	17.991591
1523.000000	17.949628
1522.000000	17.899069
1521.000000	17.842288
1520.000000	17.798855
1519.000000	17.751576
1518.000000	17.686765
1517.000000	17.627497
1516.000000	17.570378
1515.000000	17.519027
1514.000000	17.461794
1513.000000	17.404562
1512.000000	17.358074
1511.000000	17.310117
1510.000000	17.252432
1509.000000	17.192598
1508.000000	17.129823
1507.000000	17.062524
1506.000000	17.002577
1505.000000	16.947946
1504.000000	16.906548
1503.000000	16.844000
1502.000000	16.790161
1501.000000	16.745596
1500.000000	16.681125
1499.000000	16.622535
1498.000000	16.561344
1497.000000	16.521982
1496.000000	16.493027
1495.000000	16.452308
1494.000000	16.412720
1493.000000	16.371210
1492.000000	16.328002
1491.000000	16.293052
1490.000000	16.256745
1489.000000	16.204036
1488.000000	16.166032
1487.000000	16.161960
1486.000000	16.133457
1485.000000	16.088667
1484.000000	16.062199
1483.000000	16.030529
1482.000000	16.020802
1481.000000	16.012658
1480.000000	15.977029
1479.000000	15.956331
1478.000000	15.934840
1477.000000	15.917082
1476.000000	15.898872
1475.000000	15.891180
1474.000000	15.888240
1473.000000	15.898646
1472.000000	15.887222
1471.000000	15.877155
1470.000000	15.870708
1469.000000	15.873762
1468.000000	15.871047
1467.000000	15.869351
1466.000000	15.880096
1465.000000	15.899324
1464.000000	15.911992
1463.000000	15.914254
1462.000000	15.916517
1461.000000	15.943549
1460.000000	15.966171
1459.000000	15.990376
1458.000000	16.010848
1457.000000	16.049079
1456.000000	16.095792
1455.000000	16.147143
1454.000000	16.173271
1453.000000	16.207995
1452.000000	16.273371
1451.000000	16.330491
1450.000000	16.364989
1449.000000	16.402201
1448.000000	16.446992
1447.000000	16.500266
1446.000000	16.578988
1445.000000	16.650586
1444.000000	16.714378
1443.000000	16.772403
1442.000000	16.839702
1441.000000	16.905304
1440.000000	16.981652
1439.000000	17.055511
1438.000000	17.118399
1437.000000	17.208207
1436.000000	17.297449
1435.000000	17.360110
1434.000000	17.476498
1433.000000	17.562347
1432.000000	17.664596
1431.000000	17.783472
1430.000000	17.876673
1429.000000	17.965689
1428.000000	18.114991
1427.000000	18.220860
1426.000000	18.356137
1425.000000	18.517315
1424.000000	18.655985
1423.000000	18.838315
1422.000000	19.041343
1421.000000	19.169947
1420.000000	19.350806
1419.000000	19.577248
1418.000000	19.783104
1417.000000	20.013165
1416.000000	20.178641
1415.000000	20.402595
1414.000000	20.660819
1413.000000	20.953316
1412.000000	21.209279
1411.000000	21.442281
1410.000000	21.752874
1409.000000	22.096948
1408.000000	22.436271
1407.000000	22.801722
1406.000000	23.161178
1405.000000	23.506044
1404.000000	23.937210
1403.000000	24.316347
1402.000000	24.718558
1401.000000	25.132872
1400.000000	25.587904
1399.000000	26.053795
1398.000000	26.452273
1397.000000	26.799288
1396.000000	27.181139
1395.000000	27.687862
1394.000000	28.159521
1393.000000	28.573156
1392.000000	28.954329
1391.000000	29.443520
1390.000000	29.956350
1389.000000	30.392380
1388.000000	30.935410
1387.000000	31.524815
1386.000000	32.167945
1385.000000	32.756331
1384.000000	33.375709
1383.000000	34.017256
1382.000000	34.688777
1381.000000	35.335640
1380.000000	35.885682
1379.000000	36.323749
1378.000000	36.714875
1377.000000	37.007711
1376.000000	37.318418
1375.000000	37.604354
1374.000000	37.891308
1373.000000	38.173625
1372.000000	38.543827
1371.000000	38.927940
1370.000000	39.285248
1369.000000	39.642442
1368.000000	39.984706
1367.000000	40.328892
1366.000000	40.624443
1365.000000	40.868303
1364.000000	41.137726
1363.000000	41.383169
1362.000000	41.619451
1361.000000	41.823045
1360.000000	42.046546
1359.000000	42.155582
1358.000000	42.317100
1357.000000	42.440161
1356.000000	42.628259
1355.000000	42.824275
1354.000000	43.151382
1353.000000	43.528370
1352.000000	43.874706
1351.000000	44.352247
1350.000000	44.837139
1349.000000	45.299976
1348.000000	45.728768
1347.000000	46.187532
1346.000000	46.607388
1345.000000	46.974649
1344.000000	47.356274
1343.000000	47.770135
1342.000000	48.142373
1341.000000	48.506693
1340.000000	48.891711
1339.000000	49.261121
1338.000000	49.635734
1337.000000	49.984332
1336.000000	50.353968
1335.000000	50.710710
1334.000000	51.061909
1333.000000	51.416954
1332.000000	51.754807
1331.000000	52.118335
1330.000000	52.435263
1329.000000	52.770740
1328.000000	53.092079
1327.000000	53.382879
1326.000000	53.690758
1325.000000	53.992869
1324.000000	54.285818
1323.000000	54.569379
1322.000000	54.822062
1321.000000	55.076328
1320.000000	55.309443
1319.000000	55.569251
1318.000000	55.818201
1317.000000	56.029486
1316.000000	56.255815
1315.000000	56.492549
1314.000000	56.702025
1313.000000	56.873609
1312.000000	57.065327
1311.000000	57.259985
1310.000000	57.418336
1309.000000	57.600439
1308.000000	57.775530
1307.000000	57.901985
1306.000000	58.028778
1305.000000	58.159192
1304.000000	58.274448
1303.000000	58.374209
1302.000000	58.483698
1301.000000	58.594656
1300.000000	58.665462
1299.000000	58.756626
1298.000000	58.814538
1297.000000	58.876181
1296.000000	58.936015
1295.000000	58.998338
1294.000000	59.052516
1293.000000	59.087127
1292.000000	59.124566
1291.000000	59.147527
1290.000000	59.166303
1289.000000	59.178744
1288.000000	59.192204
1287.000000	59.176143
1286.000000	59.167094
1285.000000	59.157028
1284.000000	59.138365
1283.000000	59.116309
1282.000000	59.081585
1281.000000	59.048671
1280.000000	58.999356
1279.000000	58.946421
1278.000000	58.883986
1277.000000	58.864757
1276.000000	58.840552
1275.000000	58.799042
1274.000000	58.771670
1273.000000	58.741922
1272.000000	58.718848
1271.000000	58.701091
1270.000000	58.700299
1269.000000	58.661050
1268.000000	58.623272
1267.000000	58.602687
1266.000000	58.580065
1265.000000	58.569773
1264.000000	58.525547
1263.000000	58.482227
1262.000000	58.449087
1261.000000	58.404409
1260.000000	58.357017
1259.000000	58.306571
1258.000000	58.264834
1257.000000	58.208846
1256.000000	58.162472
1255.000000	58.095625
1254.000000	58.016789
1253.000000	57.952091
1252.000000	57.864207
1251.000000	57.776887
1250.000000	57.695563
1249.000000	57.598743
1248.000000	57.487784
1247.000000	57.381237
1246.000000	57.267677
1245.000000	57.159998
1244.000000	57.049944
1243.000000	56.945772
1242.000000	56.814906
1241.000000	56.658705
1240.000000	56.513927
1239.000000	56.391318
1238.000000	56.269614
1237.000000	56.126194
1236.000000	55.996120
1235.000000	55.847949
1234.000000	55.700682
1233.000000	55.561334
1232.000000	55.404001
1231.000000	55.247799
1230.000000	55.078251
1229.000000	54.912435
1228.000000	54.741755
1227.000000	54.556937
1226.000000	54.373816
1225.000000	54.182438
1224.000000	53.995584
1223.000000	53.806807
1222.000000	53.605928
1221.000000	53.411269
1220.000000	53.205526
1219.000000	53.001706
1218.000000	52.817454
1217.000000	52.625284
1216.000000	52.438769
1215.000000	52.270804
1214.000000	52.093564
1213.000000	51.923564
1212.000000	51.738972
1211.000000	51.577002
1210.000000	51.435391
1209.000000	51.292309
1208.000000	51.134977
1207.000000	50.983525
1206.000000	50.854583
1205.000000	50.717609
1204.000000	50.601674
1203.000000	50.520915
1202.000000	50.449544
1201.000000	50.372178
1200.000000	50.288705
1199.000000	50.213375
1198.000000	50.128884
1197.000000	50.024938
1196.000000	49.884910
1195.000000	49.736965
1194.000000	49.548980
1193.000000	49.286910
1192.000000	48.991133
1191.000000	48.659841
1190.000000	48.294050
1189.000000	47.927921
1188.000000	47.583282
1187.000000	47.300852
1186.000000	47.109134
1185.000000	47.001342
1184.000000	46.991615
1183.000000	47.121123
1182.000000	47.394392
1181.000000	47.749550
1180.000000	48.168727
1179.000000	48.630659
1178.000000	49.102997
1177.000000	49.555880
1176.000000	49.969854
1175.000000	50.340508
1174.000000	50.677230
1173.000000	51.022208
1172.000000	51.352596
1171.000000	51.662850
1170.000000	51.988940
1169.000000	52.331769
1168.000000	52.677540
1167.000000	53.037109
1166.000000	53.400863
1165.000000	53.771630
1164.000000	54.168186
1163.000000	54.564289
1162.000000	54.975323
1161.000000	55.406263
1160.000000	55.803724
1159.000000	56.223240
1158.000000	56.638006
1157.000000	57.019971
1156.000000	57.411889
1155.000000	57.777566
1154.000000	58.127295
1153.000000	58.427257
1152.000000	58.681975
1151.000000	58.916787
1150.000000	59.130221
1149.000000	59.304407
1148.000000	59.508227
1147.000000	59.715440
1146.000000	59.953419
1145.000000	60.199655
1144.000000	60.527667
1143.000000	60.867216
1142.000000	61.286393
1141.000000	61.731812
1140.000000	62.202679
1139.000000	62.680785
1138.000000	63.204813
1137.000000	63.738342
1136.000000	64.305351
1135.000000	64.895434
1134.000000	65.522051
1133.000000	66.072659
1132.000000	66.590127
1131.000000	67.075359
1130.000000	67.508901
1129.000000	67.937466
1128.000000	68.286516
1127.000000	68.576977
1126.000000	68.820724
1125.000000	69.036873
1124.000000	69.194093
1123.000000	69.334912
1122.000000	69.474260
1121.000000	69.586463
1120.000000	69.643243
1119.000000	69.732485
1118.000000	69.781348
1117.000000	69.826930
1116.000000	69.843557
1115.000000	69.872400
1114.000000	69.901355
1113.000000	69.902486
1112.000000	69.891288
1111.000000	69.897849
1110.000000	69.897170
1109.000000	69.912553
1108.000000	69.899432
1107.000000	69.895247
1106.000000	69.887104
1105.000000	69.886990
1104.000000	69.896039
1103.000000	69.892533
1102.000000	69.872852
1101.000000	69.893438
1100.000000	69.860976
1099.000000	69.847290
1098.000000	69.840729
1097.000000	69.828966
1096.000000	69.817768
1095.000000	69.763816
1094.000000	69.742439
1093.000000	69.719930
1092.000000	69.688599
1091.000000	69.639285
1090.000000	69.600715
1089.000000	69.575379
1088.000000	69.520861
1087.000000	69.464986
1086.000000	69.404925
1085.000000	69.346449
1084.000000	69.287746
1083.000000	69.240806
1082.000000	69.158916
1081.000000	69.076687
1080.000000	69.028050
1079.000000	68.949214
1078.000000	68.877730
1077.000000	68.813711
1076.000000	68.756253
1075.000000	68.676851
1074.000000	68.606950
1073.000000	68.528680
1072.000000	68.466471
1071.000000	68.372139
1070.000000	68.292624
1069.000000	68.214467
1068.000000	68.114706
1067.000000	68.042656
1066.000000	67.973547
1065.000000	67.868583
1064.000000	67.788503
1063.000000	67.682634
1062.000000	67.591922
1061.000000	67.526998
1060.000000	67.406199
1059.000000	67.327024
1058.000000	67.232126
1057.000000	67.129877
1056.000000	67.012584
1055.000000	66.915198
1054.000000	66.819283
1053.000000	66.724951
1052.000000	66.604152
1051.000000	66.512309
1050.000000	66.413000
1049.000000	66.334164
1048.000000	66.218681
1047.000000	66.144822
1046.000000	66.044269
1045.000000	65.938174
1044.000000	65.846444
1043.000000	65.762744
1042.000000	65.688432
1041.000000	65.580980
1040.000000	65.478052
1039.000000	65.379535
1038.000000	65.300473
1037.000000	65.186913
1036.000000	65.067358
1035.000000	64.986712
1034.000000	64.895321
1033.000000	64.775201
1032.000000	64.650782
1031.000000	64.547967
1030.000000	64.425585
1029.000000	64.302976
1028.000000	64.191678
1027.000000	64.088184
1026.000000	63.944198
1025.000000	63.837312
1024.000000	63.712893
1023.000000	63.590737
1022.000000	63.461228
1021.000000	63.347555
1020.000000	63.203795
1019.000000	63.091706
1018.000000	62.955637
1017.000000	62.849203
1016.000000	62.757472
1015.000000	62.638483
1014.000000	62.533745
1013.000000	62.432514
1012.000000	62.342367
1011.000000	62.259911
1010.000000	62.177230
1009.000000	62.100882
1008.000000	62.049644
1007.000000	61.962664
1006.000000	61.925678
1005.000000	61.866523
1004.000000	61.795265
1003.000000	61.735318
1002.000000	61.672317
1001.000000	61.623454
1000.000000	61.558304
999.000000	61.497452
998.000000	61.458996
997.000000	61.400972
996.000000	61.352675
995.000000	61.285602
994.000000	61.230971
993.000000	61.175548
992.000000	61.140145
991.000000	61.079519
990.000000	61.025454
989.000000	60.988920
988.000000	60.941415
987.000000	60.908048
986.000000	60.853870
985.000000	60.824462
984.000000	60.796750
983.000000	60.770509
982.000000	60.742685
981.000000	60.705246
980.000000	60.688619
979.000000	60.671314
978.000000	60.635232
977.000000	60.618606
976.000000	60.601979
975.000000	60.579583
974.000000	60.549949
973.000000	60.524952
972.000000	60.496110
971.000000	60.492604
970.000000	60.487401
969.000000	60.459802
968.000000	60.427906
967.000000	60.427906
966.000000	60.423382
965.000000	60.417613
964.000000	60.418066
963.000000	60.399742
962.000000	60.401099
961.000000	60.408791
960.000000	60.402344
959.000000	60.413881
958.000000	60.409809
957.000000	60.422024
956.000000	60.428924
955.000000	60.414107
954.000000	60.439104
953.000000	60.463535
952.000000	60.455617
951.000000	60.460029
950.000000	60.465118
949.000000	60.469303
948.000000	60.500408
947.000000	60.496336
946.000000	60.483555
945.000000	60.472131
944.000000	60.465005
943.000000	60.444533
942.000000	60.410714
941.000000	60.381192
940.000000	60.358458
939.000000	60.308464
938.000000	60.246707
937.000000	60.206667
936.000000	60.184498
935.000000	60.149322
934.000000	60.086773
933.000000	60.035083
932.000000	59.989953
931.000000	59.971969
930.000000	59.918921
929.000000	59.852075
928.000000	59.805474
927.000000	59.770976
926.000000	59.715893
925.000000	59.633550
924.000000	59.566365
923.000000	59.475652
922.000000	59.422718
921.000000	59.368878
920.000000	59.285405
919.000000	59.197294
918.000000	59.117892
917.000000	59.070500
916.000000	58.971531
915.000000	58.874372
914.000000	58.783885
913.000000	58.678017
912.000000	58.578595
911.000000	58.470012
910.000000	58.390271
909.000000	58.304082
908.000000	58.210542
907.000000	58.121414
906.000000	58.053096
905.000000	57.983309
904.000000	57.898365
903.000000	57.824845
902.000000	57.764559
901.000000	57.723501
900.000000	57.671924
899.000000	57.633580
898.000000	57.598290
897.000000	57.533253
896.000000	57.449214
895.000000	57.387571
894.000000	57.320837
893.000000	57.267111
892.000000	57.172101
891.000000	57.093943
890.000000	57.021780
889.000000	56.906411
888.000000	56.828706
887.000000	56.737767
886.000000	56.615837
885.000000	56.511438
884.000000	56.372542
883.000000	56.246201
882.000000	56.095655
881.000000	55.976439
880.000000	55.823065
879.000000	55.701813
878.000000	55.526497
877.000000	55.311705
876.000000	55.138198
875.000000	54.894677
874.000000	54.655228
873.000000	54.387502
872.000000	54.166942
871.000000	54.060281
870.000000	54.037886
869.000000	54.063788
868.000000	54.101000
867.000000	54.066955
866.000000	54.073854
865.000000	54.066163
864.000000	54.033135
863.000000	54.016396
862.000000	54.006894
861.000000	54.019110
860.000000	54.013455
859.000000	53.994000
858.000000	53.970700
857.000000	52.750800
856.000000	54.564400
855.000000	54.596900
854.000000	54.630500
853.000000	54.282400
852.000000	54.181800
851.000000	54.363600
850.000000	54.349800
849.000000	54.292200
848.000000	54.552200
847.000000	54.474500
846.000000	54.415000
845.000000	54.499100
844.000000	54.204800
843.000000	54.300600
842.000000	54.274900
841.000000	54.295700
840.000000	54.229400
839.000000	54.179200
838.000000	54.264700
837.000000	54.352600
836.000000	54.156800
835.000000	54.044400
834.000000	54.104300
833.000000	54.132500
832.000000	53.993200
831.000000	54.001400
830.000000	54.331000
829.000000	54.106200
828.000000	53.974600
827.000000	54.113300
826.000000	53.779700
825.000000	53.712300
824.000000	53.780400
823.000000	53.703800
822.000000	53.679400
821.000000	53.658400
820.000000	53.656500
819.000000	53.446300
818.000000	53.350500
817.000000	53.476000
816.000000	53.282700
815.000000	53.537700
814.000000	53.209600
813.000000	53.334900
812.000000	53.135700
811.000000	53.165900
810.000000	53.070700
809.000000	52.827300
808.000000	52.832400
807.000000	52.782700
806.000000	52.724700
805.000000	52.509900
804.000000	52.605100
803.000000	52.463400
802.000000	52.375600
801.000000	52.320200
800.000000	52.307600
799.000000	52.102900
798.000000	52.009300
797.000000	51.963100
796.000000	51.742000
795.000000	51.620800
794.000000	51.559800
793.000000	51.559500
792.000000	51.400200
791.000000	51.262200
790.000000	51.109500
789.000000	51.166200
788.000000	50.943300
787.000000	50.955200
786.000000	50.697500
785.000000	50.680700
784.000000	50.600400
783.000000	50.432100
782.000000	50.357300
781.000000	50.228000
780.000000	49.986200
779.000000	49.893700
778.000000	49.655400
777.000000	49.594600
776.000000	49.359800
775.000000	49.306500
774.000000	49.185600
773.000000	48.999300
772.000000	48.881200
771.000000	48.667700
770.000000	48.623100
769.000000	48.514300
768.000000	48.406800
767.000000	48.312300
766.000000	48.064700
765.000000	47.884000
764.000000	47.788000
763.000000	47.633900
762.000000	47.418200
761.000000	47.283000
760.000000	47.099000
759.000000	46.966400
758.000000	46.811400
757.000000	46.623800
756.000000	46.447100
755.000000	46.282400
754.000000	46.002300
753.000000	45.854200
752.000000	45.754200
751.000000	45.629300
750.000000	45.407700
749.000000	45.079000
748.000000	44.927500
747.000000	44.807400
746.000000	44.597000
745.000000	44.468000
744.000000	44.107600
743.000000	44.002600
742.000000	43.740100
741.000000	43.543100
740.000000	43.251900
739.000000	43.077700
738.000000	42.781800
737.000000	42.684100
736.000000	42.534300
735.000000	42.249200
734.000000	42.050200
733.000000	41.769000
732.000000	41.542500
731.000000	41.314200
730.000000	41.088600
729.000000	40.871300
728.000000	40.570900
727.000000	40.398600
726.000000	40.150200
725.000000	39.906900
724.000000	39.688800
723.000000	39.395700
722.000000	39.151500
721.000000	38.968900
720.000000	38.720300
719.000000	38.489200
718.000000	38.275400
717.000000	38.048500
716.000000	37.841300
715.000000	37.601700
714.000000	37.390800
713.000000	37.129700
712.000000	36.924700
711.000000	36.680700
710.000000	36.444600
709.000000	36.284500
708.000000	36.044500
707.000000	35.799100
706.000000	35.598100
705.000000	35.399400
704.000000	35.174600
703.000000	34.963200
702.000000	34.705800
701.000000	34.509100
700.000000	34.329300
699.000000	34.143100
698.000000	33.943400
697.000000	33.734200
696.000000	33.528300
695.000000	33.339600
694.000000	33.187000
693.000000	32.986600
692.000000	32.765300
691.000000	32.597900
690.000000	32.419500
689.000000	32.262900
688.000000	32.070600
687.000000	31.865100
686.000000	31.694300
685.000000	31.518800
684.000000	31.353500
683.000000	31.203900
682.000000	31.027300
681.000000	30.874500
680.000000	30.718900
679.000000	30.561800
678.000000	30.375000
677.000000	30.228700
676.000000	30.084700
675.000000	29.938500
674.000000	29.807400
673.000000	29.702400
672.000000	29.544900
671.000000	29.395300
670.000000	29.262600
669.000000	29.134400
668.000000	29.011400
667.000000	28.865500
666.000000	28.737800
665.000000	28.636600
664.000000	28.512500
663.000000	28.375900
662.000000	28.265700
661.000000	28.174200
660.000000	28.038600
659.000000	27.919500
658.000000	27.825400
657.000000	27.719900
656.000000	27.611100
655.000000	27.497300
654.000000	27.405600
653.000000	27.297300
652.000000	27.197600
651.000000	27.100400
650.000000	26.998200
649.000000	26.912800
648.000000	26.819100
647.000000	26.763700
646.000000	26.709100
645.000000	26.629600
644.000000	26.558800
643.000000	26.484000
642.000000	26.409700
641.000000	26.360000
640.000000	26.282800
639.000000	26.207900
638.000000	26.150600
637.000000	26.095500
636.000000	26.070100
635.000000	26.027900
634.000000	25.968500
633.000000	25.934800
632.000000	25.904500
631.000000	25.870400
630.000000	25.812200
629.000000	25.770400
628.000000	25.750600
627.000000	25.727900
626.000000	25.713100
625.000000	25.703900
624.000000	25.710900
623.000000	25.682700
622.000000	25.663600
621.000000	25.663400
620.000000	25.672400
619.000000	25.686700
618.000000	25.710400
617.000000	25.699500
616.000000	25.731700
615.000000	25.770100
614.000000	25.788300
613.000000	25.846400
612.000000	25.903500
611.000000	25.935900
610.000000	25.991800
609.000000	26.064600
608.000000	26.132100
607.000000	26.193200
606.000000	26.254300
605.000000	26.294700
604.000000	26.387400
603.000000	26.474000
602.000000	26.544300
601.000000	26.634600
600.000000	26.734300
599.000000	26.809500
598.000000	26.892600
597.000000	26.967300
596.000000	27.075700
595.000000	27.177600
594.000000	27.260700
593.000000	27.377500
592.000000	27.490800
591.000000	27.585400
590.000000	27.674600
589.000000	27.770300
588.000000	27.868600
587.000000	27.975200
586.000000	28.049800
585.000000	28.142400
584.000000	28.237300
583.000000	28.309700
582.000000	28.387100
581.000000	28.453000
580.000000	28.518400
579.000000	28.588000
578.000000	28.671100
577.000000	28.720000
576.000000	28.759800
575.000000	28.805300
574.000000	28.845500
573.000000	28.873200
572.000000	28.882700
571.000000	28.932800
570.000000	28.934500
569.000000	28.923500
568.000000	28.925400
567.000000	28.921200
566.000000	28.915800
565.000000	28.884800
564.000000	28.868500
563.000000	28.829700
562.000000	28.796000
561.000000	28.771700
560.000000	28.701100
559.000000	28.673000
558.000000	28.598900
557.000000	28.545300
556.000000	28.486000
555.000000	28.391500
554.000000	28.308400
553.000000	28.218400
552.000000	28.092900
551.000000	27.982300
550.000000	27.861800
549.000000	27.740400
548.000000	27.609100
547.000000	27.460900
546.000000	27.293700
545.000000	27.136900
544.000000	26.956200
543.000000	26.786500
542.000000	26.592100
541.000000	26.403200
540.000000	26.192500
539.000000	25.963400
538.000000	25.751700
537.000000	25.525500
536.000000	25.310100
535.000000	25.040800
534.000000	24.779800
533.000000	24.516400
532.000000	24.247600
531.000000	23.968600
530.000000	23.658300
529.000000	23.378800
528.000000	23.085700
527.000000	22.807900
526.000000	22.499400
525.000000	22.161300
524.000000	21.857200
523.000000	21.541100
522.000000	21.224100
521.000000	20.901700
520.000000	20.577000
519.000000	20.280800
518.000000	19.953100
517.000000	19.641000
516.000000	19.333300
515.000000	19.028900
514.000000	18.738200
513.000000	18.465100
512.000000	18.188200
511.000000	17.891800
510.000000	17.632300
509.000000	17.370000
508.000000	17.127000
507.000000	16.900600
506.000000	16.655000
505.000000	16.440900
504.000000	16.223000
503.000000	16.014600
502.000000	15.807400
501.000000	15.621900
500.000000	15.428200
499.000000	15.241300
498.000000	15.070800
497.000000	14.913000
496.000000	14.783600
495.000000	14.596000
494.000000	14.451600
493.000000	14.337800
492.000000	14.192500
491.000000	14.042200
490.000000	13.951900
489.000000	13.835700
488.000000	13.736700
487.000000	13.622500
486.000000	13.517200
485.000000	13.415500
484.000000	13.336700
483.000000	13.229900
482.000000	13.123500
481.000000	13.027500
480.000000	12.926700
479.000000	12.822300
478.000000	12.723800
477.000000	12.616300
476.000000	12.514600
475.000000	12.449100
474.000000	12.359400
473.000000	12.256500
472.000000	12.178500
471.000000	12.120300
470.000000	12.021900
469.000000	11.935300
468.000000	11.876700
467.000000	11.805700
466.000000	11.718700
465.000000	11.656600
464.000000	11.579400
463.000000	11.521600
462.000000	11.445200
461.000000	11.392900
460.000000	11.312300
459.000000	11.281100
458.000000	11.201200
457.000000	11.115700
456.000000	11.056400
455.000000	11.001800
454.000000	10.932900
453.000000	10.876900
452.000000	10.803100
451.000000	10.722900
450.000000	10.670800
449.000000	10.632900
448.000000	10.565600
447.000000	10.445800
446.000000	10.377100
445.000000	10.323700
444.000000	10.243900
443.000000	10.172500
442.000000	10.094900
441.000000	10.024600
440.000000	9.947200
439.000000	9.855700
438.000000	9.787700
437.000000	9.700600
436.000000	9.618300
435.000000	9.512800
434.000000	9.443500
433.000000	9.348600
432.000000	9.259200
431.000000	9.180800
430.000000	9.099900
429.000000	9.020600
428.000000	8.928100
427.000000	8.850200
426.000000	8.756700
425.000000	8.667000
424.000000	8.593600
423.000000	8.507200
422.000000	8.414900
421.000000	8.344300
420.000000	8.242900
419.000000	8.176600
418.000000	8.083600
417.000000	8.013200
416.000000	7.939500
415.000000	7.834700
414.000000	7.757500
413.000000	7.660400
412.000000	7.589700
411.000000	7.540800
410.000000	7.456200
409.000000	7.368000
408.000000	7.284400
407.000000	7.209500
406.000000	7.147900
405.000000	7.066700
404.000000	6.986100
403.000000	6.907700
402.000000	6.836300
401.000000	6.758100
400.000000	6.696100
399.000000	6.627400
398.000000	6.548900
397.000000	6.506600
396.000000	6.441200
395.000000	6.387100
394.000000	6.310400
393.000000	6.228200
392.000000	6.176200
391.000000	6.119400
390.000000	6.061200
389.000000	6.014900
388.000000	5.954300
387.000000	5.892000
386.000000	5.857800
385.000000	5.812900
384.000000	5.749400
383.000000	5.714100
382.000000	5.657600
381.000000	5.600200
380.000000	5.581700
379.000000	5.555900
378.000000	5.510300
377.000000	5.448200
376.000000	5.327100
375.000000	5.044400
374.000000	4.884300
373.000000	4.947400
372.000000	4.931800
371.000000	5.052900
370.000000	4.944100
369.000000	4.920100
368.000000	5.087400
367.000000	5.084100
366.000000	4.999700
365.000000	4.932300
364.000000	4.875400
363.000000	5.047300
362.000000	5.022400
361.000000	4.956900
360.000000	4.906900
359.000000	4.941900
358.000000	4.868900
357.000000	4.715600
356.000000	4.841900
355.000000	4.894800
354.000000	4.781600
353.000000	4.736300
352.000000	4.795000
351.000000	4.942300
350.000000	4.975100
349.000000	4.953200
348.000000	4.932100
347.000000	4.862700
346.000000	4.983400
345.000000	5.045800
344.000000	5.042400
343.000000	4.982900
342.000000	5.064100
341.000000	5.133700
340.000000	4.939400
339.000000	4.965900
338.000000	4.870700
337.000000	4.609400
336.000000	4.753500
335.000000	5.141900
334.000000	5.282400
333.000000	5.076700
332.000000	5.086200
331.000000	5.189700
330.000000	4.991900
329.000000	4.770600
328.000000	4.852700
327.000000	5.046500
326.000000	4.839000
325.000000	5.121700
324.000000	5.315000
323.000000	5.067700
322.000000	5.095300
321.000000	5.384200
320.000000	5.431300
319.000000	5.473200
318.000000	5.637000
317.000000	5.748000
316.000000	5.205200
315.000000	4.679700
314.000000	4.722800
313.000000	4.762200
312.000000	4.698000
311.000000	4.681900
310.000000	4.755500
309.000000	4.746100
308.000000	4.749900
307.000000	4.758700
306.000000	4.724000
305.000000	4.726600
304.000000	4.722200
303.000000	4.715900
302.000000	4.732700
301.000000	4.752400
300.000000	4.746000
299.000000	4.753000
298.000000	4.739300
297.000000	4.753500
296.000000	4.755900
295.000000	4.791000
294.000000	4.791800
293.000000	4.743400
292.000000	4.750200
291.000000	4.791700
290.000000	4.780900
289.000000	4.778100
288.000000	4.812800
287.000000	4.809800
286.000000	4.781700
285.000000	4.790400
284.000000	4.794200
283.000000	4.803100
282.000000	4.813000
281.000000	4.841600
280.000000	4.855000
279.000000	4.838300
278.000000	4.868600
277.000000	4.877800
276.000000	4.854300
275.000000	4.894500
274.000000	4.893300
273.000000	4.902700
272.000000	4.906000
271.000000	4.921900
270.000000	4.940400
269.000000	4.958400
268.000000	4.986600
267.000000	5.024800
266.000000	4.997200
265.000000	4.986900
264.000000	5.038400
263.000000	5.071300
262.000000	5.086100
261.000000	5.116800
260.000000	5.132300
259.000000	5.188200
258.000000	5.206200
257.000000	5.216900
256.000000	5.190700
255.000000	5.192300
254.000000	5.200700
253.000000	5.197800
252.000000	5.224600
251.000000	5.238000
250.000000	5.227700
