PE UV       SUBTECH     SPECTRUM    ASCII       PEDS        4.00        
   -1
CICIMAUCR0101-2.Sample.ASC
24/04/11
13:49:31.00
24/04/11
13:49:31.00
Vinicio Soto Monge
C. resplendens
250,000000
1
Lambda 1050
1050L1511233
PerkinElmer UV WinLab 6.3.2.0749 / 2.02.05 Lambda 900 UV/VIS/NIR, Aug  7 2015 09:38:08

0
0
3350/2 860,8/2
0
0
UV/VIS
1
1
1
DoubleDePol,CommonBeamDepol,RBeamAtt,SBeamAtt,60mm sphere, WB InGaAs Detector
0
0
0
0
Program
Program
3350/2 860,8/2
3350/0,2 860,8/0,2
3350/0,2 860,8/0,2
0
15.00
 
 
 
0
 
860,8
319,2
860,8
Front
100
on
S:100 R:100
0
0
0
0
 
0
 
 
 
0
 
 
0
0
0
0
0
 
 
 
 
0
0


0
0
#HDR
-1
-1
#GR
nm
%R
1.0
0.0
2400,000000
-1,000000
2151
8
91,058000
6,062600
#DATA
2382.000000	8.535400
2381.000000	8.187325
2380.000000	8.932132
2379.000000	8.860761
2378.000000	9.680977
2377.000000	9.478573
2376.000000	8.903866
2375.000000	9.209037
2374.000000	8.867827
2373.000000	9.403769
2372.000000	9.091532
2371.000000	8.133014
2370.000000	8.772430
2369.000000	8.860660
2368.000000	8.281915
2367.000000	7.997237
2366.000000	9.345017
2365.000000	9.146751
2364.000000	8.258899
2363.000000	9.176935
2362.000000	9.171787
2361.000000	8.903967
2360.000000	9.007037
2359.000000	9.250528
2358.000000	8.929810
2357.000000	8.837744
2356.000000	8.394272
2355.000000	8.507235
2354.000000	8.922845
2353.000000	8.801806
2352.000000	9.306454
2351.000000	8.281108
2350.000000	8.949193
2349.000000	8.350561
2348.000000	8.440305
2347.000000	8.894377
2346.000000	8.137658
2345.000000	8.125544
2344.000000	8.256173
2343.000000	8.520661
2342.000000	8.013288
2341.000000	8.767786
2340.000000	8.478464
2339.000000	9.050748
2338.000000	8.561849
2337.000000	8.214481
2336.000000	7.920212
2335.000000	8.255264
2334.000000	8.676931
2333.000000	7.980580
2332.000000	8.140787
2331.000000	8.759004
2330.000000	8.655631
2329.000000	7.917689
2328.000000	7.484715
2327.000000	7.686716
2326.000000	8.170467
2325.000000	8.791106
2324.000000	8.468470
2323.000000	8.139374
2322.000000	7.837333
2321.000000	7.898407
2320.000000	7.869838
2319.000000	8.469984
2318.000000	8.022777
2317.000000	8.176120
2316.000000	7.980782
2315.000000	7.852980
2314.000000	8.201761
2313.000000	7.799779
2312.000000	7.539531
2311.000000	7.524086
2310.000000	7.967053
2309.000000	7.619079
2308.000000	7.135833
2307.000000	6.848631
2306.000000	7.392851
2305.000000	7.765658
2304.000000	7.690047
2303.000000	7.421622
2302.000000	7.412536
2301.000000	7.413041
2300.000000	7.606864
2299.000000	7.547203
2298.000000	7.356004
2297.000000	7.740825
2296.000000	7.892552
2295.000000	7.914458
2294.000000	7.876804
2293.000000	7.959886
2292.000000	7.980479
2291.000000	7.891543
2290.000000	7.485523
2289.000000	7.515707
2288.000000	7.689037
2287.000000	7.476538
2286.000000	7.672885
2285.000000	7.688936
2284.000000	7.746074
2283.000000	7.869031
2282.000000	7.522067
2281.000000	7.371551
2280.000000	7.677428
2279.000000	7.906079
2278.000000	7.781003
2277.000000	7.857926
2276.000000	7.638563
2275.000000	7.536906
2274.000000	7.742844
2273.000000	7.482494
2272.000000	7.260506
2271.000000	7.252935
2270.000000	7.157840
2269.000000	7.567898
2268.000000	7.944440
2267.000000	7.934345
2266.000000	7.949690
2265.000000	7.856412
2264.000000	8.031863
2263.000000	8.303115
2262.000000	8.011168
2261.000000	8.124736
2260.000000	8.364492
2259.000000	8.133822
2258.000000	8.062148
2257.000000	8.368025
2256.000000	8.208020
2255.000000	8.083650
2254.000000	8.543274
2253.000000	8.948284
2252.000000	8.687329
2251.000000	8.785250
2250.000000	9.153111
2249.000000	9.007441
2248.000000	8.757489
2247.000000	8.817453
2246.000000	9.041966
2245.000000	9.115760
2244.000000	9.096075
2243.000000	8.975844
2242.000000	9.173099
2241.000000	9.216609
2240.000000	9.039644
2239.000000	9.028640
2238.000000	9.088100
2237.000000	9.185819
2236.000000	9.166840
2235.000000	9.297873
2234.000000	9.200356
2233.000000	9.338152
2232.000000	9.331086
2231.000000	9.305041
2230.000000	9.477160
2229.000000	9.544190
2228.000000	9.265973
2227.000000	9.534600
2226.000000	9.529048
2225.000000	9.523597
2224.000000	9.627979
2223.000000	9.504113
2222.000000	9.238515
2221.000000	9.359856
2220.000000	9.615966
2219.000000	9.504113
2218.000000	9.213277
2217.000000	9.312511
2216.000000	9.413461
2215.000000	9.521881
2214.000000	9.546916
2213.000000	9.452730
2212.000000	9.459595
2211.000000	9.383882
2210.000000	9.221959
2209.000000	9.275159
2208.000000	9.395996
2207.000000	9.385901
2206.000000	9.184507
2205.000000	9.398318
2204.000000	9.451519
2203.000000	9.505325
2202.000000	9.512593
2201.000000	9.629089
2200.000000	9.433247
2199.000000	8.958278
2198.000000	9.068717
2197.000000	9.302517
2196.000000	9.619095
2195.000000	9.430723
2194.000000	9.014608
2193.000000	9.093551
2192.000000	9.524707
2191.000000	9.451014
2190.000000	9.349055
2189.000000	9.433751
2188.000000	9.437285
2187.000000	9.113337
2186.000000	9.424868
2185.000000	9.559131
2184.000000	9.160682
2183.000000	9.538941
2182.000000	9.595978
2181.000000	9.428603
2180.000000	9.078307
2179.000000	9.444856
2178.000000	9.381258
2177.000000	9.172494
2176.000000	9.085273
2175.000000	9.250629
2174.000000	9.612533
2173.000000	9.310593
2172.000000	9.176330
2171.000000	9.391454
2170.000000	8.998355
2169.000000	9.291816
2168.000000	9.297066
2167.000000	9.565592
2166.000000	9.283034
2165.000000	9.603549
2164.000000	9.367024
2163.000000	9.544190
2162.000000	9.525313
2161.000000	9.406293
2160.000000	9.632219
2159.000000	9.842800
2158.000000	9.748008
2157.000000	9.457777
2156.000000	9.797776
2155.000000	9.557314
2154.000000	10.084877
2153.000000	10.093256
2152.000000	10.088108
2151.000000	9.815644
2150.000000	9.877325
2149.000000	10.197840
2148.000000	9.908720
2147.000000	10.219140
2146.000000	9.966564
2145.000000	9.891155
2144.000000	10.105774
2143.000000	9.500378
2142.000000	9.839266
2141.000000	10.057924
2140.000000	10.090026
2139.000000	10.296266
2138.000000	10.309389
2137.000000	10.195316
2136.000000	9.996243
2135.000000	10.386313
2134.000000	9.982110
2133.000000	10.170382
2132.000000	10.066706
2131.000000	10.455565
2130.000000	10.025216
2129.000000	9.954450
2128.000000	10.535820
2127.000000	10.427097
2126.000000	9.976457
2125.000000	9.689962
2124.000000	10.134343
2123.000000	10.528046
2122.000000	10.480701
2121.000000	9.987864
2120.000000	10.117888
2119.000000	9.896000
2118.000000	10.047223
2117.000000	9.987764
2116.000000	10.415084
2115.000000	10.261943
2114.000000	9.933453
2113.000000	9.943548
2112.000000	9.872176
2111.000000	10.243368
2110.000000	9.651601
2109.000000	9.862182
2108.000000	9.727919
2107.000000	9.639790
2106.000000	9.793738
2105.000000	10.005834
2104.000000	9.790508
2103.000000	9.548329
2102.000000	9.522991
2101.000000	9.611726
2100.000000	9.860264
2099.000000	9.853097
2098.000000	9.765977
2097.000000	9.725395
2096.000000	9.605467
2095.000000	9.670882
2094.000000	9.803934
2093.000000	9.620407
2092.000000	9.838863
2091.000000	9.733875
2090.000000	9.712171
2089.000000	9.616370
2088.000000	9.814635
2087.000000	9.534398
2086.000000	9.453639
2085.000000	9.802016
2084.000000	9.712373
2083.000000	9.546008
2082.000000	9.612533
2081.000000	9.824427
2080.000000	9.624445
2079.000000	9.488062
2078.000000	9.623739
2077.000000	9.498662
2076.000000	9.400640
2075.000000	9.395492
2074.000000	9.648472
2073.000000	9.608596
2072.000000	9.341786
2071.000000	9.291110
2070.000000	9.516227
2069.000000	9.669974
2068.000000	9.524606
2067.000000	9.648371
2066.000000	9.582854
2065.000000	9.409624
2064.000000	9.638982
2063.000000	9.548329
2062.000000	9.363793
2061.000000	9.413864
2060.000000	9.424060
2059.000000	9.405788
2058.000000	9.221050
2057.000000	9.337244
2056.000000	9.389233
2055.000000	9.405082
2054.000000	9.264459
2053.000000	9.264661
2052.000000	9.215094
2051.000000	9.160077
2050.000000	9.297368
2049.000000	9.364197
2048.000000	9.385497
2047.000000	9.277077
2046.000000	9.233770
2045.000000	9.396097
2044.000000	9.558424
2043.000000	9.596684
2042.000000	9.556203
2041.000000	9.686429
2040.000000	9.765674
2039.000000	9.796060
2038.000000	9.950109
2037.000000	9.992609
2036.000000	10.131718
2035.000000	10.087805
2034.000000	10.190975
2033.000000	10.266688
2032.000000	10.264164
2031.000000	10.293944
2030.000000	10.472120
2029.000000	10.534305
2028.000000	10.573171
2027.000000	10.562773
2026.000000	10.674524
2025.000000	10.700166
2024.000000	10.669780
2023.000000	10.782844
2022.000000	10.833823
2021.000000	10.885207
2020.000000	10.924880
2019.000000	10.949612
2018.000000	10.974951
2017.000000	11.019571
2016.000000	11.086197
2015.000000	11.091043
2014.000000	11.063585
2013.000000	11.141013
2012.000000	11.278810
2011.000000	11.268008
2010.000000	11.245395
2009.000000	11.320906
2008.000000	11.365424
2007.000000	11.361992
2006.000000	11.352907
2005.000000	11.370270
2004.000000	11.407218
2003.000000	11.411256
2002.000000	11.478084
2001.000000	11.444064
2000.000000	11.449415
1999.000000	11.505038
1998.000000	11.494640
1997.000000	11.501707
1996.000000	11.463346
1995.000000	11.379154
1994.000000	11.368554
1993.000000	11.448203
1992.000000	11.412366
1991.000000	11.449515
1990.000000	11.437704
1989.000000	11.356036
1988.000000	11.417010
1987.000000	11.396618
1986.000000	11.291125
1985.000000	11.297990
1984.000000	11.330799
1983.000000	11.299908
1982.000000	11.253269
1981.000000	11.239035
1980.000000	11.199059
1979.000000	11.127082
1978.000000	11.068026
1977.000000	11.110728
1976.000000	11.022700
1975.000000	10.994434
1974.000000	11.038852
1973.000000	11.040871
1972.000000	11.005236
1971.000000	10.892980
1970.000000	10.858253
1969.000000	10.832107
1968.000000	10.860373
1967.000000	10.840789
1966.000000	10.798491
1965.000000	10.736508
1964.000000	10.708242
1963.000000	10.730653
1962.000000	10.716015
1961.000000	10.726211
1960.000000	10.675231
1959.000000	10.627381
1958.000000	10.599822
1957.000000	10.531479
1956.000000	10.558634
1955.000000	10.539050
1954.000000	10.584477
1953.000000	10.541675
1952.000000	10.585285
1951.000000	10.587607
1950.000000	10.535214
1949.000000	10.490089
1948.000000	10.567316
1947.000000	10.465357
1946.000000	10.464650
1945.000000	10.505737
1944.000000	10.466164
1943.000000	10.406806
1942.000000	10.475956
1941.000000	10.429015
1940.000000	10.433759
1939.000000	10.530368
1938.000000	10.491402
1937.000000	10.395600
1936.000000	10.455968
1935.000000	10.457785
1934.000000	10.569133
1933.000000	10.564691
1932.000000	10.669982
1931.000000	10.720961
1930.000000	10.744886
1929.000000	10.802933
1928.000000	10.901661
1927.000000	10.889245
1926.000000	10.927404
1925.000000	10.874102
1924.000000	11.068935
1923.000000	11.089832
1922.000000	11.161304
1921.000000	11.468191
1920.000000	11.611641
1919.000000	11.404997
1918.000000	11.383292
1917.000000	11.505038
1916.000000	11.771545
1915.000000	11.884407
1914.000000	12.011200
1913.000000	12.003225
1912.000000	12.074394
1911.000000	12.291941
1910.000000	12.322529
1909.000000	12.361495
1908.000000	12.390973
1907.000000	12.679992
1906.000000	12.800627
1905.000000	12.975875
1904.000000	12.867859
1903.000000	13.100144
1902.000000	13.277311
1901.000000	13.321325
1900.000000	13.550178
1899.000000	13.816282
1898.000000	13.772671
1897.000000	13.826478
1896.000000	13.881394
1895.000000	13.903704
1894.000000	14.129932
1893.000000	14.335567
1892.000000	14.454890
1891.000000	14.587739
1890.000000	14.739366
1889.000000	14.826183
1888.000000	14.881604
1887.000000	15.088551
1886.000000	15.236745
1885.000000	15.483466
1884.000000	15.802871
1883.000000	15.975495
1882.000000	16.161949
1881.000000	16.673260
1880.000000	16.976513
1879.000000	17.143383
1878.000000	17.447847
1877.000000	18.064448
1876.000000	18.109169
1875.000000	18.261805
1874.000000	18.611494
1873.000000	18.890923
1872.000000	18.881737
1871.000000	19.097164
1870.000000	19.285334
1869.000000	19.297246
1868.000000	19.442008
1867.000000	19.429389
1866.000000	19.225673
1865.000000	19.248992
1864.000000	19.329348
1863.000000	19.330256
1862.000000	19.202454
1861.000000	19.295025
1860.000000	19.480268
1859.000000	19.318042
1858.000000	19.113315
1857.000000	19.150667
1856.000000	19.105845
1855.000000	18.946547
1854.000000	19.027205
1853.000000	18.876689
1852.000000	18.650966
1851.000000	18.635218
1850.000000	18.617450
1849.000000	18.614018
1848.000000	18.740104
1847.000000	18.598169
1846.000000	18.245955
1845.000000	18.133699
1844.000000	18.083628
1843.000000	18.165801
1842.000000	18.211330
1841.000000	18.172565
1840.000000	18.112298
1839.000000	17.935939
1838.000000	17.883546
1837.000000	18.023967
1836.000000	17.882637
1835.000000	17.728083
1834.000000	17.624812
1833.000000	17.557579
1832.000000	17.613909
1831.000000	17.512758
1830.000000	17.392022
1829.000000	17.317218
1828.000000	17.218590
1827.000000	17.152266
1826.000000	17.105224
1825.000000	17.012350
1824.000000	16.921596
1823.000000	16.940877
1822.000000	16.978330
1821.000000	17.046774
1820.000000	17.013965
1819.000000	16.830943
1818.000000	16.880611
1817.000000	16.910290
1816.000000	16.910593
1815.000000	16.878289
1814.000000	16.841947
1813.000000	16.859613
1812.000000	16.894945
1811.000000	16.909078
1810.000000	16.873645
1809.000000	16.796217
1808.000000	16.739079
1807.000000	16.729388
1806.000000	16.700920
1805.000000	16.590986
1804.000000	16.570190
1803.000000	16.587150
1802.000000	16.572007
1801.000000	16.538492
1800.000000	16.405339
1799.000000	16.341135
1798.000000	16.311254
1797.000000	16.329223
1796.000000	16.301664
1795.000000	16.264010
1794.000000	16.172448
1793.000000	16.135198
1792.000000	16.107840
1791.000000	16.061000
1790.000000	16.000632
1789.000000	15.973476
1788.000000	15.902610
1787.000000	15.871214
1786.000000	15.777230
1785.000000	15.723424
1784.000000	15.626613
1783.000000	15.538181
1782.000000	15.461257
1781.000000	15.387564
1780.000000	15.321341
1779.000000	15.213224
1778.000000	15.102482
1777.000000	15.062910
1776.000000	14.952976
1775.000000	14.846676
1774.000000	14.722003
1773.000000	14.591777
1772.000000	14.496582
1771.000000	14.361814
1770.000000	14.211904
1769.000000	14.060075
1768.000000	13.879880
1767.000000	13.710184
1766.000000	13.655368
1765.000000	13.603177
1764.000000	13.499804
1763.000000	13.499703
1762.000000	13.536247
1761.000000	13.532916
1760.000000	13.579353
1759.000000	13.652642
1758.000000	13.661021
1757.000000	13.724619
1756.000000	13.810528
1755.000000	13.838188
1754.000000	13.825569
1753.000000	13.767826
1752.000000	13.798716
1751.000000	13.801846
1750.000000	13.744406
1749.000000	13.695950
1748.000000	13.640730
1747.000000	13.576728
1746.000000	13.464371
1745.000000	13.328896
1744.000000	13.172828
1743.000000	12.988292
1742.000000	12.817687
1741.000000	12.644760
1740.000000	12.466180
1739.000000	12.284269
1738.000000	12.091051
1737.000000	11.896622
1736.000000	11.762863
1735.000000	11.641118
1734.000000	11.538856
1733.000000	11.537746
1732.000000	11.547235
1731.000000	11.577924
1730.000000	11.642935
1729.000000	11.735304
1728.000000	11.831105
1727.000000	11.927714
1726.000000	12.025333
1725.000000	12.092767
1724.000000	12.121740
1723.000000	12.137286
1722.000000	12.175950
1721.000000	12.236015
1720.000000	12.283461
1719.000000	12.322630
1718.000000	12.325759
1717.000000	12.366543
1716.000000	12.449826
1715.000000	12.500705
1714.000000	12.506762
1713.000000	12.590247
1712.000000	12.662124
1711.000000	12.712296
1710.000000	12.761559
1709.000000	12.776802
1708.000000	12.802444
1707.000000	12.809914
1706.000000	12.814558
1705.000000	12.832527
1704.000000	12.831820
1703.000000	12.820413
1702.000000	12.753382
1701.000000	12.717343
1700.000000	12.691298
1699.000000	12.596607
1698.000000	12.528769
1697.000000	12.535028
1696.000000	12.493235
1695.000000	12.505954
1694.000000	12.591762
1693.000000	12.689380
1692.000000	12.821422
1691.000000	12.989100
1690.000000	13.136082
1689.000000	13.191403
1688.000000	13.269235
1687.000000	13.302952
1686.000000	13.306183
1685.000000	13.306385
1684.000000	13.331622
1683.000000	13.440446
1682.000000	13.629929
1681.000000	13.987896
1680.000000	14.396137
1679.000000	14.809324
1678.000000	15.256632
1677.000000	15.643573
1676.000000	16.031825
1675.000000	16.352139
1674.000000	16.643782
1673.000000	16.870516
1672.000000	17.083015
1671.000000	17.245140
1670.000000	17.399088
1669.000000	17.517098
1668.000000	17.653986
1667.000000	17.775631
1666.000000	17.827317
1665.000000	17.912115
1664.000000	17.955422
1663.000000	18.019121
1662.000000	18.064347
1661.000000	18.065356
1660.000000	18.098266
1659.000000	18.116942
1658.000000	18.148337
1657.000000	18.158937
1656.000000	18.143290
1655.000000	18.107856
1654.000000	18.087969
1653.000000	18.069596
1652.000000	18.036384
1651.000000	18.044561
1650.000000	17.991562
1649.000000	17.950375
1648.000000	17.907774
1647.000000	17.862246
1646.000000	17.824995
1645.000000	17.782899
1644.000000	17.683363
1643.000000	17.652472
1642.000000	17.603411
1641.000000	17.556671
1640.000000	17.473084
1639.000000	17.456832
1638.000000	17.393940
1637.000000	17.311060
1636.000000	17.253620
1635.000000	17.159535
1634.000000	17.075746
1633.000000	17.003163
1632.000000	16.954001
1631.000000	16.887576
1630.000000	16.824785
1629.000000	16.739786
1628.000000	16.667808
1627.000000	16.577761
1626.000000	16.551212
1625.000000	16.443498
1624.000000	16.393629
1623.000000	16.313778
1622.000000	16.247656
1621.000000	16.173862
1620.000000	16.122983
1619.000000	16.014765
1618.000000	15.971659
1617.000000	15.946826
1616.000000	15.861422
1615.000000	15.777230
1614.000000	15.714944
1613.000000	15.694148
1612.000000	15.631055
1611.000000	15.581589
1610.000000	15.566245
1609.000000	15.531317
1608.000000	15.612379
1607.000000	15.577047
1606.000000	15.517789
1605.000000	15.463377
1604.000000	15.469232
1603.000000	15.449345
1602.000000	15.354856
1601.000000	15.346881
1600.000000	15.297517
1599.000000	15.278740
1598.000000	15.241591
1597.000000	15.181728
1596.000000	15.181728
1595.000000	15.162042
1594.000000	15.138016
1593.000000	15.147708
1592.000000	15.124590
1591.000000	15.117524
1590.000000	15.126710
1589.000000	15.116817
1588.000000	15.099857
1587.000000	15.076033
1586.000000	15.065232
1585.000000	15.072803
1584.000000	15.057963
1583.000000	15.067654
1582.000000	15.053421
1581.000000	15.072500
1580.000000	15.083705
1579.000000	15.060083
1578.000000	15.105208
1577.000000	15.090570
1576.000000	15.111063
1575.000000	15.115404
1574.000000	15.152654
1573.000000	15.180314
1572.000000	15.183848
1571.000000	15.203634
1570.000000	15.252493
1569.000000	15.292369
1568.000000	15.268746
1567.000000	15.333859
1566.000000	15.377267
1565.000000	15.386656
1564.000000	15.432588
1563.000000	15.464286
1562.000000	15.484173
1561.000000	15.533739
1560.000000	15.531216
1559.000000	15.542017
1558.000000	15.592896
1557.000000	15.630449
1556.000000	15.640443
1555.000000	15.601981
1554.000000	15.622373
1553.000000	15.637011
1552.000000	15.655384
1551.000000	15.654172
1550.000000	15.641655
1549.000000	15.622676
1548.000000	15.602486
1547.000000	15.633680
1546.000000	15.629944
1545.000000	15.598145
1544.000000	15.596833
1543.000000	15.601578
1542.000000	15.575533
1541.000000	15.561803
1540.000000	15.560693
1539.000000	15.558068
1538.000000	15.546156
1537.000000	15.564832
1536.000000	15.560592
1535.000000	15.574321
1534.000000	15.552011
1533.000000	15.526370
1532.000000	15.559986
1531.000000	15.560592
1530.000000	15.551305
1529.000000	15.543531
1528.000000	15.526774
1527.000000	15.503858
1526.000000	15.494773
1525.000000	15.518799
1524.000000	15.506887
1523.000000	15.488615
1522.000000	15.465295
1521.000000	15.440159
1520.000000	15.408360
1519.000000	15.401091
1518.000000	15.389987
1517.000000	15.401192
1516.000000	15.408663
1515.000000	15.469636
1514.000000	15.494066
1513.000000	15.490230
1512.000000	15.472867
1511.000000	15.457018
1510.000000	15.461358
1509.000000	15.498306
1508.000000	15.511228
1507.000000	15.503656
1506.000000	15.493158
1505.000000	15.516275
1504.000000	15.528389
1503.000000	15.517789
1502.000000	15.512136
1501.000000	15.523947
1500.000000	15.574422
1499.000000	15.587344
1498.000000	15.579570
1497.000000	15.618638
1496.000000	15.621566
1495.000000	15.631963
1494.000000	15.686375
1493.000000	15.687587
1492.000000	15.723525
1491.000000	15.759564
1490.000000	15.810745
1489.000000	15.861826
1488.000000	15.886357
1487.000000	15.903013
1486.000000	15.920074
1485.000000	15.944807
1484.000000	15.974991
1483.000000	16.016986
1482.000000	16.068672
1481.000000	16.104812
1480.000000	16.123790
1479.000000	16.164069
1478.000000	16.211819
1477.000000	16.251189
1476.000000	16.275215
1475.000000	16.318623
1474.000000	16.389995
1473.000000	16.455713
1472.000000	16.513557
1471.000000	16.547275
1470.000000	16.570594
1469.000000	16.594822
1468.000000	16.622886
1467.000000	16.665487
1466.000000	16.709602
1465.000000	16.750587
1464.000000	16.808028
1463.000000	16.858402
1462.000000	16.918669
1461.000000	16.975200
1460.000000	17.005687
1459.000000	17.066762
1458.000000	17.155698
1457.000000	17.219499
1456.000000	17.272901
1455.000000	17.345585
1454.000000	17.426950
1453.000000	17.503975
1452.000000	17.585139
1451.000000	17.685079
1450.000000	17.767050
1449.000000	17.841046
1448.000000	17.943813
1447.000000	18.050315
1446.000000	18.153788
1445.000000	18.259079
1444.000000	18.337012
1443.000000	18.435337
1442.000000	18.530634
1441.000000	18.611192
1440.000000	18.722034
1439.000000	18.845395
1438.000000	18.949979
1437.000000	19.045275
1436.000000	19.132900
1435.000000	19.234556
1434.000000	19.343986
1433.000000	19.449680
1432.000000	19.546188
1431.000000	19.639869
1430.000000	19.757375
1429.000000	19.891133
1428.000000	20.037409
1427.000000	20.194992
1426.000000	20.355805
1425.000000	20.545691
1424.000000	20.744663
1423.000000	20.914359
1422.000000	21.066693
1421.000000	21.256377
1420.000000	21.463627
1419.000000	21.657450
1418.000000	21.805443
1417.000000	21.925876
1416.000000	22.096985
1415.000000	22.319176
1414.000000	22.478273
1413.000000	22.579323
1412.000000	22.733372
1411.000000	22.915486
1410.000000	23.171090
1409.000000	23.394896
1408.000000	23.651914
1407.000000	23.966574
1406.000000	24.274471
1405.000000	24.630723
1404.000000	24.955276
1403.000000	25.227234
1402.000000	25.600748
1401.000000	26.008585
1400.000000	26.288822
1399.000000	26.406933
1398.000000	26.616807
1397.000000	26.886545
1396.000000	27.073201
1395.000000	27.128723
1394.000000	27.117215
1393.000000	27.216852
1392.000000	27.319518
1391.000000	27.378675
1390.000000	27.509405
1389.000000	27.713424
1388.000000	27.932283
1387.000000	28.101980
1386.000000	28.367679
1385.000000	28.767238
1384.000000	29.116625
1383.000000	29.494783
1382.000000	29.763006
1381.000000	29.909282
1380.000000	29.974193
1379.000000	29.950975
1378.000000	29.965411
1377.000000	29.993071
1376.000000	30.107245
1375.000000	30.271086
1374.000000	30.564951
1373.000000	30.939979
1372.000000	31.375678
1371.000000	31.814910
1370.000000	32.162985
1369.000000	32.535590
1368.000000	32.924853
1367.000000	33.209329
1366.000000	33.458372
1365.000000	33.725788
1364.000000	33.884985
1363.000000	34.077698
1362.000000	34.367222
1361.000000	34.421937
1360.000000	34.402353
1359.000000	34.413356
1358.000000	34.503504
1357.000000	34.697530
1356.000000	35.056810
1355.000000	35.615163
1354.000000	36.319287
1353.000000	37.074795
1352.000000	37.898645
1351.000000	38.709171
1350.000000	39.472149
1349.000000	40.139527
1348.000000	40.794287
1347.000000	41.346078
1346.000000	41.873036
1345.000000	42.368598
1344.000000	42.912818
1343.000000	43.330245
1342.000000	43.799964
1341.000000	44.200432
1340.000000	44.590804
1339.000000	44.998237
1338.000000	45.342072
1337.000000	45.698828
1336.000000	46.043774
1335.000000	46.343897
1334.000000	46.638670
1333.000000	46.939803
1332.000000	47.222261
1331.000000	47.516933
1330.000000	47.742959
1329.000000	47.975447
1328.000000	48.175933
1327.000000	48.379952
1326.000000	48.555504
1325.000000	48.746803
1324.000000	48.932046
1323.000000	49.097503
1322.000000	49.250240
1321.000000	49.364717
1320.000000	49.507459
1319.000000	49.637685
1318.000000	49.780730
1317.000000	49.870172
1316.000000	49.980712
1315.000000	50.064904
1314.000000	50.142029
1313.000000	50.217843
1312.000000	50.287902
1311.000000	50.386530
1310.000000	50.440336
1309.000000	50.492224
1308.000000	50.532907
1307.000000	50.573993
1306.000000	50.587016
1305.000000	50.607610
1304.000000	50.628708
1303.000000	50.607004
1302.000000	50.586208
1301.000000	50.560466
1300.000000	50.535733
1299.000000	50.505247
1298.000000	50.474053
1297.000000	50.453459
1296.000000	50.409950
1295.000000	50.366037
1294.000000	50.318187
1293.000000	50.265390
1292.000000	50.210372
1291.000000	50.177261
1290.000000	50.112552
1289.000000	50.012915
1288.000000	49.913580
1287.000000	49.810813
1286.000000	49.706028
1285.000000	49.609318
1284.000000	49.484443
1283.000000	49.371682
1282.000000	49.249331
1281.000000	49.111333
1280.000000	49.024516
1279.000000	48.910039
1278.000000	48.779410
1277.000000	48.674523
1276.000000	48.562368
1275.000000	48.465759
1274.000000	48.370665
1273.000000	48.277185
1272.000000	48.198142
1271.000000	48.109609
1270.000000	48.005328
1269.000000	47.903974
1268.000000	47.811302
1267.000000	47.711463
1266.000000	47.624242
1265.000000	47.525312
1264.000000	47.444148
1263.000000	47.350770
1262.000000	47.270717
1261.000000	47.193995
1260.000000	47.115860
1259.000000	47.015919
1258.000000	46.942327
1257.000000	46.875095
1256.000000	46.779899
1255.000000	46.686722
1254.000000	46.588599
1253.000000	46.481492
1252.000000	46.372769
1251.000000	46.249509
1250.000000	46.108987
1249.000000	45.969878
1248.000000	45.828852
1247.000000	45.671471
1246.000000	45.499655
1245.000000	45.301389
1244.000000	45.071931
1243.000000	44.859331
1242.000000	44.625935
1241.000000	44.366494
1240.000000	44.102006
1239.000000	43.822274
1238.000000	43.557988
1237.000000	43.281486
1236.000000	43.005995
1235.000000	42.724345
1234.000000	42.412006
1233.000000	42.134899
1232.000000	41.865667
1231.000000	41.581594
1230.000000	41.273798
1229.000000	40.981751
1228.000000	40.692429
1227.000000	40.399170
1226.000000	40.099955
1225.000000	39.821738
1224.000000	39.553312
1223.000000	39.282969
1222.000000	39.026254
1221.000000	38.780542
1220.000000	38.545329
1219.000000	38.337878
1218.000000	38.155360
1217.000000	37.968805
1216.000000	37.798604
1215.000000	37.641526
1214.000000	37.492928
1213.000000	37.382691
1212.000000	37.261854
1211.000000	37.135364
1210.000000	37.029165
1209.000000	36.939522
1208.000000	36.889148
1207.000000	36.855734
1206.000000	36.825348
1205.000000	36.840793
1204.000000	36.877741
1203.000000	36.899748
1202.000000	36.917313
1201.000000	36.936393
1200.000000	36.930336
1199.000000	36.892883
1198.000000	36.803947
1197.000000	36.641216
1196.000000	36.413271
1195.000000	36.108201
1194.000000	35.709853
1193.000000	35.217118
1192.000000	34.637666
1191.000000	34.004611
1190.000000	33.416276
1189.000000	32.940702
1188.000000	32.560121
1187.000000	32.326221
1186.000000	32.282207
1185.000000	32.392848
1184.000000	32.656326
1183.000000	33.136847
1182.000000	33.728210
1181.000000	34.433344
1180.000000	35.160283
1179.000000	35.823523
1178.000000	36.419025
1177.000000	36.912871
1176.000000	37.344129
1175.000000	37.754388
1174.000000	38.178276
1173.000000	38.592170
1172.000000	39.020096
1171.000000	39.520605
1170.000000	40.044735
1169.000000	40.541913
1168.000000	41.047368
1167.000000	41.565341
1166.000000	42.095731
1165.000000	42.660847
1164.000000	43.233333
1163.000000	43.817630
1162.000000	44.380728
1161.000000	44.942614
1160.000000	45.510254
1159.000000	46.050638
1158.000000	46.568712
1157.000000	47.032879
1156.000000	47.448590
1155.000000	47.759111
1154.000000	47.972317
1153.000000	48.076598
1152.000000	48.082756
1151.000000	48.068522
1150.000000	48.017543
1149.000000	47.960809
1148.000000	47.907305
1147.000000	47.932644
1146.000000	48.090327
1145.000000	48.375106
1144.000000	48.808988
1143.000000	49.318583
1142.000000	49.880267
1141.000000	50.471226
1140.000000	51.027157
1139.000000	51.614179
1138.000000	52.238452
1137.000000	52.912796
1136.000000	53.611066
1135.000000	54.249472
1134.000000	54.802373
1133.000000	55.254628
1132.000000	55.757358
1131.000000	56.213247
1130.000000	56.626737
1129.000000	56.947151
1128.000000	57.233243
1127.000000	57.458966
1126.000000	57.630076
1125.000000	57.760402
1124.000000	57.867611
1123.000000	58.051642
1122.000000	58.126850
1121.000000	58.199937
1120.000000	58.278779
1119.000000	58.329153
1118.000000	58.363375
1117.000000	58.388511
1116.000000	58.415667
1115.000000	58.397395
1114.000000	58.384170
1113.000000	58.364586
1112.000000	58.346415
1111.000000	58.367716
1110.000000	58.351059
1109.000000	58.340459
1108.000000	58.317947
1107.000000	58.304117
1106.000000	58.293820
1105.000000	58.304016
1104.000000	58.298666
1103.000000	58.264343
1102.000000	58.226891
1101.000000	58.177526
1100.000000	58.161172
1099.000000	58.107669
1098.000000	58.074053
1097.000000	58.019944
1096.000000	57.972497
1095.000000	57.959071
1094.000000	57.859737
1093.000000	57.825111
1092.000000	57.762320
1091.000000	57.701952
1090.000000	57.634720
1089.000000	57.557695
1088.000000	57.457250
1087.000000	57.379721
1086.000000	57.317031
1085.000000	57.232940
1084.000000	57.159045
1083.000000	57.080203
1082.000000	56.972590
1081.000000	56.940690
1080.000000	56.816926
1079.000000	56.802894
1078.000000	56.711131
1077.000000	56.661161
1076.000000	56.587265
1075.000000	56.588174
1074.000000	56.466832
1073.000000	56.386678
1072.000000	56.329743
1071.000000	56.296429
1070.000000	56.249891
1069.000000	56.135616
1068.000000	56.092814
1067.000000	56.083627
1066.000000	56.014477
1065.000000	55.951686
1064.000000	55.864465
1063.000000	55.803593
1062.000000	55.777346
1061.000000	55.709709
1060.000000	55.653884
1059.000000	55.576961
1058.000000	55.517400
1057.000000	55.404942
1056.000000	55.325091
1055.000000	55.273203
1054.000000	55.116125
1053.000000	55.027491
1052.000000	55.016387
1051.000000	54.954202
1050.000000	54.901708
1049.000000	54.851233
1048.000000	54.850123
1047.000000	54.779660
1046.000000	54.719595
1045.000000	54.683051
1044.000000	54.652564
1043.000000	54.617030
1042.000000	54.536472
1041.000000	54.505278
1040.000000	54.504168
1039.000000	54.485694
1038.000000	54.397363
1037.000000	54.359608
1036.000000	54.346888
1035.000000	54.276122
1034.000000	54.262191
1033.000000	54.136509
1032.000000	54.084318
1031.000000	54.030310
1030.000000	53.930067
1029.000000	53.874443
1028.000000	53.804082
1027.000000	53.700911
1026.000000	53.631962
1025.000000	53.554635
1024.000000	53.493661
1023.000000	53.391702
1022.000000	53.351322
1021.000000	53.278537
1020.000000	53.220087
1019.000000	53.178395
1018.000000	53.078556
1017.000000	53.095616
1016.000000	53.081483
1015.000000	53.064019
1014.000000	53.019197
1013.000000	53.034340
1012.000000	53.047766
1011.000000	53.077042
1010.000000	53.068865
1009.000000	53.215141
1008.000000	53.309529
1007.000000	53.334161
1006.000000	53.360004
1005.000000	53.436322
1004.000000	53.477408
1003.000000	53.553928
1002.000000	53.603091
1001.000000	53.626410
1000.000000	53.664266
999.000000	53.716457
998.000000	53.826492
997.000000	53.920981
996.000000	53.933600
995.000000	53.959645
994.000000	54.071497
993.000000	54.156901
992.000000	54.150945
991.000000	54.249068
990.000000	54.350825
989.000000	54.441377
988.000000	54.504471
987.000000	54.586139
986.000000	54.687190
985.000000	54.816506
984.000000	54.890805
983.000000	54.929166
982.000000	55.029106
981.000000	55.095531
980.000000	55.193049
979.000000	55.380512
978.000000	55.430684
977.000000	55.529110
976.000000	55.680535
975.000000	55.688914
974.000000	55.822874
973.000000	55.915445
972.000000	55.927155
971.000000	55.971270
970.000000	56.070302
969.000000	56.185183
968.000000	56.270990
967.000000	56.277955
966.000000	56.335295
965.000000	56.489849
964.000000	56.600288
963.000000	56.680543
962.000000	56.759082
961.000000	56.866290
960.000000	57.071218
959.000000	57.168635
958.000000	57.269585
957.000000	57.365689
956.000000	57.468657
955.000000	57.627047
954.000000	57.667730
953.000000	57.730521
952.000000	57.909909
951.000000	58.014795
950.000000	58.080716
949.000000	58.153197
948.000000	58.208720
947.000000	58.305934
946.000000	58.410215
945.000000	58.478962
944.000000	58.656937
943.000000	58.783427
942.000000	58.909008
941.000000	59.000569
940.000000	59.042464
939.000000	59.196008
938.000000	59.350764
937.000000	59.476648
936.000000	59.640389
935.000000	59.813316
934.000000	59.970292
933.000000	60.069829
932.000000	60.175826
931.000000	60.248813
930.000000	60.328260
929.000000	60.459697
928.000000	60.569530
927.000000	60.690872
926.000000	60.764969
925.000000	61.007349
924.000000	61.194308
923.000000	61.270222
922.000000	61.396308
921.000000	61.442745
920.000000	61.581955
919.000000	61.718136
918.000000	61.747310
917.000000	61.816360
916.000000	62.160094
915.000000	62.386524
914.000000	62.207641
913.000000	62.361287
912.000000	62.468596
911.000000	62.467688
910.000000	62.721273
909.000000	62.901872
908.000000	62.984247
907.000000	63.282049
906.000000	63.439531
905.000000	63.626489
904.000000	64.066327
903.000000	64.649918
902.000000	64.878872
901.000000	64.943076
900.000000	65.237748
899.000000	65.433691
898.000000	65.623073
897.000000	65.948838
896.000000	66.202524
895.000000	66.673455
894.000000	66.925930
893.000000	67.198595
892.000000	67.256742
891.000000	67.433001
890.000000	67.745440
889.000000	67.796521
888.000000	67.952387
887.000000	68.305509
886.000000	68.447949
885.000000	68.433614
884.000000	68.461476
883.000000	68.952395
882.000000	68.732223
881.000000	69.370730
880.000000	69.837926
879.000000	69.869018
878.000000	69.936554
877.000000	69.497120
876.000000	70.245056
875.000000	70.016102
874.000000	70.503285
873.000000	70.303506
872.000000	70.744151
871.000000	70.866603
870.000000	71.261519
869.000000	71.682782
868.000000	71.904669
867.000000	71.440402
866.000000	72.466757
865.000000	71.715692
864.000000	71.905174
863.000000	73.106375
862.000000	73.113946
861.000000	73.410032
860.000000	72.864600
859.000000	73.223477
858.000000	72.804333
857.000000	72.786600
856.000000	72.856700
855.000000	72.769700
854.000000	73.105400
853.000000	73.159200
852.000000	73.560600
851.000000	73.686300
850.000000	73.647400
849.000000	73.750800
848.000000	74.180900
847.000000	74.156700
846.000000	74.399100
845.000000	74.289800
844.000000	74.487400
843.000000	74.719300
842.000000	74.703000
841.000000	74.705100
840.000000	75.105200
839.000000	74.960700
838.000000	75.130000
837.000000	75.032600
836.000000	75.229700
835.000000	75.280400
834.000000	75.143500
833.000000	75.371300
832.000000	75.143300
831.000000	75.204700
830.000000	75.284500
829.000000	75.075800
828.000000	75.224300
827.000000	75.287900
826.000000	75.483400
825.000000	75.435200
824.000000	75.388000
823.000000	75.530400
822.000000	75.524500
821.000000	75.579900
820.000000	75.771100
819.000000	75.862800
818.000000	76.042700
817.000000	76.049500
816.000000	76.400100
815.000000	76.614100
814.000000	76.458700
813.000000	76.749500
812.000000	76.758300
811.000000	76.943900
810.000000	77.081700
809.000000	77.363000
808.000000	77.392900
807.000000	77.549800
806.000000	77.760600
805.000000	77.845100
804.000000	78.058200
803.000000	78.150000
802.000000	78.239900
801.000000	78.638400
800.000000	78.731900
799.000000	78.967700
798.000000	79.032800
797.000000	79.214300
796.000000	79.363000
795.000000	79.685100
794.000000	79.965800
793.000000	80.278600
792.000000	80.513900
791.000000	81.017100
790.000000	81.081800
789.000000	81.355600
788.000000	81.655000
787.000000	81.826700
786.000000	82.118900
785.000000	82.352200
784.000000	82.495500
783.000000	82.697600
782.000000	82.810600
781.000000	82.908500
780.000000	83.012600
779.000000	83.135600
778.000000	83.263500
777.000000	83.219100
776.000000	83.129400
775.000000	83.238500
774.000000	83.114900
773.000000	83.157000
772.000000	83.139300
771.000000	82.955200
770.000000	83.071800
769.000000	83.014500
768.000000	82.936700
767.000000	82.992500
766.000000	83.063900
765.000000	83.031000
764.000000	83.297100
763.000000	83.509100
762.000000	83.728700
761.000000	83.986300
760.000000	84.075700
759.000000	84.433600
758.000000	84.511600
757.000000	84.887300
756.000000	85.094900
755.000000	85.522500
754.000000	85.631200
753.000000	85.881800
752.000000	86.080700
751.000000	86.356700
750.000000	86.669300
749.000000	86.765100
748.000000	86.930000
747.000000	87.113700
746.000000	87.217000
745.000000	87.210100
744.000000	87.285300
743.000000	87.368300
742.000000	87.275000
741.000000	87.269300
740.000000	87.271100
739.000000	87.151200
738.000000	87.067400
737.000000	86.947500
736.000000	86.773100
735.000000	86.736300
734.000000	86.601200
733.000000	86.518100
732.000000	86.359300
731.000000	86.226400
730.000000	86.130200
729.000000	85.975200
728.000000	85.923800
727.000000	85.815500
726.000000	85.709300
725.000000	85.557100
724.000000	85.430700
723.000000	85.321700
722.000000	85.156200
721.000000	84.929300
720.000000	84.759100
719.000000	84.531700
718.000000	84.233900
717.000000	83.949600
716.000000	83.635600
715.000000	83.295100
714.000000	82.988700
713.000000	82.677700
712.000000	82.276900
711.000000	81.854500
710.000000	81.529100
709.000000	81.120200
708.000000	80.713300
707.000000	80.365000
706.000000	79.999600
705.000000	79.642900
704.000000	79.335400
703.000000	79.143000
702.000000	78.893000
701.000000	78.681400
700.000000	78.582900
699.000000	78.494200
698.000000	78.416400
697.000000	78.384200
696.000000	78.418300
695.000000	78.473200
694.000000	78.479400
693.000000	78.541000
692.000000	78.639900
691.000000	78.717900
690.000000	78.684100
689.000000	78.686500
688.000000	78.659400
687.000000	78.716100
686.000000	78.729900
685.000000	78.686700
684.000000	78.669400
683.000000	78.679400
682.000000	78.679800
681.000000	78.650800
680.000000	78.674500
679.000000	78.704000
678.000000	78.701800
677.000000	78.718700
676.000000	78.682500
675.000000	78.603700
674.000000	78.453000
673.000000	78.348700
672.000000	78.186800
671.000000	78.003900
670.000000	77.810100
669.000000	77.583600
668.000000	77.346500
667.000000	77.048700
666.000000	76.699100
665.000000	76.432600
664.000000	76.093700
663.000000	75.700600
662.000000	75.339300
661.000000	74.884800
660.000000	74.344800
659.000000	73.759200
658.000000	73.114200
657.000000	72.366500
656.000000	71.532100
655.000000	70.683900
654.000000	69.719400
653.000000	68.704300
652.000000	67.625700
651.000000	66.552800
650.000000	65.502300
649.000000	64.410700
648.000000	63.371600
647.000000	62.415600
646.000000	61.544200
645.000000	60.739800
644.000000	60.006300
643.000000	59.407700
642.000000	58.942600
641.000000	58.599900
640.000000	58.428600
639.000000	58.426500
638.000000	58.605500
637.000000	58.974600
636.000000	59.508200
635.000000	60.203200
634.000000	61.054800
633.000000	62.030900
632.000000	63.126700
631.000000	64.322100
630.000000	65.587000
629.000000	66.868100
628.000000	68.146700
627.000000	69.426600
626.000000	70.697200
625.000000	71.917600
624.000000	73.101200
623.000000	74.240400
622.000000	75.303700
621.000000	76.359200
620.000000	77.368900
619.000000	78.272500
618.000000	79.167400
617.000000	79.981700
616.000000	80.724300
615.000000	81.489400
614.000000	82.261000
613.000000	82.979300
612.000000	83.658700
611.000000	84.324700
610.000000	84.946700
609.000000	85.526800
608.000000	86.073300
607.000000	86.570900
606.000000	87.064900
605.000000	87.545500
604.000000	87.963400
603.000000	88.328400
602.000000	88.667600
601.000000	88.976900
600.000000	89.261200
599.000000	89.529400
598.000000	89.752200
597.000000	89.943000
596.000000	90.131100
595.000000	90.349000
594.000000	90.495600
593.000000	90.598100
592.000000	90.720500
591.000000	90.842800
590.000000	90.925000
589.000000	90.978200
588.000000	91.021000
587.000000	91.058000
586.000000	91.020700
585.000000	90.975900
584.000000	90.958400
583.000000	90.897800
582.000000	90.808300
581.000000	90.705600
580.000000	90.564400
579.000000	90.455800
578.000000	90.274200
577.000000	90.116200
576.000000	89.937800
575.000000	89.754100
574.000000	89.555200
573.000000	89.312200
572.000000	89.081500
571.000000	88.865400
570.000000	88.649000
569.000000	88.366300
568.000000	88.092200
567.000000	87.799400
566.000000	87.498100
565.000000	87.190000
564.000000	86.871900
563.000000	86.498800
562.000000	86.076900
561.000000	85.653900
560.000000	85.213400
559.000000	84.644500
558.000000	84.108300
557.000000	83.549400
556.000000	82.995600
555.000000	82.392400
554.000000	81.754200
553.000000	81.106200
552.000000	80.388900
551.000000	79.664700
550.000000	78.893900
549.000000	78.068700
548.000000	77.316700
547.000000	76.455600
546.000000	75.628400
545.000000	74.754500
544.000000	73.827500
543.000000	72.867300
542.000000	71.874100
541.000000	70.847200
540.000000	69.829300
539.000000	68.761300
538.000000	67.682300
537.000000	66.554700
536.000000	65.428600
535.000000	64.274900
534.000000	63.068800
533.000000	61.808800
532.000000	60.537900
531.000000	59.235500
530.000000	57.864400
529.000000	56.485500
528.000000	55.048800
527.000000	53.655700
526.000000	52.211100
525.000000	50.793200
524.000000	49.380900
523.000000	48.006500
522.000000	46.640900
521.000000	45.321100
520.000000	44.112000
519.000000	43.001400
518.000000	41.956900
517.000000	40.969800
516.000000	40.102400
515.000000	39.329100
514.000000	38.608200
513.000000	37.991900
512.000000	37.436300
511.000000	36.952500
510.000000	36.583100
509.000000	36.238800
508.000000	35.964200
507.000000	35.748400
506.000000	35.537700
505.000000	35.393000
504.000000	35.227400
503.000000	35.055600
502.000000	34.878800
501.000000	34.706400
500.000000	34.505100
499.000000	34.272400
498.000000	34.019900
497.000000	33.759400
496.000000	33.458100
495.000000	33.122300
494.000000	32.743200
493.000000	32.361500
492.000000	31.925000
491.000000	31.426800
490.000000	30.947800
489.000000	30.401100
488.000000	29.867400
487.000000	29.305100
486.000000	28.787500
485.000000	28.276400
484.000000	27.696000
483.000000	27.210600
482.000000	26.744400
481.000000	26.312600
480.000000	25.933900
479.000000	25.599000
478.000000	25.287900
477.000000	25.036100
476.000000	24.831000
475.000000	24.674600
474.000000	24.561900
473.000000	24.482900
472.000000	24.449500
471.000000	24.436400
470.000000	24.451400
469.000000	24.503700
468.000000	24.554800
467.000000	24.611600
466.000000	24.686100
465.000000	24.718000
464.000000	24.814600
463.000000	24.891100
462.000000	24.903200
461.000000	24.945400
460.000000	24.995500
459.000000	25.030100
458.000000	24.991500
457.000000	24.965700
456.000000	24.942200
455.000000	24.868900
454.000000	24.831300
453.000000	24.743700
452.000000	24.645300
451.000000	24.523000
450.000000	24.367300
449.000000	24.236100
448.000000	24.072000
447.000000	23.906000
446.000000	23.710000
445.000000	23.492700
444.000000	23.270600
443.000000	23.052600
442.000000	22.817300
441.000000	22.533000
440.000000	22.268800
439.000000	22.004000
438.000000	21.712000
437.000000	21.441400
436.000000	21.111700
435.000000	20.810600
434.000000	20.497900
433.000000	20.179300
432.000000	19.812700
431.000000	19.462600
430.000000	19.103600
429.000000	18.745300
428.000000	18.384700
427.000000	18.017900
426.000000	17.645900
425.000000	17.262200
424.000000	16.840500
423.000000	16.451600
422.000000	16.046600
421.000000	15.632200
420.000000	15.235100
419.000000	14.843700
418.000000	14.432700
417.000000	14.055700
416.000000	13.675100
415.000000	13.302700
414.000000	12.933700
413.000000	12.568800
412.000000	12.190800
411.000000	11.855500
410.000000	11.513200
409.000000	11.223900
408.000000	10.919300
407.000000	10.641400
406.000000	10.371400
405.000000	10.094100
404.000000	9.865500
403.000000	9.623200
402.000000	9.399200
401.000000	9.201300
400.000000	9.011500
399.000000	8.832200
398.000000	8.672300
397.000000	8.521200
396.000000	8.373100
395.000000	8.223600
394.000000	8.098000
393.000000	7.975200
392.000000	7.859500
391.000000	7.751100
390.000000	7.651300
389.000000	7.560200
388.000000	7.468800
387.000000	7.400600
386.000000	7.321300
385.000000	7.241200
384.000000	7.163800
383.000000	7.109800
382.000000	7.074400
381.000000	7.016600
380.000000	6.956500
379.000000	6.903200
378.000000	6.866700
377.000000	6.822900
376.000000	6.760800
375.000000	6.630200
374.000000	6.519100
373.000000	6.556700
372.000000	6.500400
371.000000	6.505900
370.000000	6.517700
369.000000	6.503600
368.000000	6.584000
367.000000	6.548100
366.000000	6.544100
365.000000	6.556200
364.000000	6.495900
363.000000	6.394000
362.000000	6.365400
361.000000	6.343300
360.000000	6.391700
359.000000	6.424500
358.000000	6.411100
357.000000	6.367600
356.000000	6.340400
355.000000	6.400700
354.000000	6.389300
353.000000	6.389200
352.000000	6.281100
351.000000	6.215500
350.000000	6.165200
349.000000	6.255000
348.000000	6.339400
347.000000	6.310000
346.000000	6.323400
345.000000	6.206700
344.000000	6.145300
343.000000	6.213300
342.000000	6.238800
341.000000	6.190300
340.000000	6.145800
339.000000	6.259800
338.000000	6.249500
337.000000	6.305900
336.000000	6.302000
335.000000	6.190800
334.000000	6.134200
333.000000	6.062600
332.000000	6.149100
331.000000	6.411100
330.000000	6.421300
329.000000	6.305800
328.000000	6.432200
327.000000	6.409500
326.000000	6.389100
325.000000	6.469200
324.000000	6.423300
323.000000	6.401600
322.000000	6.450200
321.000000	6.578700
320.000000	6.572000
319.000000	6.830800
318.000000	7.009600
317.000000	7.011800
316.000000	6.606800
315.000000	6.178600
314.000000	6.195500
313.000000	6.234200
312.000000	6.265500
311.000000	6.278600
310.000000	6.266200
309.000000	6.230200
308.000000	6.240300
307.000000	6.244200
306.000000	6.277900
305.000000	6.309800
304.000000	6.287200
303.000000	6.346300
302.000000	6.345900
301.000000	6.363100
300.000000	6.352600
299.000000	6.336900
298.000000	6.375500
297.000000	6.334600
296.000000	6.324700
295.000000	6.327100
294.000000	6.350600
293.000000	6.391900
292.000000	6.360000
291.000000	6.349000
290.000000	6.404200
289.000000	6.412700
288.000000	6.417300
287.000000	6.461600
286.000000	6.462800
285.000000	6.412000
284.000000	6.470200
283.000000	6.475600
282.000000	6.442400
281.000000	6.443200
280.000000	6.475800
279.000000	6.491400
278.000000	6.495800
277.000000	6.550300
276.000000	6.527700
275.000000	6.513700
274.000000	6.599300
273.000000	6.591400
272.000000	6.544100
271.000000	6.599200
270.000000	6.651300
269.000000	6.675000
268.000000	6.723200
267.000000	6.714900
266.000000	6.742300
265.000000	6.779400
264.000000	6.830000
263.000000	6.893600
262.000000	6.932500
261.000000	6.930400
260.000000	6.971400
259.000000	7.012600
258.000000	7.009300
257.000000	7.071300
256.000000	7.102400
255.000000	7.115300
254.000000	7.107300
253.000000	7.118100
252.000000	7.106000
251.000000	7.126700
250.000000	7.181200
