PE UV       SUBTECH     SPECTRUM    ASCII       PEDS        4.00        
   -1
CICIMAUCR0214-2.Sample.ASC
24/06/13
13:53:14.00
24/06/13
13:53:14.00
Vinicio Soto Monge
C. cupreomarginata. Sex M. Ventral 
250,000000
1
Lambda 1050
1050L1511233
PerkinElmer UV WinLab 6.3.2.0749 / 2.02.05 Lambda 900 UV/VIS/NIR, Aug  7 2015 09:38:08

0
0
3350/servo 860,8/2
0
0
UV/VIS
1
1
1
DoubleDePol,CommonBeamDepol,RBeamAtt,SBeamAtt,60mm sphere, WB InGaAs Detector
0
0
0
0
Program
Program
3350/servo 860,8/2
3350/0,2 860,8/0,2
3350/0,2 860,8/0,2
0
15.00
 
 
 
0
 
860,8
319,2
860,8
Front
100
on
S:100 R:100
0
0
0
0
 
0
 
 
 
0
 
 
0
0
0
0
0
 
 
 
 
0
0


0
0
#HDR
-1
-1
#GR
nm
%R
1.0
0.0
2500,000000
-1,000000
2251
8
58,794000
3,707200
#DATA
2482.000000	6.390690
2481.000000	6.442801
2480.000000	6.402838
2479.000000	6.403973
2478.000000	6.380017
2477.000000	6.396139
2476.000000	6.378882
2475.000000	6.427361
2474.000000	6.364804
2473.000000	6.403973
2472.000000	6.424409
2471.000000	6.398410
2470.000000	6.408855
2469.000000	6.382402
2468.000000	6.352769
2467.000000	6.397047
2466.000000	6.382742
2465.000000	6.369118
2464.000000	6.392279
2463.000000	6.382629
2462.000000	6.407038
2461.000000	6.407265
2460.000000	6.426566
2459.000000	6.450068
2458.000000	6.445299
2457.000000	6.503088
2456.000000	6.512852
2455.000000	6.539646
2454.000000	6.567234
2453.000000	6.571662
2452.000000	6.606403
2451.000000	6.612875
2450.000000	6.684174
2449.000000	6.708016
2448.000000	6.725613
2447.000000	6.740373
2446.000000	6.788852
2445.000000	6.805995
2444.000000	6.833470
2443.000000	6.869233
2442.000000	6.927703
2441.000000	6.940873
2440.000000	6.976182
2439.000000	6.995823
2438.000000	7.038739
2437.000000	7.069393
2436.000000	7.104929
2435.000000	7.126387
2434.000000	7.156246
2433.000000	7.194507
2432.000000	7.232881
2431.000000	7.248549
2430.000000	7.256950
2429.000000	7.282155
2428.000000	7.303726
2427.000000	7.328250
2426.000000	7.353568
2425.000000	7.375139
2424.000000	7.386833
2423.000000	7.414081
2422.000000	7.459040
2421.000000	7.488105
2420.000000	7.479476
2419.000000	7.506497
2418.000000	7.518986
2417.000000	7.520462
2416.000000	7.568146
2415.000000	7.586198
2414.000000	7.605044
2413.000000	7.593804
2412.000000	7.609018
2411.000000	7.634904
2410.000000	7.657724
2409.000000	7.682815
2408.000000	7.677138
2407.000000	7.691443
2406.000000	7.698482
2405.000000	7.739582
2404.000000	7.762061
2403.000000	7.764218
2402.000000	7.787379
2401.000000	7.801344
2400.000000	7.803728
2399.000000	7.822461
2398.000000	7.855045
2397.000000	7.871394
2396.000000	7.898415
2395.000000	7.917489
2394.000000	7.941331
2393.000000	7.953025
2392.000000	7.971076
2391.000000	7.982657
2390.000000	7.989128
2389.000000	7.997870
2388.000000	8.022961
2387.000000	8.029092
2386.000000	8.036131
2385.000000	8.063493
2384.000000	8.058043
2383.000000	8.046576
2382.000000	8.046122
2381.000000	8.065763
2380.000000	8.060427
2379.000000	8.049301
2378.000000	8.061903
2377.000000	8.068261
2376.000000	8.073257
2375.000000	8.054637
2374.000000	8.040445
2373.000000	8.052934
2372.000000	8.061336
2371.000000	8.029773
2370.000000	8.007861
2369.000000	8.005250
2368.000000	7.996054
2367.000000	7.976980
2366.000000	7.960177
2365.000000	7.937016
2364.000000	7.905795
2363.000000	7.883883
2362.000000	7.863560
2361.000000	7.850050
2360.000000	7.818260
2359.000000	7.799300
2358.000000	7.783973
2357.000000	7.759450
2356.000000	7.748551
2355.000000	7.722211
2354.000000	7.721643
2353.000000	7.714150
2352.000000	7.702115
2351.000000	7.698937
2350.000000	7.721189
2349.000000	7.739014
2348.000000	7.723800
2347.000000	7.734245
2346.000000	7.770576
2345.000000	7.802252
2344.000000	7.813719
2343.000000	7.829614
2342.000000	7.853456
2341.000000	7.873892
2340.000000	7.909541
2339.000000	7.930999
2338.000000	7.937811
2337.000000	7.945191
2336.000000	7.962675
2335.000000	7.973915
2334.000000	7.959950
2333.000000	7.963243
2332.000000	7.959496
2331.000000	7.948256
2330.000000	7.929977
2329.000000	7.909201
2328.000000	7.891035
2327.000000	7.881839
2326.000000	7.858905
2325.000000	7.833360
2324.000000	7.787606
2323.000000	7.761153
2322.000000	7.729364
2321.000000	7.708700
2320.000000	7.665104
2319.000000	7.616625
2318.000000	7.569622
2317.000000	7.529885
2316.000000	7.501615
2315.000000	7.438604
2314.000000	7.399662
2313.000000	7.353454
2312.000000	7.303386
2311.000000	7.261946
2310.000000	7.222550
2309.000000	7.192804
2308.000000	7.166691
2307.000000	7.141941
2306.000000	7.126841
2305.000000	7.119461
2304.000000	7.130588
2303.000000	7.158403
2302.000000	7.168054
2301.000000	7.171460
2300.000000	7.204839
2299.000000	7.235947
2298.000000	7.287605
2297.000000	7.336197
2296.000000	7.382859
2295.000000	7.401706
2294.000000	7.431338
2293.000000	7.482428
2292.000000	7.513309
2291.000000	7.539535
2290.000000	7.575299
2289.000000	7.577796
2288.000000	7.583019
2287.000000	7.610494
2286.000000	7.611516
2285.000000	7.607883
2284.000000	7.584949
2283.000000	7.574504
2282.000000	7.569962
2281.000000	7.564399
2280.000000	7.532837
2279.000000	7.522732
2278.000000	7.496847
2277.000000	7.460403
2276.000000	7.447800
2275.000000	7.428840
2274.000000	7.433495
2273.000000	7.401819
2272.000000	7.412832
2271.000000	7.414989
2270.000000	7.412718
2269.000000	7.417941
2268.000000	7.436561
2267.000000	7.471983
2266.000000	7.497414
2265.000000	7.567578
2264.000000	7.610267
2263.000000	7.696212
2262.000000	7.777842
2261.000000	7.863220
2260.000000	7.964605
2259.000000	8.089719
2258.000000	8.216536
2257.000000	8.337222
2256.000000	8.468126
2255.000000	8.610611
2254.000000	8.736065
2253.000000	8.905571
2252.000000	9.062929
2251.000000	9.199169
2250.000000	9.314065
2249.000000	9.445991
2248.000000	9.583139
2247.000000	9.697127
2246.000000	9.820878
2245.000000	9.925897
2244.000000	10.039771
2243.000000	10.147060
2242.000000	10.210980
2241.000000	10.299990
2240.000000	10.376852
2239.000000	10.453260
2238.000000	10.513092
2237.000000	10.604033
2236.000000	10.633665
2235.000000	10.695995
2234.000000	10.751399
2233.000000	10.777966
2232.000000	10.812367
2231.000000	10.830419
2230.000000	10.873675
2229.000000	10.899220
2228.000000	10.900809
2227.000000	10.922040
2226.000000	10.914093
2225.000000	10.946336
2224.000000	10.909779
2223.000000	10.900923
2222.000000	10.898425
2221.000000	10.884574
2220.000000	10.906032
2219.000000	10.889797
2218.000000	10.840523
2217.000000	10.811232
2216.000000	10.792158
2215.000000	10.773538
2214.000000	10.751626
2213.000000	10.743566
2212.000000	10.710527
2211.000000	10.688388
2210.000000	10.647630
2209.000000	10.638093
2208.000000	10.651603
2207.000000	10.591771
2206.000000	10.580531
2205.000000	10.580304
2204.000000	10.564637
2203.000000	10.535345
2202.000000	10.533074
2201.000000	10.526944
2200.000000	10.518656
2199.000000	10.503669
2198.000000	10.510254
2197.000000	10.490159
2196.000000	10.469382
2195.000000	10.482325
2194.000000	10.491180
2193.000000	10.473923
2192.000000	10.471085
2191.000000	10.478238
2190.000000	10.448151
2189.000000	10.466317
2188.000000	10.443723
2187.000000	10.441566
2186.000000	10.433846
2185.000000	10.412502
2184.000000	10.401262
2183.000000	10.392633
2182.000000	10.394677
2181.000000	10.369473
2180.000000	10.368224
2179.000000	10.338705
2178.000000	10.324627
2177.000000	10.327011
2176.000000	10.304531
2175.000000	10.328033
2174.000000	10.300785
2173.000000	10.294881
2172.000000	10.281484
2171.000000	10.305780
2170.000000	10.298968
2169.000000	10.329168
2168.000000	10.346085
2167.000000	10.325762
2166.000000	10.324173
2165.000000	10.341657
2164.000000	10.346993
2163.000000	10.362093
2162.000000	10.382529
2161.000000	10.386503
2160.000000	10.417838
2159.000000	10.421244
2158.000000	10.462229
2157.000000	10.469155
2156.000000	10.492770
2155.000000	10.519564
2154.000000	10.545336
2153.000000	10.567816
2152.000000	10.598810
2151.000000	10.618565
2150.000000	10.663979
2149.000000	10.705872
2148.000000	10.723697
2147.000000	10.741863
2146.000000	10.790909
2145.000000	10.820201
2144.000000	10.842453
2143.000000	10.872540
2142.000000	10.888548
2141.000000	10.920791
2140.000000	10.942930
2139.000000	10.975855
2138.000000	10.996405
2137.000000	10.997881
2136.000000	11.018203
2135.000000	11.045792
2134.000000	11.084166
2133.000000	11.099493
2132.000000	11.091319
2131.000000	11.098244
2130.000000	11.127536
2129.000000	11.146723
2128.000000	11.147177
2127.000000	11.152400
2126.000000	11.148540
2125.000000	11.155806
2124.000000	11.149221
2123.000000	11.164207
2122.000000	11.148086
2121.000000	11.143090
2120.000000	11.140592
2119.000000	11.128444
2118.000000	11.136732
2117.000000	11.133667
2116.000000	11.103126
2115.000000	11.085529
2114.000000	11.083485
2113.000000	11.078149
2112.000000	11.056350
2111.000000	11.032735
2110.000000	11.020020
2109.000000	11.005147
2108.000000	10.968475
2107.000000	10.962118
2106.000000	10.952581
2105.000000	10.934188
2104.000000	10.912049
2103.000000	10.890591
2102.000000	10.863684
2101.000000	10.838934
2100.000000	10.837571
2099.000000	10.828375
2098.000000	10.791590
2097.000000	10.761844
2096.000000	10.739932
2095.000000	10.726308
2094.000000	10.729828
2093.000000	10.702921
2092.000000	10.680554
2091.000000	10.659324
2090.000000	10.640931
2089.000000	10.643656
2088.000000	10.619473
2087.000000	10.594042
2086.000000	10.595404
2085.000000	10.581213
2084.000000	10.550786
2083.000000	10.533415
2082.000000	10.518996
2081.000000	10.479146
2080.000000	10.454850
2079.000000	10.441453
2078.000000	10.416021
2077.000000	10.393769
2076.000000	10.358914
2075.000000	10.330985
2074.000000	10.305553
2073.000000	10.264000
2072.000000	10.220516
2071.000000	10.181347
2070.000000	10.154667
2069.000000	10.129917
2068.000000	10.099717
2067.000000	10.065884
2066.000000	10.031143
2065.000000	9.986978
2064.000000	9.944630
2063.000000	9.924762
2062.000000	9.904893
2061.000000	9.870833
2060.000000	9.837908
2059.000000	9.829166
2058.000000	9.813158
2057.000000	9.802827
2056.000000	9.789884
2055.000000	9.787500
2054.000000	9.790679
2053.000000	9.797150
2052.000000	9.826442
2051.000000	9.848581
2050.000000	9.885820
2049.000000	9.930665
2048.000000	9.961660
2047.000000	9.996855
2046.000000	10.047264
2045.000000	10.108799
2044.000000	10.166929
2043.000000	10.215975
2042.000000	10.307256
2041.000000	10.350512
2040.000000	10.400808
2039.000000	10.454396
2038.000000	10.521040
2037.000000	10.585867
2036.000000	10.620836
2035.000000	10.666930
2034.000000	10.699401
2033.000000	10.730623
2032.000000	10.763547
2031.000000	10.801127
2030.000000	10.829397
2029.000000	10.879806
2028.000000	10.899220
2027.000000	10.906940
2026.000000	10.923516
2025.000000	10.953830
2024.000000	10.974152
2023.000000	10.974606
2022.000000	11.013435
2021.000000	11.007417
2020.000000	11.002081
2019.000000	11.012640
2018.000000	11.021155
2017.000000	11.019906
2016.000000	11.023426
2015.000000	11.018884
2014.000000	11.009234
2013.000000	11.012754
2012.000000	10.988457
2011.000000	10.987776
2010.000000	10.954965
2009.000000	10.935664
2008.000000	10.918180
2007.000000	10.904897
2006.000000	10.877876
2005.000000	10.856758
2004.000000	10.822358
2003.000000	10.790455
2002.000000	10.743452
2001.000000	10.713252
2000.000000	10.688502
1999.000000	10.664319
1998.000000	10.594382
1997.000000	10.556576
1996.000000	10.527965
1995.000000	10.480622
1994.000000	10.441339
1993.000000	10.379350
1992.000000	10.329849
1991.000000	10.280462
1990.000000	10.250035
1989.000000	10.184413
1988.000000	10.118109
1987.000000	10.072128
1986.000000	10.010252
1985.000000	9.956437
1984.000000	9.890815
1983.000000	9.837114
1982.000000	9.781709
1981.000000	9.728008
1980.000000	9.695197
1979.000000	9.610274
1978.000000	9.567131
1977.000000	9.502871
1976.000000	9.480278
1975.000000	9.415223
1974.000000	9.349260
1973.000000	9.301008
1972.000000	9.265699
1971.000000	9.225054
1970.000000	9.150576
1969.000000	9.097443
1968.000000	9.074282
1967.000000	9.048850
1966.000000	8.984363
1965.000000	8.918627
1964.000000	8.915448
1963.000000	8.852891
1962.000000	8.778754
1961.000000	8.789199
1960.000000	8.748214
1959.000000	8.684635
1958.000000	8.653867
1957.000000	8.611179
1956.000000	8.576551
1955.000000	8.524212
1954.000000	8.493217
1953.000000	8.475619
1952.000000	8.431114
1951.000000	8.398303
1950.000000	8.368898
1949.000000	8.342558
1948.000000	8.307249
1947.000000	8.271600
1946.000000	8.235496
1945.000000	8.229138
1944.000000	8.189515
1943.000000	8.155001
1942.000000	8.165332
1941.000000	8.170441
1940.000000	8.134224
1939.000000	8.157839
1938.000000	8.112993
1937.000000	8.143874
1936.000000	8.119919
1935.000000	8.155114
1934.000000	8.155909
1933.000000	8.169420
1932.000000	8.153979
1931.000000	8.186109
1930.000000	8.215060
1929.000000	8.266264
1928.000000	8.267967
1927.000000	8.317013
1926.000000	8.363675
1925.000000	8.386155
1924.000000	8.420215
1923.000000	8.477095
1922.000000	8.562586
1921.000000	8.623213
1920.000000	8.667718
1919.000000	8.721533
1918.000000	8.826438
1917.000000	8.923169
1916.000000	8.999463
1915.000000	9.079504
1914.000000	9.209387
1913.000000	9.309637
1912.000000	9.416926
1911.000000	9.548739
1910.000000	9.647059
1909.000000	9.779666
1908.000000	9.922377
1907.000000	10.046015
1906.000000	10.190430
1905.000000	10.371289
1904.000000	10.552262
1903.000000	10.724832
1902.000000	10.913866
1901.000000	11.102332
1900.000000	11.317932
1899.000000	11.548632
1898.000000	11.778537
1897.000000	12.030241
1896.000000	12.290233
1895.000000	12.540915
1894.000000	12.818050
1893.000000	13.076453
1892.000000	13.376522
1891.000000	13.729044
1890.000000	14.076229
1889.000000	14.470077
1888.000000	14.844170
1887.000000	15.243808
1886.000000	15.680345
1885.000000	16.149465
1884.000000	16.636751
1883.000000	17.185799
1882.000000	17.771405
1881.000000	18.296952
1880.000000	18.863371
1879.000000	19.423545
1878.000000	19.957834
1877.000000	20.497232
1876.000000	21.012334
1875.000000	21.503253
1874.000000	21.993831
1873.000000	22.489178
1872.000000	22.965678
1871.000000	23.379735
1870.000000	23.799809
1869.000000	24.201945
1868.000000	24.588754
1867.000000	24.905285
1866.000000	25.194682
1865.000000	25.419819
1864.000000	25.643367
1863.000000	25.826837
1862.000000	25.995548
1861.000000	26.186852
1860.000000	26.360445
1859.000000	26.528588
1858.000000	26.672208
1857.000000	26.775637
1856.000000	26.862944
1855.000000	26.934130
1854.000000	26.998049
1853.000000	27.069575
1852.000000	27.078204
1851.000000	27.090806
1850.000000	27.144394
1849.000000	27.141442
1848.000000	27.140761
1847.000000	27.153136
1846.000000	27.138831
1845.000000	27.109199
1844.000000	27.060152
1843.000000	27.025751
1842.000000	27.025184
1841.000000	27.049934
1840.000000	27.018372
1839.000000	26.982495
1838.000000	26.941509
1837.000000	26.910628
1836.000000	26.882586
1835.000000	26.842962
1834.000000	26.788693
1833.000000	26.724206
1832.000000	26.657449
1831.000000	26.599433
1830.000000	26.543234
1829.000000	26.471367
1828.000000	26.400409
1827.000000	26.318664
1826.000000	26.246684
1825.000000	26.205017
1824.000000	26.124749
1823.000000	26.069685
1822.000000	26.043459
1821.000000	26.014622
1820.000000	25.970116
1819.000000	25.949680
1818.000000	25.900066
1817.000000	25.857151
1816.000000	25.851701
1815.000000	25.861578
1814.000000	25.843527
1813.000000	25.807991
1812.000000	25.789939
1811.000000	25.767573
1810.000000	25.725338
1809.000000	25.675043
1808.000000	25.628721
1807.000000	25.579902
1806.000000	25.535510
1805.000000	25.478743
1804.000000	25.405741
1803.000000	25.352835
1802.000000	25.306967
1801.000000	25.263484
1800.000000	25.219092
1799.000000	25.145295
1798.000000	25.075018
1797.000000	25.014845
1796.000000	24.958873
1795.000000	24.907215
1794.000000	24.856239
1793.000000	24.808555
1792.000000	24.739299
1791.000000	24.669249
1790.000000	24.609303
1789.000000	24.551855
1788.000000	24.505420
1787.000000	24.440366
1786.000000	24.353399
1785.000000	24.285165
1784.000000	24.221586
1783.000000	24.140183
1782.000000	24.056168
1781.000000	23.975332
1780.000000	23.893929
1779.000000	23.811844
1778.000000	23.725104
1777.000000	23.636775
1776.000000	23.545608
1775.000000	23.442065
1774.000000	23.328077
1773.000000	23.210003
1772.000000	23.106119
1771.000000	22.995992
1770.000000	22.878485
1769.000000	22.752235
1768.000000	22.625305
1767.000000	22.493379
1766.000000	22.383478
1765.000000	22.299577
1764.000000	22.239291
1763.000000	22.190017
1762.000000	22.165040
1761.000000	22.179345
1760.000000	22.201143
1759.000000	22.245762
1758.000000	22.309227
1757.000000	22.381208
1756.000000	22.446262
1755.000000	22.501213
1754.000000	22.541971
1753.000000	22.581821
1752.000000	22.600100
1751.000000	22.620991
1750.000000	22.607821
1749.000000	22.589201
1748.000000	22.541176
1747.000000	22.476462
1746.000000	22.414700
1745.000000	22.327506
1744.000000	22.202279
1743.000000	22.074327
1742.000000	21.910725
1741.000000	21.714198
1740.000000	21.526641
1739.000000	21.311949
1738.000000	21.091126
1737.000000	20.898233
1736.000000	20.722483
1735.000000	20.565352
1734.000000	20.456928
1733.000000	20.402205
1732.000000	20.382223
1731.000000	20.390284
1730.000000	20.451932
1729.000000	20.534130
1728.000000	20.617124
1727.000000	20.733836
1726.000000	20.855885
1725.000000	20.928773
1724.000000	21.004500
1723.000000	21.084087
1722.000000	21.119396
1721.000000	21.177071
1720.000000	21.232589
1719.000000	21.282317
1718.000000	21.341240
1717.000000	21.387903
1716.000000	21.471804
1715.000000	21.539811
1714.000000	21.639380
1713.000000	21.738948
1712.000000	21.817968
1711.000000	21.905956
1710.000000	21.956479
1709.000000	21.989631
1708.000000	22.022782
1707.000000	21.996897
1706.000000	21.963404
1705.000000	21.941379
1704.000000	21.881206
1703.000000	21.811610
1702.000000	21.728276
1701.000000	21.619852
1700.000000	21.497690
1699.000000	21.339651
1698.000000	21.168329
1697.000000	21.023233
1696.000000	20.922756
1695.000000	20.822392
1694.000000	20.800367
1693.000000	20.848618
1692.000000	20.929114
1691.000000	21.067170
1690.000000	21.230205
1689.000000	21.399483
1688.000000	21.516650
1687.000000	21.624053
1686.000000	21.702391
1685.000000	21.757227
1684.000000	21.834317
1683.000000	21.982932
1682.000000	22.174009
1681.000000	22.505868
1680.000000	22.928439
1679.000000	23.423673
1678.000000	23.959210
1677.000000	24.523699
1676.000000	25.069228
1675.000000	25.545274
1674.000000	25.975566
1673.000000	26.395300
1672.000000	26.689579
1671.000000	26.989988
1670.000000	27.238286
1669.000000	27.509745
1668.000000	27.703092
1667.000000	27.893602
1666.000000	28.062313
1665.000000	28.182999
1664.000000	28.309589
1663.000000	28.424825
1662.000000	28.523599
1661.000000	28.579231
1660.000000	28.663586
1659.000000	28.731706
1658.000000	28.775417
1657.000000	28.839904
1656.000000	28.862497
1655.000000	28.856253
1654.000000	28.850690
1653.000000	28.861929
1652.000000	28.887474
1651.000000	28.847738
1650.000000	28.808455
1649.000000	28.776893
1648.000000	28.732615
1647.000000	28.700485
1646.000000	28.645875
1645.000000	28.583318
1644.000000	28.505434
1643.000000	28.443785
1642.000000	28.401210
1641.000000	28.343195
1640.000000	28.265765
1639.000000	28.181069
1638.000000	28.133725
1637.000000	28.057090
1636.000000	27.985905
1635.000000	27.889515
1634.000000	27.812993
1633.000000	27.725459
1632.000000	27.654954
1631.000000	27.536312
1630.000000	27.463991
1629.000000	27.371347
1628.000000	27.277455
1627.000000	27.179249
1626.000000	27.084902
1625.000000	26.992600
1624.000000	26.904384
1623.000000	26.785401
1622.000000	26.717054
1621.000000	26.638602
1620.000000	26.533811
1619.000000	26.429587
1618.000000	26.362602
1617.000000	26.264736
1616.000000	26.179472
1615.000000	26.113509
1614.000000	26.018482
1613.000000	25.922659
1612.000000	25.835579
1611.000000	25.756219
1610.000000	25.672659
1609.000000	25.577063
1608.000000	25.500088
1607.000000	25.414710
1606.000000	25.323316
1605.000000	25.237030
1604.000000	25.168002
1603.000000	25.062983
1602.000000	24.960236
1601.000000	24.878378
1600.000000	24.803559
1599.000000	24.725221
1598.000000	24.636665
1597.000000	24.525062
1596.000000	24.461369
1595.000000	24.388594
1594.000000	24.305034
1593.000000	24.229193
1592.000000	24.122472
1591.000000	24.083984
1590.000000	24.007916
1589.000000	23.924469
1588.000000	23.872584
1587.000000	23.801853
1586.000000	23.732825
1585.000000	23.679123
1584.000000	23.621562
1583.000000	23.556620
1582.000000	23.505644
1581.000000	23.445358
1580.000000	23.404258
1579.000000	23.342042
1578.000000	23.300943
1577.000000	23.271197
1576.000000	23.235548
1575.000000	23.203418
1574.000000	23.171401
1573.000000	23.153009
1572.000000	23.143358
1571.000000	23.128826
1570.000000	23.112137
1569.000000	23.108844
1568.000000	23.106801
1567.000000	23.090225
1566.000000	23.083640
1565.000000	23.088749
1564.000000	23.087500
1563.000000	23.081596
1562.000000	23.080120
1561.000000	23.063317
1560.000000	23.053553
1559.000000	23.043108
1558.000000	23.029938
1557.000000	23.004053
1556.000000	22.967154
1555.000000	22.948762
1554.000000	22.907776
1553.000000	22.868834
1552.000000	22.811046
1551.000000	22.779824
1550.000000	22.750305
1549.000000	22.710909
1548.000000	22.668220
1547.000000	22.622239
1546.000000	22.574896
1545.000000	22.526531
1544.000000	22.492698
1543.000000	22.458183
1542.000000	22.414359
1541.000000	22.386430
1540.000000	22.370876
1539.000000	22.332275
1538.000000	22.294695
1537.000000	22.273691
1536.000000	22.241448
1535.000000	22.214995
1534.000000	22.173328
1533.000000	22.127460
1532.000000	22.096693
1531.000000	22.053323
1530.000000	22.000530
1529.000000	21.950688
1528.000000	21.915607
1527.000000	21.854299
1526.000000	21.786065
1525.000000	21.746215
1524.000000	21.695579
1523.000000	21.628253
1522.000000	21.561609
1521.000000	21.509724
1520.000000	21.454888
1519.000000	21.385973
1518.000000	21.328525
1517.000000	21.282771
1516.000000	21.222030
1515.000000	21.153797
1514.000000	21.089082
1513.000000	21.030272
1512.000000	20.968056
1511.000000	20.888582
1510.000000	20.828296
1509.000000	20.775843
1508.000000	20.706588
1507.000000	20.624503
1506.000000	20.546279
1505.000000	20.471346
1504.000000	20.406178
1503.000000	20.352477
1502.000000	20.287309
1501.000000	20.215782
1500.000000	20.147435
1499.000000	20.080905
1498.000000	20.033107
1497.000000	19.987126
1496.000000	19.925364
1495.000000	19.871435
1494.000000	19.824886
1493.000000	19.763578
1492.000000	19.726680
1491.000000	19.689214
1490.000000	19.654132
1489.000000	19.616212
1488.000000	19.576475
1487.000000	19.540144
1486.000000	19.497342
1485.000000	19.463055
1484.000000	19.438191
1483.000000	19.400498
1482.000000	19.375407
1481.000000	19.356901
1480.000000	19.339644
1479.000000	19.316256
1478.000000	19.303200
1477.000000	19.294571
1476.000000	19.270956
1475.000000	19.242800
1474.000000	19.234058
1473.000000	19.245979
1472.000000	19.235647
1471.000000	19.236329
1470.000000	19.244162
1469.000000	19.229517
1468.000000	19.228722
1467.000000	19.250180
1466.000000	19.275384
1465.000000	19.277882
1464.000000	19.281515
1463.000000	19.303995
1462.000000	19.332719
1461.000000	19.345548
1460.000000	19.383922
1459.000000	19.434899
1458.000000	19.498023
1457.000000	19.554790
1456.000000	19.598274
1455.000000	19.647888
1454.000000	19.697275
1453.000000	19.772207
1452.000000	19.870073
1451.000000	19.951590
1450.000000	20.026976
1449.000000	20.103384
1448.000000	20.168552
1447.000000	20.274366
1446.000000	20.373367
1445.000000	20.459880
1444.000000	20.570234
1443.000000	20.660493
1442.000000	20.746892
1441.000000	20.854182
1440.000000	20.974414
1439.000000	21.099300
1438.000000	21.221122
1437.000000	21.350096
1436.000000	21.464538
1435.000000	21.581137
1434.000000	21.730774
1433.000000	21.872577
1432.000000	22.016197
1431.000000	22.161407
1430.000000	22.311725
1429.000000	22.462271
1428.000000	22.648466
1427.000000	22.838294
1426.000000	23.027441
1425.000000	23.234185
1424.000000	23.452170
1423.000000	23.705122
1422.000000	23.934119
1421.000000	24.159938
1420.000000	24.418567
1419.000000	24.705239
1418.000000	25.014505
1417.000000	25.299360
1416.000000	25.540619
1415.000000	25.847273
1414.000000	26.190826
1413.000000	26.551068
1412.000000	26.868280
1411.000000	27.190829
1410.000000	27.586266
1409.000000	28.028820
1408.000000	28.461042
1407.000000	28.928346
1406.000000	29.356481
1405.000000	29.835252
1404.000000	30.359323
1403.000000	30.855919
1402.000000	31.342637
1401.000000	31.802562
1400.000000	32.362282
1399.000000	32.909627
1398.000000	33.302340
1397.000000	33.673140
1396.000000	34.113877
1395.000000	34.609792
1394.000000	35.082546
1393.000000	35.429504
1392.000000	35.808138
1391.000000	36.284639
1390.000000	36.765567
1389.000000	37.177807
1388.000000	37.712664
1387.000000	38.319046
1386.000000	38.884216
1385.000000	39.474818
1384.000000	40.077340
1383.000000	40.744123
1382.000000	41.409883
1381.000000	41.996284
1380.000000	42.506277
1379.000000	42.867881
1378.000000	43.197242
1377.000000	43.436798
1376.000000	43.693611
1375.000000	43.936118
1374.000000	44.201333
1373.000000	44.496293
1372.000000	44.850404
1371.000000	45.228925
1370.000000	45.626179
1369.000000	45.987556
1368.000000	46.305904
1367.000000	46.634356
1366.000000	46.935334
1365.000000	47.161720
1364.000000	47.416830
1363.000000	47.613697
1362.000000	47.826004
1361.000000	48.024007
1360.000000	48.196919
1359.000000	48.270148
1358.000000	48.429095
1357.000000	48.553414
1356.000000	48.725077
1355.000000	48.970423
1354.000000	49.335546
1353.000000	49.730870
1352.000000	50.087593
1351.000000	50.612004
1350.000000	51.132215
1349.000000	51.564778
1348.000000	52.000292
1347.000000	52.406742
1346.000000	52.812398
1345.000000	53.131200
1344.000000	53.498821
1343.000000	53.855090
1342.000000	54.192398
1341.000000	54.521759
1340.000000	54.832386
1339.000000	55.153119
1338.000000	55.453642
1337.000000	55.768811
1336.000000	56.065701
1335.000000	56.348286
1334.000000	56.638705
1333.000000	56.901535
1332.000000	57.170610
1331.000000	57.416750
1330.000000	57.691275
1329.000000	57.924472
1328.000000	58.157443
1327.000000	58.372930
1326.000000	58.596250
1325.000000	58.799135
1324.000000	58.995888
1323.000000	59.197978
1322.000000	59.392007
1321.000000	59.565032
1320.000000	59.732267
1319.000000	59.905179
1318.000000	60.043008
1317.000000	60.191964
1316.000000	60.332746
1315.000000	60.480453
1314.000000	60.621689
1313.000000	60.735563
1312.000000	60.860109
1311.000000	60.968874
1310.000000	61.085473
1309.000000	61.184929
1308.000000	61.281092
1307.000000	61.370897
1306.000000	61.443445
1305.000000	61.514744
1304.000000	61.584226
1303.000000	61.633046
1302.000000	61.691061
1301.000000	61.739767
1300.000000	61.786543
1299.000000	61.833773
1298.000000	61.838428
1297.000000	61.864086
1296.000000	61.894627
1295.000000	61.893946
1294.000000	61.900871
1293.000000	61.914041
1292.000000	61.928346
1291.000000	61.935158
1290.000000	61.925849
1289.000000	61.911430
1288.000000	61.883955
1287.000000	61.848986
1286.000000	61.825371
1285.000000	61.775757
1284.000000	61.732160
1283.000000	61.689812
1282.000000	61.649962
1281.000000	61.594558
1280.000000	61.538926
1279.000000	61.491242
1278.000000	61.432318
1277.000000	61.383953
1276.000000	61.346260
1275.000000	61.313335
1274.000000	61.275528
1273.000000	61.235224
1272.000000	61.196850
1271.000000	61.176868
1270.000000	61.145192
1269.000000	61.108521
1268.000000	61.084111
1267.000000	61.043920
1266.000000	61.019737
1265.000000	60.988175
1264.000000	60.939583
1263.000000	60.893034
1262.000000	60.853524
1261.000000	60.831045
1260.000000	60.782566
1259.000000	60.716035
1258.000000	60.673914
1257.000000	60.633837
1256.000000	60.571734
1255.000000	60.520303
1254.000000	60.481021
1253.000000	60.411084
1252.000000	60.322528
1251.000000	60.227046
1250.000000	60.134743
1249.000000	60.062309
1248.000000	59.981133
1247.000000	59.892236
1246.000000	59.781086
1245.000000	59.638602
1244.000000	59.521549
1243.000000	59.422093
1242.000000	59.302543
1241.000000	59.169595
1240.000000	59.047206
1239.000000	58.925838
1238.000000	58.786987
1237.000000	58.650292
1236.000000	58.510646
1235.000000	58.368956
1234.000000	58.224087
1233.000000	58.067865
1232.000000	57.914254
1231.000000	57.766093
1230.000000	57.618727
1229.000000	57.446723
1228.000000	57.276196
1227.000000	57.102830
1226.000000	56.923561
1225.000000	56.745313
1224.000000	56.558437
1223.000000	56.378373
1222.000000	56.198081
1221.000000	56.006210
1220.000000	55.828984
1219.000000	55.660841
1218.000000	55.486340
1217.000000	55.315017
1216.000000	55.147783
1215.000000	54.965334
1214.000000	54.804911
1213.000000	54.660724
1212.000000	54.519034
1211.000000	54.363152
1210.000000	54.196939
1209.000000	54.051049
1208.000000	53.929000
1207.000000	53.817851
1206.000000	53.686606
1205.000000	53.570007
1204.000000	53.482927
1203.000000	53.413671
1202.000000	53.344189
1201.000000	53.264715
1200.000000	53.197730
1199.000000	53.121663
1198.000000	53.022548
1197.000000	52.904019
1196.000000	52.757561
1195.000000	52.576929
1194.000000	52.350657
1193.000000	52.062736
1192.000000	51.729628
1191.000000	51.356216
1190.000000	50.953626
1189.000000	50.557281
1188.000000	50.191476
1187.000000	49.910367
1186.000000	49.725875
1185.000000	49.650829
1184.000000	49.695675
1183.000000	49.868813
1182.000000	50.143451
1181.000000	50.505396
1180.000000	50.955216
1179.000000	51.413324
1178.000000	51.850882
1177.000000	52.290597
1176.000000	52.660376
1175.000000	52.968847
1174.000000	53.282086
1173.000000	53.585902
1172.000000	53.883473
1171.000000	54.158905
1170.000000	54.459883
1169.000000	54.759498
1168.000000	55.086929
1167.000000	55.398238
1166.000000	55.732707
1165.000000	56.081142
1164.000000	56.404372
1163.000000	56.733278
1162.000000	57.114978
1161.000000	57.444793
1160.000000	57.778241
1159.000000	58.103515
1158.000000	58.455242
1157.000000	58.758944
1156.000000	59.055266
1155.000000	59.323092
1154.000000	59.552770
1153.000000	59.754860
1152.000000	59.923230
1151.000000	60.033244
1150.000000	60.120779
1149.000000	60.213309
1148.000000	60.291987
1147.000000	60.384404
1146.000000	60.506793
1145.000000	60.691625
1144.000000	60.878275
1143.000000	61.119647
1142.000000	61.411201
1141.000000	61.693332
1140.000000	62.018719
1139.000000	62.372603
1138.000000	62.713431
1137.000000	63.080371
1136.000000	63.447652
1135.000000	63.839116
1134.000000	64.243863
1133.000000	64.621475
1132.000000	64.939823
1131.000000	65.244093
1130.000000	65.524181
1129.000000	65.785194
1128.000000	65.982629
1127.000000	66.177112
1126.000000	66.296322
1125.000000	66.425410
1124.000000	66.501477
1123.000000	66.575047
1122.000000	66.630224
1121.000000	66.694939
1120.000000	66.738990
1119.000000	66.725138
1118.000000	66.734789
1117.000000	66.750911
1116.000000	66.750343
1115.000000	66.736378
1114.000000	66.725138
1113.000000	66.693349
1112.000000	66.659175
1111.000000	66.663263
1110.000000	66.656451
1109.000000	66.606836
1108.000000	66.577885
1107.000000	66.553022
1106.000000	66.539625
1105.000000	66.502613
1104.000000	66.490578
1103.000000	66.463330
1102.000000	66.420414
1101.000000	66.384878
1100.000000	66.369211
1099.000000	66.327203
1098.000000	66.294960
1097.000000	66.247503
1096.000000	66.211740
1095.000000	66.154973
1094.000000	66.122502
1093.000000	66.080268
1092.000000	66.018052
1091.000000	65.959128
1090.000000	65.901453
1089.000000	65.843323
1088.000000	65.794958
1087.000000	65.726384
1086.000000	65.685058
1085.000000	65.612623
1084.000000	65.502382
1083.000000	65.454471
1082.000000	65.379539
1081.000000	65.315279
1080.000000	65.241028
1079.000000	65.162463
1078.000000	65.102631
1077.000000	65.020773
1076.000000	64.956399
1075.000000	64.902698
1074.000000	64.787916
1073.000000	64.727970
1072.000000	64.662234
1071.000000	64.576403
1070.000000	64.502833
1069.000000	64.416093
1068.000000	64.344908
1067.000000	64.257714
1066.000000	64.175856
1065.000000	64.105579
1064.000000	64.002831
1063.000000	63.929602
1062.000000	63.846950
1061.000000	63.753625
1060.000000	63.665069
1059.000000	63.590591
1058.000000	63.498288
1057.000000	63.389182
1056.000000	63.304827
1055.000000	63.224672
1054.000000	63.127601
1053.000000	63.009980
1052.000000	62.947878
1051.000000	62.865679
1050.000000	62.760207
1049.000000	62.651668
1048.000000	62.592972
1047.000000	62.514520
1046.000000	62.418130
1045.000000	62.319015
1044.000000	62.248624
1043.000000	62.163020
1042.000000	62.079005
1041.000000	62.003846
1040.000000	61.930731
1039.000000	61.824690
1038.000000	61.762133
1037.000000	61.643604
1036.000000	61.559476
1035.000000	61.484544
1034.000000	61.389970
1033.000000	61.270987
1032.000000	61.174484
1031.000000	61.102163
1030.000000	60.989878
1029.000000	60.894396
1028.000000	60.780068
1027.000000	60.676412
1026.000000	60.587402
1025.000000	60.476593
1024.000000	60.361924
1023.000000	60.231928
1022.000000	60.118395
1021.000000	59.984425
1020.000000	59.908358
1019.000000	59.795619
1018.000000	59.675614
1017.000000	59.603066
1016.000000	59.482266
1015.000000	59.380767
1014.000000	59.316848
1013.000000	59.219777
1012.000000	59.120889
1011.000000	59.063214
1010.000000	58.970230
1009.000000	58.917437
1008.000000	58.845570
1007.000000	58.779834
1006.000000	58.725452
1005.000000	58.660056
1004.000000	58.608626
1003.000000	58.532558
1002.000000	58.465119
1001.000000	58.401427
1000.000000	58.355900
999.000000	58.300723
998.000000	58.223974
997.000000	58.169364
996.000000	58.114868
995.000000	58.053333
994.000000	58.006217
993.000000	57.948428
992.000000	57.884282
991.000000	57.825131
990.000000	57.776765
989.000000	57.717160
988.000000	57.659485
987.000000	57.606465
986.000000	57.555602
985.000000	57.507464
984.000000	57.450583
983.000000	57.401423
982.000000	57.351582
981.000000	57.316160
980.000000	57.264729
979.000000	57.215569
978.000000	57.165614
977.000000	57.130759
976.000000	57.072063
975.000000	57.026990
974.000000	56.996222
973.000000	56.953420
972.000000	56.897107
971.000000	56.861912
970.000000	56.823538
969.000000	56.768020
968.000000	56.714659
967.000000	56.663569
966.000000	56.624967
965.000000	56.577170
964.000000	56.544359
963.000000	56.509617
962.000000	56.456484
961.000000	56.428100
960.000000	56.417201
959.000000	56.372242
958.000000	56.315475
957.000000	56.276420
956.000000	56.237478
955.000000	56.196378
954.000000	56.164475
953.000000	56.135411
952.000000	56.088976
951.000000	56.048331
950.000000	56.009048
949.000000	55.949329
948.000000	55.898920
947.000000	55.853848
946.000000	55.794243
945.000000	55.733275
944.000000	55.670377
943.000000	55.630754
942.000000	55.575123
941.000000	55.491903
940.000000	55.447511
939.000000	55.390744
938.000000	55.293333
937.000000	55.209318
936.000000	55.137678
935.000000	55.094876
934.000000	55.017787
933.000000	54.934567
932.000000	54.867355
931.000000	54.786519
930.000000	54.740197
929.000000	54.668558
928.000000	54.562744
927.000000	54.478502
926.000000	54.420033
925.000000	54.331817
924.000000	54.240423
923.000000	54.143692
922.000000	54.058882
921.000000	53.974640
920.000000	53.910835
919.000000	53.818418
918.000000	53.715330
917.000000	53.604181
916.000000	53.503022
915.000000	53.444779
914.000000	53.341805
913.000000	53.218961
912.000000	53.131427
911.000000	53.026295
910.000000	52.928770
909.000000	52.816825
908.000000	52.720435
907.000000	52.640281
906.000000	52.612919
905.000000	52.550135
904.000000	52.473841
903.000000	52.364508
902.000000	52.272886
901.000000	52.230084
900.000000	52.177745
899.000000	52.129607
898.000000	52.043662
897.000000	51.947953
896.000000	51.885169
895.000000	51.813416
894.000000	51.738030
893.000000	51.657534
892.000000	51.541730
891.000000	51.452606
890.000000	51.316593
889.000000	51.203514
888.000000	51.128014
887.000000	51.019589
886.000000	50.874834
885.000000	50.746995
884.000000	50.583280
883.000000	50.437844
882.000000	50.280713
881.000000	50.137093
880.000000	49.958619
879.000000	49.803078
878.000000	49.641179
877.000000	49.419561
876.000000	49.207140
875.000000	48.955663
874.000000	48.678755
873.000000	48.391061
872.000000	48.141514
871.000000	47.973371
870.000000	47.906046
869.000000	47.908657
868.000000	47.922849
867.000000	47.951686
866.000000	47.942376
865.000000	47.978480
864.000000	47.972576
863.000000	47.966105
862.000000	47.996872
861.000000	47.972690
860.000000	47.982567
859.000000	47.975074
858.000000	48.004933
857.000000	47.481000
856.000000	48.107700
855.000000	48.426100
854.000000	48.661800
853.000000	48.376000
852.000000	48.566500
851.000000	48.596900
850.000000	48.399300
849.000000	48.184900
848.000000	48.257200
847.000000	48.453300
846.000000	48.679200
845.000000	48.673600
844.000000	48.525900
843.000000	48.396300
842.000000	48.464700
841.000000	48.370600
840.000000	48.460200
839.000000	48.469700
838.000000	48.419900
837.000000	48.492500
836.000000	48.638100
835.000000	48.461400
834.000000	48.494200
833.000000	48.427100
832.000000	48.629000
831.000000	48.453000
830.000000	48.417100
829.000000	48.216500
828.000000	48.363400
827.000000	48.186900
826.000000	48.371700
825.000000	48.262400
824.000000	48.308400
823.000000	48.366200
822.000000	48.186700
821.000000	48.224000
820.000000	48.117800
819.000000	48.073700
818.000000	48.050200
817.000000	47.945700
816.000000	47.864300
815.000000	47.877700
814.000000	47.881000
813.000000	47.840400
812.000000	47.736800
811.000000	47.624900
810.000000	47.771600
809.000000	47.580100
808.000000	47.403500
807.000000	47.376100
806.000000	47.420600
805.000000	47.295000
804.000000	47.273600
803.000000	47.230800
802.000000	47.384100
801.000000	47.131700
800.000000	46.994900
799.000000	47.069000
798.000000	46.904900
797.000000	46.792300
796.000000	46.789000
795.000000	46.703100
794.000000	46.529800
793.000000	46.441500
792.000000	46.406100
791.000000	46.314600
790.000000	46.231500
789.000000	46.138500
788.000000	46.054700
787.000000	45.901600
786.000000	45.922900
785.000000	45.876600
784.000000	45.648000
783.000000	45.631900
782.000000	45.610900
781.000000	45.508900
780.000000	45.209400
779.000000	45.339800
778.000000	45.075200
777.000000	45.024300
776.000000	44.881800
775.000000	44.651100
774.000000	44.505100
773.000000	44.522500
772.000000	44.377800
771.000000	44.298500
770.000000	44.100000
769.000000	43.970500
768.000000	43.785200
767.000000	43.602300
766.000000	43.552800
765.000000	43.412800
764.000000	43.202100
763.000000	43.034400
762.000000	43.024900
761.000000	42.759100
760.000000	42.617200
759.000000	42.464700
758.000000	42.286400
757.000000	42.108200
756.000000	41.890500
755.000000	41.789500
754.000000	41.519800
753.000000	41.342200
752.000000	41.205100
751.000000	40.989800
750.000000	40.775000
749.000000	40.640800
748.000000	40.531700
747.000000	40.255600
746.000000	40.093000
745.000000	39.943800
744.000000	39.725000
743.000000	39.449200
742.000000	39.259600
741.000000	38.998600
740.000000	38.804500
739.000000	38.610300
738.000000	38.438800
737.000000	38.226200
736.000000	38.006800
735.000000	37.792000
734.000000	37.577900
733.000000	37.384300
732.000000	37.131900
731.000000	36.921800
730.000000	36.694400
729.000000	36.468400
728.000000	36.291000
727.000000	36.041800
726.000000	35.806200
725.000000	35.550400
724.000000	35.358100
723.000000	35.135400
722.000000	34.896600
721.000000	34.639900
720.000000	34.410600
719.000000	34.187400
718.000000	33.945500
717.000000	33.700600
716.000000	33.504800
715.000000	33.258600
714.000000	33.037600
713.000000	32.808100
712.000000	32.546400
711.000000	32.252100
710.000000	31.986400
709.000000	31.831000
708.000000	31.566200
707.000000	31.336900
706.000000	31.079100
705.000000	30.840800
704.000000	30.600000
703.000000	30.335600
702.000000	30.084700
701.000000	29.841200
700.000000	29.584800
699.000000	29.335000
698.000000	29.087600
697.000000	28.836500
696.000000	28.613000
695.000000	28.373500
694.000000	28.137900
693.000000	27.877900
692.000000	27.638600
691.000000	27.422900
690.000000	27.189800
689.000000	26.960000
688.000000	26.718300
687.000000	26.486700
686.000000	26.276900
685.000000	26.087300
684.000000	25.864700
683.000000	25.632500
682.000000	25.436600
681.000000	25.206800
680.000000	25.002400
679.000000	24.815000
678.000000	24.615400
677.000000	24.419100
676.000000	24.225600
675.000000	24.036000
674.000000	23.886800
673.000000	23.699000
672.000000	23.500100
671.000000	23.315200
670.000000	23.147400
669.000000	22.960200
668.000000	22.764700
667.000000	22.613800
666.000000	22.475900
665.000000	22.320300
664.000000	22.174800
663.000000	22.024000
662.000000	21.887400
661.000000	21.760000
660.000000	21.639900
659.000000	21.510900
658.000000	21.398100
657.000000	21.294300
656.000000	21.218100
655.000000	21.133800
654.000000	21.044000
653.000000	20.974000
652.000000	20.914100
651.000000	20.867300
650.000000	20.827900
649.000000	20.801300
648.000000	20.768500
647.000000	20.744000
646.000000	20.742500
645.000000	20.736100
644.000000	20.748800
643.000000	20.769900
642.000000	20.766500
641.000000	20.790400
640.000000	20.821100
639.000000	20.839100
638.000000	20.874200
637.000000	20.904300
636.000000	20.917400
635.000000	20.955600
634.000000	21.014700
633.000000	21.043200
632.000000	21.057700
631.000000	21.086200
630.000000	21.140800
629.000000	21.171300
628.000000	21.204300
627.000000	21.269800
626.000000	21.318000
625.000000	21.338400
624.000000	21.401400
623.000000	21.484000
622.000000	21.544300
621.000000	21.599900
620.000000	21.669900
619.000000	21.742500
618.000000	21.815000
617.000000	21.895000
616.000000	21.986000
615.000000	22.079200
614.000000	22.174200
613.000000	22.260400
612.000000	22.345400
611.000000	22.444900
610.000000	22.548500
609.000000	22.629100
608.000000	22.716300
607.000000	22.811000
606.000000	22.889000
605.000000	22.978000
604.000000	23.048700
603.000000	23.122800
602.000000	23.211200
601.000000	23.277200
600.000000	23.335500
599.000000	23.402700
598.000000	23.476900
597.000000	23.533500
596.000000	23.581300
595.000000	23.645800
594.000000	23.719300
593.000000	23.776400
592.000000	23.839200
591.000000	23.900900
590.000000	23.967600
589.000000	24.031100
588.000000	24.089600
587.000000	24.142400
586.000000	24.200500
585.000000	24.270800
584.000000	24.336200
583.000000	24.392900
582.000000	24.434900
581.000000	24.489000
580.000000	24.551700
579.000000	24.615600
578.000000	24.673700
577.000000	24.701800
576.000000	24.758800
575.000000	24.813400
574.000000	24.851000
573.000000	24.892100
572.000000	24.913300
571.000000	24.949700
570.000000	24.982100
569.000000	25.006500
568.000000	25.044300
567.000000	25.054500
566.000000	25.055300
565.000000	25.070500
564.000000	25.065500
563.000000	25.053400
562.000000	25.046100
561.000000	25.040100
560.000000	25.023800
559.000000	25.041900
558.000000	25.035500
557.000000	25.004500
556.000000	24.986400
555.000000	24.948800
554.000000	24.896500
553.000000	24.852500
552.000000	24.784100
551.000000	24.735400
550.000000	24.671800
549.000000	24.611000
548.000000	24.557100
547.000000	24.465100
546.000000	24.384500
545.000000	24.298400
544.000000	24.175600
543.000000	24.056600
542.000000	23.929200
541.000000	23.804400
540.000000	23.684300
539.000000	23.552400
538.000000	23.403700
537.000000	23.245400
536.000000	23.077300
535.000000	22.900100
534.000000	22.721300
533.000000	22.531200
532.000000	22.332400
531.000000	22.124800
530.000000	21.901700
529.000000	21.673900
528.000000	21.452900
527.000000	21.205900
526.000000	20.941600
525.000000	20.688400
524.000000	20.425100
523.000000	20.163200
522.000000	19.870800
521.000000	19.589200
520.000000	19.297300
519.000000	18.999400
518.000000	18.693500
517.000000	18.409300
516.000000	18.098700
515.000000	17.797900
514.000000	17.506700
513.000000	17.197700
512.000000	16.891600
511.000000	16.604400
510.000000	16.308200
509.000000	16.000700
508.000000	15.724500
507.000000	15.438400
506.000000	15.179500
505.000000	14.875400
504.000000	14.624700
503.000000	14.343500
502.000000	14.102700
501.000000	13.827100
500.000000	13.581300
499.000000	13.354600
498.000000	13.122100
497.000000	12.901700
496.000000	12.675400
495.000000	12.462800
494.000000	12.264600
493.000000	12.059000
492.000000	11.857300
491.000000	11.689300
490.000000	11.514600
489.000000	11.352900
488.000000	11.194100
487.000000	11.056100
486.000000	10.906500
485.000000	10.749000
484.000000	10.609300
483.000000	10.468600
482.000000	10.329800
481.000000	10.193400
480.000000	10.043400
479.000000	9.918600
478.000000	9.789200
477.000000	9.678100
476.000000	9.574500
475.000000	9.465300
474.000000	9.363100
473.000000	9.275100
472.000000	9.184300
471.000000	9.097400
470.000000	9.019400
469.000000	8.927000
468.000000	8.870400
467.000000	8.797400
466.000000	8.729600
465.000000	8.660900
464.000000	8.599000
463.000000	8.553000
462.000000	8.481600
461.000000	8.427600
460.000000	8.380000
459.000000	8.315400
458.000000	8.274700
457.000000	8.221400
456.000000	8.161900
455.000000	8.140900
454.000000	8.089000
453.000000	8.023700
452.000000	7.964300
451.000000	7.926300
450.000000	7.859900
449.000000	7.861700
448.000000	7.825500
447.000000	7.707500
446.000000	7.652800
445.000000	7.598800
444.000000	7.556700
443.000000	7.489600
442.000000	7.432000
441.000000	7.366200
440.000000	7.307100
439.000000	7.257500
438.000000	7.196300
437.000000	7.120700
436.000000	7.060200
435.000000	7.014700
434.000000	6.949500
433.000000	6.893100
432.000000	6.820100
431.000000	6.764700
430.000000	6.695700
429.000000	6.647300
428.000000	6.609600
427.000000	6.545100
426.000000	6.485000
425.000000	6.434200
424.000000	6.377300
423.000000	6.335200
422.000000	6.279500
421.000000	6.231600
420.000000	6.170400
419.000000	6.117000
418.000000	6.071000
417.000000	6.007500
416.000000	5.953000
415.000000	5.914300
414.000000	5.851100
413.000000	5.809800
412.000000	5.765800
411.000000	5.696200
410.000000	5.663600
409.000000	5.619900
408.000000	5.565900
407.000000	5.503800
406.000000	5.461700
405.000000	5.412000
404.000000	5.355500
403.000000	5.306500
402.000000	5.252700
401.000000	5.205500
400.000000	5.168700
399.000000	5.124400
398.000000	5.069700
397.000000	5.025700
396.000000	4.987600
395.000000	4.948000
394.000000	4.877600
393.000000	4.838800
392.000000	4.807200
391.000000	4.773500
390.000000	4.729800
389.000000	4.684200
388.000000	4.662700
387.000000	4.623700
386.000000	4.577600
385.000000	4.550300
384.000000	4.507200
383.000000	4.477000
382.000000	4.442300
381.000000	4.417500
380.000000	4.381100
379.000000	4.378800
378.000000	4.376600
377.000000	4.336400
376.000000	4.338900
375.000000	4.209800
374.000000	3.846500
373.000000	3.707200
372.000000	3.832700
371.000000	3.991400
370.000000	4.018400
369.000000	3.938300
368.000000	3.991500
367.000000	4.069800
366.000000	3.977300
365.000000	4.004100
364.000000	3.976000
363.000000	3.999600
362.000000	3.937300
361.000000	4.006700
360.000000	4.163000
359.000000	4.071200
358.000000	4.072600
357.000000	3.919900
356.000000	3.891000
355.000000	3.968500
354.000000	3.995900
353.000000	4.050800
352.000000	4.073400
351.000000	4.196000
350.000000	4.202000
349.000000	4.035600
348.000000	4.105500
347.000000	4.065500
346.000000	3.988500
345.000000	4.040300
344.000000	4.238800
343.000000	4.255600
342.000000	4.258500
341.000000	4.357200
340.000000	4.128300
339.000000	3.959500
338.000000	4.078700
337.000000	4.213400
336.000000	4.260000
335.000000	4.184700
334.000000	4.120700
333.000000	4.363100
332.000000	4.406800
331.000000	4.254800
330.000000	4.373800
329.000000	4.419500
328.000000	4.353000
327.000000	4.176700
326.000000	4.236900
325.000000	4.456300
324.000000	4.789100
323.000000	5.050700
322.000000	5.080000
321.000000	5.169000
320.000000	4.881100
319.000000	4.838900
318.000000	4.407700
317.000000	4.237900
316.000000	4.229300
315.000000	3.957000
314.000000	3.912800
313.000000	3.911200
312.000000	3.898800
311.000000	3.933800
310.000000	3.882600
309.000000	3.866800
308.000000	3.916700
307.000000	3.925700
306.000000	3.953000
305.000000	3.922100
304.000000	3.903800
303.000000	3.966500
302.000000	3.982200
301.000000	3.930400
300.000000	3.958200
299.000000	3.972200
298.000000	3.931400
297.000000	3.951900
296.000000	3.971400
295.000000	3.976000
294.000000	3.937800
293.000000	3.925500
292.000000	3.946300
291.000000	3.982600
290.000000	3.985100
289.000000	3.946700
288.000000	3.963300
287.000000	3.997800
286.000000	3.990500
285.000000	3.980900
284.000000	3.978900
283.000000	4.027500
282.000000	3.988700
281.000000	3.994500
280.000000	3.988500
279.000000	4.053200
278.000000	4.084700
277.000000	4.056600
276.000000	4.032000
275.000000	4.052000
274.000000	4.058500
273.000000	4.044300
272.000000	4.069500
271.000000	4.110900
270.000000	4.140600
269.000000	4.143800
268.000000	4.166000
267.000000	4.115200
266.000000	4.182300
265.000000	4.220700
264.000000	4.253100
263.000000	4.224700
262.000000	4.264600
261.000000	4.296800
260.000000	4.294100
259.000000	4.357700
258.000000	4.357900
257.000000	4.395400
256.000000	4.382900
255.000000	4.386400
254.000000	4.375400
253.000000	4.419300
252.000000	4.410000
251.000000	4.406000
250.000000	4.428800
