PE UV       SUBTECH     SPECTRUM    ASCII       PEDS        4.00        
   -1
CICIMAUCR0258-3.Sample.ASC
24/07/01
13:32:30.00
24/07/01
13:32:30.00
Vinicio Soto Monge
C. resplendens. Sex M. Dorsal.
250,000000
1
Lambda 1050
1050L1511233
PerkinElmer UV WinLab 6.3.2.0749 / 2.02.05 Lambda 900 UV/VIS/NIR, Aug  7 2015 09:38:08

0
0
3350/servo 860,8/2
0
0
UV/VIS
1
1
1
DoubleDePol,CommonBeamDepol,RBeamAtt,SBeamAtt,60mm sphere, WB InGaAs Detector
0
0
0
0
Program
Program
3350/servo 860,8/2
3350/0,2 860,8/0,2
3350/0,2 860,8/0,2
0
15.00
 
 
 
0
 
860,8
319,2
860,8
Front
100
on
S:100 R:100
0
0
0
0
 
0
 
 
 
0
 
 
0
0
0
0
0
 
 
 
 
0
0


0
0
#HDR
-1
-1
#GR
nm
%R
1.0
0.0
2500,000000
-1,000000
2251
8
89,537900
5,117800
#DATA
250.000000	5.705667
251.000000	5.699600
252.000000	5.697600
253.000000	5.689100
254.000000	5.671933
255.000000	5.678000
256.000000	5.664400
257.000000	5.652233
258.000000	5.625933
259.000000	5.619300
260.000000	5.603067
261.000000	5.583433
262.000000	5.545567
263.000000	5.566567
264.000000	5.541100
265.000000	5.500133
266.000000	5.476667
267.000000	5.463333
268.000000	5.449900
269.000000	5.449800
270.000000	5.425300
271.000000	5.410567
272.000000	5.392600
273.000000	5.374000
274.000000	5.377367
275.000000	5.372467
276.000000	5.348533
277.000000	5.338367
278.000000	5.339167
279.000000	5.335933
280.000000	5.313933
281.000000	5.305833
282.000000	5.303567
283.000000	5.297667
284.000000	5.282633
285.000000	5.269800
286.000000	5.276233
287.000000	5.264133
288.000000	5.252367
289.000000	5.250967
290.000000	5.255033
291.000000	5.232933
292.000000	5.234233
293.000000	5.238933
294.000000	5.243833
295.000000	5.227500
296.000000	5.217033
297.000000	5.227833
298.000000	5.233567
299.000000	5.218167
300.000000	5.220367
301.000000	5.194433
302.000000	5.172033
303.000000	5.193233
304.000000	5.183367
305.000000	5.186100
306.000000	5.187967
307.000000	5.154933
308.000000	5.166067
309.000000	5.203700
310.000000	5.190700
311.000000	5.152600
312.000000	5.146533
313.000000	5.168333
314.000000	5.171400
315.000000	5.162767
316.000000	5.507967
317.000000	6.029100
318.000000	5.946000
319.000000	5.649967
320.000000	5.681967
321.000000	5.824733
322.000000	5.787667
323.000000	5.742767
324.000000	5.697333
325.000000	5.526867
326.000000	5.363800
327.000000	5.407233
328.000000	5.531300
329.000000	5.418167
330.000000	5.296667
331.000000	5.510067
332.000000	5.580567
333.000000	5.486867
334.000000	5.308333
335.000000	5.239100
336.000000	5.382667
337.000000	5.358367
338.000000	5.309633
339.000000	5.272600
340.000000	5.231333
341.000000	5.272333
342.000000	5.295000
343.000000	5.237333
344.000000	5.286500
345.000000	5.334233
346.000000	5.286567
347.000000	5.308033
348.000000	5.320200
349.000000	5.354367
350.000000	5.272000
351.000000	5.325433
352.000000	5.468633
353.000000	5.451033
354.000000	5.413100
355.000000	5.464733
356.000000	5.513700
357.000000	5.529833
358.000000	5.480200
359.000000	5.491467
360.000000	5.545767
361.000000	5.554733
362.000000	5.571233
363.000000	5.608533
364.000000	5.681867
365.000000	5.638700
366.000000	5.662967
367.000000	5.668867
368.000000	5.705967
369.000000	5.779100
370.000000	5.759067
371.000000	5.760067
372.000000	5.775233
373.000000	5.673267
374.000000	5.630767
375.000000	5.827667
376.000000	6.010900
377.000000	6.067900
378.000000	6.121700
379.000000	6.171100
380.000000	6.234367
381.000000	6.292433
382.000000	6.370300
383.000000	6.444533
384.000000	6.515100
385.000000	6.606333
386.000000	6.699700
387.000000	6.794233
388.000000	6.901633
389.000000	7.021767
390.000000	7.136733
391.000000	7.262467
392.000000	7.406500
393.000000	7.552633
394.000000	7.707000
395.000000	7.883333
396.000000	8.067767
397.000000	8.261200
398.000000	8.469967
399.000000	8.680500
400.000000	8.930533
401.000000	9.191900
402.000000	9.454667
403.000000	9.724933
404.000000	10.032333
405.000000	10.346433
406.000000	10.676500
407.000000	11.015067
408.000000	11.371767
409.000000	11.736500
410.000000	12.114267
411.000000	12.513000
412.000000	12.922867
413.000000	13.354500
414.000000	13.788167
415.000000	14.241467
416.000000	14.668033
417.000000	15.120100
418.000000	15.574933
419.000000	16.032500
420.000000	16.506067
421.000000	16.966767
422.000000	17.429900
423.000000	17.866267
424.000000	18.329500
425.000000	18.793300
426.000000	19.221733
427.000000	19.617000
428.000000	20.014633
429.000000	20.418400
430.000000	20.834100
431.000000	21.211900
432.000000	21.589667
433.000000	21.967867
434.000000	22.317400
435.000000	22.662633
436.000000	22.985267
437.000000	23.291833
438.000000	23.611100
439.000000	23.914233
440.000000	24.192600
441.000000	24.469300
442.000000	24.753133
443.000000	24.986500
444.000000	25.184400
445.000000	25.414367
446.000000	25.610500
447.000000	25.806700
448.000000	25.974133
449.000000	26.126367
450.000000	26.257367
451.000000	26.391600
452.000000	26.508433
453.000000	26.582933
454.000000	26.660067
455.000000	26.719367
456.000000	26.783400
457.000000	26.796600
458.000000	26.792633
459.000000	26.791667
460.000000	26.759100
461.000000	26.698500
462.000000	26.628767
463.000000	26.591367
464.000000	26.511333
465.000000	26.416600
466.000000	26.294067
467.000000	26.186633
468.000000	26.061567
469.000000	25.933367
470.000000	25.814667
471.000000	25.690500
472.000000	25.561533
473.000000	25.441100
474.000000	25.338133
475.000000	25.260500
476.000000	25.194600
477.000000	25.147600
478.000000	25.112667
479.000000	25.126633
480.000000	25.169833
481.000000	25.219600
482.000000	25.324967
483.000000	25.444933
484.000000	25.641167
485.000000	25.846567
486.000000	26.110567
487.000000	26.373467
488.000000	26.683900
489.000000	27.022333
490.000000	27.388400
491.000000	27.787700
492.000000	28.220867
493.000000	28.646367
494.000000	29.099900
495.000000	29.591933
496.000000	30.048500
497.000000	30.515433
498.000000	30.961700
499.000000	31.406400
500.000000	31.831067
501.000000	32.281800
502.000000	32.672967
503.000000	33.045533
504.000000	33.403433
505.000000	33.741433
506.000000	34.051833
507.000000	34.328200
508.000000	34.611367
509.000000	34.858167
510.000000	35.114133
511.000000	35.382000
512.000000	35.637533
513.000000	35.912367
514.000000	36.213833
515.000000	36.541633
516.000000	36.915333
517.000000	37.317767
518.000000	37.771033
519.000000	38.291767
520.000000	38.863200
521.000000	39.533133
522.000000	40.261033
523.000000	41.070800
524.000000	41.956700
525.000000	42.922000
526.000000	43.961367
527.000000	45.063567
528.000000	46.238833
529.000000	47.480900
530.000000	48.813267
531.000000	50.190867
532.000000	51.613233
533.000000	53.058867
534.000000	54.536800
535.000000	56.000500
536.000000	57.482667
537.000000	58.950100
538.000000	60.386433
539.000000	61.816867
540.000000	63.191033
541.000000	64.560067
542.000000	65.878167
543.000000	67.133300
544.000000	68.351900
545.000000	69.486633
546.000000	70.578200
547.000000	71.569267
548.000000	72.542700
549.000000	73.438433
550.000000	74.294467
551.000000	75.107967
552.000000	75.864033
553.000000	76.591433
554.000000	77.298800
555.000000	77.942700
556.000000	78.583267
557.000000	79.194667
558.000000	79.796133
559.000000	80.382200
560.000000	80.955667
561.000000	81.470867
562.000000	81.983567
563.000000	82.465900
564.000000	82.920167
565.000000	83.358700
566.000000	83.760433
567.000000	84.146167
568.000000	84.530133
569.000000	84.883000
570.000000	85.237833
571.000000	85.578633
572.000000	85.896800
573.000000	86.210367
574.000000	86.533767
575.000000	86.846567
576.000000	87.123167
577.000000	87.396167
578.000000	87.687267
579.000000	87.934467
580.000000	88.188967
581.000000	88.430133
582.000000	88.661700
583.000000	88.863267
584.000000	89.016467
585.000000	89.178100
586.000000	89.329433
587.000000	89.429233
588.000000	89.504733
589.000000	89.577767
590.000000	89.608133
591.000000	89.648900
592.000000	89.686133
593.000000	89.688467
594.000000	89.675600
595.000000	89.650400
596.000000	89.595133
597.000000	89.545967
598.000000	89.503700
599.000000	89.452733
600.000000	89.387733
601.000000	89.305767
602.000000	89.231967
603.000000	89.135667
604.000000	89.018667
605.000000	88.917500
606.000000	88.799733
607.000000	88.654267
608.000000	88.499333
609.000000	88.316900
610.000000	88.119000
611.000000	87.884500
612.000000	87.604633
613.000000	87.300200
614.000000	86.965767
615.000000	86.623767
616.000000	86.270200
617.000000	85.850300
618.000000	85.411500
619.000000	84.972567
620.000000	84.496467
621.000000	84.015333
622.000000	83.529867
623.000000	83.044833
624.000000	82.577000
625.000000	82.081767
626.000000	81.616333
627.000000	81.158933
628.000000	80.706533
629.000000	80.260200
630.000000	79.777733
631.000000	79.277067
632.000000	78.754967
633.000000	78.239000
634.000000	77.713467
635.000000	77.124833
636.000000	76.513300
637.000000	75.870933
638.000000	75.184467
639.000000	74.450433
640.000000	73.698967
641.000000	72.906667
642.000000	72.071133
643.000000	71.258467
644.000000	70.433233
645.000000	69.581067
646.000000	68.716233
647.000000	67.877933
648.000000	67.046533
649.000000	66.199467
650.000000	65.374900
651.000000	64.529933
652.000000	63.697033
653.000000	62.876400
654.000000	62.078433
655.000000	61.306800
656.000000	60.570433
657.000000	59.863867
658.000000	59.203633
659.000000	58.610300
660.000000	58.070300
661.000000	57.620567
662.000000	57.248967
663.000000	56.930700
664.000000	56.751333
665.000000	56.653500
666.000000	56.641100
667.000000	56.731567
668.000000	56.904300
669.000000	57.201200
670.000000	57.555533
671.000000	57.976133
672.000000	58.497900
673.000000	59.111467
674.000000	59.741167
675.000000	60.387733
676.000000	61.071400
677.000000	61.809833
678.000000	62.605667
679.000000	63.377033
680.000000	64.166000
681.000000	64.955500
682.000000	65.748300
683.000000	66.559167
684.000000	67.389200
685.000000	68.204667
686.000000	68.938567
687.000000	69.711533
688.000000	70.479700
689.000000	71.206100
690.000000	71.871467
691.000000	72.574433
692.000000	73.237967
693.000000	73.853233
694.000000	74.457633
695.000000	75.006267
696.000000	75.502667
697.000000	75.967567
698.000000	76.395600
699.000000	76.785233
700.000000	77.122967
701.000000	77.432400
702.000000	77.721700
703.000000	77.983300
704.000000	78.196700
705.000000	78.389233
706.000000	78.578133
707.000000	78.758867
708.000000	78.937900
709.000000	79.075367
710.000000	79.241200
711.000000	79.363300
712.000000	79.536833
713.000000	79.628600
714.000000	79.822333
715.000000	79.952467
716.000000	80.108700
717.000000	80.233333
718.000000	80.410833
719.000000	80.617533
720.000000	80.822633
721.000000	81.007667
722.000000	81.222367
723.000000	81.462467
724.000000	81.736200
725.000000	81.986667
726.000000	82.224500
727.000000	82.556500
728.000000	82.869800
729.000000	83.202233
730.000000	83.546433
731.000000	83.944733
732.000000	84.218700
733.000000	84.594800
734.000000	84.949533
735.000000	85.345800
736.000000	85.641433
737.000000	85.986233
738.000000	86.249167
739.000000	86.530433
740.000000	86.892000
741.000000	87.083800
742.000000	87.381067
743.000000	87.675800
744.000000	87.911333
745.000000	88.115800
746.000000	88.319600
747.000000	88.541000
748.000000	88.722067
749.000000	88.913800
750.000000	89.064733
751.000000	89.232967
752.000000	89.384667
753.000000	89.609800
754.000000	89.742633
755.000000	89.875100
756.000000	89.940367
757.000000	90.148767
758.000000	90.214800
759.000000	90.345000
760.000000	90.450700
761.000000	90.458033
762.000000	90.627167
763.000000	90.596500
764.000000	90.743800
765.000000	90.735667
766.000000	90.831400
767.000000	90.846433
768.000000	90.781033
769.000000	90.919800
770.000000	91.007200
771.000000	91.045800
772.000000	91.008167
773.000000	91.145300
774.000000	91.172100
775.000000	91.307200
776.000000	91.383533
777.000000	91.401733
778.000000	91.492133
779.000000	91.638833
780.000000	91.608367
781.000000	91.650867
782.000000	91.756100
783.000000	91.849100
784.000000	91.786967
785.000000	91.731333
786.000000	91.809067
787.000000	91.886733
788.000000	91.840300
789.000000	91.864900
790.000000	91.785567
791.000000	91.931133
792.000000	91.944633
793.000000	91.871433
794.000000	91.855067
795.000000	91.940667
796.000000	91.956833
797.000000	91.921433
798.000000	91.877833
799.000000	91.818067
800.000000	91.830567
801.000000	91.844233
802.000000	91.733167
803.000000	91.807433
804.000000	91.728600
805.000000	91.615267
806.000000	91.638633
807.000000	91.558700
808.000000	91.529533
809.000000	91.337700
810.000000	91.312667
811.000000	91.050800
812.000000	91.035533
813.000000	91.004000
814.000000	90.884433
815.000000	90.709133
816.000000	90.494833
817.000000	90.318500
818.000000	90.249600
819.000000	90.003467
820.000000	89.792633
821.000000	89.651833
822.000000	89.358433
823.000000	89.059533
824.000000	88.705933
825.000000	88.317800
826.000000	87.997733
827.000000	87.741033
828.000000	87.360833
829.000000	86.984233
830.000000	86.601200
831.000000	86.292467
832.000000	85.894700
833.000000	85.583467
834.000000	85.319200
835.000000	84.821367
836.000000	84.480833
837.000000	84.002567
838.000000	83.856967
839.000000	83.595300
840.000000	83.075833
841.000000	82.718533
842.000000	82.429900
843.000000	82.337467
844.000000	81.853667
845.000000	81.383267
846.000000	81.318167
847.000000	81.141800
848.000000	80.705233
849.000000	80.280733
850.000000	79.870767
851.000000	79.594133
852.000000	79.389567
853.000000	78.908067
854.000000	78.807667
855.000000	78.447067
856.000000	78.105600
857.000000	77.256100
858.000000	77.936255
859.000000	77.679309
860.000000	77.407215
861.000000	77.131728
862.000000	76.878698
863.000000	76.621151
864.000000	76.358339
865.000000	76.118398
866.000000	75.871782
867.000000	75.617864
868.000000	75.379650
869.000000	75.164712
870.000000	74.984826
871.000000	74.915848
872.000000	74.898003
873.000000	74.894080
874.000000	74.841067
875.000000	74.763455
876.000000	74.705482
877.000000	74.624393
878.000000	74.527003
879.000000	74.422797
880.000000	74.319056
881.000000	74.210340
882.000000	74.129753
883.000000	74.037713
884.000000	73.954109
885.000000	73.863144
886.000000	73.777498
887.000000	73.685450
888.000000	73.586139
889.000000	73.491733
890.000000	73.412512
891.000000	73.324194
892.000000	73.234233
893.000000	73.143654
894.000000	73.050749
895.000000	72.962432
896.000000	72.874740
897.000000	72.782448
898.000000	72.680644
899.000000	72.586647
900.000000	72.490941
901.000000	72.399325
902.000000	72.305115
903.000000	72.211395
904.000000	72.115114
905.000000	72.023348
906.000000	71.942860
907.000000	71.856936
908.000000	71.784947
909.000000	71.705403
910.000000	71.623510
911.000000	71.550432
912.000000	71.486371
913.000000	71.421949
914.000000	71.356642
915.000000	71.284846
916.000000	71.221598
917.000000	71.165034
918.000000	71.094554
919.000000	71.032747
920.000000	70.962862
921.000000	70.897633
922.000000	70.839300
923.000000	70.770813
924.000000	70.705739
925.000000	70.659095
926.000000	70.606241
927.000000	70.540915
928.000000	70.494923
929.000000	70.444790
930.000000	70.397043
931.000000	70.345305
932.000000	70.291994
933.000000	70.252293
934.000000	70.208429
935.000000	70.151192
936.000000	70.094066
937.000000	70.032911
938.000000	69.978868
939.000000	69.926760
940.000000	69.858437
941.000000	69.785817
942.000000	69.725697
943.000000	69.663900
944.000000	69.585790
945.000000	69.508892
946.000000	69.433010
947.000000	69.357135
948.000000	69.273475
949.000000	69.194960
950.000000	69.116568
951.000000	69.031112
952.000000	68.946104
953.000000	68.877173
954.000000	68.808207
955.000000	68.730404
956.000000	68.647871
957.000000	68.565573
958.000000	68.496420
959.000000	68.425822
960.000000	68.349816
961.000000	68.284404
962.000000	68.212006
963.000000	68.137948
964.000000	68.065790
965.000000	67.988945
966.000000	67.927141
967.000000	67.868274
968.000000	67.800621
969.000000	67.739613
970.000000	67.673922
971.000000	67.615371
972.000000	67.567266
973.000000	67.514522
974.000000	67.448214
975.000000	67.394533
976.000000	67.341952
977.000000	67.297127
978.000000	67.247445
979.000000	67.195696
980.000000	67.136049
981.000000	67.075638
982.000000	67.020204
983.000000	66.966057
984.000000	66.907938
985.000000	66.869048
986.000000	66.810290
987.000000	66.750927
988.000000	66.702079
989.000000	66.662521
990.000000	66.607673
991.000000	66.566547
992.000000	66.531481
993.000000	66.484640
994.000000	66.449431
995.000000	66.419364
996.000000	66.383738
997.000000	66.357667
998.000000	66.325514
999.000000	66.297447
1000.000000	66.275588
1001.000000	66.256852
1002.000000	66.229244
1003.000000	66.206529
1004.000000	66.175453
1005.000000	66.159750
1006.000000	66.142037
1007.000000	66.110816
1008.000000	66.091335
1009.000000	66.086109
1010.000000	66.067980
1011.000000	66.057404
1012.000000	66.050093
1013.000000	66.053026
1014.000000	66.047985
1015.000000	66.053793
1016.000000	66.063410
1017.000000	66.073056
1018.000000	66.099046
1019.000000	66.111128
1020.000000	66.130973
1021.000000	66.166275
1022.000000	66.193793
1023.000000	66.210285
1024.000000	66.227633
1025.000000	66.263682
1026.000000	66.272332
1027.000000	66.297929
1028.000000	66.324527
1029.000000	66.337279
1030.000000	66.349812
1031.000000	66.373596
1032.000000	66.397467
1033.000000	66.407016
1034.000000	66.433607
1035.000000	66.443671
1036.000000	66.462443
1037.000000	66.477716
1038.000000	66.504023
1039.000000	66.524532
1040.000000	66.549143
1041.000000	66.564381
1042.000000	66.583963
1043.000000	66.591935
1044.000000	66.617053
1045.000000	66.634906
1046.000000	66.657201
1047.000000	66.684150
1048.000000	66.704239
1049.000000	66.727227
1050.000000	66.759813
1051.000000	66.789825
1052.000000	66.814916
1053.000000	66.860150
1054.000000	66.894156
1055.000000	66.923679
1056.000000	66.939253
1057.000000	66.988931
1058.000000	67.029216
1059.000000	67.067729
1060.000000	67.095805
1061.000000	67.125765
1062.000000	67.160774
1063.000000	67.197194
1064.000000	67.231016
1065.000000	67.262876
1066.000000	67.296455
1067.000000	67.334881
1068.000000	67.357132
1069.000000	67.403411
1070.000000	67.430392
1071.000000	67.464668
1072.000000	67.498245
1073.000000	67.519809
1074.000000	67.548161
1075.000000	67.589617
1076.000000	67.616346
1077.000000	67.640905
1078.000000	67.643958
1079.000000	67.684940
1080.000000	67.719391
1081.000000	67.741498
1082.000000	67.750608
1083.000000	67.773758
1084.000000	67.805283
1085.000000	67.813280
1086.000000	67.836378
1087.000000	67.846530
1088.000000	67.868330
1089.000000	67.880518
1090.000000	67.898225
1091.000000	67.901900
1092.000000	67.913707
1093.000000	67.917297
1094.000000	67.925778
1095.000000	67.940170
1096.000000	67.933018
1097.000000	67.933968
1098.000000	67.943766
1099.000000	67.943677
1100.000000	67.940541
1101.000000	67.943796
1102.000000	67.941381
1103.000000	67.938423
1104.000000	67.934401
1105.000000	67.943854
1106.000000	67.937082
1107.000000	67.930881
1108.000000	67.925987
1109.000000	67.937053
1110.000000	67.950104
1111.000000	67.941003
1112.000000	67.934036
1113.000000	67.945778
1114.000000	67.940758
1115.000000	67.940104
1116.000000	67.942614
1117.000000	67.928127
1118.000000	67.906493
1119.000000	67.878742
1120.000000	67.853230
1121.000000	67.825704
1122.000000	67.784926
1123.000000	67.729312
1124.000000	67.642433
1125.000000	67.566425
1126.000000	67.447456
1127.000000	67.328313
1128.000000	67.180838
1129.000000	67.001457
1130.000000	66.788490
1131.000000	66.553372
1132.000000	66.309818
1133.000000	66.075754
1134.000000	65.793359
1135.000000	65.450458
1136.000000	65.127077
1137.000000	64.797421
1138.000000	64.495341
1139.000000	64.211019
1140.000000	63.937668
1141.000000	63.667042
1142.000000	63.422640
1143.000000	63.196312
1144.000000	62.983988
1145.000000	62.802112
1146.000000	62.629122
1147.000000	62.481851
1148.000000	62.335191
1149.000000	62.207880
1150.000000	62.064733
1151.000000	61.926394
1152.000000	61.782277
1153.000000	61.618726
1154.000000	61.433631
1155.000000	61.235687
1156.000000	61.014003
1157.000000	60.801348
1158.000000	60.566101
1159.000000	60.331686
1160.000000	60.099165
1161.000000	59.855662
1162.000000	59.617484
1163.000000	59.395968
1164.000000	59.170270
1165.000000	58.951296
1166.000000	58.732976
1167.000000	58.528134
1168.000000	58.328744
1169.000000	58.141501
1170.000000	57.959300
1171.000000	57.775512
1172.000000	57.598947
1173.000000	57.418539
1174.000000	57.241598
1175.000000	57.059281
1176.000000	56.857176
1177.000000	56.635464
1178.000000	56.398334
1179.000000	56.145517
1180.000000	55.897617
1181.000000	55.676651
1182.000000	55.492997
1183.000000	55.361944
1184.000000	55.292350
1185.000000	55.293621
1186.000000	55.353507
1187.000000	55.456117
1188.000000	55.603553
1189.000000	55.790828
1190.000000	55.994972
1191.000000	56.201480
1192.000000	56.389281
1193.000000	56.545676
1194.000000	56.686556
1195.000000	56.815351
1196.000000	56.910631
1197.000000	56.992007
1198.000000	57.071376
1199.000000	57.132698
1200.000000	57.185642
1201.000000	57.236537
1202.000000	57.286169
1203.000000	57.341722
1204.000000	57.416795
1205.000000	57.491337
1206.000000	57.569144
1207.000000	57.656992
1208.000000	57.752755
1209.000000	57.840071
1210.000000	57.932311
1211.000000	58.031196
1212.000000	58.126396
1213.000000	58.228173
1214.000000	58.332035
1215.000000	58.433019
1216.000000	58.531027
1217.000000	58.631491
1218.000000	58.740689
1219.000000	58.847437
1220.000000	58.964893
1221.000000	59.086616
1222.000000	59.196938
1223.000000	59.305204
1224.000000	59.414936
1225.000000	59.521558
1226.000000	59.629298
1227.000000	59.732570
1228.000000	59.831626
1229.000000	59.932341
1230.000000	60.030925
1231.000000	60.128964
1232.000000	60.227226
1233.000000	60.325758
1234.000000	60.406679
1235.000000	60.484505
1236.000000	60.568733
1237.000000	60.650876
1238.000000	60.732136
1239.000000	60.806928
1240.000000	60.892654
1241.000000	60.978724
1242.000000	61.052281
1243.000000	61.124437
1244.000000	61.209991
1245.000000	61.287400
1246.000000	61.361753
1247.000000	61.429046
1248.000000	61.486451
1249.000000	61.542501
1250.000000	61.605818
1251.000000	61.664999
1252.000000	61.711340
1253.000000	61.751734
1254.000000	61.789804
1255.000000	61.830242
1256.000000	61.873852
1257.000000	61.903579
1258.000000	61.938238
1259.000000	61.970395
1260.000000	61.995336
1261.000000	62.021515
1262.000000	62.051358
1263.000000	62.066489
1264.000000	62.083203
1265.000000	62.112779
1266.000000	62.132697
1267.000000	62.150212
1268.000000	62.171521
1269.000000	62.184626
1270.000000	62.194132
1271.000000	62.206772
1272.000000	62.232986
1273.000000	62.254339
1274.000000	62.266226
1275.000000	62.276938
1276.000000	62.300917
1277.000000	62.327664
1278.000000	62.348845
1279.000000	62.378431
1280.000000	62.403368
1281.000000	62.421788
1282.000000	62.441271
1283.000000	62.467328
1284.000000	62.488561
1285.000000	62.502976
1286.000000	62.523453
1287.000000	62.530236
1288.000000	62.529254
1289.000000	62.531511
1290.000000	62.518322
1291.000000	62.497555
1292.000000	62.479155
1293.000000	62.469891
1294.000000	62.450647
1295.000000	62.411417
1296.000000	62.372779
1297.000000	62.333663
1298.000000	62.295805
1299.000000	62.265657
1300.000000	62.204359
1301.000000	62.150646
1302.000000	62.094493
1303.000000	62.025622
1304.000000	61.953617
1305.000000	61.888380
1306.000000	61.806827
1307.000000	61.720997
1308.000000	61.633370
1309.000000	61.532702
1310.000000	61.432798
1311.000000	61.336255
1312.000000	61.214200
1313.000000	61.104126
1314.000000	60.975831
1315.000000	60.843996
1316.000000	60.722469
1317.000000	60.583346
1318.000000	60.448466
1319.000000	60.296230
1320.000000	60.155971
1321.000000	59.994656
1322.000000	59.838656
1323.000000	59.683694
1324.000000	59.511821
1325.000000	59.342809
1326.000000	59.162426
1327.000000	58.975938
1328.000000	58.790603
1329.000000	58.605819
1330.000000	58.406520
1331.000000	58.200245
1332.000000	57.989674
1333.000000	57.776770
1334.000000	57.559228
1335.000000	57.352618
1336.000000	57.123941
1337.000000	56.893631
1338.000000	56.666556
1339.000000	56.450120
1340.000000	56.220114
1341.000000	55.980352
1342.000000	55.748416
1343.000000	55.518065
1344.000000	55.272017
1345.000000	55.002766
1346.000000	54.781196
1347.000000	54.543490
1348.000000	54.268568
1349.000000	54.004219
1350.000000	53.736661
1351.000000	53.449841
1352.000000	53.159576
1353.000000	52.977796
1354.000000	52.791587
1355.000000	52.586419
1356.000000	52.431871
1357.000000	52.321013
1358.000000	52.226402
1359.000000	52.090242
1360.000000	52.086369
1361.000000	51.961121
1362.000000	51.818974
1363.000000	51.634482
1364.000000	51.508450
1365.000000	51.305528
1366.000000	51.137489
1367.000000	50.955300
1368.000000	50.729421
1369.000000	50.486160
1370.000000	50.264901
1371.000000	50.024193
1372.000000	49.745610
1373.000000	49.490277
1374.000000	49.259651
1375.000000	49.065476
1376.000000	48.842544
1377.000000	48.610637
1378.000000	48.384776
1379.000000	48.092934
1380.000000	47.804962
1381.000000	47.458690
1382.000000	47.008585
1383.000000	46.496980
1384.000000	46.000711
1385.000000	45.448094
1386.000000	44.948629
1387.000000	44.451808
1388.000000	43.923786
1389.000000	43.379914
1390.000000	42.960632
1391.000000	42.511205
1392.000000	42.057115
1393.000000	41.639202
1394.000000	41.274007
1395.000000	40.847816
1396.000000	40.351586
1397.000000	39.901954
1398.000000	39.534613
1399.000000	39.194607
1400.000000	38.769655
1401.000000	38.277262
1402.000000	37.829516
1403.000000	37.434815
1404.000000	37.033652
1405.000000	36.621103
1406.000000	36.230240
1407.000000	35.859806
1408.000000	35.471759
1409.000000	35.110263
1410.000000	34.711542
1411.000000	34.352442
1412.000000	34.061564
1413.000000	33.772784
1414.000000	33.471670
1415.000000	33.156797
1416.000000	32.850382
1417.000000	32.613412
1418.000000	32.377804
1419.000000	32.151894
1420.000000	31.891937
1421.000000	31.634224
1422.000000	31.439045
1423.000000	31.231296
1424.000000	31.017555
1425.000000	30.823851
1426.000000	30.632773
1427.000000	30.466051
1428.000000	30.316943
1429.000000	30.135703
1430.000000	29.986043
1431.000000	29.863421
1432.000000	29.733619
1433.000000	29.586297
1434.000000	29.463245
1435.000000	29.334631
1436.000000	29.212240
1437.000000	29.114404
1438.000000	29.006433
1439.000000	28.910562
1440.000000	28.811898
1441.000000	28.719004
1442.000000	28.630290
1443.000000	28.539595
1444.000000	28.463113
1445.000000	28.404124
1446.000000	28.323682
1447.000000	28.227897
1448.000000	28.147678
1449.000000	28.098993
1450.000000	28.047963
1451.000000	27.988715
1452.000000	27.910243
1453.000000	27.833736
1454.000000	27.784048
1455.000000	27.739015
1456.000000	27.691992
1457.000000	27.643153
1458.000000	27.593332
1459.000000	27.563052
1460.000000	27.533058
1461.000000	27.501403
1462.000000	27.484030
1463.000000	27.467952
1464.000000	27.458993
1465.000000	27.460544
1466.000000	27.451581
1467.000000	27.437229
1468.000000	27.437782
1469.000000	27.452371
1470.000000	27.467107
1471.000000	27.468921
1472.000000	27.474502
1473.000000	27.473092
1474.000000	27.480832
1475.000000	27.495217
1476.000000	27.518680
1477.000000	27.542267
1478.000000	27.562243
1479.000000	27.596643
1480.000000	27.634959
1481.000000	27.670879
1482.000000	27.705089
1483.000000	27.739311
1484.000000	27.784939
1485.000000	27.832225
1486.000000	27.885934
1487.000000	27.931017
1488.000000	27.970967
1489.000000	28.023284
1490.000000	28.073654
1491.000000	28.127084
1492.000000	28.178380
1493.000000	28.231981
1494.000000	28.290672
1495.000000	28.350327
1496.000000	28.404799
1497.000000	28.465284
1498.000000	28.532281
1499.000000	28.600314
1500.000000	28.668408
1501.000000	28.742686
1502.000000	28.821612
1503.000000	28.894044
1504.000000	28.964439
1505.000000	29.038373
1506.000000	29.121634
1507.000000	29.203267
1508.000000	29.274720
1509.000000	29.348896
1510.000000	29.425086
1511.000000	29.503127
1512.000000	29.585206
1513.000000	29.663768
1514.000000	29.732399
1515.000000	29.802314
1516.000000	29.879857
1517.000000	29.954850
1518.000000	30.024987
1519.000000	30.091319
1520.000000	30.163849
1521.000000	30.238020
1522.000000	30.300943
1523.000000	30.366277
1524.000000	30.434802
1525.000000	30.499409
1526.000000	30.564795
1527.000000	30.621822
1528.000000	30.682280
1529.000000	30.747657
1530.000000	30.805888
1531.000000	30.858346
1532.000000	30.913417
1533.000000	30.976353
1534.000000	31.028016
1535.000000	31.073817
1536.000000	31.132702
1537.000000	31.187078
1538.000000	31.229575
1539.000000	31.277851
1540.000000	31.323184
1541.000000	31.378470
1542.000000	31.429955
1543.000000	31.481118
1544.000000	31.537093
1545.000000	31.590828
1546.000000	31.653489
1547.000000	31.718708
1548.000000	31.780179
1549.000000	31.845388
1550.000000	31.909099
1551.000000	31.964811
1552.000000	32.030269
1553.000000	32.089804
1554.000000	32.149226
1555.000000	32.201039
1556.000000	32.242470
1557.000000	32.288980
1558.000000	32.335016
1559.000000	32.375480
1560.000000	32.406233
1561.000000	32.437189
1562.000000	32.467021
1563.000000	32.496874
1564.000000	32.512620
1565.000000	32.544854
1566.000000	32.562677
1567.000000	32.588783
1568.000000	32.613037
1569.000000	32.641970
1570.000000	32.654317
1571.000000	32.675303
1572.000000	32.714666
1573.000000	32.746428
1574.000000	32.774612
1575.000000	32.816162
1576.000000	32.858411
1577.000000	32.897738
1578.000000	32.942719
1579.000000	32.985425
1580.000000	33.043389
1581.000000	33.093495
1582.000000	33.138512
1583.000000	33.189542
1584.000000	33.255645
1585.000000	33.313354
1586.000000	33.360651
1587.000000	33.421547
1588.000000	33.476683
1589.000000	33.536759
1590.000000	33.600714
1591.000000	33.652002
1592.000000	33.711242
1593.000000	33.768454
1594.000000	33.825726
1595.000000	33.885938
1596.000000	33.957679
1597.000000	34.016462
1598.000000	34.086051
1599.000000	34.151939
1600.000000	34.229296
1601.000000	34.296490
1602.000000	34.356291
1603.000000	34.422449
1604.000000	34.488753
1605.000000	34.558644
1606.000000	34.623317
1607.000000	34.686084
1608.000000	34.753655
1609.000000	34.812877
1610.000000	34.863947
1611.000000	34.925738
1612.000000	34.988151
1613.000000	35.040723
1614.000000	35.102955
1615.000000	35.166975
1616.000000	35.217506
1617.000000	35.279314
1618.000000	35.335255
1619.000000	35.405373
1620.000000	35.458198
1621.000000	35.519364
1622.000000	35.587998
1623.000000	35.649328
1624.000000	35.715213
1625.000000	35.776626
1626.000000	35.834411
1627.000000	35.911309
1628.000000	35.977752
1629.000000	36.037459
1630.000000	36.090881
1631.000000	36.155280
1632.000000	36.212143
1633.000000	36.272899
1634.000000	36.331428
1635.000000	36.375175
1636.000000	36.424683
1637.000000	36.468349
1638.000000	36.514736
1639.000000	36.566704
1640.000000	36.604809
1641.000000	36.652524
1642.000000	36.692374
1643.000000	36.730631
1644.000000	36.769129
1645.000000	36.802254
1646.000000	36.832711
1647.000000	36.857999
1648.000000	36.897795
1649.000000	36.922552
1650.000000	36.938517
1651.000000	36.962136
1652.000000	36.964684
1653.000000	36.981245
1654.000000	36.967590
1655.000000	36.973814
1656.000000	36.941626
1657.000000	36.918282
1658.000000	36.887685
1659.000000	36.838866
1660.000000	36.795754
1661.000000	36.746702
1662.000000	36.686570
1663.000000	36.605425
1664.000000	36.534378
1665.000000	36.452298
1666.000000	36.358362
1667.000000	36.262235
1668.000000	36.148480
1669.000000	36.015087
1670.000000	35.851383
1671.000000	35.675257
1672.000000	35.474475
1673.000000	35.268818
1674.000000	35.024974
1675.000000	34.760105
1676.000000	34.466596
1677.000000	34.143183
1678.000000	33.839204
1679.000000	33.528376
1680.000000	33.246727
1681.000000	33.008188
1682.000000	32.808204
1683.000000	32.677369
1684.000000	32.554793
1685.000000	32.465915
1686.000000	32.382221
1687.000000	32.294451
1688.000000	32.221741
1689.000000	32.127452
1690.000000	32.035219
1691.000000	31.969464
1692.000000	31.925556
1693.000000	31.897441
1694.000000	31.891563
1695.000000	31.925938
1696.000000	31.992815
1697.000000	32.067583
1698.000000	32.152936
1699.000000	32.232630
1700.000000	32.307592
1701.000000	32.374907
1702.000000	32.422363
1703.000000	32.462077
1704.000000	32.493105
1705.000000	32.508501
1706.000000	32.496896
1707.000000	32.487693
1708.000000	32.453194
1709.000000	32.393754
1710.000000	32.339660
1711.000000	32.254640
1712.000000	32.173400
1713.000000	32.065130
1714.000000	31.956707
1715.000000	31.848520
1716.000000	31.738365
1717.000000	31.642771
1718.000000	31.547238
1719.000000	31.451773
1720.000000	31.365631
1721.000000	31.289194
1722.000000	31.212678
1723.000000	31.153943
1724.000000	31.093853
1725.000000	31.029212
1726.000000	30.964313
1727.000000	30.905760
1728.000000	30.856201
1729.000000	30.809415
1730.000000	30.780842
1731.000000	30.765728
1732.000000	30.782836
1733.000000	30.825960
1734.000000	30.895828
1735.000000	30.988149
1736.000000	31.089659
1737.000000	31.211476
1738.000000	31.335748
1739.000000	31.450748
1740.000000	31.571853
1741.000000	31.676036
1742.000000	31.762229
1743.000000	31.842622
1744.000000	31.909145
1745.000000	31.942341
1746.000000	31.975770
1747.000000	32.003597
1748.000000	32.011202
1749.000000	32.013730
1750.000000	32.004289
1751.000000	31.983468
1752.000000	31.957265
1753.000000	31.921370
1754.000000	31.869621
1755.000000	31.814903
1756.000000	31.758540
1757.000000	31.709478
1758.000000	31.657042
1759.000000	31.609976
1760.000000	31.575365
1761.000000	31.553532
1762.000000	31.552785
1763.000000	31.558124
1764.000000	31.588314
1765.000000	31.628810
1766.000000	31.685567
1767.000000	31.744231
1768.000000	31.812506
1769.000000	31.884099
1770.000000	31.943655
1771.000000	32.004227
1772.000000	32.071040
1773.000000	32.131522
1774.000000	32.187107
1775.000000	32.242255
1776.000000	32.293326
1777.000000	32.340341
1778.000000	32.387579
1779.000000	32.439553
1780.000000	32.486487
1781.000000	32.523558
1782.000000	32.563687
1783.000000	32.614607
1784.000000	32.658880
1785.000000	32.691568
1786.000000	32.725076
1787.000000	32.760919
1788.000000	32.792710
1789.000000	32.827089
1790.000000	32.858121
1791.000000	32.895373
1792.000000	32.934194
1793.000000	32.974176
1794.000000	33.017540
1795.000000	33.059636
1796.000000	33.095763
1797.000000	33.133285
1798.000000	33.173868
1799.000000	33.224537
1800.000000	33.285667
1801.000000	33.335189
1802.000000	33.369528
1803.000000	33.402172
1804.000000	33.441297
1805.000000	33.487371
1806.000000	33.534496
1807.000000	33.573486
1808.000000	33.606233
1809.000000	33.636512
1810.000000	33.683274
1811.000000	33.719023
1812.000000	33.744227
1813.000000	33.767186
1814.000000	33.794478
1815.000000	33.816738
1816.000000	33.825824
1817.000000	33.853150
1818.000000	33.890447
1819.000000	33.946642
1820.000000	33.995907
1821.000000	34.021929
1822.000000	34.004935
1823.000000	34.001683
1824.000000	34.031112
1825.000000	34.075760
1826.000000	34.119160
1827.000000	34.178844
1828.000000	34.233054
1829.000000	34.273294
1830.000000	34.305466
1831.000000	34.329947
1832.000000	34.359060
1833.000000	34.392069
1834.000000	34.445021
1835.000000	34.501620
1836.000000	34.541014
1837.000000	34.560553
1838.000000	34.580407
1839.000000	34.598882
1840.000000	34.605215
1841.000000	34.601786
1842.000000	34.553777
1843.000000	34.506023
1844.000000	34.495194
1845.000000	34.485510
1846.000000	34.524282
1847.000000	34.535227
1848.000000	34.503307
1849.000000	34.446974
1850.000000	34.373442
1851.000000	34.298045
1852.000000	34.224952
1853.000000	34.188896
1854.000000	34.110569
1855.000000	34.019335
1856.000000	33.931758
1857.000000	33.798858
1858.000000	33.666026
1859.000000	33.520985
1860.000000	33.343484
1861.000000	33.134303
1862.000000	32.937841
1863.000000	32.748497
1864.000000	32.560045
1865.000000	32.358366
1866.000000	32.152970
1867.000000	31.924562
1868.000000	31.665238
1869.000000	31.332622
1870.000000	31.008334
1871.000000	30.641998
1872.000000	30.241420
1873.000000	29.804697
1874.000000	29.371789
1875.000000	28.913678
1876.000000	28.453324
1877.000000	27.960336
1878.000000	27.453553
1879.000000	26.960783
1880.000000	26.460771
1881.000000	25.923530
1882.000000	25.402948
1883.000000	24.812181
1884.000000	24.237690
1885.000000	23.691566
1886.000000	23.151594
1887.000000	22.628748
1888.000000	22.096441
1889.000000	21.586524
1890.000000	21.105097
1891.000000	20.596718
1892.000000	20.068915
1893.000000	19.606470
1894.000000	19.179788
1895.000000	18.795606
1896.000000	18.427124
1897.000000	18.054244
1898.000000	17.659933
1899.000000	17.277790
1900.000000	16.896966
1901.000000	16.568717
1902.000000	16.253000
1903.000000	15.952796
1904.000000	15.663721
1905.000000	15.358354
1906.000000	15.058782
1907.000000	14.793864
1908.000000	14.564685
1909.000000	14.353189
1910.000000	14.152143
1911.000000	13.938941
1912.000000	13.748084
1913.000000	13.547010
1914.000000	13.340300
1915.000000	13.171671
1916.000000	13.010583
1917.000000	12.855023
1918.000000	12.708833
1919.000000	12.585344
1920.000000	12.455426
1921.000000	12.319063
1922.000000	12.197614
1923.000000	12.100042
1924.000000	11.995233
1925.000000	11.916279
1926.000000	11.817830
1927.000000	11.755986
1928.000000	11.693498
1929.000000	11.638577
1930.000000	11.589016
1931.000000	11.543568
1932.000000	11.499622
1933.000000	11.490068
1934.000000	11.467123
1935.000000	11.446235
1936.000000	11.441176
1937.000000	11.459734
1938.000000	11.469237
1939.000000	11.482322
1940.000000	11.493657
1941.000000	11.513994
1942.000000	11.540761
1943.000000	11.570601
1944.000000	11.606313
1945.000000	11.652051
1946.000000	11.705008
1947.000000	11.741244
1948.000000	11.796426
1949.000000	11.855268
1950.000000	11.926987
1951.000000	11.979278
1952.000000	12.049467
1953.000000	12.113104
1954.000000	12.184721
1955.000000	12.258982
1956.000000	12.340301
1957.000000	12.412405
1958.000000	12.477607
1959.000000	12.558474
1960.000000	12.635135
1961.000000	12.711840
1962.000000	12.799890
1963.000000	12.877135
1964.000000	12.958718
1965.000000	13.043166
1966.000000	13.104899
1967.000000	13.205989
1968.000000	13.286618
1969.000000	13.369063
1970.000000	13.452038
1971.000000	13.552646
1972.000000	13.639978
1973.000000	13.729911
1974.000000	13.816139
1975.000000	13.890502
1976.000000	13.999508
1977.000000	14.086552
1978.000000	14.174920
1979.000000	14.272689
1980.000000	14.371237
1981.000000	14.453652
1982.000000	14.542494
1983.000000	14.645570
1984.000000	14.735521
1985.000000	14.825058
1986.000000	14.913373
1987.000000	15.008364
1988.000000	15.087910
1989.000000	15.189471
1990.000000	15.272986
1991.000000	15.362567
1992.000000	15.449926
1993.000000	15.526523
1994.000000	15.606843
1995.000000	15.683348
1996.000000	15.762648
1997.000000	15.838194
1998.000000	15.912548
1999.000000	15.981831
