PE UV       SUBTECH     SPECTRUM    ASCII       PEDS        4.00        
   -1
CICIMAUCR0239-3.Sample.ASC
24/06/20
12:23:16.00
24/06/20
12:23:16.00
Vinicio Soto Monge
C. cupreomarginata. Sex M. Dorsal.
250,000000
1
Lambda 1050
1050L1511233
PerkinElmer UV WinLab 6.3.2.0749 / 2.02.05 Lambda 900 UV/VIS/NIR, Aug  7 2015 09:38:08

0
0
3350/servo 860,8/2
0
0
UV/VIS
1
1
1
DoubleDePol,CommonBeamDepol,RBeamAtt,SBeamAtt,60mm sphere, WB InGaAs Detector
0
0
0
0
Program
Program
3350/servo 860,8/2
3350/0,2 860,8/0,2
3350/0,2 860,8/0,2
0
15.00
 
 
 
0
 
860,8
319,2
860,8
Front
100
on
S:100 R:100
0
0
0
0
 
0
 
 
 
0
 
 
0
0
0
0
0
 
 
 
 
0
0


0
0
#HDR
-1
-1
#GR
nm
%R
1.0
0.0
2500,000000
-1,000000
2251
8
71,550600
5,249000
#DATA
250.000000	5.843300
251.000000	5.832767
252.000000	5.819500
253.000000	5.799700
254.000000	5.809033
255.000000	5.779067
256.000000	5.792733
257.000000	5.801867
258.000000	5.762867
259.000000	5.743367
260.000000	5.715633
261.000000	5.678500
262.000000	5.694200
263.000000	5.645033
264.000000	5.628167
265.000000	5.604733
266.000000	5.610767
267.000000	5.564133
268.000000	5.542500
269.000000	5.538800
270.000000	5.532967
271.000000	5.531767
272.000000	5.484367
273.000000	5.473933
274.000000	5.480200
275.000000	5.466633
276.000000	5.459967
277.000000	5.419933
278.000000	5.430500
279.000000	5.418400
280.000000	5.388267
281.000000	5.397833
282.000000	5.394833
283.000000	5.372200
284.000000	5.381033
285.000000	5.345300
286.000000	5.308800
287.000000	5.304200
288.000000	5.318600
289.000000	5.291667
290.000000	5.294067
291.000000	5.276433
292.000000	5.260367
293.000000	5.265367
294.000000	5.259767
295.000000	5.239567
296.000000	5.243033
297.000000	5.253800
298.000000	5.255433
299.000000	5.219167
300.000000	5.212300
301.000000	5.212433
302.000000	5.203233
303.000000	5.201033
304.000000	5.226867
305.000000	5.231133
306.000000	5.219533
307.000000	5.220500
308.000000	5.190467
309.000000	5.184633
310.000000	5.191933
311.000000	5.205300
312.000000	5.207167
313.000000	5.210433
314.000000	5.189433
315.000000	5.179900
316.000000	5.409233
317.000000	5.796500
318.000000	6.064133
319.000000	5.930867
320.000000	5.616167
321.000000	5.841767
322.000000	5.886367
323.000000	5.793700
324.000000	5.719000
325.000000	5.673833
326.000000	5.678933
327.000000	5.654700
328.000000	5.712633
329.000000	5.664600
330.000000	5.666133
331.000000	5.514667
332.000000	5.416267
333.000000	5.455933
334.000000	5.439367
335.000000	5.469900
336.000000	5.540167
337.000000	5.555033
338.000000	5.489033
339.000000	5.475267
340.000000	5.418767
341.000000	5.370500
342.000000	5.409900
343.000000	5.467700
344.000000	5.461167
345.000000	5.478200
346.000000	5.468400
347.000000	5.434000
348.000000	5.421900
349.000000	5.411833
350.000000	5.468833
351.000000	5.476567
352.000000	5.520233
353.000000	5.569100
354.000000	5.533967
355.000000	5.602300
356.000000	5.658700
357.000000	5.628867
358.000000	5.592233
359.000000	5.587433
360.000000	5.610067
361.000000	5.635333
362.000000	5.644267
363.000000	5.642700
364.000000	5.629700
365.000000	5.689833
366.000000	5.744500
367.000000	5.746700
368.000000	5.720000
369.000000	5.692467
370.000000	5.744167
371.000000	5.732667
372.000000	5.721933
373.000000	5.603567
374.000000	5.550433
375.000000	5.818300
376.000000	5.961600
377.000000	5.981767
378.000000	6.027633
379.000000	6.054567
380.000000	6.085033
381.000000	6.123433
382.000000	6.169567
383.000000	6.205433
384.000000	6.243167
385.000000	6.287200
386.000000	6.335733
387.000000	6.372467
388.000000	6.420367
389.000000	6.452467
390.000000	6.496867
391.000000	6.564967
392.000000	6.626267
393.000000	6.683100
394.000000	6.729133
395.000000	6.776567
396.000000	6.843900
397.000000	6.897000
398.000000	6.965633
399.000000	7.041733
400.000000	7.126000
401.000000	7.200700
402.000000	7.279633
403.000000	7.372067
404.000000	7.464767
405.000000	7.547933
406.000000	7.652467
407.000000	7.757500
408.000000	7.861433
409.000000	7.965567
410.000000	8.069967
411.000000	8.175567
412.000000	8.298833
413.000000	8.434200
414.000000	8.572867
415.000000	8.702700
416.000000	8.849067
417.000000	9.002767
418.000000	9.149900
419.000000	9.295500
420.000000	9.440467
421.000000	9.601633
422.000000	9.777333
423.000000	9.940267
424.000000	10.101500
425.000000	10.265400
426.000000	10.432600
427.000000	10.595833
428.000000	10.774300
429.000000	10.959800
430.000000	11.124467
431.000000	11.304567
432.000000	11.497400
433.000000	11.690900
434.000000	11.884467
435.000000	12.068100
436.000000	12.256733
437.000000	12.441467
438.000000	12.626267
439.000000	12.804100
440.000000	12.999867
441.000000	13.168767
442.000000	13.351133
443.000000	13.541300
444.000000	13.712900
445.000000	13.898733
446.000000	14.055533
447.000000	14.232133
448.000000	14.384000
449.000000	14.570000
450.000000	14.737533
451.000000	14.905600
452.000000	15.071767
453.000000	15.216133
454.000000	15.385633
455.000000	15.544200
456.000000	15.679233
457.000000	15.818367
458.000000	15.954733
459.000000	16.107100
460.000000	16.243433
461.000000	16.381333
462.000000	16.518633
463.000000	16.659633
464.000000	16.779567
465.000000	16.917100
466.000000	17.039700
467.000000	17.177700
468.000000	17.318933
469.000000	17.454633
470.000000	17.612333
471.000000	17.749767
472.000000	17.917067
473.000000	18.079867
474.000000	18.255033
475.000000	18.429967
476.000000	18.618233
477.000000	18.805333
478.000000	19.018333
479.000000	19.239267
480.000000	19.450200
481.000000	19.686900
482.000000	19.933667
483.000000	20.178233
484.000000	20.444467
485.000000	20.720333
486.000000	21.010367
487.000000	21.301933
488.000000	21.598167
489.000000	21.935767
490.000000	22.270567
491.000000	22.624000
492.000000	22.976933
493.000000	23.350700
494.000000	23.720400
495.000000	24.098533
496.000000	24.447467
497.000000	24.826333
498.000000	25.215533
499.000000	25.586767
500.000000	25.998467
501.000000	26.393367
502.000000	26.826367
503.000000	27.240367
504.000000	27.684767
505.000000	28.136067
506.000000	28.582300
507.000000	29.062200
508.000000	29.555100
509.000000	30.055733
510.000000	30.591333
511.000000	31.134600
512.000000	31.679833
513.000000	32.254667
514.000000	32.829367
515.000000	33.432800
516.000000	33.998800
517.000000	34.603933
518.000000	35.194767
519.000000	35.803967
520.000000	36.389000
521.000000	36.996333
522.000000	37.611933
523.000000	38.233867
524.000000	38.878933
525.000000	39.512033
526.000000	40.163100
527.000000	40.834100
528.000000	41.516733
529.000000	42.203600
530.000000	42.932433
531.000000	43.685700
532.000000	44.470233
533.000000	45.284000
534.000000	46.103933
535.000000	46.934133
536.000000	47.779667
537.000000	48.611600
538.000000	49.433267
539.000000	50.259067
540.000000	51.071800
541.000000	51.864100
542.000000	52.643033
543.000000	53.377300
544.000000	54.065767
545.000000	54.736667
546.000000	55.362033
547.000000	55.953267
548.000000	56.493300
549.000000	56.993367
550.000000	57.457933
551.000000	57.887933
552.000000	58.315300
553.000000	58.678567
554.000000	59.027267
555.000000	59.338233
556.000000	59.599700
557.000000	59.823667
558.000000	60.007167
559.000000	60.204000
560.000000	60.432033
561.000000	60.586300
562.000000	60.713667
563.000000	60.829200
564.000000	60.950700
565.000000	61.048567
566.000000	61.142300
567.000000	61.252233
568.000000	61.361400
569.000000	61.438133
570.000000	61.516233
571.000000	61.585000
572.000000	61.613133
573.000000	61.632733
574.000000	61.632300
575.000000	61.611800
576.000000	61.570200
577.000000	61.496833
578.000000	61.411500
579.000000	61.328400
580.000000	61.248200
581.000000	61.157133
582.000000	61.055967
583.000000	60.986167
584.000000	60.921733
585.000000	60.843067
586.000000	60.778200
587.000000	60.748633
588.000000	60.703500
589.000000	60.677633
590.000000	60.615167
591.000000	60.569233
592.000000	60.517067
593.000000	60.422633
594.000000	60.322067
595.000000	60.193267
596.000000	60.059533
597.000000	59.902100
598.000000	59.697967
599.000000	59.488800
600.000000	59.217633
601.000000	58.957400
602.000000	58.706233
603.000000	58.398067
604.000000	58.098467
605.000000	57.809233
606.000000	57.500900
607.000000	57.182400
608.000000	56.875400
609.000000	56.548400
610.000000	56.202733
611.000000	55.856333
612.000000	55.498000
613.000000	55.110833
614.000000	54.710400
615.000000	54.301400
616.000000	53.864367
617.000000	53.400967
618.000000	52.935500
619.000000	52.432200
620.000000	51.937733
621.000000	51.421667
622.000000	50.861967
623.000000	50.300000
624.000000	49.749967
625.000000	49.190233
626.000000	48.629167
627.000000	48.088800
628.000000	47.571167
629.000000	47.062933
630.000000	46.589100
631.000000	46.139167
632.000000	45.724100
633.000000	45.354567
634.000000	44.983600
635.000000	44.655600
636.000000	44.380867
637.000000	44.131867
638.000000	43.935300
639.000000	43.765700
640.000000	43.633533
641.000000	43.550700
642.000000	43.501433
643.000000	43.502867
644.000000	43.537100
645.000000	43.588900
646.000000	43.666033
647.000000	43.777967
648.000000	43.909333
649.000000	44.026867
650.000000	44.177100
651.000000	44.334733
652.000000	44.466667
653.000000	44.611367
654.000000	44.755433
655.000000	44.874600
656.000000	44.989833
657.000000	45.103200
658.000000	45.199800
659.000000	45.281567
660.000000	45.361233
661.000000	45.434000
662.000000	45.495567
663.000000	45.541200
664.000000	45.576200
665.000000	45.622867
666.000000	45.664133
667.000000	45.698400
668.000000	45.720567
669.000000	45.749700
670.000000	45.772367
671.000000	45.781533
672.000000	45.776100
673.000000	45.753433
674.000000	45.723333
675.000000	45.685433
676.000000	45.639333
677.000000	45.588033
678.000000	45.551467
679.000000	45.485467
680.000000	45.402400
681.000000	45.313733
682.000000	45.248567
683.000000	45.169000
684.000000	45.076400
685.000000	44.988200
686.000000	44.948400
687.000000	44.928967
688.000000	44.906133
689.000000	44.881967
690.000000	44.884800
691.000000	44.906800
692.000000	44.926033
693.000000	45.000900
694.000000	45.081533
695.000000	45.165033
696.000000	45.306600
697.000000	45.435133
698.000000	45.562867
699.000000	45.729900
700.000000	45.898900
701.000000	46.062567
702.000000	46.226867
703.000000	46.392233
704.000000	46.588233
705.000000	46.792233
706.000000	46.977433
707.000000	47.145167
708.000000	47.360300
709.000000	47.552300
710.000000	47.741867
711.000000	47.960900
712.000000	48.189700
713.000000	48.422900
714.000000	48.675800
715.000000	48.908400
716.000000	49.175467
717.000000	49.460367
718.000000	49.729667
719.000000	49.978067
720.000000	50.227633
721.000000	50.511067
722.000000	50.786367
723.000000	51.020633
724.000000	51.293133
725.000000	51.532567
726.000000	51.785933
727.000000	52.019600
728.000000	52.241967
729.000000	52.408300
730.000000	52.610767
731.000000	52.818800
732.000000	52.993200
733.000000	53.179800
734.000000	53.316100
735.000000	53.468633
736.000000	53.644900
737.000000	53.701333
738.000000	53.811400
739.000000	53.957000
740.000000	54.079567
741.000000	54.148600
742.000000	54.234933
743.000000	54.328400
744.000000	54.475800
745.000000	54.522633
746.000000	54.633000
747.000000	54.641100
748.000000	54.779767
749.000000	54.862800
750.000000	54.936967
751.000000	54.986900
752.000000	55.090167
753.000000	55.195167
754.000000	55.333800
755.000000	55.455300
756.000000	55.519167
757.000000	55.649267
758.000000	55.846400
759.000000	56.044567
760.000000	56.093733
761.000000	56.354000
762.000000	56.569267
763.000000	56.757900
764.000000	56.887333
765.000000	57.164567
766.000000	57.399333
767.000000	57.545800
768.000000	57.725167
769.000000	57.910533
770.000000	58.145533
771.000000	58.299367
772.000000	58.499067
773.000000	58.739000
774.000000	58.912267
775.000000	59.076533
776.000000	59.337633
777.000000	59.535233
778.000000	59.702367
779.000000	59.929100
780.000000	60.159267
781.000000	60.372200
782.000000	60.653900
783.000000	60.728400
784.000000	60.999033
785.000000	61.246933
786.000000	61.421100
787.000000	61.645567
788.000000	61.803600
789.000000	62.020533
790.000000	62.123533
791.000000	62.319400
792.000000	62.662500
793.000000	62.820533
794.000000	63.087600
795.000000	63.247400
796.000000	63.425800
797.000000	63.548700
798.000000	63.842600
799.000000	64.031367
800.000000	64.234833
801.000000	64.445300
802.000000	64.591967
803.000000	64.836067
804.000000	64.982733
805.000000	65.208267
806.000000	65.338133
807.000000	65.388600
808.000000	65.490933
809.000000	65.701933
810.000000	65.862533
811.000000	66.046300
812.000000	66.188367
813.000000	66.452300
814.000000	66.421867
815.000000	66.557267
816.000000	66.849700
817.000000	66.823300
818.000000	67.075767
819.000000	67.191033
820.000000	67.328600
821.000000	67.422200
822.000000	67.602133
823.000000	67.768033
824.000000	67.831133
825.000000	67.880067
826.000000	67.971033
827.000000	68.208433
828.000000	68.302400
829.000000	68.245733
830.000000	68.419867
831.000000	68.684833
832.000000	68.723200
833.000000	68.828300
834.000000	68.902367
835.000000	68.868133
836.000000	69.069767
837.000000	69.105367
838.000000	69.282233
839.000000	69.207233
840.000000	69.596000
841.000000	69.619933
842.000000	69.715700
843.000000	69.692300
844.000000	69.811500
845.000000	69.692433
846.000000	70.012300
847.000000	69.849600
848.000000	70.133567
849.000000	70.151600
850.000000	70.247000
851.000000	70.424333
852.000000	70.284933
853.000000	70.314833
854.000000	70.312967
855.000000	70.108200
856.000000	70.857200
857.000000	70.753933
858.000000	70.573111
859.000000	70.609483
860.000000	70.636515
861.000000	70.684497
862.000000	70.720832
863.000000	70.756171
864.000000	70.784919
865.000000	70.822568
866.000000	70.856205
867.000000	70.869084
868.000000	70.863987
869.000000	70.878736
870.000000	70.918956
871.000000	70.995538
872.000000	71.133529
873.000000	71.284253
874.000000	71.415300
875.000000	71.492635
876.000000	71.576847
877.000000	71.643403
878.000000	71.686317
879.000000	71.722183
880.000000	71.750565
881.000000	71.770589
882.000000	71.781265
883.000000	71.786132
884.000000	71.798077
885.000000	71.812876
886.000000	71.806441
887.000000	71.804342
888.000000	71.802870
889.000000	71.790746
890.000000	71.770350
891.000000	71.760218
892.000000	71.741192
893.000000	71.714143
894.000000	71.690273
895.000000	71.664120
896.000000	71.625033
897.000000	71.584495
898.000000	71.555199
899.000000	71.519772
900.000000	71.481544
901.000000	71.433410
902.000000	71.403228
903.000000	71.370668
904.000000	71.344209
905.000000	71.319520
906.000000	71.294095
907.000000	71.274156
908.000000	71.252353
909.000000	71.244760
910.000000	71.244219
911.000000	71.235822
912.000000	71.240792
913.000000	71.233169
914.000000	71.225085
915.000000	71.226145
916.000000	71.235571
917.000000	71.228550
918.000000	71.203501
919.000000	71.198827
920.000000	71.193613
921.000000	71.177990
922.000000	71.166922
923.000000	71.156153
924.000000	71.145832
925.000000	71.131817
926.000000	71.097512
927.000000	71.075649
928.000000	71.064047
929.000000	71.046861
930.000000	71.013602
931.000000	70.988946
932.000000	70.964575
933.000000	70.933924
934.000000	70.889488
935.000000	70.849874
936.000000	70.812049
937.000000	70.780821
938.000000	70.746949
939.000000	70.698348
940.000000	70.645972
941.000000	70.603936
942.000000	70.568515
943.000000	70.529917
944.000000	70.474760
945.000000	70.424858
946.000000	70.371547
947.000000	70.313994
948.000000	70.261464
949.000000	70.210222
950.000000	70.148582
951.000000	70.078217
952.000000	70.017995
953.000000	69.950808
954.000000	69.880634
955.000000	69.800904
956.000000	69.722680
957.000000	69.655717
958.000000	69.572747
959.000000	69.493465
960.000000	69.403065
961.000000	69.315400
962.000000	69.243582
963.000000	69.161728
964.000000	69.078550
965.000000	68.995363
966.000000	68.915846
967.000000	68.849152
968.000000	68.778596
969.000000	68.698648
970.000000	68.625802
971.000000	68.560635
972.000000	68.481739
973.000000	68.399231
974.000000	68.324374
975.000000	68.248896
976.000000	68.163615
977.000000	68.086049
978.000000	68.008136
979.000000	67.920174
980.000000	67.827470
981.000000	67.744364
982.000000	67.661402
983.000000	67.561984
984.000000	67.466118
985.000000	67.391213
986.000000	67.303405
987.000000	67.206814
988.000000	67.114110
989.000000	67.030230
990.000000	66.943248
991.000000	66.859890
992.000000	66.778171
993.000000	66.703741
994.000000	66.625101
995.000000	66.543134
996.000000	66.457158
997.000000	66.380287
998.000000	66.305639
999.000000	66.232606
1000.000000	66.153459
1001.000000	66.076152
1002.000000	66.008279
1003.000000	65.929589
1004.000000	65.855732
1005.000000	65.777375
1006.000000	65.694067
1007.000000	65.618359
1008.000000	65.538928
1009.000000	65.467213
1010.000000	65.394220
1011.000000	65.327328
1012.000000	65.272217
1013.000000	65.237801
1014.000000	65.183299
1015.000000	65.152540
1016.000000	65.118150
1017.000000	65.091398
1018.000000	65.072124
1019.000000	65.057660
1020.000000	65.046434
1021.000000	65.038952
1022.000000	65.032282
1023.000000	65.036877
1024.000000	65.044358
1025.000000	65.049686
1026.000000	65.037506
1027.000000	65.047127
1028.000000	65.052998
1029.000000	65.049874
1030.000000	65.047192
1031.000000	65.056484
1032.000000	65.046444
1033.000000	65.046765
1034.000000	65.046145
1035.000000	65.041573
1036.000000	65.043368
1037.000000	65.027434
1038.000000	65.010108
1039.000000	65.003204
1040.000000	64.987141
1041.000000	64.972529
1042.000000	64.956954
1043.000000	64.940169
1044.000000	64.920557
1045.000000	64.905702
1046.000000	64.882720
1047.000000	64.870515
1048.000000	64.854467
1049.000000	64.839250
1050.000000	64.817570
1051.000000	64.816786
1052.000000	64.792274
1053.000000	64.785152
1054.000000	64.766922
1055.000000	64.769203
1056.000000	64.748942
1057.000000	64.741372
1058.000000	64.719233
1059.000000	64.701275
1060.000000	64.687990
1061.000000	64.670064
1062.000000	64.650825
1063.000000	64.626096
1064.000000	64.598185
1065.000000	64.572451
1066.000000	64.553667
1067.000000	64.532092
1068.000000	64.502544
1069.000000	64.487738
1070.000000	64.455953
1071.000000	64.436499
1072.000000	64.424516
1073.000000	64.393017
1074.000000	64.370398
1075.000000	64.349587
1076.000000	64.323559
1077.000000	64.311876
1078.000000	64.288071
1079.000000	64.278803
1080.000000	64.246553
1081.000000	64.235026
1082.000000	64.223258
1083.000000	64.200650
1084.000000	64.179353
1085.000000	64.161051
1086.000000	64.147791
1087.000000	64.140562
1088.000000	64.120204
1089.000000	64.110041
1090.000000	64.082100
1091.000000	64.072060
1092.000000	64.042518
1093.000000	64.025262
1094.000000	64.009769
1095.000000	63.985116
1096.000000	63.962390
1097.000000	63.948683
1098.000000	63.916124
1099.000000	63.892608
1100.000000	63.872497
1101.000000	63.847346
1102.000000	63.816790
1103.000000	63.783761
1104.000000	63.753975
1105.000000	63.732269
1106.000000	63.701360
1107.000000	63.669772
1108.000000	63.651941
1109.000000	63.622221
1110.000000	63.590200
1111.000000	63.568129
1112.000000	63.535754
1113.000000	63.522444
1114.000000	63.488266
1115.000000	63.455900
1116.000000	63.430496
1117.000000	63.388907
1118.000000	63.330008
1119.000000	63.277754
1120.000000	63.212991
1121.000000	63.137695
1122.000000	63.058571
1123.000000	62.967445
1124.000000	62.850110
1125.000000	62.725837
1126.000000	62.577956
1127.000000	62.423203
1128.000000	62.217889
1129.000000	61.983184
1130.000000	61.711324
1131.000000	61.416065
1132.000000	61.071751
1133.000000	60.749818
1134.000000	60.394919
1135.000000	59.993417
1136.000000	59.593495
1137.000000	59.196606
1138.000000	58.825349
1139.000000	58.469290
1140.000000	58.121545
1141.000000	57.783165
1142.000000	57.459587
1143.000000	57.161240
1144.000000	56.912296
1145.000000	56.693008
1146.000000	56.510312
1147.000000	56.386361
1148.000000	56.266585
1149.000000	56.167133
1150.000000	56.068630
1151.000000	55.970971
1152.000000	55.835493
1153.000000	55.669288
1154.000000	55.464418
1155.000000	55.232537
1156.000000	54.975355
1157.000000	54.687890
1158.000000	54.382067
1159.000000	54.069921
1160.000000	53.759647
1161.000000	53.440129
1162.000000	53.110340
1163.000000	52.774869
1164.000000	52.457311
1165.000000	52.140980
1166.000000	51.833620
1167.000000	51.522147
1168.000000	51.225156
1169.000000	50.937262
1170.000000	50.648762
1171.000000	50.362023
1172.000000	50.089671
1173.000000	49.820737
1174.000000	49.553550
1175.000000	49.270537
1176.000000	48.978112
1177.000000	48.651412
1178.000000	48.280919
1179.000000	47.864277
1180.000000	47.458927
1181.000000	47.067422
1182.000000	46.717473
1183.000000	46.459428
1184.000000	46.295290
1185.000000	46.224564
1186.000000	46.270116
1187.000000	46.408087
1188.000000	46.627984
1189.000000	46.913471
1190.000000	47.239154
1191.000000	47.569299
1192.000000	47.878535
1193.000000	48.145526
1194.000000	48.363096
1195.000000	48.544389
1196.000000	48.682336
1197.000000	48.773787
1198.000000	48.842660
1199.000000	48.898783
1200.000000	48.941884
1201.000000	48.968361
1202.000000	48.998770
1203.000000	49.028806
1204.000000	49.057992
1205.000000	49.109749
1206.000000	49.162402
1207.000000	49.240454
1208.000000	49.326992
1209.000000	49.419400
1210.000000	49.507250
1211.000000	49.604741
1212.000000	49.713706
1213.000000	49.818134
1214.000000	49.926893
1215.000000	50.041759
1216.000000	50.156625
1217.000000	50.272352
1218.000000	50.398584
1219.000000	50.537941
1220.000000	50.677860
1221.000000	50.817658
1222.000000	50.960367
1223.000000	51.105009
1224.000000	51.249896
1225.000000	51.393435
1226.000000	51.536276
1227.000000	51.679914
1228.000000	51.819123
1229.000000	51.948924
1230.000000	52.086974
1231.000000	52.232792
1232.000000	52.362213
1233.000000	52.481385
1234.000000	52.604971
1235.000000	52.724723
1236.000000	52.843198
1237.000000	52.962359
1238.000000	53.068065
1239.000000	53.165923
1240.000000	53.267272
1241.000000	53.383163
1242.000000	53.493326
1243.000000	53.589463
1244.000000	53.674316
1245.000000	53.767251
1246.000000	53.853674
1247.000000	53.929870
1248.000000	54.001211
1249.000000	54.065343
1250.000000	54.118476
1251.000000	54.185624
1252.000000	54.249087
1253.000000	54.288973
1254.000000	54.330782
1255.000000	54.381735
1256.000000	54.430954
1257.000000	54.462020
1258.000000	54.496835
1259.000000	54.528187
1260.000000	54.557568
1261.000000	54.587859
1262.000000	54.614713
1263.000000	54.646849
1264.000000	54.674663
1265.000000	54.699857
1266.000000	54.726932
1267.000000	54.747094
1268.000000	54.768393
1269.000000	54.790937
1270.000000	54.811306
1271.000000	54.835603
1272.000000	54.853415
1273.000000	54.867021
1274.000000	54.889366
1275.000000	54.918921
1276.000000	54.939918
1277.000000	54.967871
1278.000000	55.002601
1279.000000	55.028228
1280.000000	55.060022
1281.000000	55.089412
1282.000000	55.114571
1283.000000	55.144915
1284.000000	55.177294
1285.000000	55.204314
1286.000000	55.220396
1287.000000	55.238827
1288.000000	55.247579
1289.000000	55.247493
1290.000000	55.240534
1291.000000	55.233059
1292.000000	55.222244
1293.000000	55.206261
1294.000000	55.186162
1295.000000	55.159756
1296.000000	55.133959
1297.000000	55.099686
1298.000000	55.069787
1299.000000	55.028741
1300.000000	54.985022
1301.000000	54.932201
1302.000000	54.877715
1303.000000	54.825333
1304.000000	54.768926
1305.000000	54.702700
1306.000000	54.626333
1307.000000	54.552222
1308.000000	54.457570
1309.000000	54.372646
1310.000000	54.278278
1311.000000	54.173632
1312.000000	54.063265
1313.000000	53.956690
1314.000000	53.836661
1315.000000	53.708193
1316.000000	53.588050
1317.000000	53.461456
1318.000000	53.325570
1319.000000	53.185140
1320.000000	53.032564
1321.000000	52.877137
1322.000000	52.732821
1323.000000	52.578168
1324.000000	52.412973
1325.000000	52.246559
1326.000000	52.068161
1327.000000	51.888540
1328.000000	51.693791
1329.000000	51.494614
1330.000000	51.290752
1331.000000	51.083885
1332.000000	50.868307
1333.000000	50.631805
1334.000000	50.397839
1335.000000	50.176288
1336.000000	49.930226
1337.000000	49.687673
1338.000000	49.442723
1339.000000	49.202630
1340.000000	48.942593
1341.000000	48.678655
1342.000000	48.404257
1343.000000	48.143493
1344.000000	47.850079
1345.000000	47.563383
1346.000000	47.283868
1347.000000	47.007504
1348.000000	46.672885
1349.000000	46.339359
1350.000000	45.981037
1351.000000	45.593392
1352.000000	45.182012
1353.000000	44.871715
1354.000000	44.554129
1355.000000	44.289161
1356.000000	44.068365
1357.000000	43.934973
1358.000000	43.835864
1359.000000	43.734945
1360.000000	43.713505
1361.000000	43.600961
1362.000000	43.435521
1363.000000	43.263451
1364.000000	43.125903
1365.000000	42.906577
1366.000000	42.738083
1367.000000	42.530365
1368.000000	42.280091
1369.000000	42.013402
1370.000000	41.756187
1371.000000	41.433479
1372.000000	41.151086
1373.000000	40.860536
1374.000000	40.633242
1375.000000	40.440768
1376.000000	40.271790
1377.000000	40.066637
1378.000000	39.906172
1379.000000	39.679093
1380.000000	39.423458
1381.000000	39.075942
1382.000000	38.631660
1383.000000	38.149128
1384.000000	37.672094
1385.000000	37.171229
1386.000000	36.738410
1387.000000	36.324818
1388.000000	35.904165
1389.000000	35.498764
1390.000000	35.218593
1391.000000	34.879653
1392.000000	34.565919
1393.000000	34.296541
1394.000000	34.047756
1395.000000	33.725032
1396.000000	33.332431
1397.000000	33.007223
1398.000000	32.752342
1399.000000	32.473406
1400.000000	32.098470
1401.000000	31.653110
1402.000000	31.288857
1403.000000	30.945941
1404.000000	30.573613
1405.000000	30.203410
1406.000000	29.837616
1407.000000	29.507051
1408.000000	29.147386
1409.000000	28.815804
1410.000000	28.470786
1411.000000	28.169554
1412.000000	27.935369
1413.000000	27.697230
1414.000000	27.418576
1415.000000	27.140554
1416.000000	26.889219
1417.000000	26.684730
1418.000000	26.472396
1419.000000	26.254228
1420.000000	26.016356
1421.000000	25.794741
1422.000000	25.617329
1423.000000	25.419339
1424.000000	25.225165
1425.000000	25.046698
1426.000000	24.865795
1427.000000	24.705380
1428.000000	24.544191
1429.000000	24.391857
1430.000000	24.258458
1431.000000	24.132128
1432.000000	24.010669
1433.000000	23.881778
1434.000000	23.755802
1435.000000	23.633501
1436.000000	23.540015
1437.000000	23.437582
1438.000000	23.336817
1439.000000	23.224020
1440.000000	23.119654
1441.000000	23.030043
1442.000000	22.922491
1443.000000	22.830421
1444.000000	22.765096
1445.000000	22.680252
1446.000000	22.578942
1447.000000	22.487330
1448.000000	22.399988
1449.000000	22.351688
1450.000000	22.282947
1451.000000	22.197568
1452.000000	22.117940
1453.000000	22.058056
1454.000000	21.994649
1455.000000	21.936567
1456.000000	21.878009
1457.000000	21.830861
1458.000000	21.789136
1459.000000	21.751612
1460.000000	21.722524
1461.000000	21.697987
1462.000000	21.663133
1463.000000	21.641151
1464.000000	21.632516
1465.000000	21.631643
1466.000000	21.627797
1467.000000	21.609798
1468.000000	21.611996
1469.000000	21.622922
1470.000000	21.616340
1471.000000	21.622832
1472.000000	21.641011
1473.000000	21.642287
1474.000000	21.642142
1475.000000	21.648272
1476.000000	21.661775
1477.000000	21.681436
1478.000000	21.715563
1479.000000	21.732210
1480.000000	21.751735
1481.000000	21.787222
1482.000000	21.816166
1483.000000	21.841407
1484.000000	21.878245
1485.000000	21.921827
1486.000000	21.953683
1487.000000	21.992589
1488.000000	22.039423
1489.000000	22.082446
1490.000000	22.122369
1491.000000	22.162037
1492.000000	22.205460
1493.000000	22.253238
1494.000000	22.300151
1495.000000	22.355313
1496.000000	22.406932
1497.000000	22.461926
1498.000000	22.520030
1499.000000	22.575456
1500.000000	22.628051
1501.000000	22.688059
1502.000000	22.756595
1503.000000	22.826260
1504.000000	22.888895
1505.000000	22.952900
1506.000000	23.019984
1507.000000	23.087112
1508.000000	23.154713
1509.000000	23.218183
1510.000000	23.277823
1511.000000	23.346000
1512.000000	23.413251
1513.000000	23.473311
1514.000000	23.529132
1515.000000	23.587715
1516.000000	23.648992
1517.000000	23.708430
1518.000000	23.771176
1519.000000	23.830206
1520.000000	23.879951
1521.000000	23.934257
1522.000000	23.990913
1523.000000	24.045407
1524.000000	24.097660
1525.000000	24.141909
1526.000000	24.190956
1527.000000	24.238327
1528.000000	24.288213
1529.000000	24.334348
1530.000000	24.369299
1531.000000	24.406907
1532.000000	24.450189
1533.000000	24.484902
1534.000000	24.517834
1535.000000	24.556271
1536.000000	24.589988
1537.000000	24.614765
1538.000000	24.641268
1539.000000	24.670511
1540.000000	24.701476
1541.000000	24.726081
1542.000000	24.748207
1543.000000	24.766744
1544.000000	24.797120
1545.000000	24.826128
1546.000000	24.864545
1547.000000	24.894702
1548.000000	24.918449
1549.000000	24.954917
1550.000000	24.986782
1551.000000	25.012072
1552.000000	25.041859
1553.000000	25.070348
1554.000000	25.087335
1555.000000	25.115427
1556.000000	25.133775
1557.000000	25.150963
1558.000000	25.171497
1559.000000	25.179427
1560.000000	25.188262
1561.000000	25.190368
1562.000000	25.196038
1563.000000	25.204104
1564.000000	25.211481
1565.000000	25.207143
1566.000000	25.208004
1567.000000	25.206517
1568.000000	25.204758
1569.000000	25.219115
1570.000000	25.223666
1571.000000	25.241889
1572.000000	25.241384
1573.000000	25.250083
1574.000000	25.263947
1575.000000	25.276650
1576.000000	25.301513
1577.000000	25.322037
1578.000000	25.347529
1579.000000	25.374628
1580.000000	25.392794
1581.000000	25.429463
1582.000000	25.470308
1583.000000	25.498775
1584.000000	25.534916
1585.000000	25.573614
1586.000000	25.612650
1587.000000	25.658795
1588.000000	25.700804
1589.000000	25.734646
1590.000000	25.780451
1591.000000	25.829645
1592.000000	25.879112
1593.000000	25.915634
1594.000000	25.971004
1595.000000	26.015291
1596.000000	26.061642
1597.000000	26.116585
1598.000000	26.173350
1599.000000	26.232736
1600.000000	26.284683
1601.000000	26.341002
1602.000000	26.405025
1603.000000	26.456878
1604.000000	26.523987
1605.000000	26.581690
1606.000000	26.630565
1607.000000	26.694928
1608.000000	26.746371
1609.000000	26.799315
1610.000000	26.858394
1611.000000	26.921355
1612.000000	26.968949
1613.000000	27.025567
1614.000000	27.083697
1615.000000	27.143983
1616.000000	27.195283
1617.000000	27.259319
1618.000000	27.318512
1619.000000	27.377475
1620.000000	27.444107
1621.000000	27.499996
1622.000000	27.562012
1623.000000	27.629987
1624.000000	27.702601
1625.000000	27.755798
1626.000000	27.836059
1627.000000	27.898839
1628.000000	27.955549
1629.000000	28.033217
1630.000000	28.097806
1631.000000	28.168966
1632.000000	28.227698
1633.000000	28.299156
1634.000000	28.355265
1635.000000	28.414520
1636.000000	28.468721
1637.000000	28.520589
1638.000000	28.573848
1639.000000	28.630042
1640.000000	28.677157
1641.000000	28.730486
1642.000000	28.769822
1643.000000	28.814864
1644.000000	28.864487
1645.000000	28.902127
1646.000000	28.946178
1647.000000	28.989329
1648.000000	29.019135
1649.000000	29.050438
1650.000000	29.083899
1651.000000	29.093902
1652.000000	29.114920
1653.000000	29.129511
1654.000000	29.144007
1655.000000	29.134022
1656.000000	29.126120
1657.000000	29.108455
1658.000000	29.087803
1659.000000	29.056923
1660.000000	29.017811
1661.000000	28.976110
1662.000000	28.919921
1663.000000	28.844312
1664.000000	28.782747
1665.000000	28.698925
1666.000000	28.601549
1667.000000	28.508794
1668.000000	28.394340
1669.000000	28.262792
1670.000000	28.101973
1671.000000	27.912670
1672.000000	27.705607
1673.000000	27.466953
1674.000000	27.171263
1675.000000	26.846505
1676.000000	26.474063
1677.000000	26.064654
1678.000000	25.656810
1679.000000	25.224927
1680.000000	24.846051
1681.000000	24.525813
1682.000000	24.292166
1683.000000	24.137200
1684.000000	24.041323
1685.000000	23.998633
1686.000000	23.952081
1687.000000	23.906716
1688.000000	23.831757
1689.000000	23.735976
1690.000000	23.607784
1691.000000	23.487187
1692.000000	23.384347
1693.000000	23.304703
1694.000000	23.283553
1695.000000	23.310825
1696.000000	23.382509
1697.000000	23.486009
1698.000000	23.603573
1699.000000	23.751373
1700.000000	23.877231
1701.000000	23.990224
1702.000000	24.086669
1703.000000	24.157481
1704.000000	24.219150
1705.000000	24.259824
1706.000000	24.302146
1707.000000	24.324125
1708.000000	24.339135
1709.000000	24.345037
1710.000000	24.331742
1711.000000	24.282878
1712.000000	24.232677
1713.000000	24.170632
1714.000000	24.109545
1715.000000	24.041438
1716.000000	23.995619
1717.000000	23.939152
1718.000000	23.895751
1719.000000	23.863685
1720.000000	23.833761
1721.000000	23.800500
1722.000000	23.768040
1723.000000	23.722543
1724.000000	23.663109
1725.000000	23.597052
1726.000000	23.521591
1727.000000	23.447747
1728.000000	23.366552
1729.000000	23.288518
1730.000000	23.216233
1731.000000	23.177448
1732.000000	23.164955
1733.000000	23.178792
1734.000000	23.239160
1735.000000	23.336003
1736.000000	23.446537
1737.000000	23.585028
1738.000000	23.766992
1739.000000	23.954987
1740.000000	24.122863
1741.000000	24.282074
1742.000000	24.426795
1743.000000	24.550150
1744.000000	24.660162
1745.000000	24.747346
1746.000000	24.812166
1747.000000	24.856627
1748.000000	24.899087
1749.000000	24.922256
1750.000000	24.938828
1751.000000	24.947247
1752.000000	24.935786
1753.000000	24.913086
1754.000000	24.881356
1755.000000	24.830093
1756.000000	24.770820
1757.000000	24.711108
1758.000000	24.650026
1759.000000	24.596236
1760.000000	24.546619
1761.000000	24.515187
1762.000000	24.500560
1763.000000	24.511793
1764.000000	24.548794
1765.000000	24.593619
1766.000000	24.657405
1767.000000	24.734058
1768.000000	24.814740
1769.000000	24.905558
1770.000000	24.994565
1771.000000	25.083878
1772.000000	25.167360
1773.000000	25.254606
1774.000000	25.335334
1775.000000	25.410876
1776.000000	25.491892
1777.000000	25.556557
1778.000000	25.615950
1779.000000	25.674164
1780.000000	25.728831
1781.000000	25.787841
1782.000000	25.840626
1783.000000	25.892339
1784.000000	25.953158
1785.000000	26.005307
1786.000000	26.049957
1787.000000	26.093400
1788.000000	26.137826
1789.000000	26.186184
1790.000000	26.229181
1791.000000	26.272951
1792.000000	26.314414
1793.000000	26.348825
1794.000000	26.388609
1795.000000	26.427849
1796.000000	26.462603
1797.000000	26.500879
1798.000000	26.541203
1799.000000	26.585364
1800.000000	26.637266
1801.000000	26.675942
1802.000000	26.704600
1803.000000	26.737465
1804.000000	26.774477
1805.000000	26.820985
1806.000000	26.858578
1807.000000	26.884015
1808.000000	26.912960
1809.000000	26.941344
1810.000000	26.973862
1811.000000	26.992993
1812.000000	27.008297
1813.000000	27.020824
1814.000000	27.027943
1815.000000	27.035797
1816.000000	27.038052
1817.000000	27.059574
1818.000000	27.095983
1819.000000	27.132654
1820.000000	27.146719
1821.000000	27.155475
1822.000000	27.149295
1823.000000	27.163163
1824.000000	27.210709
1825.000000	27.265300
1826.000000	27.308256
1827.000000	27.362615
1828.000000	27.429483
1829.000000	27.475706
1830.000000	27.504161
1831.000000	27.538177
1832.000000	27.590596
1833.000000	27.654305
1834.000000	27.719374
1835.000000	27.772268
1836.000000	27.796643
1837.000000	27.818943
1838.000000	27.843576
1839.000000	27.858558
1840.000000	27.862696
1841.000000	27.864336
1842.000000	27.824050
1843.000000	27.811618
1844.000000	27.847522
1845.000000	27.889588
1846.000000	27.927932
1847.000000	27.931947
1848.000000	27.905280
1849.000000	27.879802
1850.000000	27.871677
1851.000000	27.856541
1852.000000	27.841535
1853.000000	27.834376
1854.000000	27.788322
1855.000000	27.728463
1856.000000	27.688481
1857.000000	27.625408
1858.000000	27.532563
1859.000000	27.412021
1860.000000	27.273578
1861.000000	27.129680
1862.000000	26.981816
1863.000000	26.858483
1864.000000	26.733174
1865.000000	26.586761
1866.000000	26.441433
1867.000000	26.252004
1868.000000	26.038626
1869.000000	25.747704
1870.000000	25.428371
1871.000000	25.080123
1872.000000	24.728617
1873.000000	24.324696
1874.000000	23.914375
1875.000000	23.496729
1876.000000	23.069872
1877.000000	22.636303
1878.000000	22.185694
1879.000000	21.747268
1880.000000	21.318044
1881.000000	20.845920
1882.000000	20.386212
1883.000000	19.886590
1884.000000	19.405886
1885.000000	18.934223
1886.000000	18.532331
1887.000000	18.157475
1888.000000	17.816585
1889.000000	17.455756
1890.000000	17.117963
1891.000000	16.739877
1892.000000	16.357810
1893.000000	16.051137
1894.000000	15.777650
1895.000000	15.550200
1896.000000	15.339097
1897.000000	15.105211
1898.000000	14.830590
1899.000000	14.546435
1900.000000	14.268985
1901.000000	14.033155
1902.000000	13.826193
1903.000000	13.619012
1904.000000	13.416123
1905.000000	13.153098
1906.000000	12.904491
1907.000000	12.714905
1908.000000	12.561012
1909.000000	12.432894
1910.000000	12.307040
1911.000000	12.177312
1912.000000	12.004676
1913.000000	11.809873
1914.000000	11.641381
1915.000000	11.497619
1916.000000	11.407820
1917.000000	11.318677
1918.000000	11.214467
1919.000000	11.116930
1920.000000	10.989584
1921.000000	10.877890
1922.000000	10.758363
1923.000000	10.661476
1924.000000	10.604692
1925.000000	10.555205
1926.000000	10.492076
1927.000000	10.429701
1928.000000	10.367363
1929.000000	10.299658
1930.000000	10.258058
1931.000000	10.222598
1932.000000	10.182945
1933.000000	10.171577
1934.000000	10.150891
1935.000000	10.149335
1936.000000	10.149444
1937.000000	10.167962
1938.000000	10.146818
1939.000000	10.150247
1940.000000	10.149813
1941.000000	10.160639
1942.000000	10.188145
1943.000000	10.217776
1944.000000	10.253144
1945.000000	10.290913
1946.000000	10.309095
1947.000000	10.345373
1948.000000	10.386436
1949.000000	10.432123
1950.000000	10.478571
1951.000000	10.525353
1952.000000	10.576352
1953.000000	10.630121
1954.000000	10.675172
1955.000000	10.731257
1956.000000	10.783166
1957.000000	10.845669
1958.000000	10.895845
1959.000000	10.959916
1960.000000	11.003868
1961.000000	11.074162
1962.000000	11.138714
1963.000000	11.205006
1964.000000	11.266506
1965.000000	11.325747
1966.000000	11.391103
1967.000000	11.450611
1968.000000	11.518391
1969.000000	11.588239
1970.000000	11.649134
1971.000000	11.718050
1972.000000	11.796024
1973.000000	11.866337
1974.000000	11.922542
1975.000000	11.996020
1976.000000	12.071317
1977.000000	12.160361
1978.000000	12.218118
1979.000000	12.296510
1980.000000	12.366794
1981.000000	12.435857
1982.000000	12.511974
1983.000000	12.585943
1984.000000	12.657504
1985.000000	12.733890
1986.000000	12.808847
1987.000000	12.886297
1988.000000	12.949718
1989.000000	13.019105
1990.000000	13.091579
1991.000000	13.157161
1992.000000	13.228824
1993.000000	13.296396
1994.000000	13.348678
1995.000000	13.416416
1996.000000	13.476848
1997.000000	13.538570
1998.000000	13.604002
1999.000000	13.649541
