PE UV       SUBTECH     SPECTRUM    ASCII       PEDS        4.00        
   -1
CICIMAUCR0214-3.Sample.ASC
24/06/12
17:27:56.00
24/06/12
17:27:56.00
Vinicio Soto Monge
C. cupreomarginata. Sex M. Dorsal.
250,000000
1
Lambda 1050
1050L1511233
PerkinElmer UV WinLab 6.3.2.0749 / 2.02.05 Lambda 900 UV/VIS/NIR, Aug  7 2015 09:38:08

0
0
3350/servo 860,8/2
0
0
UV/VIS
1
1
1
DoubleDePol,CommonBeamDepol,RBeamAtt,SBeamAtt,60mm sphere, WB InGaAs Detector
0
0
0
0
Program
Program
3350/servo 860,8/2
3350/0,2 860,8/0,2
3350/0,2 860,8/0,2
0
15.00
 
 
 
0
 
860,8
319,2
860,8
Front
100
on
S:100 R:100
0
0
0
0
 
0
 
 
 
0
 
 
0
0
0
0
0
 
 
 
 
0
0


0
0
#HDR
-1
-1
#GR
nm
%R
1.0
0.0
2500,000000
-1,000000
2251
8
71,672100
4,948700
#DATA
250.000000	6.692600
251.000000	6.740067
252.000000	6.704767
253.000000	6.704500
254.000000	6.657533
255.000000	6.600267
256.000000	6.611900
257.000000	6.560500
258.000000	6.532667
259.000000	6.529900
260.000000	6.585767
261.000000	6.555600
262.000000	6.566233
263.000000	6.521733
264.000000	6.438633
265.000000	6.361933
266.000000	6.330000
267.000000	6.346000
268.000000	6.334067
269.000000	6.297200
270.000000	6.276700
271.000000	6.296867
272.000000	6.300733
273.000000	6.246533
274.000000	6.235033
275.000000	6.168733
276.000000	6.144667
277.000000	6.121367
278.000000	6.112500
279.000000	6.100400
280.000000	6.134867
281.000000	6.143167
282.000000	6.126667
283.000000	6.084167
284.000000	6.077833
285.000000	6.097167
286.000000	6.064833
287.000000	6.033500
288.000000	6.018967
289.000000	6.036133
290.000000	6.006800
291.000000	6.036133
292.000000	6.057867
293.000000	6.050133
294.000000	6.098333
295.000000	6.072100
296.000000	6.027133
297.000000	6.034300
298.000000	6.008600
299.000000	5.967067
300.000000	5.953733
301.000000	5.989733
302.000000	6.023533
303.000000	6.048733
304.000000	6.041533
305.000000	6.080367
306.000000	6.114167
307.000000	6.044033
308.000000	6.010633
309.000000	6.040900
310.000000	6.001767
311.000000	5.975500
312.000000	5.962000
313.000000	5.928767
314.000000	5.885733
315.000000	5.924933
316.000000	8.058100
317.000000	10.830367
318.000000	10.159400
319.000000	8.729733
320.000000	8.160600
321.000000	7.401367
322.000000	6.319300
323.000000	6.111233
324.000000	6.438333
325.000000	6.442233
326.000000	6.670033
327.000000	7.106033
328.000000	6.853467
329.000000	6.867900
330.000000	6.902067
331.000000	6.739233
332.000000	6.623300
333.000000	6.607300
334.000000	6.510367
335.000000	6.406200
336.000000	6.518833
337.000000	6.336300
338.000000	6.139700
339.000000	6.133500
340.000000	6.034967
341.000000	6.100467
342.000000	6.190167
343.000000	6.267833
344.000000	6.204133
345.000000	6.161967
346.000000	5.896033
347.000000	5.846733
348.000000	6.049733
349.000000	6.107200
350.000000	6.179400
351.000000	6.330533
352.000000	6.328100
353.000000	6.416933
354.000000	6.309667
355.000000	6.200800
356.000000	6.311467
357.000000	6.194400
358.000000	6.334733
359.000000	6.416333
360.000000	6.401700
361.000000	6.422233
362.000000	6.412333
363.000000	6.379333
364.000000	6.246167
365.000000	6.307000
366.000000	6.321500
367.000000	6.251733
368.000000	6.276367
369.000000	6.227567
370.000000	6.322133
371.000000	6.153000
372.000000	5.925967
373.000000	5.859933
374.000000	5.803367
375.000000	6.403233
376.000000	6.553100
377.000000	6.451200
378.000000	6.477133
379.000000	6.494367
380.000000	6.515367
381.000000	6.534333
382.000000	6.545867
383.000000	6.605933
384.000000	6.642700
385.000000	6.677567
386.000000	6.724833
387.000000	6.769567
388.000000	6.818667
389.000000	6.865800
390.000000	6.916100
391.000000	6.964033
392.000000	7.037500
393.000000	7.099300
394.000000	7.167733
395.000000	7.279833
396.000000	7.355833
397.000000	7.463700
398.000000	7.571400
399.000000	7.684133
400.000000	7.807533
401.000000	7.936967
402.000000	8.084567
403.000000	8.250267
404.000000	8.384233
405.000000	8.564633
406.000000	8.743667
407.000000	8.964100
408.000000	9.158767
409.000000	9.379133
410.000000	9.617600
411.000000	9.846200
412.000000	10.101767
413.000000	10.360167
414.000000	10.643933
415.000000	10.922733
416.000000	11.191700
417.000000	11.504867
418.000000	11.843133
419.000000	12.131200
420.000000	12.432567
421.000000	12.741867
422.000000	13.074933
423.000000	13.377933
424.000000	13.695233
425.000000	13.984767
426.000000	14.309733
427.000000	14.609767
428.000000	14.905233
429.000000	15.223400
430.000000	15.495500
431.000000	15.806733
432.000000	16.127033
433.000000	16.416800
434.000000	16.664167
435.000000	16.952700
436.000000	17.238767
437.000000	17.498667
438.000000	17.739733
439.000000	17.938733
440.000000	18.180767
441.000000	18.428800
442.000000	18.611367
443.000000	18.841967
444.000000	19.034633
445.000000	19.205433
446.000000	19.375933
447.000000	19.517600
448.000000	19.716000
449.000000	19.837833
450.000000	19.967567
451.000000	20.060900
452.000000	20.144667
453.000000	20.240367
454.000000	20.293133
455.000000	20.393167
456.000000	20.421833
457.000000	20.446867
458.000000	20.504833
459.000000	20.507133
460.000000	20.542600
461.000000	20.525667
462.000000	20.523033
463.000000	20.487433
464.000000	20.507400
465.000000	20.492700
466.000000	20.498000
467.000000	20.481333
468.000000	20.469533
469.000000	20.503300
470.000000	20.478467
471.000000	20.510933
472.000000	20.548733
473.000000	20.607667
474.000000	20.681233
475.000000	20.773267
476.000000	20.879900
477.000000	20.999633
478.000000	21.128467
479.000000	21.311033
480.000000	21.510933
481.000000	21.741733
482.000000	21.987667
483.000000	22.284867
484.000000	22.569767
485.000000	22.875000
486.000000	23.190433
487.000000	23.550300
488.000000	23.931300
489.000000	24.323400
490.000000	24.707400
491.000000	25.162733
492.000000	25.575667
493.000000	25.936333
494.000000	26.352000
495.000000	26.738367
496.000000	27.177000
497.000000	27.587033
498.000000	27.976033
499.000000	28.351033
500.000000	28.739300
501.000000	29.113000
502.000000	29.468000
503.000000	29.828467
504.000000	30.187433
505.000000	30.543867
506.000000	30.933533
507.000000	31.265233
508.000000	31.597267
509.000000	31.972133
510.000000	32.307300
511.000000	32.626933
512.000000	33.004700
513.000000	33.393267
514.000000	33.757033
515.000000	34.143000
516.000000	34.539500
517.000000	34.933033
518.000000	35.336767
519.000000	35.717467
520.000000	36.109433
521.000000	36.530000
522.000000	36.966267
523.000000	37.401600
524.000000	37.827533
525.000000	38.284733
526.000000	38.775167
527.000000	39.259833
528.000000	39.744633
529.000000	40.251100
530.000000	40.777933
531.000000	41.302067
532.000000	41.861267
533.000000	42.428633
534.000000	43.056733
535.000000	43.645333
536.000000	44.271867
537.000000	44.926500
538.000000	45.576000
539.000000	46.225100
540.000000	46.929933
541.000000	47.652200
542.000000	48.424867
543.000000	49.214700
544.000000	50.012800
545.000000	50.876667
546.000000	51.729767
547.000000	52.614867
548.000000	53.495500
549.000000	54.371133
550.000000	55.242167
551.000000	56.106633
552.000000	56.954967
553.000000	57.737700
554.000000	58.515567
555.000000	59.247533
556.000000	59.932033
557.000000	60.540267
558.000000	61.100067
559.000000	61.657400
560.000000	62.158267
561.000000	62.574933
562.000000	63.011433
563.000000	63.406100
564.000000	63.765367
565.000000	64.100567
566.000000	64.379767
567.000000	64.650800
568.000000	64.903367
569.000000	65.086400
570.000000	65.274833
571.000000	65.365600
572.000000	65.416600
573.000000	65.437567
574.000000	65.423467
575.000000	65.419900
576.000000	65.363133
577.000000	65.329433
578.000000	65.326000
579.000000	65.287367
580.000000	65.229833
581.000000	65.225233
582.000000	65.255600
583.000000	65.264633
584.000000	65.259433
585.000000	65.274067
586.000000	65.296167
587.000000	65.364567
588.000000	65.396600
589.000000	65.445267
590.000000	65.496400
591.000000	65.536467
592.000000	65.577200
593.000000	65.617767
594.000000	65.608400
595.000000	65.610633
596.000000	65.559633
597.000000	65.446900
598.000000	65.352067
599.000000	65.233067
600.000000	65.090133
601.000000	64.915100
602.000000	64.762933
603.000000	64.586467
604.000000	64.392800
605.000000	64.211867
606.000000	64.030433
607.000000	63.879367
608.000000	63.731833
609.000000	63.585800
610.000000	63.454567
611.000000	63.307467
612.000000	63.191733
613.000000	63.095767
614.000000	62.943367
615.000000	62.823500
616.000000	62.700133
617.000000	62.574133
618.000000	62.502267
619.000000	62.397267
620.000000	62.261200
621.000000	62.141233
622.000000	61.988600
623.000000	61.828233
624.000000	61.611400
625.000000	61.348567
626.000000	61.048533
627.000000	60.710100
628.000000	60.303467
629.000000	59.807267
630.000000	59.309967
631.000000	58.797567
632.000000	58.220467
633.000000	57.647900
634.000000	57.045567
635.000000	56.359333
636.000000	55.701167
637.000000	55.118267
638.000000	54.523433
639.000000	53.928900
640.000000	53.369733
641.000000	52.829767
642.000000	52.351800
643.000000	51.918067
644.000000	51.500633
645.000000	51.155733
646.000000	50.824267
647.000000	50.540633
648.000000	50.369467
649.000000	50.222800
650.000000	50.109400
651.000000	50.079533
652.000000	50.041733
653.000000	50.058167
654.000000	50.142733
655.000000	50.255300
656.000000	50.353967
657.000000	50.450567
658.000000	50.635967
659.000000	50.845267
660.000000	51.073000
661.000000	51.312667
662.000000	51.543367
663.000000	51.793967
664.000000	52.085133
665.000000	52.406833
666.000000	52.711133
667.000000	52.981667
668.000000	53.280667
669.000000	53.586833
670.000000	53.860000
671.000000	54.138700
672.000000	54.406867
673.000000	54.666600
674.000000	54.907700
675.000000	55.094700
676.000000	55.233600
677.000000	55.407300
678.000000	55.570100
679.000000	55.695300
680.000000	55.760400
681.000000	55.810167
682.000000	55.890200
683.000000	55.888567
684.000000	55.852767
685.000000	55.894200
686.000000	55.913400
687.000000	55.910467
688.000000	55.896100
689.000000	55.881200
690.000000	55.871733
691.000000	55.894367
692.000000	55.918500
693.000000	55.974567
694.000000	56.105300
695.000000	56.147500
696.000000	56.206967
697.000000	56.296033
698.000000	56.382567
699.000000	56.413867
700.000000	56.519100
701.000000	56.643967
702.000000	56.675600
703.000000	56.779100
704.000000	56.843500
705.000000	56.876633
706.000000	56.921867
707.000000	57.009100
708.000000	57.101600
709.000000	57.148633
710.000000	57.252433
711.000000	57.325767
712.000000	57.367133
713.000000	57.514367
714.000000	57.655700
715.000000	57.730900
716.000000	57.834400
717.000000	58.005333
718.000000	58.195033
719.000000	58.340900
720.000000	58.467700
721.000000	58.540433
722.000000	58.766533
723.000000	58.991767
724.000000	59.152367
725.000000	59.260200
726.000000	59.470233
727.000000	59.570300
728.000000	59.654833
729.000000	59.834667
730.000000	59.987433
731.000000	60.100333
732.000000	60.137767
733.000000	60.328067
734.000000	60.434367
735.000000	60.519733
736.000000	60.645533
737.000000	60.716500
738.000000	60.776500
739.000000	60.937000
740.000000	60.942467
741.000000	61.068933
742.000000	61.164933
743.000000	61.263200
744.000000	61.387400
745.000000	61.497833
746.000000	61.726633
747.000000	61.647667
748.000000	61.807667
749.000000	61.800800
750.000000	61.992267
751.000000	62.008067
752.000000	61.969067
753.000000	62.016467
754.000000	62.096633
755.000000	62.243867
756.000000	62.265900
757.000000	62.237100
758.000000	62.328067
759.000000	62.387067
760.000000	62.457600
761.000000	62.505500
762.000000	62.569833
763.000000	62.773467
764.000000	62.718300
765.000000	62.800167
766.000000	63.007500
767.000000	63.039367
768.000000	63.143433
769.000000	63.315700
770.000000	63.311700
771.000000	63.628233
772.000000	63.648033
773.000000	63.745033
774.000000	63.801833
775.000000	63.756567
776.000000	63.964367
777.000000	64.028467
778.000000	64.150633
779.000000	64.264233
780.000000	64.454700
781.000000	64.434100
782.000000	64.472700
783.000000	64.503433
784.000000	64.688167
785.000000	64.766100
786.000000	64.830300
787.000000	65.039767
788.000000	65.013167
789.000000	65.069000
790.000000	65.298167
791.000000	65.424733
792.000000	65.354300
793.000000	65.511267
794.000000	65.440167
795.000000	65.698633
796.000000	65.703867
797.000000	65.698833
798.000000	66.000100
799.000000	65.932300
800.000000	66.126900
801.000000	66.209433
802.000000	66.159400
803.000000	66.338467
804.000000	66.386667
805.000000	66.613167
806.000000	66.798000
807.000000	66.511033
808.000000	66.508333
809.000000	66.559133
810.000000	66.788400
811.000000	67.026300
812.000000	67.060100
813.000000	67.135033
814.000000	67.147667
815.000000	67.383200
816.000000	67.271133
817.000000	67.517200
818.000000	67.460833
819.000000	67.700967
820.000000	68.024300
821.000000	67.852367
822.000000	67.879967
823.000000	67.931500
824.000000	68.128367
825.000000	68.179833
826.000000	68.185633
827.000000	68.445900
828.000000	68.628433
829.000000	68.868500
830.000000	68.882333
831.000000	68.826200
832.000000	68.891967
833.000000	69.322567
834.000000	69.208700
835.000000	69.321033
836.000000	69.151767
837.000000	69.453533
838.000000	69.649033
839.000000	69.849467
840.000000	69.803367
841.000000	70.186400
842.000000	70.019767
843.000000	70.268700
844.000000	70.555667
845.000000	70.602367
846.000000	70.695667
847.000000	70.810067
848.000000	70.720400
849.000000	70.687867
850.000000	70.857967
851.000000	71.392000
852.000000	71.035100
853.000000	71.386600
854.000000	71.518133
855.000000	71.716500
856.000000	71.502600
857.000000	71.097867
858.000000	71.438989
859.000000	71.480088
860.000000	71.515020
861.000000	71.558463
862.000000	71.630681
863.000000	71.674248
864.000000	71.704740
865.000000	71.770443
866.000000	71.807958
867.000000	71.828970
868.000000	71.866664
869.000000	71.877581
870.000000	71.931815
871.000000	71.947094
872.000000	71.950381
873.000000	71.972464
874.000000	71.999844
875.000000	71.991527
876.000000	72.011253
877.000000	72.022400
878.000000	72.016887
879.000000	72.021841
880.000000	72.033449
881.000000	72.017066
882.000000	72.010513
883.000000	72.006045
884.000000	71.999127
885.000000	71.989028
886.000000	71.983711
887.000000	71.958704
888.000000	71.951512
889.000000	71.935880
890.000000	71.908057
891.000000	71.896267
892.000000	71.861719
893.000000	71.828027
894.000000	71.783969
895.000000	71.733526
896.000000	71.722826
897.000000	71.727584
898.000000	71.718365
899.000000	71.719714
900.000000	71.726264
901.000000	71.723195
902.000000	71.708204
903.000000	71.701831
904.000000	71.688941
905.000000	71.679030
906.000000	71.668353
907.000000	71.661293
908.000000	71.655676
909.000000	71.646212
910.000000	71.648874
911.000000	71.644746
912.000000	71.638677
913.000000	71.640106
914.000000	71.635888
915.000000	71.611736
916.000000	71.596935
917.000000	71.581610
918.000000	71.568268
919.000000	71.552796
920.000000	71.531008
921.000000	71.510684
922.000000	71.478430
923.000000	71.447271
924.000000	71.426371
925.000000	71.390532
926.000000	71.362042
927.000000	71.325166
928.000000	71.285332
929.000000	71.251512
930.000000	71.213369
931.000000	71.178683
932.000000	71.139617
933.000000	71.095355
934.000000	71.052585
935.000000	71.011831
936.000000	70.960536
937.000000	70.905811
938.000000	70.859160
939.000000	70.810405
940.000000	70.755164
941.000000	70.708713
942.000000	70.662895
943.000000	70.600557
944.000000	70.551081
945.000000	70.498773
946.000000	70.432534
947.000000	70.368501
948.000000	70.308253
949.000000	70.259312
950.000000	70.196429
951.000000	70.111835
952.000000	70.037892
953.000000	69.967811
954.000000	69.898052
955.000000	69.822240
956.000000	69.746396
957.000000	69.672899
958.000000	69.587644
959.000000	69.507966
960.000000	69.438145
961.000000	69.358275
962.000000	69.268479
963.000000	69.178800
964.000000	69.100697
965.000000	69.027232
966.000000	68.953066
967.000000	68.870023
968.000000	68.786319
969.000000	68.718302
970.000000	68.648155
971.000000	68.573988
972.000000	68.489681
973.000000	68.417069
974.000000	68.349253
975.000000	68.276124
976.000000	68.209031
977.000000	68.141511
978.000000	68.065561
979.000000	67.995639
980.000000	67.926698
981.000000	67.863022
982.000000	67.803339
983.000000	67.731435
984.000000	67.667776
985.000000	67.612195
986.000000	67.554564
987.000000	67.494637
988.000000	67.447122
989.000000	67.399916
990.000000	67.349122
991.000000	67.315461
992.000000	67.277556
993.000000	67.232488
994.000000	67.181296
995.000000	67.146837
996.000000	67.124276
997.000000	67.091283
998.000000	67.058188
999.000000	67.018727
1000.000000	66.983419
1001.000000	66.960969
1002.000000	66.937895
1003.000000	66.907656
1004.000000	66.870296
1005.000000	66.854310
1006.000000	66.831101
1007.000000	66.798578
1008.000000	66.783130
1009.000000	66.755906
1010.000000	66.734062
1011.000000	66.720895
1012.000000	66.710961
1013.000000	66.699986
1014.000000	66.703109
1015.000000	66.695079
1016.000000	66.691659
1017.000000	66.704242
1018.000000	66.718094
1019.000000	66.718159
1020.000000	66.735597
1021.000000	66.741764
1022.000000	66.750495
1023.000000	66.765670
1024.000000	66.773296
1025.000000	66.797837
1026.000000	66.818397
1027.000000	66.838724
1028.000000	66.844976
1029.000000	66.862381
1030.000000	66.879130
1031.000000	66.892490
1032.000000	66.916469
1033.000000	66.929505
1034.000000	66.939363
1035.000000	66.954966
1036.000000	66.971951
1037.000000	66.980295
1038.000000	67.003914
1039.000000	67.009584
1040.000000	67.022284
1041.000000	67.031597
1042.000000	67.050955
1043.000000	67.070671
1044.000000	67.081934
1045.000000	67.096319
1046.000000	67.120889
1047.000000	67.138676
1048.000000	67.163580
1049.000000	67.177705
1050.000000	67.210863
1051.000000	67.228885
1052.000000	67.258685
1053.000000	67.294786
1054.000000	67.330033
1055.000000	67.359425
1056.000000	67.396694
1057.000000	67.432151
1058.000000	67.485963
1059.000000	67.501541
1060.000000	67.553515
1061.000000	67.588114
1062.000000	67.620931
1063.000000	67.670234
1064.000000	67.699789
1065.000000	67.732951
1066.000000	67.774132
1067.000000	67.810764
1068.000000	67.845024
1069.000000	67.891813
1070.000000	67.927008
1071.000000	67.963932
1072.000000	68.012407
1073.000000	68.029897
1074.000000	68.073360
1075.000000	68.119223
1076.000000	68.158601
1077.000000	68.175190
1078.000000	68.221108
1079.000000	68.245502
1080.000000	68.291573
1081.000000	68.320836
1082.000000	68.361006
1083.000000	68.377713
1084.000000	68.425915
1085.000000	68.461498
1086.000000	68.492949
1087.000000	68.525012
1088.000000	68.542176
1089.000000	68.572073
1090.000000	68.592831
1091.000000	68.625778
1092.000000	68.638761
1093.000000	68.669389
1094.000000	68.687849
1095.000000	68.701627
1096.000000	68.721629
1097.000000	68.732510
1098.000000	68.745636
1099.000000	68.755236
1100.000000	68.755558
1101.000000	68.754959
1102.000000	68.765103
1103.000000	68.769859
1104.000000	68.773331
1105.000000	68.775902
1106.000000	68.769574
1107.000000	68.771196
1108.000000	68.778139
1109.000000	68.783829
1110.000000	68.766968
1111.000000	68.774734
1112.000000	68.765161
1113.000000	68.761298
1114.000000	68.765734
1115.000000	68.763065
1116.000000	68.768906
1117.000000	68.744639
1118.000000	68.715190
1119.000000	68.698878
1120.000000	68.676612
1121.000000	68.628897
1122.000000	68.585993
1123.000000	68.532743
1124.000000	68.444533
1125.000000	68.367973
1126.000000	68.264830
1127.000000	68.156661
1128.000000	68.014872
1129.000000	67.854885
1130.000000	67.656399
1131.000000	67.452197
1132.000000	67.230306
1133.000000	67.028359
1134.000000	66.771325
1135.000000	66.484208
1136.000000	66.202615
1137.000000	65.927372
1138.000000	65.676415
1139.000000	65.436862
1140.000000	65.200201
1141.000000	64.976684
1142.000000	64.779543
1143.000000	64.587920
1144.000000	64.428566
1145.000000	64.298590
1146.000000	64.184635
1147.000000	64.096163
1148.000000	64.031899
1149.000000	63.968309
1150.000000	63.898633
1151.000000	63.826355
1152.000000	63.739091
1153.000000	63.622034
1154.000000	63.479495
1155.000000	63.310467
1156.000000	63.136012
1157.000000	62.933444
1158.000000	62.727729
1159.000000	62.497889
1160.000000	62.269260
1161.000000	62.040887
1162.000000	61.812683
1163.000000	61.576530
1164.000000	61.346376
1165.000000	61.123451
1166.000000	60.910985
1167.000000	60.684835
1168.000000	60.478342
1169.000000	60.274497
1170.000000	60.079090
1171.000000	59.888311
1172.000000	59.699337
1173.000000	59.522943
1174.000000	59.346712
1175.000000	59.160434
1176.000000	58.966351
1177.000000	58.746112
1178.000000	58.501787
1179.000000	58.242488
1180.000000	57.976920
1181.000000	57.731537
1182.000000	57.511011
1183.000000	57.340813
1184.000000	57.252020
1185.000000	57.235799
1186.000000	57.286355
1187.000000	57.386400
1188.000000	57.548623
1189.000000	57.758919
1190.000000	57.982913
1191.000000	58.223323
1192.000000	58.451111
1193.000000	58.643986
1194.000000	58.811499
1195.000000	58.951739
1196.000000	59.062918
1197.000000	59.153174
1198.000000	59.224812
1199.000000	59.274899
1200.000000	59.324336
1201.000000	59.367906
1202.000000	59.403867
1203.000000	59.451837
1204.000000	59.486083
1205.000000	59.525590
1206.000000	59.588960
1207.000000	59.649211
1208.000000	59.718786
1209.000000	59.793694
1210.000000	59.867800
1211.000000	59.941938
1212.000000	60.020578
1213.000000	60.098830
1214.000000	60.174983
1215.000000	60.253180
1216.000000	60.329704
1217.000000	60.409130
1218.000000	60.493433
1219.000000	60.588264
1220.000000	60.676262
1221.000000	60.769228
1222.000000	60.870021
1223.000000	60.961374
1224.000000	61.052085
1225.000000	61.145694
1226.000000	61.242443
1227.000000	61.337038
1228.000000	61.425616
1229.000000	61.518603
1230.000000	61.608213
1231.000000	61.699265
1232.000000	61.793645
1233.000000	61.882761
1234.000000	61.969014
1235.000000	62.050874
1236.000000	62.129474
1237.000000	62.206300
1238.000000	62.287101
1239.000000	62.366846
1240.000000	62.441628
1241.000000	62.518732
1242.000000	62.596061
1243.000000	62.672586
1244.000000	62.742679
1245.000000	62.796999
1246.000000	62.869918
1247.000000	62.940209
1248.000000	62.994905
1249.000000	63.042299
1250.000000	63.091353
1251.000000	63.130949
1252.000000	63.178751
1253.000000	63.218820
1254.000000	63.246746
1255.000000	63.277005
1256.000000	63.303484
1257.000000	63.327647
1258.000000	63.348779
1259.000000	63.370585
1260.000000	63.390457
1261.000000	63.407885
1262.000000	63.429492
1263.000000	63.452032
1264.000000	63.464392
1265.000000	63.476940
1266.000000	63.490731
1267.000000	63.506340
1268.000000	63.528976
1269.000000	63.547309
1270.000000	63.568474
1271.000000	63.576627
1272.000000	63.589856
1273.000000	63.612429
1274.000000	63.633824
1275.000000	63.664772
1276.000000	63.684800
1277.000000	63.715055
1278.000000	63.751301
1279.000000	63.785171
1280.000000	63.817544
1281.000000	63.859679
1282.000000	63.894940
1283.000000	63.930535
1284.000000	63.967449
1285.000000	63.993820
1286.000000	64.022768
1287.000000	64.048055
1288.000000	64.069864
1289.000000	64.078340
1290.000000	64.095346
1291.000000	64.101923
1292.000000	64.109495
1293.000000	64.109384
1294.000000	64.108475
1295.000000	64.094920
1296.000000	64.084122
1297.000000	64.064114
1298.000000	64.052490
1299.000000	64.028466
1300.000000	64.003262
1301.000000	63.981978
1302.000000	63.955494
1303.000000	63.915316
1304.000000	63.879820
1305.000000	63.848035
1306.000000	63.798372
1307.000000	63.747310
1308.000000	63.680943
1309.000000	63.625918
1310.000000	63.558389
1311.000000	63.478275
1312.000000	63.408965
1313.000000	63.326960
1314.000000	63.254684
1315.000000	63.165288
1316.000000	63.061998
1317.000000	62.967967
1318.000000	62.878912
1319.000000	62.779101
1320.000000	62.674929
1321.000000	62.578959
1322.000000	62.464706
1323.000000	62.353180
1324.000000	62.229909
1325.000000	62.100454
1326.000000	61.975439
1327.000000	61.835178
1328.000000	61.703747
1329.000000	61.541914
1330.000000	61.396779
1331.000000	61.239403
1332.000000	61.072592
1333.000000	60.894566
1334.000000	60.717810
1335.000000	60.541523
1336.000000	60.353988
1337.000000	60.168246
1338.000000	59.974685
1339.000000	59.767932
1340.000000	59.564129
1341.000000	59.337192
1342.000000	59.134783
1343.000000	58.906722
1344.000000	58.671616
1345.000000	58.417429
1346.000000	58.204818
1347.000000	57.971018
1348.000000	57.705491
1349.000000	57.426938
1350.000000	57.129547
1351.000000	56.813887
1352.000000	56.482506
1353.000000	56.281422
1354.000000	56.034988
1355.000000	55.829687
1356.000000	55.666557
1357.000000	55.564968
1358.000000	55.474618
1359.000000	55.379789
1360.000000	55.394111
1361.000000	55.289700
1362.000000	55.169835
1363.000000	55.012445
1364.000000	54.883210
1365.000000	54.698242
1366.000000	54.572969
1367.000000	54.413304
1368.000000	54.191592
1369.000000	53.995840
1370.000000	53.803199
1371.000000	53.564225
1372.000000	53.353582
1373.000000	53.109845
1374.000000	52.945184
1375.000000	52.786199
1376.000000	52.666736
1377.000000	52.504251
1378.000000	52.399102
1379.000000	52.221213
1380.000000	52.068588
1381.000000	51.805047
1382.000000	51.492795
1383.000000	51.105028
1384.000000	50.704267
1385.000000	50.333220
1386.000000	49.986758
1387.000000	49.672963
1388.000000	49.305487
1389.000000	48.973896
1390.000000	48.725637
1391.000000	48.452166
1392.000000	48.176234
1393.000000	47.953138
1394.000000	47.758550
1395.000000	47.485773
1396.000000	47.120853
1397.000000	46.817758
1398.000000	46.600056
1399.000000	46.366803
1400.000000	46.066437
1401.000000	45.649806
1402.000000	45.306462
1403.000000	44.986522
1404.000000	44.658140
1405.000000	44.325922
1406.000000	44.000403
1407.000000	43.695662
1408.000000	43.361760
1409.000000	43.048659
1410.000000	42.690114
1411.000000	42.392628
1412.000000	42.181278
1413.000000	41.943035
1414.000000	41.678308
1415.000000	41.385861
1416.000000	41.131115
1417.000000	40.933782
1418.000000	40.726887
1419.000000	40.511914
1420.000000	40.280274
1421.000000	40.057017
1422.000000	39.886522
1423.000000	39.691894
1424.000000	39.499583
1425.000000	39.312037
1426.000000	39.126158
1427.000000	38.978999
1428.000000	38.823035
1429.000000	38.680955
1430.000000	38.555400
1431.000000	38.442397
1432.000000	38.320432
1433.000000	38.187024
1434.000000	38.061726
1435.000000	37.944777
1436.000000	37.843156
1437.000000	37.754592
1438.000000	37.639452
1439.000000	37.540210
1440.000000	37.440756
1441.000000	37.351016
1442.000000	37.250095
1443.000000	37.165513
1444.000000	37.091133
1445.000000	37.003001
1446.000000	36.899365
1447.000000	36.787131
1448.000000	36.703776
1449.000000	36.649013
1450.000000	36.578756
1451.000000	36.494216
1452.000000	36.408595
1453.000000	36.323548
1454.000000	36.251102
1455.000000	36.170087
1456.000000	36.096133
1457.000000	36.028641
1458.000000	35.961774
1459.000000	35.893265
1460.000000	35.835661
1461.000000	35.784463
1462.000000	35.726302
1463.000000	35.678303
1464.000000	35.635229
1465.000000	35.590262
1466.000000	35.545706
1467.000000	35.499859
1468.000000	35.458194
1469.000000	35.433591
1470.000000	35.408661
1471.000000	35.374351
1472.000000	35.340906
1473.000000	35.295849
1474.000000	35.249256
1475.000000	35.220987
1476.000000	35.203413
1477.000000	35.183994
1478.000000	35.175377
1479.000000	35.167653
1480.000000	35.156217
1481.000000	35.145519
1482.000000	35.141592
1483.000000	35.140141
1484.000000	35.142707
1485.000000	35.155153
1486.000000	35.169637
1487.000000	35.178769
1488.000000	35.186463
1489.000000	35.195295
1490.000000	35.203893
1491.000000	35.209672
1492.000000	35.223157
1493.000000	35.241286
1494.000000	35.262802
1495.000000	35.285683
1496.000000	35.311518
1497.000000	35.343189
1498.000000	35.379062
1499.000000	35.415225
1500.000000	35.459210
1501.000000	35.508972
1502.000000	35.560818
1503.000000	35.614132
1504.000000	35.670293
1505.000000	35.725488
1506.000000	35.782214
1507.000000	35.841800
1508.000000	35.900044
1509.000000	35.962422
1510.000000	36.022436
1511.000000	36.077146
1512.000000	36.139362
1513.000000	36.195711
1514.000000	36.249361
1515.000000	36.305813
1516.000000	36.362653
1517.000000	36.417314
1518.000000	36.467027
1519.000000	36.515718
1520.000000	36.565436
1521.000000	36.623148
1522.000000	36.673493
1523.000000	36.711644
1524.000000	36.757099
1525.000000	36.808328
1526.000000	36.852890
1527.000000	36.898012
1528.000000	36.939725
1529.000000	36.980301
1530.000000	37.019160
1531.000000	37.056835
1532.000000	37.098445
1533.000000	37.133925
1534.000000	37.171091
1535.000000	37.205386
1536.000000	37.231768
1537.000000	37.260031
1538.000000	37.286946
1539.000000	37.312646
1540.000000	37.336458
1541.000000	37.370597
1542.000000	37.398320
1543.000000	37.435759
1544.000000	37.480621
1545.000000	37.533321
1546.000000	37.578410
1547.000000	37.619922
1548.000000	37.674319
1549.000000	37.730016
1550.000000	37.785400
1551.000000	37.839139
1552.000000	37.890534
1553.000000	37.933083
1554.000000	37.974760
1555.000000	38.012211
1556.000000	38.044302
1557.000000	38.076947
1558.000000	38.105170
1559.000000	38.128863
1560.000000	38.139093
1561.000000	38.148361
1562.000000	38.153575
1563.000000	38.164011
1564.000000	38.168790
1565.000000	38.162578
1566.000000	38.161376
1567.000000	38.159235
1568.000000	38.155587
1569.000000	38.166480
1570.000000	38.163201
1571.000000	38.172456
1572.000000	38.182806
1573.000000	38.198204
1574.000000	38.212600
1575.000000	38.230572
1576.000000	38.251660
1577.000000	38.272872
1578.000000	38.307151
1579.000000	38.345634
1580.000000	38.381285
1581.000000	38.418256
1582.000000	38.455191
1583.000000	38.497887
1584.000000	38.541811
1585.000000	38.597466
1586.000000	38.649567
1587.000000	38.693372
1588.000000	38.736992
1589.000000	38.799413
1590.000000	38.855541
1591.000000	38.905367
1592.000000	38.965904
1593.000000	39.017074
1594.000000	39.074614
1595.000000	39.131728
1596.000000	39.203412
1597.000000	39.265179
1598.000000	39.332580
1599.000000	39.390149
1600.000000	39.467646
1601.000000	39.528859
1602.000000	39.603347
1603.000000	39.661280
1604.000000	39.728157
1605.000000	39.792603
1606.000000	39.864056
1607.000000	39.926691
1608.000000	39.986199
1609.000000	40.055645
1610.000000	40.105648
1611.000000	40.163323
1612.000000	40.216297
1613.000000	40.255671
1614.000000	40.321910
1615.000000	40.363733
1616.000000	40.419459
1617.000000	40.478203
1618.000000	40.522026
1619.000000	40.575532
1620.000000	40.621576
1621.000000	40.677612
1622.000000	40.728042
1623.000000	40.775604
1624.000000	40.838800
1625.000000	40.888512
1626.000000	40.937253
1627.000000	41.006474
1628.000000	41.060938
1629.000000	41.113823
1630.000000	41.165232
1631.000000	41.214659
1632.000000	41.265098
1633.000000	41.310723
1634.000000	41.353276
1635.000000	41.388886
1636.000000	41.422737
1637.000000	41.456189
1638.000000	41.485547
1639.000000	41.507315
1640.000000	41.537942
1641.000000	41.563234
1642.000000	41.598432
1643.000000	41.619135
1644.000000	41.636273
1645.000000	41.663004
1646.000000	41.689510
1647.000000	41.707901
1648.000000	41.701160
1649.000000	41.711800
1650.000000	41.724623
1651.000000	41.721137
1652.000000	41.699511
1653.000000	41.687689
1654.000000	41.668865
1655.000000	41.640447
1656.000000	41.599918
1657.000000	41.552696
1658.000000	41.483215
1659.000000	41.410903
1660.000000	41.327454
1661.000000	41.239684
1662.000000	41.142455
1663.000000	41.035247
1664.000000	40.922947
1665.000000	40.805816
1666.000000	40.673557
1667.000000	40.535650
1668.000000	40.402720
1669.000000	40.229635
1670.000000	40.041164
1671.000000	39.850569
1672.000000	39.630954
1673.000000	39.382985
1674.000000	39.117520
1675.000000	38.840623
1676.000000	38.516696
1677.000000	38.180002
1678.000000	37.828168
1679.000000	37.456709
1680.000000	37.117265
1681.000000	36.809340
1682.000000	36.557741
1683.000000	36.365595
1684.000000	36.215621
1685.000000	36.121292
1686.000000	36.039618
1687.000000	35.975359
1688.000000	35.920395
1689.000000	35.861160
1690.000000	35.808465
1691.000000	35.752181
1692.000000	35.712986
1693.000000	35.688463
1694.000000	35.693723
1695.000000	35.722958
1696.000000	35.762307
1697.000000	35.830597
1698.000000	35.907810
1699.000000	36.002594
1700.000000	36.082478
1701.000000	36.154445
1702.000000	36.205675
1703.000000	36.242089
1704.000000	36.263739
1705.000000	36.282627
1706.000000	36.267274
1707.000000	36.251338
1708.000000	36.229372
1709.000000	36.170550
1710.000000	36.098635
1711.000000	36.026661
1712.000000	35.930022
1713.000000	35.808892
1714.000000	35.680679
1715.000000	35.554269
1716.000000	35.426365
1717.000000	35.294439
1718.000000	35.180914
1719.000000	35.081263
1720.000000	34.990061
1721.000000	34.917264
1722.000000	34.858822
1723.000000	34.801780
1724.000000	34.772391
1725.000000	34.742961
1726.000000	34.711459
1727.000000	34.668574
1728.000000	34.623221
1729.000000	34.597898
1730.000000	34.573231
1731.000000	34.563805
1732.000000	34.572279
1733.000000	34.605098
1734.000000	34.661935
1735.000000	34.745135
1736.000000	34.850529
1737.000000	34.970078
1738.000000	35.107123
1739.000000	35.252818
1740.000000	35.395630
1741.000000	35.547002
1742.000000	35.677608
1743.000000	35.797598
1744.000000	35.894356
1745.000000	35.971875
1746.000000	36.048690
1747.000000	36.113539
1748.000000	36.159210
1749.000000	36.195127
1750.000000	36.213507
1751.000000	36.216274
1752.000000	36.218095
1753.000000	36.208995
1754.000000	36.178463
1755.000000	36.158127
1756.000000	36.125215
1757.000000	36.083342
1758.000000	36.051328
1759.000000	36.017140
1760.000000	35.986281
1761.000000	35.978436
1762.000000	35.986225
1763.000000	35.996411
1764.000000	36.030499
1765.000000	36.078879
1766.000000	36.132511
1767.000000	36.203340
1768.000000	36.284033
1769.000000	36.354947
1770.000000	36.443402
1771.000000	36.527044
1772.000000	36.602561
1773.000000	36.676230
1774.000000	36.756757
1775.000000	36.832371
1776.000000	36.896707
1777.000000	36.960691
1778.000000	37.022486
1779.000000	37.079519
1780.000000	37.131594
1781.000000	37.170847
1782.000000	37.215900
1783.000000	37.265374
1784.000000	37.308493
1785.000000	37.349696
1786.000000	37.384351
1787.000000	37.416865
1788.000000	37.450549
1789.000000	37.494176
1790.000000	37.529347
1791.000000	37.556053
1792.000000	37.592405
1793.000000	37.633049
1794.000000	37.671391
1795.000000	37.710277
1796.000000	37.746123
1797.000000	37.781216
1798.000000	37.819986
1799.000000	37.866183
1800.000000	37.924329
1801.000000	37.963196
1802.000000	37.989548
1803.000000	38.020921
1804.000000	38.054015
1805.000000	38.098105
1806.000000	38.139803
1807.000000	38.168865
1808.000000	38.190144
1809.000000	38.224886
1810.000000	38.269875
1811.000000	38.298657
1812.000000	38.317980
1813.000000	38.329563
1814.000000	38.345687
1815.000000	38.358134
1816.000000	38.363397
1817.000000	38.373794
1818.000000	38.412238
1819.000000	38.458367
1820.000000	38.473190
1821.000000	38.463040
1822.000000	38.451143
1823.000000	38.449867
1824.000000	38.481538
1825.000000	38.534751
1826.000000	38.566503
1827.000000	38.611223
1828.000000	38.666538
1829.000000	38.713028
1830.000000	38.749573
1831.000000	38.785960
1832.000000	38.828226
1833.000000	38.886736
1834.000000	38.959509
1835.000000	39.013481
1836.000000	39.036502
1837.000000	39.065508
1838.000000	39.095789
1839.000000	39.131230
1840.000000	39.142722
1841.000000	39.138527
1842.000000	39.106667
1843.000000	39.100616
1844.000000	39.140408
1845.000000	39.175755
1846.000000	39.223894
1847.000000	39.231533
1848.000000	39.208437
1849.000000	39.181758
1850.000000	39.154448
1851.000000	39.132488
1852.000000	39.112674
1853.000000	39.116774
1854.000000	39.062319
1855.000000	39.023755
1856.000000	38.992472
1857.000000	38.933426
1858.000000	38.847756
1859.000000	38.755770
1860.000000	38.647782
1861.000000	38.520620
1862.000000	38.389195
1863.000000	38.288809
1864.000000	38.178391
1865.000000	38.061714
1866.000000	37.948757
1867.000000	37.801392
1868.000000	37.609568
1869.000000	37.365497
1870.000000	37.124184
1871.000000	36.834162
1872.000000	36.541184
1873.000000	36.202526
1874.000000	35.849690
1875.000000	35.505867
1876.000000	35.153643
1877.000000	34.776976
1878.000000	34.371948
1879.000000	33.987265
1880.000000	33.598313
1881.000000	33.153359
1882.000000	32.729153
1883.000000	32.280843
1884.000000	31.774808
1885.000000	31.314758
1886.000000	30.878984
1887.000000	30.455605
1888.000000	30.009256
1889.000000	29.615070
1890.000000	29.153990
1891.000000	28.675397
1892.000000	28.189358
1893.000000	27.773990
1894.000000	27.397314
1895.000000	27.039806
1896.000000	26.688469
1897.000000	26.300658
1898.000000	25.895798
1899.000000	25.456306
1900.000000	25.045694
1901.000000	24.685565
1902.000000	24.335614
1903.000000	23.991698
1904.000000	23.643413
1905.000000	23.264096
1906.000000	22.909848
1907.000000	22.584345
1908.000000	22.322891
1909.000000	22.089718
1910.000000	21.852461
1911.000000	21.629054
1912.000000	21.344238
1913.000000	21.062398
1914.000000	20.797623
1915.000000	20.602946
1916.000000	20.431694
1917.000000	20.241691
1918.000000	20.053679
1919.000000	19.900811
1920.000000	19.704284
1921.000000	19.511958
1922.000000	19.352837
1923.000000	19.229035
1924.000000	19.105700
1925.000000	18.997966
1926.000000	18.897478
1927.000000	18.783042
1928.000000	18.693806
1929.000000	18.600513
1930.000000	18.529501
1931.000000	18.469589
1932.000000	18.421736
1933.000000	18.388287
1934.000000	18.351638
1935.000000	18.341047
1936.000000	18.326651
1937.000000	18.319164
1938.000000	18.314112
1939.000000	18.317336
1940.000000	18.332691
1941.000000	18.358938
1942.000000	18.389331
1943.000000	18.427262
1944.000000	18.463048
1945.000000	18.503572
1946.000000	18.560094
1947.000000	18.624638
1948.000000	18.673839
1949.000000	18.732349
1950.000000	18.797680
1951.000000	18.860149
1952.000000	18.944420
1953.000000	19.021871
1954.000000	19.087082
1955.000000	19.166284
1956.000000	19.258290
1957.000000	19.335347
1958.000000	19.412447
1959.000000	19.496666
1960.000000	19.586582
1961.000000	19.664045
1962.000000	19.745362
1963.000000	19.818478
1964.000000	19.890701
1965.000000	19.981203
1966.000000	20.063133
1967.000000	20.154217
1968.000000	20.252695
1969.000000	20.327999
1970.000000	20.415662
1971.000000	20.506706
1972.000000	20.599857
1973.000000	20.685750
1974.000000	20.775709
1975.000000	20.873728
1976.000000	20.968191
1977.000000	21.061059
1978.000000	21.151424
1979.000000	21.250391
1980.000000	21.341754
1981.000000	21.451210
1982.000000	21.543578
1983.000000	21.636999
1984.000000	21.737924
1985.000000	21.831515
1986.000000	21.931837
1987.000000	22.024342
1988.000000	22.114693
1989.000000	22.209939
1990.000000	22.296307
1991.000000	22.386266
1992.000000	22.472154
1993.000000	22.561580
1994.000000	22.641748
1995.000000	22.717926
1996.000000	22.797826
1997.000000	22.868980
1998.000000	22.930477
1999.000000	23.003561
