PE UV       SUBTECH     SPECTRUM    ASCII       PEDS        4.00        
   -1
CICIMAUCR0244-3.Sample.ASC
24/06/21
11:45:11.00
24/06/21
11:45:11.00
Vinicio Soto Monge
C. cupreomarginata. Sex M. Dorsal
250,000000
1
Lambda 1050
1050L1511233
PerkinElmer UV WinLab 6.3.2.0749 / 2.02.05 Lambda 900 UV/VIS/NIR, Aug  7 2015 09:38:08

0
0
3350/servo 860,8/2
0
0
UV/VIS
1
1
1
DoubleDePol,CommonBeamDepol,RBeamAtt,SBeamAtt,60mm sphere, WB InGaAs Detector
0
0
0
0
Program
Program
3350/servo 860,8/2
3350/0,2 860,8/0,2
3350/0,2 860,8/0,2
0
15.00
 
 
 
0
 
860,8
319,2
860,8
Front
100
on
S:100 R:100
0
0
0
0
 
0
 
 
 
0
 
 
0
0
0
0
0
 
 
 
 
0
0


0
0
#HDR
-1
-1
#GR
nm
%R
1.0
0.0
2500,000000
-1,000000
2251
8
73,398900
5,496100
#DATA
250.000000	6.215067
251.000000	6.208167
252.000000	6.172000
253.000000	6.180900
254.000000	6.156867
255.000000	6.164233
256.000000	6.148800
257.000000	6.106000
258.000000	6.079233
259.000000	6.069667
260.000000	6.067800
261.000000	6.042067
262.000000	6.011200
263.000000	5.973233
264.000000	5.957933
265.000000	5.929933
266.000000	5.913500
267.000000	5.880700
268.000000	5.872033
269.000000	5.863400
270.000000	5.832533
271.000000	5.815200
272.000000	5.783367
273.000000	5.748133
274.000000	5.735100
275.000000	5.734000
276.000000	5.746533
277.000000	5.740033
278.000000	5.706300
279.000000	5.679067
280.000000	5.683900
281.000000	5.659700
282.000000	5.659300
283.000000	5.665933
284.000000	5.646533
285.000000	5.650667
286.000000	5.634600
287.000000	5.609300
288.000000	5.633833
289.000000	5.625933
290.000000	5.597167
291.000000	5.592367
292.000000	5.575633
293.000000	5.570933
294.000000	5.588600
295.000000	5.589000
296.000000	5.571067
297.000000	5.572267
298.000000	5.541267
299.000000	5.535967
300.000000	5.554267
301.000000	5.551767
302.000000	5.541733
303.000000	5.548200
304.000000	5.541267
305.000000	5.526733
306.000000	5.525100
307.000000	5.524167
308.000000	5.531300
309.000000	5.520933
310.000000	5.519367
311.000000	5.529733
312.000000	5.522367
313.000000	5.530933
314.000000	5.554500
315.000000	5.546933
316.000000	6.082000
317.000000	6.609767
318.000000	6.328900
319.000000	6.287367
320.000000	6.135900
321.000000	6.098600
322.000000	6.291433
323.000000	6.038033
324.000000	5.764000
325.000000	5.887033
326.000000	6.166967
327.000000	6.010033
328.000000	5.898267
329.000000	5.939367
330.000000	5.888000
331.000000	5.770167
332.000000	5.901000
333.000000	6.000967
334.000000	5.856200
335.000000	5.737167
336.000000	5.713867
337.000000	5.746567
338.000000	5.696700
339.000000	5.624800
340.000000	5.689300
341.000000	5.641567
342.000000	5.593900
343.000000	5.689033
344.000000	5.726267
345.000000	5.586367
346.000000	5.544867
347.000000	5.648100
348.000000	5.610800
349.000000	5.660133
350.000000	5.752900
351.000000	5.714067
352.000000	5.618367
353.000000	5.604900
354.000000	5.619833
355.000000	5.631433
356.000000	5.650733
357.000000	5.665300
358.000000	5.676233
359.000000	5.684633
360.000000	5.605833
361.000000	5.641100
362.000000	5.712700
363.000000	5.678667
364.000000	5.720700
365.000000	5.682367
366.000000	5.648367
367.000000	5.661067
368.000000	5.561200
369.000000	5.534467
370.000000	5.654867
371.000000	5.648367
372.000000	5.518633
373.000000	5.478500
374.000000	5.421700
375.000000	5.568333
376.000000	5.710233
377.000000	5.741000
378.000000	5.751633
379.000000	5.759867
380.000000	5.763333
381.000000	5.776767
382.000000	5.792300
383.000000	5.803333
384.000000	5.809900
385.000000	5.822700
386.000000	5.843533
387.000000	5.849100
388.000000	5.857467
389.000000	5.879433
390.000000	5.888233
391.000000	5.902000
392.000000	5.917933
393.000000	5.933267
394.000000	5.942900
395.000000	5.953267
396.000000	5.969400
397.000000	6.012600
398.000000	6.027633
399.000000	6.046267
400.000000	6.064867
401.000000	6.093600
402.000000	6.121467
403.000000	6.157667
404.000000	6.196667
405.000000	6.226900
406.000000	6.280233
407.000000	6.322467
408.000000	6.382233
409.000000	6.441333
410.000000	6.517200
411.000000	6.594267
412.000000	6.686600
413.000000	6.772433
414.000000	6.875067
415.000000	6.983900
416.000000	7.107567
417.000000	7.245467
418.000000	7.385467
419.000000	7.555433
420.000000	7.740700
421.000000	7.927700
422.000000	8.134800
423.000000	8.353667
424.000000	8.584967
425.000000	8.836167
426.000000	9.071933
427.000000	9.329867
428.000000	9.605800
429.000000	9.887833
430.000000	10.192467
431.000000	10.485200
432.000000	10.797933
433.000000	11.129867
434.000000	11.466767
435.000000	11.802567
436.000000	12.151667
437.000000	12.496833
438.000000	12.840733
439.000000	13.192533
440.000000	13.554300
441.000000	13.907900
442.000000	14.266933
443.000000	14.600400
444.000000	14.936433
445.000000	15.268500
446.000000	15.599367
447.000000	15.907533
448.000000	16.219867
449.000000	16.512933
450.000000	16.813200
451.000000	17.105733
452.000000	17.381200
453.000000	17.661933
454.000000	17.930167
455.000000	18.201700
456.000000	18.421200
457.000000	18.672867
458.000000	18.910467
459.000000	19.142433
460.000000	19.369233
461.000000	19.569400
462.000000	19.794933
463.000000	20.008467
464.000000	20.203033
465.000000	20.410467
466.000000	20.599300
467.000000	20.803300
468.000000	20.994967
469.000000	21.177300
470.000000	21.365033
471.000000	21.579667
472.000000	21.764333
473.000000	21.943533
474.000000	22.114600
475.000000	22.284167
476.000000	22.473500
477.000000	22.631633
478.000000	22.809467
479.000000	22.943033
480.000000	23.063200
481.000000	23.187767
482.000000	23.312533
483.000000	23.411533
484.000000	23.471933
485.000000	23.536200
486.000000	23.552833
487.000000	23.566033
488.000000	23.572300
489.000000	23.560400
490.000000	23.553900
491.000000	23.549000
492.000000	23.527833
493.000000	23.529800
494.000000	23.507267
495.000000	23.543500
496.000000	23.606200
497.000000	23.712633
498.000000	23.887267
499.000000	24.069233
500.000000	24.347733
501.000000	24.632700
502.000000	25.029033
503.000000	25.486233
504.000000	25.964633
505.000000	26.518700
506.000000	27.119000
507.000000	27.742867
508.000000	28.403667
509.000000	29.076267
510.000000	29.803900
511.000000	30.509867
512.000000	31.238367
513.000000	31.992467
514.000000	32.758400
515.000000	33.504500
516.000000	34.243900
517.000000	34.980233
518.000000	35.701100
519.000000	36.404300
520.000000	37.133900
521.000000	37.867933
522.000000	38.614767
523.000000	39.355700
524.000000	40.114900
525.000000	40.861667
526.000000	41.642600
527.000000	42.410333
528.000000	43.216500
529.000000	44.051800
530.000000	44.933633
531.000000	45.825100
532.000000	46.754267
533.000000	47.708433
534.000000	48.682133
535.000000	49.669367
536.000000	50.685500
537.000000	51.705033
538.000000	52.742033
539.000000	53.766300
540.000000	54.835600
541.000000	55.898067
542.000000	56.913167
543.000000	57.920267
544.000000	58.890567
545.000000	59.812633
546.000000	60.676267
547.000000	61.504500
548.000000	62.299633
549.000000	63.049033
550.000000	63.785767
551.000000	64.433467
552.000000	65.023867
553.000000	65.612067
554.000000	66.131800
555.000000	66.574300
556.000000	66.987567
557.000000	67.332000
558.000000	67.670233
559.000000	67.955967
560.000000	68.300300
561.000000	68.627167
562.000000	68.957900
563.000000	69.272433
564.000000	69.580267
565.000000	69.861867
566.000000	70.114567
567.000000	70.318233
568.000000	70.481300
569.000000	70.609133
570.000000	70.702533
571.000000	70.738933
572.000000	70.725100
573.000000	70.684500
574.000000	70.639133
575.000000	70.595933
576.000000	70.551833
577.000000	70.525667
578.000000	70.524533
579.000000	70.551467
580.000000	70.609167
581.000000	70.700100
582.000000	70.799067
583.000000	70.896067
584.000000	71.003500
585.000000	71.095200
586.000000	71.171933
587.000000	71.212667
588.000000	71.187467
589.000000	71.108133
590.000000	70.957933
591.000000	70.749867
592.000000	70.457733
593.000000	70.110400
594.000000	69.713333
595.000000	69.311967
596.000000	68.867600
597.000000	68.434833
598.000000	67.999333
599.000000	67.591633
600.000000	67.235067
601.000000	66.900333
602.000000	66.581000
603.000000	66.259533
604.000000	65.952767
605.000000	65.694667
606.000000	65.439200
607.000000	65.165733
608.000000	64.903367
609.000000	64.629400
610.000000	64.307167
611.000000	63.954667
612.000000	63.573833
613.000000	63.139733
614.000000	62.653367
615.000000	62.135767
616.000000	61.594933
617.000000	61.014033
618.000000	60.414100
619.000000	59.818467
620.000000	59.217133
621.000000	58.591867
622.000000	57.965600
623.000000	57.308967
624.000000	56.657100
625.000000	56.012200
626.000000	55.341400
627.000000	54.676933
628.000000	54.018367
629.000000	53.387900
630.000000	52.787000
631.000000	52.188867
632.000000	51.607033
633.000000	51.075200
634.000000	50.606467
635.000000	50.180700
636.000000	49.812433
637.000000	49.500467
638.000000	49.296467
639.000000	49.174567
640.000000	49.115667
641.000000	49.142500
642.000000	49.242100
643.000000	49.383567
644.000000	49.594767
645.000000	49.852100
646.000000	50.115667
647.000000	50.397900
648.000000	50.678367
649.000000	50.979933
650.000000	51.247067
651.000000	51.494000
652.000000	51.776033
653.000000	52.046700
654.000000	52.291133
655.000000	52.530833
656.000000	52.798067
657.000000	53.045867
658.000000	53.314967
659.000000	53.588433
660.000000	53.827733
661.000000	54.056267
662.000000	54.258067
663.000000	54.449433
664.000000	54.626133
665.000000	54.767100
666.000000	54.881933
667.000000	54.975333
668.000000	55.055833
669.000000	55.110100
670.000000	55.148100
671.000000	55.143633
672.000000	55.142433
673.000000	55.130800
674.000000	55.093900
675.000000	55.045500
676.000000	55.001467
677.000000	54.980833
678.000000	54.947200
679.000000	54.902167
680.000000	54.859633
681.000000	54.813733
682.000000	54.769500
683.000000	54.754500
684.000000	54.741400
685.000000	54.668933
686.000000	54.638233
687.000000	54.599100
688.000000	54.541533
689.000000	54.475833
690.000000	54.430567
691.000000	54.407967
692.000000	54.397733
693.000000	54.387467
694.000000	54.419033
695.000000	54.462300
696.000000	54.536300
697.000000	54.617200
698.000000	54.714500
699.000000	54.771367
700.000000	54.913633
701.000000	55.019233
702.000000	55.113867
703.000000	55.249033
704.000000	55.369900
705.000000	55.514567
706.000000	55.647400
707.000000	55.794967
708.000000	55.882667
709.000000	55.999267
710.000000	56.171933
711.000000	56.293967
712.000000	56.430900
713.000000	56.599033
714.000000	56.751167
715.000000	56.904133
716.000000	57.038433
717.000000	57.252700
718.000000	57.401367
719.000000	57.555100
720.000000	57.739233
721.000000	57.880433
722.000000	58.090333
723.000000	58.194033
724.000000	58.322067
725.000000	58.461633
726.000000	58.600433
727.000000	58.741200
728.000000	58.886600
729.000000	58.984933
730.000000	59.013133
731.000000	59.108533
732.000000	59.178333
733.000000	59.293367
734.000000	59.371733
735.000000	59.447700
736.000000	59.557733
737.000000	59.615433
738.000000	59.733667
739.000000	59.882600
740.000000	59.983467
741.000000	60.124267
742.000000	60.277600
743.000000	60.429133
744.000000	60.480333
745.000000	60.605767
746.000000	60.724767
747.000000	60.794767
748.000000	60.849233
749.000000	60.910467
750.000000	61.031067
751.000000	61.076800
752.000000	61.206667
753.000000	61.315033
754.000000	61.485300
755.000000	61.567067
756.000000	61.710567
757.000000	61.870100
758.000000	61.995100
759.000000	62.188400
760.000000	62.404233
761.000000	62.628433
762.000000	62.807633
763.000000	63.012467
764.000000	63.165967
765.000000	63.309900
766.000000	63.471833
767.000000	63.584467
768.000000	63.729600
769.000000	63.851933
770.000000	64.056133
771.000000	64.166767
772.000000	64.311367
773.000000	64.480633
774.000000	64.696100
775.000000	64.760067
776.000000	65.006033
777.000000	65.213500
778.000000	65.335767
779.000000	65.473833
780.000000	65.780300
781.000000	65.829067
782.000000	66.088333
783.000000	66.277233
784.000000	66.452567
785.000000	66.571800
786.000000	66.714633
787.000000	66.960300
788.000000	67.054300
789.000000	67.067200
790.000000	67.234533
791.000000	67.357933
792.000000	67.677533
793.000000	67.813133
794.000000	68.002567
795.000000	68.150667
796.000000	68.386400
797.000000	68.513000
798.000000	68.727567
799.000000	68.880767
800.000000	68.900100
801.000000	69.238000
802.000000	69.468300
803.000000	69.538600
804.000000	69.663067
805.000000	69.834967
806.000000	69.995567
807.000000	70.148533
808.000000	70.272700
809.000000	70.476533
810.000000	70.482833
811.000000	70.581867
812.000000	70.777033
813.000000	70.882000
814.000000	71.056667
815.000000	71.203233
816.000000	71.241833
817.000000	71.426967
818.000000	71.484567
819.000000	71.588233
820.000000	71.751033
821.000000	71.866533
822.000000	72.043533
823.000000	72.129433
824.000000	72.150967
825.000000	72.263033
826.000000	72.203067
827.000000	72.284600
828.000000	72.404633
829.000000	72.448500
830.000000	72.551233
831.000000	72.509633
832.000000	72.501133
833.000000	72.580767
834.000000	72.638333
835.000000	72.586933
836.000000	72.803600
837.000000	72.711633
838.000000	72.829400
839.000000	72.782500
840.000000	72.655467
841.000000	72.781367
842.000000	72.707800
843.000000	72.760333
844.000000	72.659500
845.000000	72.536667
846.000000	72.799233
847.000000	72.615133
848.000000	72.803167
849.000000	72.811600
850.000000	72.691733
851.000000	72.636467
852.000000	72.401667
853.000000	72.402333
854.000000	72.606367
855.000000	72.610433
856.000000	72.252767
857.000000	71.854733
858.000000	72.239311
859.000000	72.136850
860.000000	72.028189
861.000000	71.900153
862.000000	71.788154
863.000000	71.660773
864.000000	71.544540
865.000000	71.413300
866.000000	71.309641
867.000000	71.179423
868.000000	71.040162
869.000000	70.892377
870.000000	70.763866
871.000000	70.660048
872.000000	70.610674
873.000000	70.613658
874.000000	70.633328
875.000000	70.625475
876.000000	70.603200
877.000000	70.577977
878.000000	70.542378
879.000000	70.468246
880.000000	70.380941
881.000000	70.295050
882.000000	70.207443
883.000000	70.108236
884.000000	69.996625
885.000000	69.894048
886.000000	69.795345
887.000000	69.701441
888.000000	69.582657
889.000000	69.459042
890.000000	69.349157
891.000000	69.234578
892.000000	69.119363
893.000000	68.996378
894.000000	68.861721
895.000000	68.721269
896.000000	68.593750
897.000000	68.464130
898.000000	68.324985
899.000000	68.187237
900.000000	68.058395
901.000000	67.924729
902.000000	67.800811
903.000000	67.680131
904.000000	67.573193
905.000000	67.466227
906.000000	67.365418
907.000000	67.272791
908.000000	67.189975
909.000000	67.111342
910.000000	67.043144
911.000000	66.987078
912.000000	66.924274
913.000000	66.860646
914.000000	66.787489
915.000000	66.711892
916.000000	66.645901
917.000000	66.590529
918.000000	66.535612
919.000000	66.464090
920.000000	66.382166
921.000000	66.314663
922.000000	66.255196
923.000000	66.189001
924.000000	66.115886
925.000000	66.061851
926.000000	66.001990
927.000000	65.935606
928.000000	65.884989
929.000000	65.827511
930.000000	65.771498
931.000000	65.720092
932.000000	65.665645
933.000000	65.607318
934.000000	65.569668
935.000000	65.527997
936.000000	65.480144
937.000000	65.438904
938.000000	65.408060
939.000000	65.381412
940.000000	65.350564
941.000000	65.310588
942.000000	65.281333
943.000000	65.253959
944.000000	65.226460
945.000000	65.203853
946.000000	65.166304
947.000000	65.140282
948.000000	65.115661
949.000000	65.075523
950.000000	65.047097
951.000000	65.013089
952.000000	64.960673
953.000000	64.913950
954.000000	64.876427
955.000000	64.825012
956.000000	64.778137
957.000000	64.725585
958.000000	64.658333
959.000000	64.594672
960.000000	64.534052
961.000000	64.468087
962.000000	64.403627
963.000000	64.342342
964.000000	64.289119
965.000000	64.228905
966.000000	64.173894
967.000000	64.127908
968.000000	64.083485
969.000000	64.042651
970.000000	63.996276
971.000000	63.953372
972.000000	63.900275
973.000000	63.851360
974.000000	63.807780
975.000000	63.759450
976.000000	63.707880
977.000000	63.654235
978.000000	63.601669
979.000000	63.543962
980.000000	63.494653
981.000000	63.442603
982.000000	63.386488
983.000000	63.343634
984.000000	63.310859
985.000000	63.271041
986.000000	63.238691
987.000000	63.207074
988.000000	63.186747
989.000000	63.167522
990.000000	63.149908
991.000000	63.139685
992.000000	63.135668
993.000000	63.129997
994.000000	63.124587
995.000000	63.122211
996.000000	63.119712
997.000000	63.126659
998.000000	63.135013
999.000000	63.139396
1000.000000	63.144919
1001.000000	63.163011
1002.000000	63.183100
1003.000000	63.196111
1004.000000	63.205366
1005.000000	63.229252
1006.000000	63.244675
1007.000000	63.270071
1008.000000	63.281987
1009.000000	63.311481
1010.000000	63.350673
1011.000000	63.386449
1012.000000	63.432754
1013.000000	63.488820
1014.000000	63.543668
1015.000000	63.599566
1016.000000	63.667590
1017.000000	63.754005
1018.000000	63.843321
1019.000000	63.929544
1020.000000	64.005172
1021.000000	64.097597
1022.000000	64.180318
1023.000000	64.272091
1024.000000	64.358265
1025.000000	64.443602
1026.000000	64.545536
1027.000000	64.627369
1028.000000	64.680404
1029.000000	64.761263
1030.000000	64.833715
1031.000000	64.896053
1032.000000	64.955554
1033.000000	65.021887
1034.000000	65.084177
1035.000000	65.128322
1036.000000	65.185557
1037.000000	65.233032
1038.000000	65.289671
1039.000000	65.322582
1040.000000	65.360670
1041.000000	65.408387
1042.000000	65.456890
1043.000000	65.489455
1044.000000	65.533716
1045.000000	65.572716
1046.000000	65.616545
1047.000000	65.645527
1048.000000	65.682426
1049.000000	65.722751
1050.000000	65.746437
1051.000000	65.797068
1052.000000	65.843612
1053.000000	65.879648
1054.000000	65.925862
1055.000000	65.979618
1056.000000	66.025807
1057.000000	66.076458
1058.000000	66.113224
1059.000000	66.151591
1060.000000	66.191338
1061.000000	66.234213
1062.000000	66.288644
1063.000000	66.328635
1064.000000	66.354794
1065.000000	66.398972
1066.000000	66.445819
1067.000000	66.480217
1068.000000	66.522326
1069.000000	66.564471
1070.000000	66.608524
1071.000000	66.631089
1072.000000	66.685173
1073.000000	66.718940
1074.000000	66.766715
1075.000000	66.789909
1076.000000	66.831620
1077.000000	66.891512
1078.000000	66.933107
1079.000000	66.982026
1080.000000	67.001951
1081.000000	67.049126
1082.000000	67.111965
1083.000000	67.148610
1084.000000	67.204271
1085.000000	67.238885
1086.000000	67.286770
1087.000000	67.340141
1088.000000	67.385397
1089.000000	67.409618
1090.000000	67.450287
1091.000000	67.502722
1092.000000	67.523383
1093.000000	67.566332
1094.000000	67.589335
1095.000000	67.631136
1096.000000	67.663597
1097.000000	67.676986
1098.000000	67.698616
1099.000000	67.710451
1100.000000	67.726074
1101.000000	67.739931
1102.000000	67.760081
1103.000000	67.764579
1104.000000	67.769789
1105.000000	67.780638
1106.000000	67.783072
1107.000000	67.799058
1108.000000	67.800200
1109.000000	67.808868
1110.000000	67.805492
1111.000000	67.804223
1112.000000	67.805654
1113.000000	67.804870
1114.000000	67.806800
1115.000000	67.791781
1116.000000	67.797032
1117.000000	67.767428
1118.000000	67.727164
1119.000000	67.684071
1120.000000	67.625853
1121.000000	67.552582
1122.000000	67.457841
1123.000000	67.356101
1124.000000	67.230295
1125.000000	67.091557
1126.000000	66.921284
1127.000000	66.728353
1128.000000	66.476861
1129.000000	66.189417
1130.000000	65.850586
1131.000000	65.468150
1132.000000	65.063184
1133.000000	64.658323
1134.000000	64.169791
1135.000000	63.660892
1136.000000	63.163998
1137.000000	62.669535
1138.000000	62.202573
1139.000000	61.759595
1140.000000	61.318336
1141.000000	60.896264
1142.000000	60.495831
1143.000000	60.125210
1144.000000	59.813566
1145.000000	59.528633
1146.000000	59.316816
1147.000000	59.151257
1148.000000	59.020314
1149.000000	58.896470
1150.000000	58.771671
1151.000000	58.628702
1152.000000	58.468560
1153.000000	58.271725
1154.000000	58.021378
1155.000000	57.729863
1156.000000	57.398821
1157.000000	57.052944
1158.000000	56.676897
1159.000000	56.298403
1160.000000	55.910288
1161.000000	55.515281
1162.000000	55.114675
1163.000000	54.715471
1164.000000	54.335579
1165.000000	53.970817
1166.000000	53.598315
1167.000000	53.247743
1168.000000	52.899487
1169.000000	52.561472
1170.000000	52.238593
1171.000000	51.916641
1172.000000	51.600051
1173.000000	51.300594
1174.000000	50.996374
1175.000000	50.689923
1176.000000	50.359702
1177.000000	49.979603
1178.000000	49.558850
1179.000000	49.101687
1180.000000	48.637376
1181.000000	48.207188
1182.000000	47.836212
1183.000000	47.558494
1184.000000	47.399248
1185.000000	47.368185
1186.000000	47.446559
1187.000000	47.624656
1188.000000	47.911615
1189.000000	48.268851
1190.000000	48.676405
1191.000000	49.086546
1192.000000	49.471385
1193.000000	49.807792
1194.000000	50.086300
1195.000000	50.310433
1196.000000	50.494063
1197.000000	50.624802
1198.000000	50.733145
1199.000000	50.833182
1200.000000	50.897003
1201.000000	50.953244
1202.000000	51.008484
1203.000000	51.062908
1204.000000	51.128902
1205.000000	51.204091
1206.000000	51.285198
1207.000000	51.388505
1208.000000	51.512812
1209.000000	51.635850
1210.000000	51.751186
1211.000000	51.888071
1212.000000	52.027915
1213.000000	52.165360
1214.000000	52.306026
1215.000000	52.458812
1216.000000	52.612811
1217.000000	52.763865
1218.000000	52.922297
1219.000000	53.093806
1220.000000	53.274252
1221.000000	53.451019
1222.000000	53.621588
1223.000000	53.801605
1224.000000	53.981152
1225.000000	54.155252
1226.000000	54.330136
1227.000000	54.502590
1228.000000	54.666338
1229.000000	54.824314
1230.000000	54.989205
1231.000000	55.152922
1232.000000	55.303415
1233.000000	55.454170
1234.000000	55.605681
1235.000000	55.740948
1236.000000	55.874130
1237.000000	56.001614
1238.000000	56.121626
1239.000000	56.249234
1240.000000	56.371823
1241.000000	56.484925
1242.000000	56.593428
1243.000000	56.697913
1244.000000	56.797422
1245.000000	56.904607
1246.000000	56.996098
1247.000000	57.071234
1248.000000	57.148669
1249.000000	57.205171
1250.000000	57.268959
1251.000000	57.345315
1252.000000	57.393718
1253.000000	57.435832
1254.000000	57.487395
1255.000000	57.532863
1256.000000	57.570356
1257.000000	57.600563
1258.000000	57.635793
1259.000000	57.665482
1260.000000	57.696558
1261.000000	57.727346
1262.000000	57.761816
1263.000000	57.790184
1264.000000	57.822369
1265.000000	57.849747
1266.000000	57.871765
1267.000000	57.909018
1268.000000	57.942171
1269.000000	57.964026
1270.000000	57.995594
1271.000000	58.025640
1272.000000	58.049483
1273.000000	58.085765
1274.000000	58.117970
1275.000000	58.154145
1276.000000	58.200610
1277.000000	58.241006
1278.000000	58.290624
1279.000000	58.340597
1280.000000	58.395500
1281.000000	58.446932
1282.000000	58.502137
1283.000000	58.550175
1284.000000	58.596485
1285.000000	58.646674
1286.000000	58.682655
1287.000000	58.716924
1288.000000	58.748087
1289.000000	58.764863
1290.000000	58.779866
1291.000000	58.791575
1292.000000	58.805386
1293.000000	58.804035
1294.000000	58.792208
1295.000000	58.784634
1296.000000	58.771257
1297.000000	58.745051
1298.000000	58.722869
1299.000000	58.706033
1300.000000	58.678937
1301.000000	58.636778
1302.000000	58.599306
1303.000000	58.551340
1304.000000	58.497045
1305.000000	58.434618
1306.000000	58.363329
1307.000000	58.289949
1308.000000	58.195809
1309.000000	58.112574
1310.000000	58.012125
1311.000000	57.905236
1312.000000	57.787469
1313.000000	57.676709
1314.000000	57.549520
1315.000000	57.412860
1316.000000	57.267470
1317.000000	57.130110
1318.000000	56.992257
1319.000000	56.830973
1320.000000	56.667577
1321.000000	56.492797
1322.000000	56.324902
1323.000000	56.142784
1324.000000	55.955000
1325.000000	55.751334
1326.000000	55.545862
1327.000000	55.327918
1328.000000	55.100491
1329.000000	54.880690
1330.000000	54.637152
1331.000000	54.386397
1332.000000	54.121650
1333.000000	53.855353
1334.000000	53.582934
1335.000000	53.307748
1336.000000	53.016212
1337.000000	52.718920
1338.000000	52.429933
1339.000000	52.125423
1340.000000	51.813219
1341.000000	51.498857
1342.000000	51.185204
1343.000000	50.873845
1344.000000	50.526246
1345.000000	50.176819
1346.000000	49.843567
1347.000000	49.480121
1348.000000	49.082467
1349.000000	48.681810
1350.000000	48.249781
1351.000000	47.780340
1352.000000	47.325182
1353.000000	46.924954
1354.000000	46.548865
1355.000000	46.220251
1356.000000	45.957369
1357.000000	45.798739
1358.000000	45.684419
1359.000000	45.590712
1360.000000	45.503258
1361.000000	45.320553
1362.000000	45.133798
1363.000000	44.924345
1364.000000	44.738529
1365.000000	44.486223
1366.000000	44.267659
1367.000000	44.012381
1368.000000	43.700039
1369.000000	43.362450
1370.000000	43.050476
1371.000000	42.674491
1372.000000	42.318134
1373.000000	41.981751
1374.000000	41.715899
1375.000000	41.463369
1376.000000	41.246119
1377.000000	41.004315
1378.000000	40.798278
1379.000000	40.524202
1380.000000	40.204492
1381.000000	39.781850
1382.000000	39.235090
1383.000000	38.646269
1384.000000	38.071581
1385.000000	37.530926
1386.000000	37.026259
1387.000000	36.530578
1388.000000	36.032678
1389.000000	35.560997
1390.000000	35.227166
1391.000000	34.842208
1392.000000	34.459940
1393.000000	34.121742
1394.000000	33.834772
1395.000000	33.432244
1396.000000	32.990757
1397.000000	32.622473
1398.000000	32.344165
1399.000000	32.003095
1400.000000	31.557357
1401.000000	31.077262
1402.000000	30.677678
1403.000000	30.312912
1404.000000	29.890807
1405.000000	29.461459
1406.000000	29.067099
1407.000000	28.705300
1408.000000	28.316707
1409.000000	27.956680
1410.000000	27.598932
1411.000000	27.277364
1412.000000	27.025560
1413.000000	26.763542
1414.000000	26.474293
1415.000000	26.167164
1416.000000	25.924208
1417.000000	25.719991
1418.000000	25.511218
1419.000000	25.267063
1420.000000	25.036805
1421.000000	24.824998
1422.000000	24.638813
1423.000000	24.450124
1424.000000	24.264394
1425.000000	24.090661
1426.000000	23.933944
1427.000000	23.780947
1428.000000	23.629077
1429.000000	23.499188
1430.000000	23.377868
1431.000000	23.267132
1432.000000	23.155444
1433.000000	23.040409
1434.000000	22.934575
1435.000000	22.837342
1436.000000	22.744965
1437.000000	22.648730
1438.000000	22.560773
1439.000000	22.479245
1440.000000	22.398516
1441.000000	22.323236
1442.000000	22.247602
1443.000000	22.184461
1444.000000	22.127850
1445.000000	22.066922
1446.000000	21.983973
1447.000000	21.906957
1448.000000	21.854901
1449.000000	21.800925
1450.000000	21.746143
1451.000000	21.695042
1452.000000	21.648857
1453.000000	21.597455
1454.000000	21.548510
1455.000000	21.514032
1456.000000	21.469358
1457.000000	21.433144
1458.000000	21.392192
1459.000000	21.376256
1460.000000	21.356283
1461.000000	21.329580
1462.000000	21.321366
1463.000000	21.313784
1464.000000	21.302632
1465.000000	21.305250
1466.000000	21.297043
1467.000000	21.296925
1468.000000	21.306072
1469.000000	21.317681
1470.000000	21.322939
1471.000000	21.331204
1472.000000	21.323070
1473.000000	21.319056
1474.000000	21.332108
1475.000000	21.348818
1476.000000	21.363673
1477.000000	21.372318
1478.000000	21.390848
1479.000000	21.410650
1480.000000	21.435355
1481.000000	21.462002
1482.000000	21.483078
1483.000000	21.508028
1484.000000	21.551920
1485.000000	21.587937
1486.000000	21.620281
1487.000000	21.663743
1488.000000	21.702517
1489.000000	21.731583
1490.000000	21.765614
1491.000000	21.800430
1492.000000	21.832451
1493.000000	21.868874
1494.000000	21.906131
1495.000000	21.951178
1496.000000	21.991407
1497.000000	22.027155
1498.000000	22.079009
1499.000000	22.126092
1500.000000	22.171310
1501.000000	22.222517
1502.000000	22.269491
1503.000000	22.327833
1504.000000	22.383348
1505.000000	22.426659
1506.000000	22.484572
1507.000000	22.539214
1508.000000	22.587223
1509.000000	22.644225
1510.000000	22.705965
1511.000000	22.754432
1512.000000	22.801277
1513.000000	22.857254
1514.000000	22.907193
1515.000000	22.957788
1516.000000	23.003427
1517.000000	23.042471
1518.000000	23.087583
1519.000000	23.135331
1520.000000	23.170367
1521.000000	23.208596
1522.000000	23.252199
1523.000000	23.296656
1524.000000	23.342070
1525.000000	23.376938
1526.000000	23.416680
1527.000000	23.447439
1528.000000	23.484480
1529.000000	23.521673
1530.000000	23.555474
1531.000000	23.585488
1532.000000	23.616725
1533.000000	23.640241
1534.000000	23.660461
1535.000000	23.690474
1536.000000	23.721131
1537.000000	23.744914
1538.000000	23.770591
1539.000000	23.791279
1540.000000	23.807169
1541.000000	23.826694
1542.000000	23.850135
1543.000000	23.878575
1544.000000	23.906421
1545.000000	23.937327
1546.000000	23.972179
1547.000000	24.002740
1548.000000	24.042176
1549.000000	24.076152
1550.000000	24.104160
1551.000000	24.141018
1552.000000	24.176985
1553.000000	24.210372
1554.000000	24.238318
1555.000000	24.260450
1556.000000	24.282451
1557.000000	24.308738
1558.000000	24.327929
1559.000000	24.338077
1560.000000	24.358413
1561.000000	24.381523
1562.000000	24.392781
1563.000000	24.408053
1564.000000	24.407236
1565.000000	24.421761
1566.000000	24.439631
1567.000000	24.443969
1568.000000	24.456089
1569.000000	24.469725
1570.000000	24.488910
1571.000000	24.506535
1572.000000	24.525090
1573.000000	24.562065
1574.000000	24.599330
1575.000000	24.629202
1576.000000	24.655601
1577.000000	24.693275
1578.000000	24.737870
1579.000000	24.780802
1580.000000	24.821449
1581.000000	24.876503
1582.000000	24.934414
1583.000000	24.991083
1584.000000	25.051662
1585.000000	25.105226
1586.000000	25.161376
1587.000000	25.228187
1588.000000	25.286982
1589.000000	25.360316
1590.000000	25.424190
1591.000000	25.479060
1592.000000	25.550409
1593.000000	25.625215
1594.000000	25.693504
1595.000000	25.764289
1596.000000	25.832008
1597.000000	25.905538
1598.000000	25.993476
1599.000000	26.072835
1600.000000	26.154181
1601.000000	26.233292
1602.000000	26.314151
1603.000000	26.397508
1604.000000	26.479258
1605.000000	26.559808
1606.000000	26.630680
1607.000000	26.712885
1608.000000	26.791588
1609.000000	26.875863
1610.000000	26.950344
1611.000000	27.032014
1612.000000	27.106516
1613.000000	27.184301
1614.000000	27.257664
1615.000000	27.340158
1616.000000	27.422225
1617.000000	27.498931
1618.000000	27.578364
1619.000000	27.650925
1620.000000	27.732811
1621.000000	27.827066
1622.000000	27.898152
1623.000000	27.981361
1624.000000	28.064631
1625.000000	28.145062
1626.000000	28.234354
1627.000000	28.315864
1628.000000	28.403148
1629.000000	28.474754
1630.000000	28.568830
1631.000000	28.637016
1632.000000	28.709999
1633.000000	28.780943
1634.000000	28.867943
1635.000000	28.918757
1636.000000	29.000731
1637.000000	29.061163
1638.000000	29.120484
1639.000000	29.177181
1640.000000	29.246469
1641.000000	29.301129
1642.000000	29.349416
1643.000000	29.393086
1644.000000	29.443450
1645.000000	29.505846
1646.000000	29.531707
1647.000000	29.576233
1648.000000	29.614134
1649.000000	29.652307
1650.000000	29.683050
1651.000000	29.703407
1652.000000	29.716443
1653.000000	29.724500
1654.000000	29.742745
1655.000000	29.727610
1656.000000	29.716702
1657.000000	29.694198
1658.000000	29.670731
1659.000000	29.636631
1660.000000	29.595121
1661.000000	29.543799
1662.000000	29.474771
1663.000000	29.413650
1664.000000	29.338408
1665.000000	29.244352
1666.000000	29.138408
1667.000000	29.025364
1668.000000	28.910179
1669.000000	28.750805
1670.000000	28.573516
1671.000000	28.363607
1672.000000	28.114767
1673.000000	27.834449
1674.000000	27.527519
1675.000000	27.176585
1676.000000	26.793767
1677.000000	26.372292
1678.000000	25.909067
1679.000000	25.478277
1680.000000	25.088042
1681.000000	24.761886
1682.000000	24.500900
1683.000000	24.329594
1684.000000	24.211651
1685.000000	24.140861
1686.000000	24.078869
1687.000000	24.004432
1688.000000	23.920766
1689.000000	23.797418
1690.000000	23.662326
1691.000000	23.525825
1692.000000	23.424723
1693.000000	23.345037
1694.000000	23.307606
1695.000000	23.322136
1696.000000	23.369885
1697.000000	23.446290
1698.000000	23.554819
1699.000000	23.667176
1700.000000	23.758613
1701.000000	23.842866
1702.000000	23.916982
1703.000000	23.960338
1704.000000	23.997966
1705.000000	24.012143
1706.000000	24.019508
1707.000000	24.024136
1708.000000	24.015796
1709.000000	23.976753
1710.000000	23.926636
1711.000000	23.872346
1712.000000	23.791873
1713.000000	23.699731
1714.000000	23.613204
1715.000000	23.517485
1716.000000	23.427365
1717.000000	23.360977
1718.000000	23.277801
1719.000000	23.214563
1720.000000	23.153698
1721.000000	23.096989
1722.000000	23.036408
1723.000000	22.974899
1724.000000	22.904310
1725.000000	22.806907
1726.000000	22.727071
1727.000000	22.639311
1728.000000	22.546517
1729.000000	22.457501
1730.000000	22.389170
1731.000000	22.353209
1732.000000	22.341285
1733.000000	22.360856
1734.000000	22.427712
1735.000000	22.517924
1736.000000	22.658666
1737.000000	22.814757
1738.000000	22.977492
1739.000000	23.162172
1740.000000	23.339344
1741.000000	23.489193
1742.000000	23.628026
1743.000000	23.749852
1744.000000	23.855801
1745.000000	23.933609
1746.000000	23.999408
1747.000000	24.051584
1748.000000	24.084324
1749.000000	24.097044
1750.000000	24.103484
1751.000000	24.099330
1752.000000	24.080244
1753.000000	24.053564
1754.000000	24.007418
1755.000000	23.955736
1756.000000	23.897966
1757.000000	23.826635
1758.000000	23.767579
1759.000000	23.704596
1760.000000	23.654599
1761.000000	23.633997
1762.000000	23.631975
1763.000000	23.641002
1764.000000	23.668523
1765.000000	23.729266
1766.000000	23.806336
1767.000000	23.888526
1768.000000	23.988918
1769.000000	24.094064
1770.000000	24.196053
1771.000000	24.294466
1772.000000	24.394891
1773.000000	24.496171
1774.000000	24.591422
1775.000000	24.680597
1776.000000	24.754254
1777.000000	24.833724
1778.000000	24.909475
1779.000000	24.971177
1780.000000	25.035060
1781.000000	25.103488
1782.000000	25.181343
1783.000000	25.251650
1784.000000	25.312663
1785.000000	25.377640
1786.000000	25.443175
1787.000000	25.503318
1788.000000	25.558775
1789.000000	25.617930
1790.000000	25.671117
1791.000000	25.722200
1792.000000	25.774871
1793.000000	25.830768
1794.000000	25.889607
1795.000000	25.935787
1796.000000	25.981270
1797.000000	26.036951
1798.000000	26.094923
1799.000000	26.155580
1800.000000	26.222066
1801.000000	26.269797
1802.000000	26.311139
1803.000000	26.372989
1804.000000	26.427356
1805.000000	26.483739
1806.000000	26.533037
1807.000000	26.574083
1808.000000	26.623791
1809.000000	26.675977
1810.000000	26.719064
1811.000000	26.748530
1812.000000	26.783415
1813.000000	26.810157
1814.000000	26.829498
1815.000000	26.856282
1816.000000	26.871985
1817.000000	26.903462
1818.000000	26.960569
1819.000000	27.015852
1820.000000	27.031723
1821.000000	27.035203
1822.000000	27.040220
1823.000000	27.090055
1824.000000	27.167189
1825.000000	27.228165
1826.000000	27.283667
1827.000000	27.352023
1828.000000	27.418628
1829.000000	27.489434
1830.000000	27.539557
1831.000000	27.570659
1832.000000	27.633561
1833.000000	27.726319
1834.000000	27.814443
1835.000000	27.875247
1836.000000	27.900416
1837.000000	27.919759
1838.000000	27.952997
1839.000000	27.986204
1840.000000	27.987960
1841.000000	27.988649
1842.000000	27.950629
1843.000000	27.964071
1844.000000	28.034429
1845.000000	28.109444
1846.000000	28.161209
1847.000000	28.142521
1848.000000	28.083772
1849.000000	28.047083
1850.000000	28.065223
1851.000000	28.073701
1852.000000	28.064876
1853.000000	28.055164
1854.000000	27.997241
1855.000000	27.934431
1856.000000	27.888491
1857.000000	27.827321
1858.000000	27.724673
1859.000000	27.583355
1860.000000	27.432059
1861.000000	27.275801
1862.000000	27.112601
1863.000000	26.988987
1864.000000	26.870695
1865.000000	26.715656
1866.000000	26.555022
1867.000000	26.347239
1868.000000	26.108595
1869.000000	25.784223
1870.000000	25.419381
1871.000000	25.023337
1872.000000	24.621845
1873.000000	24.188675
1874.000000	23.743080
1875.000000	23.311021
1876.000000	22.870142
1877.000000	22.417956
1878.000000	21.945383
1879.000000	21.478461
1880.000000	21.047587
1881.000000	20.564072
1882.000000	20.062099
1883.000000	19.571756
1884.000000	19.059659
1885.000000	18.561659
1886.000000	18.133964
1887.000000	17.742860
1888.000000	17.369558
1889.000000	16.984735
1890.000000	16.614173
1891.000000	16.213752
1892.000000	15.797854
1893.000000	15.458800
1894.000000	15.175948
1895.000000	14.930338
1896.000000	14.695272
1897.000000	14.423985
1898.000000	14.150420
1899.000000	13.838649
1900.000000	13.546024
1901.000000	13.282491
1902.000000	13.063306
1903.000000	12.844593
1904.000000	12.628269
1905.000000	12.380048
1906.000000	12.140663
1907.000000	11.936291
1908.000000	11.777698
1909.000000	11.645843
1910.000000	11.512983
1911.000000	11.365177
1912.000000	11.187629
1913.000000	10.986430
1914.000000	10.839557
1915.000000	10.693810
1916.000000	10.600754
1917.000000	10.497972
1918.000000	10.381274
1919.000000	10.286182
1920.000000	10.155354
1921.000000	10.037734
1922.000000	9.931761
1923.000000	9.836470
1924.000000	9.775743
1925.000000	9.710211
1926.000000	9.637896
1927.000000	9.573322
1928.000000	9.514740
1929.000000	9.448480
1930.000000	9.408621
1931.000000	9.352008
1932.000000	9.338238
1933.000000	9.293380
1934.000000	9.283118
1935.000000	9.266010
1936.000000	9.258403
1937.000000	9.237378
1938.000000	9.246258
1939.000000	9.228753
1940.000000	9.240835
1941.000000	9.242818
1942.000000	9.247953
1943.000000	9.262844
1944.000000	9.302550
1945.000000	9.306259
1946.000000	9.342373
1947.000000	9.360022
1948.000000	9.389244
1949.000000	9.426514
1950.000000	9.454016
1951.000000	9.496176
1952.000000	9.527213
1953.000000	9.589600
1954.000000	9.613097
1955.000000	9.666308
1956.000000	9.697182
1957.000000	9.738068
1958.000000	9.792274
1959.000000	9.833843
1960.000000	9.881502
1961.000000	9.925839
1962.000000	9.983784
1963.000000	10.027617
1964.000000	10.077628
1965.000000	10.135458
1966.000000	10.176820
1967.000000	10.237027
1968.000000	10.301993
1969.000000	10.346804
1970.000000	10.397423
1971.000000	10.475580
1972.000000	10.535453
1973.000000	10.569747
1974.000000	10.635317
1975.000000	10.702030
1976.000000	10.765805
1977.000000	10.829414
1978.000000	10.897461
1979.000000	10.957287
1980.000000	11.025356
1981.000000	11.095438
1982.000000	11.146914
1983.000000	11.213538
1984.000000	11.289765
1985.000000	11.356136
1986.000000	11.416696
1987.000000	11.477195
1988.000000	11.543900
1989.000000	11.611135
1990.000000	11.660641
1991.000000	11.719175
1992.000000	11.783497
1993.000000	11.849784
1994.000000	11.905035
1995.000000	11.956669
1996.000000	12.020157
1997.000000	12.086084
1998.000000	12.120278
1999.000000	12.169181
