PE UV       SUBTECH     SPECTRUM    ASCII       PEDS        4.00        
   -1
CICIMAUCR0235-3.ASC
24/06/17
14:43:29.00
24/06/17
14:43:29.00
Vinicio Soto Monge
C. resplendens. Sex M. Dorsal. 
250,000000
1
Lambda 1050
1050L1511233
PerkinElmer UV WinLab 6.3.2.0749 / 2.02.05 Lambda 900 UV/VIS/NIR, Aug  7 2015 09:38:08

0
0
3350/servo 860,8/2
0
0
UV/VIS
1
1
1
DoubleDePol,CommonBeamDepol,RBeamAtt,SBeamAtt,60mm sphere, WB InGaAs Detector
0
0
0
0
Program
Program
3350/servo 860,8/2
3350/0,2 860,8/0,2
3350/0,2 860,8/0,2
0
15.00
 
 
 
0
 
860,8
319,2
860,8
Front
100
on
S:100 R:100
0
0
0
0
 
0
 
 
 
0
 
 
0
0
0
0
0
 
 
 
 
0
0


0
0
#HDR
-1
-1
#GR
nm
%R
1.0
0.0
2500,000000
-1,000000
2251
8
87,133000
5,483900
#DATA
250.000000	6.197967
251.000000	6.182100
252.000000	6.168833
253.000000	6.147967
254.000000	6.134600
255.000000	6.128800
256.000000	6.124967
257.000000	6.122467
258.000000	6.116967
259.000000	6.083433
260.000000	6.056833
261.000000	6.025600
262.000000	6.003633
263.000000	5.987567
264.000000	5.979833
265.000000	5.942767
266.000000	5.916267
267.000000	5.877533
268.000000	5.860367
269.000000	5.842333
270.000000	5.840400
271.000000	5.832933
272.000000	5.814000
273.000000	5.802733
274.000000	5.785733
275.000000	5.765200
276.000000	5.763500
277.000000	5.756400
278.000000	5.742733
279.000000	5.717633
280.000000	5.724800
281.000000	5.712733
282.000000	5.694733
283.000000	5.713333
284.000000	5.715667
285.000000	5.723000
286.000000	5.702400
287.000000	5.692767
288.000000	5.703900
289.000000	5.697200
290.000000	5.703900
291.000000	5.707733
292.000000	5.690967
293.000000	5.701267
294.000000	5.673900
295.000000	5.671967
296.000000	5.668800
297.000000	5.673667
298.000000	5.695233
299.000000	5.683700
300.000000	5.673833
301.000000	5.689700
302.000000	5.688667
303.000000	5.686967
304.000000	5.675367
305.000000	5.684400
306.000000	5.698700
307.000000	5.702100
308.000000	5.706600
309.000000	5.701767
310.000000	5.697200
311.000000	5.684300
312.000000	5.688167
313.000000	5.671067
314.000000	5.636200
315.000000	5.648200
316.000000	5.897800
317.000000	6.068267
318.000000	5.949567
319.000000	6.159367
320.000000	6.478033
321.000000	6.509267
322.000000	6.296933
323.000000	6.062667
324.000000	6.145000
325.000000	6.226100
326.000000	5.920900
327.000000	5.850967
328.000000	5.861733
329.000000	5.899433
330.000000	5.996833
331.000000	6.003667
332.000000	5.972567
333.000000	5.885433
334.000000	5.775900
335.000000	5.748967
336.000000	5.811567
337.000000	5.857400
338.000000	5.782833
339.000000	5.881700
340.000000	5.919767
341.000000	5.829367
342.000000	5.868667
343.000000	5.890867
344.000000	5.896600
345.000000	5.890600
346.000000	5.888033
347.000000	5.901833
348.000000	5.852000
349.000000	5.883867
350.000000	5.991067
351.000000	5.998933
352.000000	6.023500
353.000000	5.965567
354.000000	5.921900
355.000000	5.978633
356.000000	5.982367
357.000000	6.013700
358.000000	6.041333
359.000000	6.075700
360.000000	6.135933
361.000000	6.179600
362.000000	6.227433
363.000000	6.205100
364.000000	6.278000
365.000000	6.245833
366.000000	6.289433
367.000000	6.399167
368.000000	6.350533
369.000000	6.423600
370.000000	6.482333
371.000000	6.456800
372.000000	6.445867
373.000000	6.497200
374.000000	6.479667
375.000000	6.631700
376.000000	6.756633
377.000000	6.809800
378.000000	6.860533
379.000000	6.909167
380.000000	6.969733
381.000000	7.033033
382.000000	7.100500
383.000000	7.167533
384.000000	7.251700
385.000000	7.325800
386.000000	7.415767
387.000000	7.497000
388.000000	7.604333
389.000000	7.705467
390.000000	7.816000
391.000000	7.926833
392.000000	8.045867
393.000000	8.185300
394.000000	8.333000
395.000000	8.474067
396.000000	8.632700
397.000000	8.797967
398.000000	8.996000
399.000000	9.194467
400.000000	9.409800
401.000000	9.636567
402.000000	9.890433
403.000000	10.151200
404.000000	10.445567
405.000000	10.764500
406.000000	11.096367
407.000000	11.444033
408.000000	11.808167
409.000000	12.213967
410.000000	12.640500
411.000000	13.061967
412.000000	13.531900
413.000000	14.010567
414.000000	14.514900
415.000000	15.032967
416.000000	15.566600
417.000000	16.083200
418.000000	16.628833
419.000000	17.172733
420.000000	17.727300
421.000000	18.270667
422.000000	18.832367
423.000000	19.382267
424.000000	19.910467
425.000000	20.453200
426.000000	20.943733
427.000000	21.418500
428.000000	21.908333
429.000000	22.361800
430.000000	22.801200
431.000000	23.240433
432.000000	23.644900
433.000000	24.043300
434.000000	24.448467
435.000000	24.811333
436.000000	25.171733
437.000000	25.496533
438.000000	25.806633
439.000000	26.140300
440.000000	26.428033
441.000000	26.720900
442.000000	26.994200
443.000000	27.238467
444.000000	27.479167
445.000000	27.716233
446.000000	27.923067
447.000000	28.135633
448.000000	28.326967
449.000000	28.485800
450.000000	28.625100
451.000000	28.828633
452.000000	28.958833
453.000000	29.073833
454.000000	29.214900
455.000000	29.330367
456.000000	29.394367
457.000000	29.501733
458.000000	29.561933
459.000000	29.628400
460.000000	29.671533
461.000000	29.694900
462.000000	29.703333
463.000000	29.732000
464.000000	29.741067
465.000000	29.735300
466.000000	29.726567
467.000000	29.675233
468.000000	29.641267
469.000000	29.607367
470.000000	29.571900
471.000000	29.525667
472.000000	29.485633
473.000000	29.443933
474.000000	29.428533
475.000000	29.419867
476.000000	29.440133
477.000000	29.472333
478.000000	29.523833
479.000000	29.592100
480.000000	29.722200
481.000000	29.869100
482.000000	30.082467
483.000000	30.297033
484.000000	30.571500
485.000000	30.884800
486.000000	31.263800
487.000000	31.644233
488.000000	32.089567
489.000000	32.531500
490.000000	33.011567
491.000000	33.522233
492.000000	34.083833
493.000000	34.600367
494.000000	35.115933
495.000000	35.624867
496.000000	36.134833
497.000000	36.630733
498.000000	37.124467
499.000000	37.550433
500.000000	38.001833
501.000000	38.404233
502.000000	38.779100
503.000000	39.163467
504.000000	39.518300
505.000000	39.894567
506.000000	40.273200
507.000000	40.657500
508.000000	41.043433
509.000000	41.485433
510.000000	41.948100
511.000000	42.461233
512.000000	43.063133
513.000000	43.732267
514.000000	44.471700
515.000000	45.301767
516.000000	46.197000
517.000000	47.148500
518.000000	48.216333
519.000000	49.357867
520.000000	50.568933
521.000000	51.887867
522.000000	53.266133
523.000000	54.665833
524.000000	56.114700
525.000000	57.611000
526.000000	59.076767
527.000000	60.567500
528.000000	62.048800
529.000000	63.492267
530.000000	64.911833
531.000000	66.289067
532.000000	67.661033
533.000000	68.957733
534.000000	70.198333
535.000000	71.382333
536.000000	72.515867
537.000000	73.568267
538.000000	74.567567
539.000000	75.524300
540.000000	76.422533
541.000000	77.271000
542.000000	78.096167
543.000000	78.846100
544.000000	79.536267
545.000000	80.203567
546.000000	80.832033
547.000000	81.428333
548.000000	81.959933
549.000000	82.460400
550.000000	82.962000
551.000000	83.432367
552.000000	83.866467
553.000000	84.295800
554.000000	84.673967
555.000000	85.036033
556.000000	85.386900
557.000000	85.718000
558.000000	86.026633
559.000000	86.325133
560.000000	86.619900
561.000000	86.856233
562.000000	87.090867
563.000000	87.313200
564.000000	87.510767
565.000000	87.686700
566.000000	87.844500
567.000000	87.992867
568.000000	88.105567
569.000000	88.212267
570.000000	88.294800
571.000000	88.382467
572.000000	88.451933
573.000000	88.491800
574.000000	88.563700
575.000000	88.565533
576.000000	88.618500
577.000000	88.645033
578.000000	88.641733
579.000000	88.622233
580.000000	88.607567
581.000000	88.588733
582.000000	88.570767
583.000000	88.494667
584.000000	88.405300
585.000000	88.328933
586.000000	88.227167
587.000000	88.093267
588.000000	87.930600
589.000000	87.741000
590.000000	87.530900
591.000000	87.295833
592.000000	87.057600
593.000000	86.770400
594.000000	86.479467
595.000000	86.183033
596.000000	85.844600
597.000000	85.502267
598.000000	85.149967
599.000000	84.788667
600.000000	84.409833
601.000000	84.011067
602.000000	83.569533
603.000000	83.136033
604.000000	82.709300
605.000000	82.273600
606.000000	81.800867
607.000000	81.310033
608.000000	80.808533
609.000000	80.269033
610.000000	79.685067
611.000000	79.118067
612.000000	78.489067
613.000000	77.819733
614.000000	77.159133
615.000000	76.508233
616.000000	75.819067
617.000000	75.120267
618.000000	74.401100
619.000000	73.675667
620.000000	72.924567
621.000000	72.143367
622.000000	71.401233
623.000000	70.624467
624.000000	69.821533
625.000000	69.017733
626.000000	68.183600
627.000000	67.356167
628.000000	66.492900
629.000000	65.606700
630.000000	64.720600
631.000000	63.797400
632.000000	62.910133
633.000000	62.025567
634.000000	61.171800
635.000000	60.359133
636.000000	59.607800
637.000000	58.917333
638.000000	58.305800
639.000000	57.767700
640.000000	57.318600
641.000000	56.969467
642.000000	56.714500
643.000000	56.559267
644.000000	56.508167
645.000000	56.546300
646.000000	56.675200
647.000000	56.906867
648.000000	57.194533
649.000000	57.568000
650.000000	58.020400
651.000000	58.531667
652.000000	59.107267
653.000000	59.737933
654.000000	60.417133
655.000000	61.109067
656.000000	61.826233
657.000000	62.558800
658.000000	63.268933
659.000000	63.990533
660.000000	64.721833
661.000000	65.412033
662.000000	66.063100
663.000000	66.696567
664.000000	67.336433
665.000000	67.942100
666.000000	68.467267
667.000000	68.953800
668.000000	69.433667
669.000000	69.834100
670.000000	70.229467
671.000000	70.637267
672.000000	70.979800
673.000000	71.284700
674.000000	71.570900
675.000000	71.846667
676.000000	72.080033
677.000000	72.285267
678.000000	72.499500
679.000000	72.701533
680.000000	72.859800
681.000000	73.008700
682.000000	73.130333
683.000000	73.266333
684.000000	73.382167
685.000000	73.468867
686.000000	73.549467
687.000000	73.593533
688.000000	73.643433
689.000000	73.732500
690.000000	73.796833
691.000000	73.817033
692.000000	73.842167
693.000000	73.886333
694.000000	73.979633
695.000000	74.029833
696.000000	74.081133
697.000000	74.115767
698.000000	74.217933
699.000000	74.301667
700.000000	74.380900
701.000000	74.506400
702.000000	74.613967
703.000000	74.746067
704.000000	74.914633
705.000000	75.067867
706.000000	75.276867
707.000000	75.470833
708.000000	75.660433
709.000000	75.925967
710.000000	76.240167
711.000000	76.488400
712.000000	76.789067
713.000000	77.140700
714.000000	77.461833
715.000000	77.808400
716.000000	78.161033
717.000000	78.575133
718.000000	78.918467
719.000000	79.250867
720.000000	79.683900
721.000000	80.072700
722.000000	80.458167
723.000000	80.858267
724.000000	81.136533
725.000000	81.529467
726.000000	81.867833
727.000000	82.090967
728.000000	82.370733
729.000000	82.619200
730.000000	82.822200
731.000000	83.030633
732.000000	83.212867
733.000000	83.442467
734.000000	83.657400
735.000000	83.762567
736.000000	83.924967
737.000000	84.116900
738.000000	84.211267
739.000000	84.317867
740.000000	84.466833
741.000000	84.606933
742.000000	84.727767
743.000000	84.821033
744.000000	84.979233
745.000000	85.056533
746.000000	85.201367
747.000000	85.339967
748.000000	85.398700
749.000000	85.575600
750.000000	85.685233
751.000000	85.745967
752.000000	85.859100
753.000000	85.928400
754.000000	86.029133
755.000000	86.030833
756.000000	86.084933
757.000000	86.218867
758.000000	86.280800
759.000000	86.256767
760.000000	86.319600
761.000000	86.209967
762.000000	86.277367
763.000000	86.158600
764.000000	85.992033
765.000000	85.935000
766.000000	85.850900
767.000000	85.689867
768.000000	85.579067
769.000000	85.485100
770.000000	85.268433
771.000000	85.248100
772.000000	85.076033
773.000000	84.984067
774.000000	84.712367
775.000000	84.690400
776.000000	84.596233
777.000000	84.437667
778.000000	84.468800
779.000000	84.325900
780.000000	84.225667
781.000000	84.124433
782.000000	84.080067
783.000000	84.046733
784.000000	83.960500
785.000000	84.000067
786.000000	84.034133
787.000000	83.966867
788.000000	83.992500
789.000000	83.927467
790.000000	83.812767
791.000000	83.936033
792.000000	83.944367
793.000000	83.819433
794.000000	83.843300
795.000000	83.793767
796.000000	83.705733
797.000000	83.669733
798.000000	83.483933
799.000000	83.426100
800.000000	83.248200
801.000000	83.184567
802.000000	83.014700
803.000000	82.771100
804.000000	82.543633
805.000000	82.470100
806.000000	82.129000
807.000000	82.008900
808.000000	81.860467
809.000000	81.592833
810.000000	81.297467
811.000000	81.128833
812.000000	80.911733
813.000000	80.688033
814.000000	80.511267
815.000000	80.251433
816.000000	79.946233
817.000000	79.643333
818.000000	79.531733
819.000000	79.273833
820.000000	79.122367
821.000000	78.737200
822.000000	78.569567
823.000000	78.418167
824.000000	78.218333
825.000000	77.782700
826.000000	77.689267
827.000000	77.436733
828.000000	77.433867
829.000000	77.234733
830.000000	77.018200
831.000000	76.859967
832.000000	76.695567
833.000000	76.608900
834.000000	76.376400
835.000000	76.337633
836.000000	76.033933
837.000000	75.914200
838.000000	75.655800
839.000000	75.700633
840.000000	75.523400
841.000000	75.826600
842.000000	75.412533
843.000000	75.082500
844.000000	75.023833
845.000000	74.957467
846.000000	74.894367
847.000000	74.819667
848.000000	74.693167
849.000000	74.662000
850.000000	74.515433
851.000000	74.386333
852.000000	74.007067
853.000000	74.193367
854.000000	73.892733
855.000000	73.633067
856.000000	73.566567
857.000000	73.354933
858.000000	73.518189
859.000000	73.413345
860.000000	73.325073
861.000000	73.230777
862.000000	73.124947
863.000000	73.014126
864.000000	72.929296
865.000000	72.852669
866.000000	72.756370
867.000000	72.628722
868.000000	72.551814
869.000000	72.481261
870.000000	72.490645
871.000000	72.593604
872.000000	72.725504
873.000000	72.854111
874.000000	72.952322
875.000000	73.008081
876.000000	73.052320
877.000000	73.065192
878.000000	73.073450
879.000000	73.061362
880.000000	73.032167
881.000000	73.014407
882.000000	72.993297
883.000000	72.958605
884.000000	72.934144
885.000000	72.899456
886.000000	72.860079
887.000000	72.811332
888.000000	72.778195
889.000000	72.723991
890.000000	72.677146
891.000000	72.628479
892.000000	72.578172
893.000000	72.519150
894.000000	72.460996
895.000000	72.404221
896.000000	72.348569
897.000000	72.288579
898.000000	72.222328
899.000000	72.161740
900.000000	72.097855
901.000000	72.039476
902.000000	71.987070
903.000000	71.938200
904.000000	71.878933
905.000000	71.830015
906.000000	71.785693
907.000000	71.741250
908.000000	71.695688
909.000000	71.657945
910.000000	71.622413
911.000000	71.589208
912.000000	71.560174
913.000000	71.513484
914.000000	71.478298
915.000000	71.434324
916.000000	71.394871
917.000000	71.354913
918.000000	71.295864
919.000000	71.247094
920.000000	71.203433
921.000000	71.151470
922.000000	71.091122
923.000000	71.043478
924.000000	70.985397
925.000000	70.938299
926.000000	70.887960
927.000000	70.837402
928.000000	70.780504
929.000000	70.732208
930.000000	70.687065
931.000000	70.625456
932.000000	70.569848
933.000000	70.513214
934.000000	70.447703
935.000000	70.388930
936.000000	70.328502
937.000000	70.264476
938.000000	70.199084
939.000000	70.136518
940.000000	70.069296
941.000000	70.003687
942.000000	69.949616
943.000000	69.883124
944.000000	69.808580
945.000000	69.738498
946.000000	69.665971
947.000000	69.590365
948.000000	69.517402
949.000000	69.439626
950.000000	69.351082
951.000000	69.270913
952.000000	69.197204
953.000000	69.113848
954.000000	69.023350
955.000000	68.930635
956.000000	68.841301
957.000000	68.754065
958.000000	68.661819
959.000000	68.560516
960.000000	68.461961
961.000000	68.364333
962.000000	68.264595
963.000000	68.172069
964.000000	68.070763
965.000000	67.982536
966.000000	67.902504
967.000000	67.802413
968.000000	67.718688
969.000000	67.641749
970.000000	67.553640
971.000000	67.477531
972.000000	67.401526
973.000000	67.317260
974.000000	67.231869
975.000000	67.151273
976.000000	67.066199
977.000000	66.996084
978.000000	66.926166
979.000000	66.846667
980.000000	66.759502
981.000000	66.681037
982.000000	66.612484
983.000000	66.539024
984.000000	66.463517
985.000000	66.397528
986.000000	66.329863
987.000000	66.266994
988.000000	66.202909
989.000000	66.145006
990.000000	66.095626
991.000000	66.040856
992.000000	65.989125
993.000000	65.938678
994.000000	65.894696
995.000000	65.840724
996.000000	65.796264
997.000000	65.758141
998.000000	65.720044
999.000000	65.675839
1000.000000	65.637681
1001.000000	65.600353
1002.000000	65.559955
1003.000000	65.517197
1004.000000	65.467563
1005.000000	65.424425
1006.000000	65.390743
1007.000000	65.361592
1008.000000	65.320233
1009.000000	65.285025
1010.000000	65.257993
1011.000000	65.229818
1012.000000	65.213180
1013.000000	65.203851
1014.000000	65.201386
1015.000000	65.195089
1016.000000	65.203306
1017.000000	65.212911
1018.000000	65.219848
1019.000000	65.229928
1020.000000	65.242788
1021.000000	65.268099
1022.000000	65.280677
1023.000000	65.299248
1024.000000	65.330429
1025.000000	65.351603
1026.000000	65.367184
1027.000000	65.382042
1028.000000	65.404071
1029.000000	65.426739
1030.000000	65.443385
1031.000000	65.458325
1032.000000	65.476475
1033.000000	65.499811
1034.000000	65.523082
1035.000000	65.538380
1036.000000	65.570711
1037.000000	65.581260
1038.000000	65.601097
1039.000000	65.620759
1040.000000	65.633823
1041.000000	65.653409
1042.000000	65.674657
1043.000000	65.682819
1044.000000	65.710001
1045.000000	65.729512
1046.000000	65.741216
1047.000000	65.763480
1048.000000	65.780730
1049.000000	65.801273
1050.000000	65.836131
1051.000000	65.865364
1052.000000	65.885847
1053.000000	65.905162
1054.000000	65.953835
1055.000000	65.988322
1056.000000	66.008016
1057.000000	66.051141
1058.000000	66.072242
1059.000000	66.104930
1060.000000	66.137843
1061.000000	66.160610
1062.000000	66.198178
1063.000000	66.231778
1064.000000	66.258386
1065.000000	66.281373
1066.000000	66.320593
1067.000000	66.342329
1068.000000	66.373151
1069.000000	66.399398
1070.000000	66.429624
1071.000000	66.446416
1072.000000	66.477686
1073.000000	66.509207
1074.000000	66.532533
1075.000000	66.550410
1076.000000	66.576293
1077.000000	66.596402
1078.000000	66.624600
1079.000000	66.646275
1080.000000	66.679555
1081.000000	66.694035
1082.000000	66.734990
1083.000000	66.757509
1084.000000	66.778926
1085.000000	66.800840
1086.000000	66.828196
1087.000000	66.850829
1088.000000	66.867991
1089.000000	66.875810
1090.000000	66.906874
1091.000000	66.913833
1092.000000	66.927188
1093.000000	66.936663
1094.000000	66.947411
1095.000000	66.947073
1096.000000	66.962158
1097.000000	66.968831
1098.000000	66.970600
1099.000000	66.977962
1100.000000	66.960985
1101.000000	66.969359
1102.000000	66.967196
1103.000000	66.965560
1104.000000	66.953515
1105.000000	66.957739
1106.000000	66.943916
1107.000000	66.945146
1108.000000	66.930712
1109.000000	66.926027
1110.000000	66.921005
1111.000000	66.912316
1112.000000	66.913424
1113.000000	66.907732
1114.000000	66.893053
1115.000000	66.878659
1116.000000	66.874996
1117.000000	66.844050
1118.000000	66.821074
1119.000000	66.773307
1120.000000	66.720865
1121.000000	66.668325
1122.000000	66.600273
1123.000000	66.512633
1124.000000	66.410103
1125.000000	66.294866
1126.000000	66.152627
1127.000000	66.000736
1128.000000	65.800287
1129.000000	65.567110
1130.000000	65.302423
1131.000000	65.002701
1132.000000	64.696425
1133.000000	64.396639
1134.000000	64.028225
1135.000000	63.633255
1136.000000	63.248882
1137.000000	62.889688
1138.000000	62.541571
1139.000000	62.215881
1140.000000	61.894314
1141.000000	61.584127
1142.000000	61.302455
1143.000000	61.054208
1144.000000	60.824026
1145.000000	60.633575
1146.000000	60.482952
1147.000000	60.361556
1148.000000	60.254222
1149.000000	60.149633
1150.000000	60.044283
1151.000000	59.927959
1152.000000	59.789564
1153.000000	59.619536
1154.000000	59.420731
1155.000000	59.200088
1156.000000	58.944071
1157.000000	58.682949
1158.000000	58.397595
1159.000000	58.111154
1160.000000	57.818067
1161.000000	57.515954
1162.000000	57.220453
1163.000000	56.927380
1164.000000	56.637389
1165.000000	56.350019
1166.000000	56.081006
1167.000000	55.820526
1168.000000	55.556414
1169.000000	55.298727
1170.000000	55.053048
1171.000000	54.812338
1172.000000	54.573651
1173.000000	54.335874
1174.000000	54.105673
1175.000000	53.863433
1176.000000	53.596308
1177.000000	53.286328
1178.000000	52.950900
1179.000000	52.600832
1180.000000	52.257151
1181.000000	51.936398
1182.000000	51.660685
1183.000000	51.461239
1184.000000	51.355895
1185.000000	51.351350
1186.000000	51.428652
1187.000000	51.569529
1188.000000	51.781351
1189.000000	52.045941
1190.000000	52.333057
1191.000000	52.621379
1192.000000	52.890893
1193.000000	53.115773
1194.000000	53.296079
1195.000000	53.448184
1196.000000	53.570262
1197.000000	53.661178
1198.000000	53.731703
1199.000000	53.781832
1200.000000	53.826906
1201.000000	53.868301
1202.000000	53.906515
1203.000000	53.951003
1204.000000	53.996092
1205.000000	54.058426
1206.000000	54.136331
1207.000000	54.209405
1208.000000	54.308976
1209.000000	54.405689
1210.000000	54.498024
1211.000000	54.606908
1212.000000	54.710855
1213.000000	54.814183
1214.000000	54.921676
1215.000000	55.038680
1216.000000	55.162311
1217.000000	55.285418
1218.000000	55.414194
1219.000000	55.549124
1220.000000	55.682537
1221.000000	55.818435
1222.000000	55.970386
1223.000000	56.113138
1224.000000	56.247911
1225.000000	56.388447
1226.000000	56.526573
1227.000000	56.657058
1228.000000	56.790753
1229.000000	56.922781
1230.000000	57.052748
1231.000000	57.179783
1232.000000	57.300016
1233.000000	57.418864
1234.000000	57.538150
1235.000000	57.654502
1236.000000	57.761093
1237.000000	57.864106
1238.000000	57.965848
1239.000000	58.070324
1240.000000	58.172151
1241.000000	58.268268
1242.000000	58.366038
1243.000000	58.459886
1244.000000	58.550921
1245.000000	58.640411
1246.000000	58.727550
1247.000000	58.806229
1248.000000	58.876472
1249.000000	58.925135
1250.000000	58.987451
1251.000000	59.058574
1252.000000	59.109269
1253.000000	59.155645
1254.000000	59.205922
1255.000000	59.253298
1256.000000	59.295723
1257.000000	59.324435
1258.000000	59.352917
1259.000000	59.388467
1260.000000	59.434379
1261.000000	59.466481
1262.000000	59.487489
1263.000000	59.522428
1264.000000	59.558098
1265.000000	59.593614
1266.000000	59.616710
1267.000000	59.645114
1268.000000	59.669587
1269.000000	59.697042
1270.000000	59.719742
1271.000000	59.739564
1272.000000	59.765847
1273.000000	59.789259
1274.000000	59.821756
1275.000000	59.856583
1276.000000	59.886578
1277.000000	59.917697
1278.000000	59.957906
1279.000000	59.993772
1280.000000	60.023161
1281.000000	60.060556
1282.000000	60.100260
1283.000000	60.140016
1284.000000	60.171478
1285.000000	60.193884
1286.000000	60.222454
1287.000000	60.238625
1288.000000	60.241078
1289.000000	60.248684
1290.000000	60.257884
1291.000000	60.252300
1292.000000	60.238921
1293.000000	60.220443
1294.000000	60.199513
1295.000000	60.178436
1296.000000	60.155332
1297.000000	60.122514
1298.000000	60.084932
1299.000000	60.046201
1300.000000	59.990437
1301.000000	59.938943
1302.000000	59.886770
1303.000000	59.829413
1304.000000	59.759068
1305.000000	59.683711
1306.000000	59.609977
1307.000000	59.517657
1308.000000	59.417254
1309.000000	59.329324
1310.000000	59.215566
1311.000000	59.103906
1312.000000	58.991298
1313.000000	58.864975
1314.000000	58.738987
1315.000000	58.602632
1316.000000	58.463076
1317.000000	58.316818
1318.000000	58.168731
1319.000000	58.025896
1320.000000	57.863763
1321.000000	57.702796
1322.000000	57.539206
1323.000000	57.356756
1324.000000	57.173451
1325.000000	56.991399
1326.000000	56.795806
1327.000000	56.602786
1328.000000	56.390849
1329.000000	56.171363
1330.000000	55.952436
1331.000000	55.731252
1332.000000	55.500943
1333.000000	55.263115
1334.000000	55.014697
1335.000000	54.776397
1336.000000	54.527424
1337.000000	54.273788
1338.000000	54.018096
1339.000000	53.745944
1340.000000	53.480688
1341.000000	53.215130
1342.000000	52.942066
1343.000000	52.669096
1344.000000	52.387552
1345.000000	52.091714
1346.000000	51.800492
1347.000000	51.508396
1348.000000	51.180968
1349.000000	50.848661
1350.000000	50.505088
1351.000000	50.133119
1352.000000	49.746997
1353.000000	49.482185
1354.000000	49.203696
1355.000000	48.963294
1356.000000	48.783034
1357.000000	48.661592
1358.000000	48.581843
1359.000000	48.492941
1360.000000	48.444182
1361.000000	48.288938
1362.000000	48.131724
1363.000000	47.944641
1364.000000	47.795742
1365.000000	47.597936
1366.000000	47.406593
1367.000000	47.181965
1368.000000	46.912050
1369.000000	46.664756
1370.000000	46.403155
1371.000000	46.100155
1372.000000	45.824038
1373.000000	45.538814
1374.000000	45.312945
1375.000000	45.101142
1376.000000	44.909079
1377.000000	44.693263
1378.000000	44.491490
1379.000000	44.184340
1380.000000	43.951347
1381.000000	43.543723
1382.000000	43.075960
1383.000000	42.527332
1384.000000	42.019520
1385.000000	41.516575
1386.000000	41.046965
1387.000000	40.590867
1388.000000	40.102897
1389.000000	39.682201
1390.000000	39.326615
1391.000000	38.938973
1392.000000	38.560815
1393.000000	38.233508
1394.000000	37.941594
1395.000000	37.545112
1396.000000	37.102739
1397.000000	36.736885
1398.000000	36.450359
1399.000000	36.107107
1400.000000	35.691207
1401.000000	35.205639
1402.000000	34.817917
1403.000000	34.396763
1404.000000	34.028448
1405.000000	33.613506
1406.000000	33.220344
1407.000000	32.862503
1408.000000	32.476017
1409.000000	32.109998
1410.000000	31.737660
1411.000000	31.412840
1412.000000	31.129656
1413.000000	30.846512
1414.000000	30.554419
1415.000000	30.248599
1416.000000	29.978281
1417.000000	29.767058
1418.000000	29.535444
1419.000000	29.290603
1420.000000	29.039184
1421.000000	28.807812
1422.000000	28.609326
1423.000000	28.421663
1424.000000	28.214453
1425.000000	28.015798
1426.000000	27.840116
1427.000000	27.681764
1428.000000	27.525182
1429.000000	27.366773
1430.000000	27.234934
1431.000000	27.090751
1432.000000	26.973295
1433.000000	26.851865
1434.000000	26.729589
1435.000000	26.611296
1436.000000	26.505223
1437.000000	26.411600
1438.000000	26.295441
1439.000000	26.198153
1440.000000	26.098959
1441.000000	26.017659
1442.000000	25.914062
1443.000000	25.832928
1444.000000	25.766183
1445.000000	25.698599
1446.000000	25.611339
1447.000000	25.518240
1448.000000	25.442538
1449.000000	25.401871
1450.000000	25.343045
1451.000000	25.274988
1452.000000	25.202340
1453.000000	25.135064
1454.000000	25.085347
1455.000000	25.040903
1456.000000	24.988155
1457.000000	24.931659
1458.000000	24.890914
1459.000000	24.866325
1460.000000	24.821596
1461.000000	24.799924
1462.000000	24.783983
1463.000000	24.766335
1464.000000	24.752129
1465.000000	24.736055
1466.000000	24.723997
1467.000000	24.718743
1468.000000	24.717720
1469.000000	24.721199
1470.000000	24.733789
1471.000000	24.734443
1472.000000	24.730403
1473.000000	24.725837
1474.000000	24.721601
1475.000000	24.727821
1476.000000	24.736644
1477.000000	24.750592
1478.000000	24.768976
1479.000000	24.796505
1480.000000	24.827975
1481.000000	24.854155
1482.000000	24.881438
1483.000000	24.912371
1484.000000	24.946332
1485.000000	24.991757
1486.000000	25.027635
1487.000000	25.059472
1488.000000	25.099242
1489.000000	25.146869
1490.000000	25.190943
1491.000000	25.227163
1492.000000	25.265219
1493.000000	25.312668
1494.000000	25.355530
1495.000000	25.410497
1496.000000	25.470871
1497.000000	25.520888
1498.000000	25.575080
1499.000000	25.632324
1500.000000	25.694308
1501.000000	25.758113
1502.000000	25.820251
1503.000000	25.885571
1504.000000	25.956391
1505.000000	26.027419
1506.000000	26.098528
1507.000000	26.170458
1508.000000	26.236561
1509.000000	26.308287
1510.000000	26.383619
1511.000000	26.448773
1512.000000	26.512957
1513.000000	26.580010
1514.000000	26.642660
1515.000000	26.706758
1516.000000	26.768707
1517.000000	26.830857
1518.000000	26.895838
1519.000000	26.952517
1520.000000	27.009401
1521.000000	27.076966
1522.000000	27.142688
1523.000000	27.202283
1524.000000	27.257357
1525.000000	27.312099
1526.000000	27.368118
1527.000000	27.424594
1528.000000	27.473607
1529.000000	27.519986
1530.000000	27.571465
1531.000000	27.613959
1532.000000	27.661305
1533.000000	27.716794
1534.000000	27.762655
1535.000000	27.798693
1536.000000	27.844580
1537.000000	27.889790
1538.000000	27.930785
1539.000000	27.966004
1540.000000	28.005590
1541.000000	28.055057
1542.000000	28.096118
1543.000000	28.140900
1544.000000	28.186267
1545.000000	28.229547
1546.000000	28.280444
1547.000000	28.335672
1548.000000	28.385087
1549.000000	28.439767
1550.000000	28.487336
1551.000000	28.539431
1552.000000	28.587197
1553.000000	28.631460
1554.000000	28.677426
1555.000000	28.712891
1556.000000	28.744665
1557.000000	28.773063
1558.000000	28.799725
1559.000000	28.827837
1560.000000	28.860140
1561.000000	28.874040
1562.000000	28.886811
1563.000000	28.909015
1564.000000	28.919156
1565.000000	28.931716
1566.000000	28.942661
1567.000000	28.958606
1568.000000	28.981633
1569.000000	28.992184
1570.000000	29.005622
1571.000000	29.018927
1572.000000	29.041122
1573.000000	29.066037
1574.000000	29.091818
1575.000000	29.118366
1576.000000	29.148528
1577.000000	29.194593
1578.000000	29.222148
1579.000000	29.266217
1580.000000	29.310357
1581.000000	29.348836
1582.000000	29.391729
1583.000000	29.447574
1584.000000	29.507564
1585.000000	29.550754
1586.000000	29.609654
1587.000000	29.650290
1588.000000	29.707894
1589.000000	29.757493
1590.000000	29.811244
1591.000000	29.864280
1592.000000	29.926644
1593.000000	29.977522
1594.000000	30.035320
1595.000000	30.095889
1596.000000	30.158561
1597.000000	30.218371
1598.000000	30.286783
1599.000000	30.352049
1600.000000	30.421739
1601.000000	30.481145
1602.000000	30.553639
1603.000000	30.614060
1604.000000	30.694987
1605.000000	30.753333
1606.000000	30.823148
1607.000000	30.894610
1608.000000	30.949832
1609.000000	31.023081
1610.000000	31.080340
1611.000000	31.134050
1612.000000	31.197869
1613.000000	31.269307
1614.000000	31.341915
1615.000000	31.401607
1616.000000	31.458007
1617.000000	31.531163
1618.000000	31.594297
1619.000000	31.664518
1620.000000	31.725448
1621.000000	31.798447
1622.000000	31.874791
1623.000000	31.932872
1624.000000	32.007087
1625.000000	32.078855
1626.000000	32.162413
1627.000000	32.228268
1628.000000	32.292888
1629.000000	32.366154
1630.000000	32.448432
1631.000000	32.522328
1632.000000	32.573852
1633.000000	32.645055
1634.000000	32.699970
1635.000000	32.767596
1636.000000	32.814000
1637.000000	32.876079
1638.000000	32.927089
1639.000000	32.983694
1640.000000	33.025843
1641.000000	33.092311
1642.000000	33.116957
1643.000000	33.170423
1644.000000	33.218239
1645.000000	33.259588
1646.000000	33.302313
1647.000000	33.335792
1648.000000	33.354565
1649.000000	33.378155
1650.000000	33.407026
1651.000000	33.432889
1652.000000	33.444099
1653.000000	33.447741
1654.000000	33.436675
1655.000000	33.431157
1656.000000	33.408502
1657.000000	33.395177
1658.000000	33.358107
1659.000000	33.322317
1660.000000	33.271036
1661.000000	33.217480
1662.000000	33.151620
1663.000000	33.082700
1664.000000	32.997288
1665.000000	32.905846
1666.000000	32.816755
1667.000000	32.690025
1668.000000	32.575945
1669.000000	32.429110
1670.000000	32.256940
1671.000000	32.072738
1672.000000	31.851777
1673.000000	31.609649
1674.000000	31.325941
1675.000000	31.007557
1676.000000	30.660512
1677.000000	30.298945
1678.000000	29.894798
1679.000000	29.521928
1680.000000	29.181180
1681.000000	28.894811
1682.000000	28.685076
1683.000000	28.544165
1684.000000	28.435253
1685.000000	28.378492
1686.000000	28.317791
1687.000000	28.254903
1688.000000	28.189372
1689.000000	28.085318
1690.000000	27.978842
1691.000000	27.881486
1692.000000	27.802000
1693.000000	27.756812
1694.000000	27.759473
1695.000000	27.790480
1696.000000	27.855039
1697.000000	27.951206
1698.000000	28.048792
1699.000000	28.148067
1700.000000	28.255652
1701.000000	28.332990
1702.000000	28.407572
1703.000000	28.447198
1704.000000	28.472354
1705.000000	28.484264
1706.000000	28.498629
1707.000000	28.490455
1708.000000	28.464934
1709.000000	28.421651
1710.000000	28.369234
1711.000000	28.299610
1712.000000	28.221367
1713.000000	28.120219
1714.000000	28.017587
1715.000000	27.909568
1716.000000	27.803863
1717.000000	27.711571
1718.000000	27.634449
1719.000000	27.561789
1720.000000	27.496143
1721.000000	27.429686
1722.000000	27.359021
1723.000000	27.288743
1724.000000	27.226877
1725.000000	27.156466
1726.000000	27.069788
1727.000000	26.984716
1728.000000	26.916626
1729.000000	26.850119
1730.000000	26.808774
1731.000000	26.787035
1732.000000	26.796492
1733.000000	26.846236
1734.000000	26.937584
1735.000000	27.060504
1736.000000	27.197269
1737.000000	27.357947
1738.000000	27.532943
1739.000000	27.701170
1740.000000	27.860578
1741.000000	28.015028
1742.000000	28.148830
1743.000000	28.262615
1744.000000	28.351237
1745.000000	28.420502
1746.000000	28.476357
1747.000000	28.514522
1748.000000	28.543307
1749.000000	28.552858
1750.000000	28.550775
1751.000000	28.533066
1752.000000	28.499910
1753.000000	28.473937
1754.000000	28.428529
1755.000000	28.368077
1756.000000	28.302738
1757.000000	28.239300
1758.000000	28.170607
1759.000000	28.114075
1760.000000	28.080530
1761.000000	28.053343
1762.000000	28.044719
1763.000000	28.063452
1764.000000	28.095602
1765.000000	28.152041
1766.000000	28.224843
1767.000000	28.313283
1768.000000	28.405852
1769.000000	28.497141
1770.000000	28.585341
1771.000000	28.673375
1772.000000	28.757596
1773.000000	28.842736
1774.000000	28.928045
1775.000000	29.000071
1776.000000	29.070405
1777.000000	29.140775
1778.000000	29.210665
1779.000000	29.268411
1780.000000	29.316110
1781.000000	29.371503
1782.000000	29.431127
1783.000000	29.495555
1784.000000	29.546356
1785.000000	29.589315
1786.000000	29.639176
1787.000000	29.682979
1788.000000	29.721356
1789.000000	29.760074
1790.000000	29.808458
1791.000000	29.852686
1792.000000	29.896316
1793.000000	29.950424
1794.000000	29.988690
1795.000000	30.022816
1796.000000	30.063669
1797.000000	30.106048
1798.000000	30.145884
1799.000000	30.194005
1800.000000	30.255961
1801.000000	30.309438
1802.000000	30.342510
1803.000000	30.374327
1804.000000	30.418613
1805.000000	30.469616
1806.000000	30.509632
1807.000000	30.545278
1808.000000	30.578080
1809.000000	30.611945
1810.000000	30.652898
1811.000000	30.686891
1812.000000	30.711895
1813.000000	30.724841
1814.000000	30.736360
1815.000000	30.740552
1816.000000	30.753038
1817.000000	30.776332
1818.000000	30.815916
1819.000000	30.867778
1820.000000	30.894274
1821.000000	30.902486
1822.000000	30.907198
1823.000000	30.926269
1824.000000	30.967926
1825.000000	31.017215
1826.000000	31.055431
1827.000000	31.115826
1828.000000	31.183011
1829.000000	31.231443
1830.000000	31.274786
1831.000000	31.312082
1832.000000	31.343915
1833.000000	31.400887
1834.000000	31.451620
1835.000000	31.501264
1836.000000	31.530328
1837.000000	31.549729
1838.000000	31.572277
1839.000000	31.599101
1840.000000	31.614167
1841.000000	31.619118
1842.000000	31.592792
1843.000000	31.579095
1844.000000	31.597982
1845.000000	31.628874
1846.000000	31.660620
1847.000000	31.652403
1848.000000	31.619086
1849.000000	31.588849
1850.000000	31.570392
1851.000000	31.543910
1852.000000	31.509180
1853.000000	31.484634
1854.000000	31.419887
1855.000000	31.348746
1856.000000	31.279986
1857.000000	31.188494
1858.000000	31.088214
1859.000000	30.956928
1860.000000	30.805084
1861.000000	30.629563
1862.000000	30.463710
1863.000000	30.319672
1864.000000	30.151182
1865.000000	29.970531
1866.000000	29.792949
1867.000000	29.576415
1868.000000	29.314412
1869.000000	28.987545
1870.000000	28.659821
1871.000000	28.291123
1872.000000	27.917406
1873.000000	27.495979
1874.000000	27.064086
1875.000000	26.623633
1876.000000	26.175162
1877.000000	25.695601
1878.000000	25.202877
1879.000000	24.728517
1880.000000	24.253558
1881.000000	23.723794
1882.000000	23.198329
1883.000000	22.648261
1884.000000	22.093776
1885.000000	21.580277
1886.000000	21.098097
1887.000000	20.627997
1888.000000	20.159238
1889.000000	19.720807
1890.000000	19.281953
1891.000000	18.818387
1892.000000	18.374854
1893.000000	17.973444
1894.000000	17.615118
1895.000000	17.299547
1896.000000	16.971594
1897.000000	16.643469
1898.000000	16.300970
1899.000000	15.954543
1900.000000	15.626769
1901.000000	15.324189
1902.000000	15.054649
1903.000000	14.797334
1904.000000	14.524299
1905.000000	14.243812
1906.000000	13.978448
1907.000000	13.745123
1908.000000	13.533190
1909.000000	13.358682
1910.000000	13.151966
1911.000000	12.979787
1912.000000	12.793027
1913.000000	12.591336
1914.000000	12.415406
1915.000000	12.259912
1916.000000	12.124453
1917.000000	11.971193
1918.000000	11.846986
1919.000000	11.726350
1920.000000	11.586581
1921.000000	11.473579
1922.000000	11.356863
1923.000000	11.254385
1924.000000	11.173015
1925.000000	11.102472
1926.000000	11.028645
1927.000000	10.954696
1928.000000	10.900324
1929.000000	10.840868
1930.000000	10.789283
1931.000000	10.745886
1932.000000	10.714853
1933.000000	10.683238
1934.000000	10.662730
1935.000000	10.661628
1936.000000	10.655177
1937.000000	10.657520
1938.000000	10.652068
1939.000000	10.656109
1940.000000	10.694910
1941.000000	10.713162
1942.000000	10.731579
1943.000000	10.756840
1944.000000	10.789538
1945.000000	10.830122
1946.000000	10.875175
1947.000000	10.913674
1948.000000	10.964997
1949.000000	11.018550
1950.000000	11.061950
1951.000000	11.122924
1952.000000	11.179004
1953.000000	11.250165
1954.000000	11.308799
1955.000000	11.372591
1956.000000	11.426666
1957.000000	11.496783
1958.000000	11.552436
1959.000000	11.621879
1960.000000	11.705533
1961.000000	11.771068
1962.000000	11.842947
1963.000000	11.917523
1964.000000	11.990782
1965.000000	12.064767
1966.000000	12.126411
1967.000000	12.202660
1968.000000	12.288262
1969.000000	12.355331
1970.000000	12.436879
1971.000000	12.506757
1972.000000	12.603842
1973.000000	12.673286
1974.000000	12.759901
1975.000000	12.841835
1976.000000	12.916805
1977.000000	13.006637
1978.000000	13.096329
1979.000000	13.174190
1980.000000	13.272458
1981.000000	13.345016
1982.000000	13.416846
1983.000000	13.514635
1984.000000	13.592919
1985.000000	13.672113
1986.000000	13.756575
1987.000000	13.846965
1988.000000	13.931650
1989.000000	14.009101
1990.000000	14.080875
1991.000000	14.156300
1992.000000	14.240725
1993.000000	14.299685
1994.000000	14.375566
1995.000000	14.449357
1996.000000	14.507299
1997.000000	14.575402
1998.000000	14.640651
1999.000000	14.704441
