PE UV       SUBTECH     SPECTRUM    ASCII       PEDS        4.00        
   -1
CICIMAUCR0251-3.Sample.ASC
24/05/27
17:05:10.00
24/05/27
17:05:10.00
Vinicio Soto Monge
C. resplendens, F
250,000000
1
Lambda 1050
1050L1511233
PerkinElmer UV WinLab 6.3.2.0749 / 2.02.05 Lambda 900 UV/VIS/NIR, Aug  7 2015 09:38:08

0
0
3350/servo 860,8/2
0
0
UV/VIS
1
1
1
DoubleDePol,CommonBeamDepol,RBeamAtt,SBeamAtt,60mm sphere, WB InGaAs Detector
0
0
0
0
Program
Program
3350/servo 860,8/2
3350/0,2 860,8/0,2
3350/0,2 860,8/0,2
0
15.00
 
 
 
0
 
860,8
319,2
860,8
Front
100
on
S:100 R:100
0
0
0
0
 
0
 
 
 
0
 
 
0
0
0
0
0
 
 
 
 
0
0


0
0
#HDR
-1
-1
#GR
nm
%R
1.0
0.0
2500,000000
-1,000000
2251
8
89,601500
5,208800
#DATA
250.000000	2232.000000	6.765233
251.000000	2231.000000	6.732467
252.000000	2230.000000	6.704500
253.000000	2229.000000	6.689033
254.000000	2228.000000	6.690000
255.000000	2227.000000	6.685633
256.000000	2226.000000	6.647933
257.000000	2225.000000	6.640767
258.000000	2224.000000	6.604300
259.000000	2223.000000	6.605033
260.000000	2222.000000	6.590967
261.000000	2221.000000	6.544367
262.000000	2220.000000	6.516833
263.000000	2219.000000	6.477600
264.000000	2218.000000	6.471033
265.000000	2217.000000	6.440567
266.000000	2216.000000	6.394500
267.000000	2215.000000	6.355767
268.000000	2214.000000	6.351967
269.000000	2213.000000	6.339333
270.000000	2212.000000	6.316267
271.000000	2211.000000	6.311500
272.000000	2210.000000	6.293400
273.000000	2209.000000	6.289967
274.000000	2208.000000	6.287167
275.000000	2207.000000	6.267033
276.000000	2206.000000	6.251300
277.000000	2205.000000	6.245833
278.000000	2204.000000	6.252133
279.000000	2203.000000	6.219800
280.000000	2202.000000	6.225600
281.000000	2201.000000	6.216167
282.000000	2200.000000	6.202800
283.000000	2199.000000	6.203900
284.000000	2198.000000	6.191700
285.000000	2197.000000	6.195033
286.000000	2196.000000	6.191133
287.000000	2195.000000	6.169600
288.000000	2194.000000	6.156633
289.000000	2193.000000	6.147067
290.000000	2192.000000	6.137333
291.000000	2191.000000	6.126567
292.000000	2190.000000	6.115567
293.000000	2189.000000	6.109533
294.000000	2188.000000	6.077800
295.000000	2187.000000	6.064433
296.000000	2186.000000	6.059967
297.000000	2185.000000	6.066233
298.000000	2184.000000	6.053933
299.000000	2183.000000	6.040100
300.000000	2182.000000	6.036133
301.000000	2181.000000	6.040133
302.000000	2180.000000	6.018100
303.000000	2179.000000	5.988267
304.000000	2178.000000	5.990733
305.000000	2177.000000	6.004967
306.000000	2176.000000	5.991233
307.000000	2175.000000	5.984833
308.000000	2174.000000	5.970200
309.000000	2173.000000	5.941967
310.000000	2172.000000	5.939867
311.000000	2171.000000	5.935067
312.000000	2170.000000	5.900400
313.000000	2169.000000	5.888233
314.000000	2168.000000	5.925033
315.000000	2167.000000	5.925733
316.000000	2166.000000	6.212033
317.000000	2165.000000	6.450500
318.000000	2164.000000	6.279967
319.000000	2163.000000	6.359333
320.000000	2162.000000	6.480900
321.000000	2161.000000	6.349200
322.000000	2160.000000	6.182633
323.000000	2159.000000	6.287633
324.000000	2158.000000	6.236967
325.000000	2157.000000	6.080067
326.000000	2156.000000	6.125467
327.000000	2155.000000	5.977500
328.000000	2154.000000	5.887967
329.000000	2153.000000	6.135967
330.000000	2152.000000	6.155833
331.000000	2151.000000	6.020800
332.000000	2150.000000	5.988767
333.000000	2149.000000	6.020767
334.000000	2148.000000	6.052800
335.000000	2147.000000	6.003400
336.000000	2146.000000	5.988867
337.000000	2145.000000	6.077333
338.000000	2144.000000	6.095133
339.000000	2143.000000	6.008867
340.000000	2142.000000	6.008267
341.000000	2141.000000	6.054067
342.000000	2140.000000	6.029567
343.000000	2139.000000	6.064400
344.000000	2138.000000	6.114700
345.000000	2137.000000	6.055967
346.000000	2136.000000	6.040033
347.000000	2135.000000	6.051333
348.000000	2134.000000	5.982367
349.000000	2133.000000	5.983033
350.000000	2132.000000	5.985467
351.000000	2131.000000	6.046967
352.000000	2130.000000	6.128533
353.000000	2129.000000	6.148633
354.000000	2128.000000	6.140367
355.000000	2127.000000	6.198567
356.000000	2126.000000	6.267033
357.000000	2125.000000	6.302867
358.000000	2124.000000	6.337467
359.000000	2123.000000	6.350033
360.000000	2122.000000	6.400733
361.000000	2121.000000	6.421600
362.000000	2120.000000	6.459600
363.000000	2119.000000	6.508933
364.000000	2118.000000	6.567767
365.000000	2117.000000	6.585733
366.000000	2116.000000	6.589900
367.000000	2115.000000	6.588567
368.000000	2114.000000	6.653267
369.000000	2113.000000	6.691300
370.000000	2112.000000	6.686867
371.000000	2111.000000	6.690333
372.000000	2110.000000	6.735933
373.000000	2109.000000	6.727233
374.000000	2108.000000	6.798833
375.000000	2107.000000	7.044967
376.000000	2106.000000	7.141233
377.000000	2105.000000	7.173533
378.000000	2104.000000	7.245667
379.000000	2103.000000	7.317433
380.000000	2102.000000	7.400633
381.000000	2101.000000	7.500867
382.000000	2100.000000	7.594000
383.000000	2099.000000	7.690400
384.000000	2098.000000	7.805967
385.000000	2097.000000	7.938967
386.000000	2096.000000	8.078200
387.000000	2095.000000	8.201833
388.000000	2094.000000	8.344500
389.000000	2093.000000	8.497633
390.000000	2092.000000	8.666400
391.000000	2091.000000	8.850833
392.000000	2090.000000	9.044400
393.000000	2089.000000	9.242167
394.000000	2088.000000	9.478833
395.000000	2087.000000	9.707467
396.000000	2086.000000	9.936133
397.000000	2085.000000	10.182400
398.000000	2084.000000	10.458100
399.000000	2083.000000	10.742400
400.000000	2082.000000	11.045833
401.000000	2081.000000	11.350033
402.000000	2080.000000	11.669400
403.000000	2079.000000	12.019167
404.000000	2078.000000	12.379600
405.000000	2077.000000	12.742000
406.000000	2076.000000	13.124033
407.000000	2075.000000	13.514800
408.000000	2074.000000	13.931300
409.000000	2073.000000	14.339700
410.000000	2072.000000	14.786300
411.000000	2071.000000	15.212800
412.000000	2070.000000	15.659233
413.000000	2069.000000	16.113400
414.000000	2068.000000	16.573600
415.000000	2067.000000	17.035000
416.000000	2066.000000	17.483867
417.000000	2065.000000	17.936967
418.000000	2064.000000	18.400033
419.000000	2063.000000	18.843667
420.000000	2062.000000	19.281867
421.000000	2061.000000	19.726467
422.000000	2060.000000	20.137733
423.000000	2059.000000	20.579367
424.000000	2058.000000	21.001200
425.000000	2057.000000	21.383833
426.000000	2056.000000	21.748600
427.000000	2055.000000	22.093800
428.000000	2054.000000	22.453733
429.000000	2053.000000	22.800967
430.000000	2052.000000	23.106533
431.000000	2051.000000	23.432833
432.000000	2050.000000	23.725833
433.000000	2049.000000	24.004233
434.000000	2048.000000	24.260200
435.000000	2047.000000	24.514800
436.000000	2046.000000	24.765533
437.000000	2045.000000	24.991133
438.000000	2044.000000	25.167333
439.000000	2043.000000	25.377167
440.000000	2042.000000	25.548167
441.000000	2041.000000	25.723733
442.000000	2040.000000	25.838467
443.000000	2039.000000	25.951600
444.000000	2038.000000	26.079100
445.000000	2037.000000	26.182900
446.000000	2036.000000	26.201133
447.000000	2035.000000	26.249667
448.000000	2034.000000	26.288200
449.000000	2033.000000	26.319500
450.000000	2032.000000	26.313667
451.000000	2031.000000	26.296833
452.000000	2030.000000	26.244433
453.000000	2029.000000	26.192000
454.000000	2028.000000	26.133333
455.000000	2027.000000	26.062500
456.000000	2026.000000	25.957367
457.000000	2025.000000	25.855900
458.000000	2024.000000	25.739500
459.000000	2023.000000	25.605733
460.000000	2022.000000	25.495333
461.000000	2021.000000	25.357067
462.000000	2020.000000	25.230333
463.000000	2019.000000	25.101000
464.000000	2018.000000	24.984000
465.000000	2017.000000	24.862300
466.000000	2016.000000	24.754500
467.000000	2015.000000	24.656667
468.000000	2014.000000	24.585367
469.000000	2013.000000	24.511133
470.000000	2012.000000	24.501767
471.000000	2011.000000	24.487600
472.000000	2010.000000	24.518900
473.000000	2009.000000	24.569767
474.000000	2008.000000	24.651600
475.000000	2007.000000	24.788467
476.000000	2006.000000	24.956900
477.000000	2005.000000	25.170300
478.000000	2004.000000	25.421433
479.000000	2003.000000	25.704900
480.000000	2002.000000	26.033167
481.000000	2001.000000	26.380867
482.000000	2000.000000	26.763333
483.000000	1999.000000	27.197500
484.000000	1998.000000	27.620833
485.000000	1997.000000	28.079900
486.000000	1996.000000	28.548667
487.000000	1995.000000	29.003067
488.000000	1994.000000	29.462433
489.000000	1993.000000	29.907033
490.000000	1992.000000	30.357800
491.000000	1991.000000	30.794933
492.000000	1990.000000	31.208467
493.000000	1989.000000	31.556867
494.000000	1988.000000	31.921500
495.000000	1987.000000	32.234067
496.000000	1986.000000	32.523433
497.000000	1985.000000	32.787867
498.000000	1984.000000	32.982867
499.000000	1983.000000	33.199033
500.000000	1982.000000	33.377433
501.000000	1981.000000	33.498667
502.000000	1980.000000	33.660000
503.000000	1979.000000	33.787733
504.000000	1978.000000	33.930100
505.000000	1977.000000	34.085300
506.000000	1976.000000	34.250900
507.000000	1975.000000	34.458767
508.000000	1974.000000	34.659167
509.000000	1973.000000	34.907267
510.000000	1972.000000	35.228233
511.000000	1971.000000	35.566467
512.000000	1970.000000	35.956267
513.000000	1969.000000	36.445300
514.000000	1968.000000	36.982967
515.000000	1967.000000	37.596200
516.000000	1966.000000	38.311233
517.000000	1965.000000	39.059667
518.000000	1964.000000	39.950300
519.000000	1963.000000	40.907067
520.000000	1962.000000	41.949833
521.000000	1961.000000	43.094733
522.000000	1960.000000	44.332600
523.000000	1959.000000	45.637067
524.000000	1958.000000	47.054200
525.000000	1957.000000	48.471933
526.000000	1956.000000	49.980933
527.000000	1955.000000	51.523933
528.000000	1954.000000	53.098967
529.000000	1953.000000	54.707900
530.000000	1952.000000	56.343400
531.000000	1951.000000	57.970633
532.000000	1950.000000	59.599767
533.000000	1949.000000	61.207333
534.000000	1948.000000	62.797667
535.000000	1947.000000	64.315400
536.000000	1946.000000	65.788900
537.000000	1945.000000	67.239167
538.000000	1944.000000	68.583233
539.000000	1943.000000	69.894000
540.000000	1942.000000	71.168333
541.000000	1941.000000	72.394033
542.000000	1940.000000	73.585933
543.000000	1939.000000	74.695000
544.000000	1938.000000	75.778500
545.000000	1937.000000	76.801700
546.000000	1936.000000	77.731167
547.000000	1935.000000	78.694167
548.000000	1934.000000	79.555367
549.000000	1933.000000	80.389033
550.000000	1932.000000	81.187733
551.000000	1931.000000	81.915133
552.000000	1930.000000	82.610067
553.000000	1929.000000	83.272867
554.000000	1928.000000	83.886367
555.000000	1927.000000	84.434533
556.000000	1926.000000	84.949100
557.000000	1925.000000	85.454267
558.000000	1924.000000	85.915067
559.000000	1923.000000	86.358700
560.000000	1922.000000	86.792133
561.000000	1921.000000	87.178767
562.000000	1920.000000	87.526733
563.000000	1919.000000	87.863733
564.000000	1918.000000	88.174167
565.000000	1917.000000	88.486933
566.000000	1916.000000	88.751167
567.000000	1915.000000	89.006900
568.000000	1914.000000	89.234567
569.000000	1913.000000	89.468000
570.000000	1912.000000	89.691033
571.000000	1911.000000	89.863900
572.000000	1910.000000	90.055167
573.000000	1909.000000	90.208867
574.000000	1908.000000	90.354167
575.000000	1907.000000	90.480067
576.000000	1906.000000	90.610900
577.000000	1905.000000	90.704233
578.000000	1904.000000	90.786600
579.000000	1903.000000	90.857633
580.000000	1902.000000	90.915133
581.000000	1901.000000	90.982533
582.000000	1900.000000	90.997300
583.000000	1899.000000	90.977067
584.000000	1898.000000	90.980567
585.000000	1897.000000	90.974933
586.000000	1896.000000	90.952067
587.000000	1895.000000	90.905467
588.000000	1894.000000	90.836867
589.000000	1893.000000	90.752100
590.000000	1892.000000	90.660033
591.000000	1891.000000	90.560100
592.000000	1890.000000	90.447733
593.000000	1889.000000	90.332033
594.000000	1888.000000	90.157900
595.000000	1887.000000	90.003300
596.000000	1886.000000	89.834667
597.000000	1885.000000	89.668867
598.000000	1884.000000	89.444400
599.000000	1883.000000	89.200233
600.000000	1882.000000	88.981667
601.000000	1881.000000	88.708467
602.000000	1880.000000	88.392333
603.000000	1879.000000	88.107867
604.000000	1878.000000	87.799633
605.000000	1877.000000	87.430000
606.000000	1876.000000	87.022700
607.000000	1875.000000	86.624133
608.000000	1874.000000	86.192833
609.000000	1873.000000	85.699133
610.000000	1872.000000	85.200767
611.000000	1871.000000	84.664000
612.000000	1870.000000	84.135667
613.000000	1869.000000	83.588700
614.000000	1868.000000	82.984533
615.000000	1867.000000	82.351533
616.000000	1866.000000	81.728900
617.000000	1865.000000	81.110067
618.000000	1864.000000	80.478067
619.000000	1863.000000	79.804567
620.000000	1862.000000	79.094100
621.000000	1861.000000	78.378700
622.000000	1860.000000	77.576400
623.000000	1859.000000	76.731300
624.000000	1858.000000	75.870533
625.000000	1857.000000	74.975967
626.000000	1856.000000	74.044167
627.000000	1855.000000	73.065467
628.000000	1854.000000	72.054133
629.000000	1853.000000	71.071967
630.000000	1852.000000	70.073767
631.000000	1851.000000	69.054267
632.000000	1850.000000	68.068333
633.000000	1849.000000	67.121933
634.000000	1848.000000	66.204100
635.000000	1847.000000	65.352600
636.000000	1846.000000	64.517867
637.000000	1845.000000	63.673367
638.000000	1844.000000	62.845000
639.000000	1843.000000	62.014867
640.000000	1842.000000	61.132000
641.000000	1841.000000	60.230833
642.000000	1840.000000	59.296233
643.000000	1839.000000	58.324533
644.000000	1838.000000	57.349967
645.000000	1837.000000	56.406600
646.000000	1836.000000	55.540100
647.000000	1835.000000	54.736200
648.000000	1834.000000	54.000333
649.000000	1833.000000	53.398067
650.000000	1832.000000	52.908500
651.000000	1831.000000	52.562100
652.000000	1830.000000	52.406100
653.000000	1829.000000	52.371467
654.000000	1828.000000	52.485367
655.000000	1827.000000	52.748300
656.000000	1826.000000	53.138767
657.000000	1825.000000	53.565800
658.000000	1824.000000	54.069667
659.000000	1823.000000	54.657067
660.000000	1822.000000	55.248267
661.000000	1821.000000	55.893300
662.000000	1820.000000	56.602333
663.000000	1819.000000	57.307300
664.000000	1818.000000	58.002233
665.000000	1817.000000	58.697800
666.000000	1816.000000	59.429267
667.000000	1815.000000	60.185133
668.000000	1814.000000	60.976433
669.000000	1813.000000	61.803300
670.000000	1812.000000	62.637067
671.000000	1811.000000	63.487633
672.000000	1810.000000	64.332767
673.000000	1809.000000	65.196433
674.000000	1808.000000	66.039667
675.000000	1807.000000	66.814100
676.000000	1806.000000	67.553067
677.000000	1805.000000	68.295633
678.000000	1804.000000	68.949267
679.000000	1803.000000	69.580900
680.000000	1802.000000	70.143700
681.000000	1801.000000	70.643000
682.000000	1800.000000	71.092633
683.000000	1799.000000	71.504033
684.000000	1798.000000	71.897200
685.000000	1797.000000	72.245033
686.000000	1796.000000	72.538900
687.000000	1795.000000	72.805433
688.000000	1794.000000	73.047233
689.000000	1793.000000	73.311133
690.000000	1792.000000	73.595067
691.000000	1791.000000	73.810767
692.000000	1790.000000	73.977767
693.000000	1789.000000	74.135767
694.000000	1788.000000	74.308100
695.000000	1787.000000	74.457233
696.000000	1786.000000	74.505867
697.000000	1785.000000	74.514433
698.000000	1784.000000	74.531767
699.000000	1783.000000	74.475433
700.000000	1782.000000	74.352300
701.000000	1781.000000	74.216700
702.000000	1780.000000	74.127667
703.000000	1779.000000	74.040567
704.000000	1778.000000	73.904100
705.000000	1777.000000	73.761700
706.000000	1776.000000	73.653600
707.000000	1775.000000	73.573767
708.000000	1774.000000	73.525533
709.000000	1773.000000	73.519800
710.000000	1772.000000	73.537167
711.000000	1771.000000	73.609967
712.000000	1770.000000	73.700333
713.000000	1769.000000	73.768200
714.000000	1768.000000	73.873700
715.000000	1767.000000	73.973567
716.000000	1766.000000	74.142967
717.000000	1765.000000	74.280967
718.000000	1764.000000	74.434767
719.000000	1763.000000	74.613100
720.000000	1762.000000	74.730100
721.000000	1761.000000	74.834033
722.000000	1760.000000	74.970900
723.000000	1759.000000	75.117567
724.000000	1758.000000	75.275867
725.000000	1757.000000	75.408867
726.000000	1756.000000	75.623433
727.000000	1755.000000	75.818067
728.000000	1754.000000	76.038533
729.000000	1753.000000	76.254667
730.000000	1752.000000	76.496600
731.000000	1751.000000	76.796867
732.000000	1750.000000	77.114733
733.000000	1749.000000	77.528467
734.000000	1748.000000	77.876767
735.000000	1747.000000	78.168333
736.000000	1746.000000	78.533733
737.000000	1745.000000	78.911900
738.000000	1744.000000	79.294500
739.000000	1743.000000	79.639833
740.000000	1742.000000	80.039333
741.000000	1741.000000	80.379533
742.000000	1740.000000	80.768433
743.000000	1739.000000	81.101467
744.000000	1738.000000	81.469167
745.000000	1737.000000	81.733100
746.000000	1736.000000	82.041567
747.000000	1735.000000	82.329600
748.000000	1734.000000	82.468767
749.000000	1733.000000	82.659133
750.000000	1732.000000	82.828300
751.000000	1731.000000	83.020733
752.000000	1730.000000	83.139167
753.000000	1729.000000	83.308967
754.000000	1728.000000	83.384467
755.000000	1727.000000	83.461500
756.000000	1726.000000	83.560100
757.000000	1725.000000	83.687700
758.000000	1724.000000	83.618300
759.000000	1723.000000	83.639233
760.000000	1722.000000	83.611767
761.000000	1721.000000	83.610200
762.000000	1720.000000	83.574700
763.000000	1719.000000	83.540233
764.000000	1718.000000	83.521300
765.000000	1717.000000	83.556400
766.000000	1716.000000	83.550167
767.000000	1715.000000	83.606667
768.000000	1714.000000	83.637833
769.000000	1713.000000	83.696533
770.000000	1712.000000	83.848467
771.000000	1711.000000	83.954300
772.000000	1710.000000	84.039000
773.000000	1709.000000	84.270200
774.000000	1708.000000	84.328633
775.000000	1707.000000	84.583900
776.000000	1706.000000	84.694033
777.000000	1705.000000	84.933400
778.000000	1704.000000	85.057800
779.000000	1703.000000	85.278500
780.000000	1702.000000	85.391567
781.000000	1701.000000	85.523533
782.000000	1700.000000	85.587800
783.000000	1699.000000	85.558967
784.000000	1698.000000	85.641533
785.000000	1697.000000	85.578533
786.000000	1696.000000	85.551267
787.000000	1695.000000	85.282100
788.000000	1694.000000	85.215667
789.000000	1693.000000	85.040933
790.000000	1692.000000	84.854600
791.000000	1691.000000	84.477967
792.000000	1690.000000	84.394900
793.000000	1689.000000	84.138900
794.000000	1688.000000	83.939433
795.000000	1687.000000	83.656367
796.000000	1686.000000	83.364667
797.000000	1685.000000	83.217800
798.000000	1684.000000	82.955600
799.000000	1683.000000	82.584333
800.000000	1682.000000	82.442033
801.000000	1681.000000	82.187767
802.000000	1680.000000	81.939200
803.000000	1679.000000	81.752167
804.000000	1678.000000	81.561833
805.000000	1677.000000	81.301800
806.000000	1676.000000	81.346833
807.000000	1675.000000	81.052233
808.000000	1674.000000	81.034233
809.000000	1673.000000	81.148733
810.000000	1672.000000	81.025067
811.000000	1671.000000	81.041367
812.000000	1670.000000	81.159233
813.000000	1669.000000	81.056233
814.000000	1668.000000	81.301567
815.000000	1667.000000	81.182900
816.000000	1666.000000	81.352800
817.000000	1665.000000	81.600333
818.000000	1664.000000	81.420200
819.000000	1663.000000	81.516400
820.000000	1662.000000	81.571267
821.000000	1661.000000	81.388567
822.000000	1660.000000	81.383733
823.000000	1659.000000	81.184933
824.000000	1658.000000	81.019667
825.000000	1657.000000	80.793800
826.000000	1656.000000	80.524867
827.000000	1655.000000	80.264833
828.000000	1654.000000	79.970567
829.000000	1653.000000	79.704300
830.000000	1652.000000	79.298100
831.000000	1651.000000	78.932233
832.000000	1650.000000	78.617100
833.000000	1649.000000	78.188400
834.000000	1648.000000	77.793333
835.000000	1647.000000	77.485633
836.000000	1646.000000	76.992600
837.000000	1645.000000	76.680367
838.000000	1644.000000	76.542100
839.000000	1643.000000	76.134667
840.000000	1642.000000	75.870800
841.000000	1641.000000	75.683533
842.000000	1640.000000	75.382667
843.000000	1639.000000	75.242800
844.000000	1638.000000	74.650267
845.000000	1637.000000	74.590767
846.000000	1636.000000	74.468467
847.000000	1635.000000	74.274967
848.000000	1634.000000	74.062067
849.000000	1633.000000	73.674367
850.000000	1632.000000	73.620200
851.000000	1631.000000	73.570800
852.000000	1630.000000	73.130100
853.000000	1629.000000	73.051033
854.000000	1628.000000	72.557700
855.000000	1627.000000	72.253367
856.000000	1626.000000	72.718167
857.000000	1625.000000	72.030200
858.000000	1624.000000	72.333911
859.000000	1623.000000	72.184489
860.000000	1622.000000	72.037059
861.000000	1621.000000	71.896756
862.000000	1620.000000	71.778566
863.000000	1619.000000	71.643501
864.000000	1618.000000	71.520329
865.000000	1617.000000	71.399757
866.000000	1616.000000	71.290161
867.000000	1615.000000	71.175919
868.000000	1614.000000	71.074973
869.000000	1613.000000	70.983256
870.000000	1612.000000	70.935587
871.000000	1611.000000	70.927302
872.000000	1610.000000	70.940960
873.000000	1609.000000	70.951718
874.000000	1608.000000	70.953772
875.000000	1607.000000	70.939133
876.000000	1606.000000	70.918734
877.000000	1605.000000	70.895424
878.000000	1604.000000	70.874002
879.000000	1603.000000	70.849034
880.000000	1602.000000	70.821234
881.000000	1601.000000	70.800016
882.000000	1600.000000	70.778429
883.000000	1599.000000	70.770006
884.000000	1598.000000	70.757371
885.000000	1597.000000	70.737184
886.000000	1596.000000	70.718743
887.000000	1595.000000	70.698324
888.000000	1594.000000	70.674344
889.000000	1593.000000	70.638196
890.000000	1592.000000	70.608234
891.000000	1591.000000	70.570726
892.000000	1590.000000	70.524325
893.000000	1589.000000	70.472169
894.000000	1588.000000	70.411368
895.000000	1587.000000	70.341486
896.000000	1586.000000	70.278266
897.000000	1585.000000	70.207483
898.000000	1584.000000	70.135028
899.000000	1583.000000	70.069085
900.000000	1582.000000	69.992462
901.000000	1581.000000	69.910231
902.000000	1580.000000	69.843423
903.000000	1579.000000	69.779696
904.000000	1578.000000	69.713437
905.000000	1577.000000	69.658511
906.000000	1576.000000	69.613494
907.000000	1575.000000	69.574715
908.000000	1574.000000	69.535869
909.000000	1573.000000	69.501386
910.000000	1572.000000	69.468966
911.000000	1571.000000	69.448585
912.000000	1570.000000	69.445395
913.000000	1569.000000	69.436247
914.000000	1568.000000	69.416785
915.000000	1567.000000	69.389901
916.000000	1566.000000	69.376586
917.000000	1565.000000	69.369853
918.000000	1564.000000	69.370218
919.000000	1563.000000	69.357902
920.000000	1562.000000	69.334276
921.000000	1561.000000	69.326617
922.000000	1560.000000	69.314085
923.000000	1559.000000	69.294493
924.000000	1558.000000	69.285527
925.000000	1557.000000	69.277965
926.000000	1556.000000	69.265145
927.000000	1555.000000	69.242298
928.000000	1554.000000	69.228040
929.000000	1553.000000	69.213436
930.000000	1552.000000	69.185354
931.000000	1551.000000	69.150217
932.000000	1550.000000	69.106996
933.000000	1549.000000	69.072165
934.000000	1548.000000	69.019982
935.000000	1547.000000	68.968260
936.000000	1546.000000	68.915128
937.000000	1545.000000	68.854732
938.000000	1544.000000	68.811801
939.000000	1543.000000	68.762128
940.000000	1542.000000	68.695559
941.000000	1541.000000	68.629715
942.000000	1540.000000	68.574824
943.000000	1539.000000	68.510659
944.000000	1538.000000	68.433453
945.000000	1537.000000	68.353274
946.000000	1536.000000	68.283331
947.000000	1535.000000	68.202971
948.000000	1534.000000	68.128047
949.000000	1533.000000	68.045314
950.000000	1532.000000	67.932710
951.000000	1531.000000	67.832060
952.000000	1530.000000	67.743678
953.000000	1529.000000	67.637555
954.000000	1528.000000	67.529889
955.000000	1527.000000	67.417520
956.000000	1526.000000	67.295267
957.000000	1525.000000	67.179351
958.000000	1524.000000	67.074637
959.000000	1523.000000	66.969918
960.000000	1522.000000	66.848934
961.000000	1521.000000	66.723907
962.000000	1520.000000	66.608386
963.000000	1519.000000	66.508649
964.000000	1518.000000	66.416034
965.000000	1517.000000	66.312071
966.000000	1516.000000	66.195913
967.000000	1515.000000	66.098666
968.000000	1514.000000	66.012327
969.000000	1513.000000	65.919389
970.000000	1512.000000	65.822713
971.000000	1511.000000	65.719988
972.000000	1510.000000	65.615668
973.000000	1509.000000	65.523406
974.000000	1508.000000	65.417679
975.000000	1507.000000	65.294879
976.000000	1506.000000	65.184394
977.000000	1505.000000	65.089633
978.000000	1504.000000	64.980082
979.000000	1503.000000	64.867501
980.000000	1502.000000	64.747439
981.000000	1501.000000	64.643253
982.000000	1500.000000	64.529995
983.000000	1499.000000	64.408243
984.000000	1498.000000	64.290015
985.000000	1497.000000	64.174914
986.000000	1496.000000	64.060180
987.000000	1495.000000	63.943803
988.000000	1494.000000	63.829252
989.000000	1493.000000	63.719903
990.000000	1492.000000	63.603133
991.000000	1491.000000	63.477957
992.000000	1490.000000	63.361331
993.000000	1489.000000	63.263251
994.000000	1488.000000	63.148826
995.000000	1487.000000	63.021336
996.000000	1486.000000	62.901831
997.000000	1485.000000	62.783079
998.000000	1484.000000	62.669921
999.000000	1483.000000	62.556627
1000.000000	1482.000000	62.442051
1001.000000	1481.000000	62.332440
1002.000000	1480.000000	62.219217
1003.000000	1479.000000	62.113842
1004.000000	1478.000000	62.016648
1005.000000	1477.000000	61.913206
1006.000000	1476.000000	61.815906
1007.000000	1475.000000	61.718975
1008.000000	1474.000000	61.625032
1009.000000	1473.000000	61.532800
1010.000000	1472.000000	61.437525
1011.000000	1471.000000	61.353630
1012.000000	1470.000000	61.291566
1013.000000	1469.000000	61.241529
1014.000000	1468.000000	61.194990
1015.000000	1467.000000	61.149504
1016.000000	1466.000000	61.116711
1017.000000	1465.000000	61.084998
1018.000000	1464.000000	61.065739
1019.000000	1463.000000	61.044293
1020.000000	1462.000000	61.037878
1021.000000	1461.000000	61.030070
1022.000000	1460.000000	61.013779
1023.000000	1459.000000	61.003229
1024.000000	1458.000000	61.012870
1025.000000	1457.000000	61.011900
1026.000000	1456.000000	61.010801
1027.000000	1455.000000	61.010456
1028.000000	1454.000000	61.006560
1029.000000	1453.000000	60.999061
1030.000000	1452.000000	60.994635
1031.000000	1451.000000	60.990602
1032.000000	1450.000000	60.982000
1033.000000	1449.000000	60.967441
1034.000000	1448.000000	60.964976
1035.000000	1447.000000	60.953717
1036.000000	1446.000000	60.935369
1037.000000	1445.000000	60.921926
1038.000000	1444.000000	60.909118
1039.000000	1443.000000	60.894848
1040.000000	1442.000000	60.866119
1041.000000	1441.000000	60.848264
1042.000000	1440.000000	60.827670
1043.000000	1439.000000	60.810756
1044.000000	1438.000000	60.783851
1045.000000	1437.000000	60.765787
1046.000000	1436.000000	60.763284
1047.000000	1435.000000	60.741498
1048.000000	1434.000000	60.731595
1049.000000	1433.000000	60.731789
1050.000000	1432.000000	60.732722
1051.000000	1431.000000	60.735689
1052.000000	1430.000000	60.743438
1053.000000	1429.000000	60.750713
1054.000000	1428.000000	60.764748
1055.000000	1427.000000	60.775686
1056.000000	1426.000000	60.798495
1057.000000	1425.000000	60.812167
1058.000000	1424.000000	60.832607
1059.000000	1423.000000	60.846400
1060.000000	1422.000000	60.853645
1061.000000	1421.000000	60.865191
1062.000000	1420.000000	60.883163
1063.000000	1419.000000	60.894456
1064.000000	1418.000000	60.908385
1065.000000	1417.000000	60.923320
1066.000000	1416.000000	60.939553
1067.000000	1415.000000	60.958080
1068.000000	1414.000000	60.965126
1069.000000	1413.000000	60.989954
1070.000000	1412.000000	61.009471
1071.000000	1411.000000	61.028479
1072.000000	1410.000000	61.048939
1073.000000	1409.000000	61.067718
1074.000000	1408.000000	61.075232
1075.000000	1407.000000	61.103282
1076.000000	1406.000000	61.132121
1077.000000	1405.000000	61.152819
1078.000000	1404.000000	61.166673
1079.000000	1403.000000	61.205417
1080.000000	1402.000000	61.230086
1081.000000	1401.000000	61.246742
1082.000000	1400.000000	61.280200
1083.000000	1399.000000	61.301311
1084.000000	1398.000000	61.339812
1085.000000	1397.000000	61.371088
1086.000000	1396.000000	61.385014
1087.000000	1395.000000	61.419029
1088.000000	1394.000000	61.438645
1089.000000	1393.000000	61.468810
1090.000000	1392.000000	61.484778
1091.000000	1391.000000	61.508173
1092.000000	1390.000000	61.523341
1093.000000	1389.000000	61.542401
1094.000000	1388.000000	61.547982
1095.000000	1387.000000	61.565279
1096.000000	1386.000000	61.579861
1097.000000	1385.000000	61.577979
1098.000000	1384.000000	61.573895
1099.000000	1383.000000	61.584691
1100.000000	1382.000000	61.586679
1101.000000	1381.000000	61.581276
1102.000000	1380.000000	61.573493
1103.000000	1379.000000	61.572961
1104.000000	1378.000000	61.564595
1105.000000	1377.000000	61.562525
1106.000000	1376.000000	61.555906
1107.000000	1375.000000	61.542821
1108.000000	1374.000000	61.530875
1109.000000	1373.000000	61.526079
1110.000000	1372.000000	61.516131
1111.000000	1371.000000	61.511401
1112.000000	1370.000000	61.495133
1113.000000	1369.000000	61.486876
1114.000000	1368.000000	61.481566
1115.000000	1367.000000	61.458482
1116.000000	1366.000000	61.441487
1117.000000	1365.000000	61.409363
1118.000000	1364.000000	61.364298
1119.000000	1363.000000	61.300950
1120.000000	1362.000000	61.227045
1121.000000	1361.000000	61.136903
1122.000000	1360.000000	61.051203
1123.000000	1359.000000	60.922999
1124.000000	1358.000000	60.787984
1125.000000	1357.000000	60.644130
1126.000000	1356.000000	60.453962
1127.000000	1355.000000	60.226973
1128.000000	1354.000000	59.953803
1129.000000	1353.000000	59.632453
1130.000000	1352.000000	59.247291
1131.000000	1351.000000	58.811025
1132.000000	1350.000000	58.334884
1133.000000	1349.000000	57.868342
1134.000000	1348.000000	57.327588
1135.000000	1347.000000	56.768625
1136.000000	1346.000000	56.210657
1137.000000	1345.000000	55.669103
1138.000000	1344.000000	55.154658
1139.000000	1343.000000	54.665702
1140.000000	1342.000000	54.194235
1141.000000	1341.000000	53.726849
1142.000000	1340.000000	53.296192
1143.000000	1339.000000	52.898876
1144.000000	1338.000000	52.553975
1145.000000	1337.000000	52.278555
1146.000000	1336.000000	52.073451
1147.000000	1335.000000	51.931078
1148.000000	1334.000000	51.814734
1149.000000	1333.000000	51.725377
1150.000000	1332.000000	51.628152
1151.000000	1331.000000	51.501095
1152.000000	1330.000000	51.349705
1153.000000	1329.000000	51.153746
1154.000000	1328.000000	50.892925
1155.000000	1327.000000	50.593895
1156.000000	1326.000000	50.230835
1157.000000	1325.000000	49.856481
1158.000000	1324.000000	49.448145
1159.000000	1323.000000	49.016383
1160.000000	1322.000000	48.578077
1161.000000	1321.000000	48.148971
1162.000000	1320.000000	47.699559
1163.000000	1319.000000	47.267774
1164.000000	1318.000000	46.823305
1165.000000	1317.000000	46.401806
1166.000000	1316.000000	45.993485
1167.000000	1315.000000	45.598889
1168.000000	1314.000000	45.208782
1169.000000	1313.000000	44.816531
1170.000000	1312.000000	44.441773
1171.000000	1311.000000	44.068846
1172.000000	1310.000000	43.703798
1173.000000	1309.000000	43.354852
1174.000000	1308.000000	43.010223
1175.000000	1307.000000	42.646674
1176.000000	1306.000000	42.262406
1177.000000	1305.000000	41.812670
1178.000000	1304.000000	41.311379
1179.000000	1303.000000	40.757904
1180.000000	1302.000000	40.213939
1181.000000	1301.000000	39.691186
1182.000000	1300.000000	39.234205
1183.000000	1299.000000	38.900731
1184.000000	1298.000000	38.706897
1185.000000	1297.000000	38.662253
1186.000000	1296.000000	38.748495
1187.000000	1295.000000	38.953268
1188.000000	1294.000000	39.287877
1189.000000	1293.000000	39.701518
1190.000000	1292.000000	40.173381
1191.000000	1291.000000	40.653948
1192.000000	1290.000000	41.083711
1193.000000	1289.000000	41.465044
1194.000000	1288.000000	41.787627
1195.000000	1287.000000	42.039787
1196.000000	1286.000000	42.233545
1197.000000	1285.000000	42.378186
1198.000000	1284.000000	42.478387
1199.000000	1283.000000	42.557160
1200.000000	1282.000000	42.613183
1201.000000	1281.000000	42.654648
1202.000000	1280.000000	42.703471
1203.000000	1279.000000	42.757522
1204.000000	1278.000000	42.807360
1205.000000	1277.000000	42.870555
1206.000000	1276.000000	42.959671
1207.000000	1275.000000	43.068267
1208.000000	1274.000000	43.186297
1209.000000	1273.000000	43.317485
1210.000000	1272.000000	43.453211
1211.000000	1271.000000	43.602151
1212.000000	1270.000000	43.756612
1213.000000	1269.000000	43.905037
1214.000000	1268.000000	44.068866
1215.000000	1267.000000	44.236095
1216.000000	1266.000000	44.405050
1217.000000	1265.000000	44.583839
1218.000000	1264.000000	44.766834
1219.000000	1263.000000	44.967956
1220.000000	1262.000000	45.175393
1221.000000	1261.000000	45.379954
1222.000000	1260.000000	45.584784
1223.000000	1259.000000	45.795911
1224.000000	1258.000000	46.007740
1225.000000	1257.000000	46.222481
1226.000000	1256.000000	46.441178
1227.000000	1255.000000	46.647476
1228.000000	1254.000000	46.850692
1229.000000	1253.000000	47.055217
1230.000000	1252.000000	47.252640
1231.000000	1251.000000	47.457112
1232.000000	1250.000000	47.658707
1233.000000	1249.000000	47.840843
1234.000000	1248.000000	48.020721
1235.000000	1247.000000	48.205263
1236.000000	1246.000000	48.383598
1237.000000	1245.000000	48.558464
1238.000000	1244.000000	48.725765
1239.000000	1243.000000	48.889675
1240.000000	1242.000000	49.049391
1241.000000	1241.000000	49.202165
1242.000000	1240.000000	49.356066
1243.000000	1239.000000	49.498528
1244.000000	1238.000000	49.637958
1245.000000	1237.000000	49.764865
1246.000000	1236.000000	49.888965
1247.000000	1235.000000	50.009901
1248.000000	1234.000000	50.116956
1249.000000	1233.000000	50.214577
1250.000000	1232.000000	50.306003
1251.000000	1231.000000	50.393284
1252.000000	1230.000000	50.486465
1253.000000	1229.000000	50.564029
1254.000000	1228.000000	50.638521
1255.000000	1227.000000	50.709348
1256.000000	1226.000000	50.778962
1257.000000	1225.000000	50.842475
1258.000000	1224.000000	50.898643
1259.000000	1223.000000	50.961617
1260.000000	1222.000000	51.020091
1261.000000	1221.000000	51.074375
1262.000000	1220.000000	51.129239
1263.000000	1219.000000	51.184710
1264.000000	1218.000000	51.235555
1265.000000	1217.000000	51.293990
1266.000000	1216.000000	51.352713
1267.000000	1215.000000	51.410817
1268.000000	1214.000000	51.457709
1269.000000	1213.000000	51.506076
1270.000000	1212.000000	51.556648
1271.000000	1211.000000	51.607508
1272.000000	1210.000000	51.648899
1273.000000	1209.000000	51.698117
1274.000000	1208.000000	51.748863
1275.000000	1207.000000	51.808117
1276.000000	1206.000000	51.865723
1277.000000	1205.000000	51.923472
1278.000000	1204.000000	51.982400
1279.000000	1203.000000	52.047820
1280.000000	1202.000000	52.111210
1281.000000	1201.000000	52.171515
1282.000000	1200.000000	52.229225
1283.000000	1199.000000	52.288227
1284.000000	1198.000000	52.341262
1285.000000	1197.000000	52.396194
1286.000000	1196.000000	52.437745
1287.000000	1195.000000	52.476550
1288.000000	1194.000000	52.504356
1289.000000	1193.000000	52.520415
1290.000000	1192.000000	52.535325
1291.000000	1191.000000	52.540227
1292.000000	1190.000000	52.541316
1293.000000	1189.000000	52.524662
1294.000000	1188.000000	52.503850
1295.000000	1187.000000	52.486159
1296.000000	1186.000000	52.460207
1297.000000	1185.000000	52.423435
1298.000000	1184.000000	52.389072
1299.000000	1183.000000	52.343176
1300.000000	1182.000000	52.296894
1301.000000	1181.000000	52.240572
1302.000000	1180.000000	52.181244
1303.000000	1179.000000	52.117218
1304.000000	1178.000000	52.039676
1305.000000	1177.000000	51.940973
1306.000000	1176.000000	51.854592
1307.000000	1175.000000	51.741324
1308.000000	1174.000000	51.637054
1309.000000	1173.000000	51.528139
1310.000000	1172.000000	51.394541
1311.000000	1171.000000	51.257012
1312.000000	1170.000000	51.113867
1313.000000	1169.000000	50.954228
1314.000000	1168.000000	50.791789
1315.000000	1167.000000	50.627243
1316.000000	1166.000000	50.454709
1317.000000	1165.000000	50.275259
1318.000000	1164.000000	50.093436
1319.000000	1163.000000	49.899131
1320.000000	1162.000000	49.699320
1321.000000	1161.000000	49.493995
1322.000000	1160.000000	49.274762
1323.000000	1159.000000	49.052597
1324.000000	1158.000000	48.827404
1325.000000	1157.000000	48.582696
1326.000000	1156.000000	48.334262
1327.000000	1155.000000	48.079243
1328.000000	1154.000000	47.816773
1329.000000	1153.000000	47.533878
1330.000000	1152.000000	47.243795
1331.000000	1151.000000	46.949398
1332.000000	1150.000000	46.646027
1333.000000	1149.000000	46.329192
1334.000000	1148.000000	46.002954
1335.000000	1147.000000	45.678970
1336.000000	1146.000000	45.345668
1337.000000	1145.000000	45.013623
1338.000000	1144.000000	44.672102
1339.000000	1143.000000	44.314988
1340.000000	1142.000000	43.958921
1341.000000	1141.000000	43.590508
1342.000000	1140.000000	43.240393
1343.000000	1139.000000	42.862580
1344.000000	1138.000000	42.463896
1345.000000	1137.000000	42.069731
1346.000000	1136.000000	41.708669
1347.000000	1135.000000	41.257487
1348.000000	1134.000000	40.816449
1349.000000	1133.000000	40.332664
1350.000000	1132.000000	39.809808
1351.000000	1131.000000	39.256417
1352.000000	1130.000000	38.674095
1353.000000	1129.000000	38.225266
1354.000000	1128.000000	37.793506
1355.000000	1127.000000	37.422714
1356.000000	1126.000000	37.141068
1357.000000	1125.000000	36.963607
1358.000000	1124.000000	36.827449
1359.000000	1123.000000	36.714409
1360.000000	1122.000000	36.634342
1361.000000	1121.000000	36.463579
1362.000000	1120.000000	36.276946
1363.000000	1119.000000	36.065405
1364.000000	1118.000000	35.863175
1365.000000	1117.000000	35.602345
1366.000000	1116.000000	35.373814
1367.000000	1115.000000	35.079654
1368.000000	1114.000000	34.744439
1369.000000	1113.000000	34.403750
1370.000000	1112.000000	34.052966
1371.000000	1111.000000	33.644426
1372.000000	1110.000000	33.268908
1373.000000	1109.000000	32.910056
1374.000000	1108.000000	32.617402
1375.000000	1107.000000	32.356417
1376.000000	1106.000000	32.149267
1377.000000	1105.000000	31.920448
1378.000000	1104.000000	31.701261
1379.000000	1103.000000	31.402028
1380.000000	1102.000000	31.085250
1381.000000	1101.000000	30.640800
1382.000000	1100.000000	30.087381
1383.000000	1099.000000	29.486702
1384.000000	1098.000000	28.904096
1385.000000	1097.000000	28.351986
1386.000000	1096.000000	27.846042
1387.000000	1095.000000	27.384686
1388.000000	1094.000000	26.904810
1389.000000	1093.000000	26.497502
1390.000000	1092.000000	26.171258
1391.000000	1091.000000	25.819434
1392.000000	1090.000000	25.465508
1393.000000	1089.000000	25.187041
1394.000000	1088.000000	24.917475
1395.000000	1087.000000	24.566853
1396.000000	1086.000000	24.201670
1397.000000	1085.000000	23.865268
1398.000000	1084.000000	23.570162
1399.000000	1083.000000	23.237720
1400.000000	1082.000000	22.831410
1401.000000	1081.000000	22.406633
1402.000000	1080.000000	22.013656
1403.000000	1079.000000	21.629557
1404.000000	1078.000000	21.240595
1405.000000	1077.000000	20.844552
1406.000000	1076.000000	20.478011
1407.000000	1075.000000	20.130900
1408.000000	1074.000000	19.775979
1409.000000	1073.000000	19.435984
1410.000000	1072.000000	19.107806
1411.000000	1071.000000	18.815336
1412.000000	1070.000000	18.582274
1413.000000	1069.000000	18.350121
1414.000000	1068.000000	18.093027
1415.000000	1067.000000	17.847771
1416.000000	1066.000000	17.618854
1417.000000	1065.000000	17.423109
1418.000000	1064.000000	17.219132
1419.000000	1063.000000	17.002219
1420.000000	1062.000000	16.793433
1421.000000	1061.000000	16.602386
1422.000000	1060.000000	16.428778
1423.000000	1059.000000	16.253361
1424.000000	1058.000000	16.083737
1425.000000	1057.000000	15.901767
1426.000000	1056.000000	15.754594
1427.000000	1055.000000	15.619154
1428.000000	1054.000000	15.482182
1429.000000	1053.000000	15.349608
1430.000000	1052.000000	15.239172
1431.000000	1051.000000	15.113791
1432.000000	1050.000000	15.017829
1433.000000	1049.000000	14.908559
1434.000000	1048.000000	14.809191
1435.000000	1047.000000	14.706717
1436.000000	1046.000000	14.625310
1437.000000	1045.000000	14.545518
1438.000000	1044.000000	14.451254
1439.000000	1043.000000	14.361705
1440.000000	1042.000000	14.278148
1441.000000	1041.000000	14.181595
1442.000000	1040.000000	14.103782
1443.000000	1039.000000	14.025206
1444.000000	1038.000000	13.956889
1445.000000	1037.000000	13.883552
1446.000000	1036.000000	13.799139
1447.000000	1035.000000	13.731326
1448.000000	1034.000000	13.666216
1449.000000	1033.000000	13.604433
1450.000000	1032.000000	13.535343
1451.000000	1031.000000	13.476148
1452.000000	1030.000000	13.411569
1453.000000	1029.000000	13.353047
1454.000000	1028.000000	13.298997
1455.000000	1027.000000	13.243158
1456.000000	1026.000000	13.195204
1457.000000	1025.000000	13.153907
1458.000000	1024.000000	13.112611
1459.000000	1023.000000	13.077960
1460.000000	1022.000000	13.043829
1461.000000	1021.000000	13.010646
1462.000000	1020.000000	12.981483
1463.000000	1019.000000	12.962407
1464.000000	1018.000000	12.946895
1465.000000	1017.000000	12.928336
1466.000000	1016.000000	12.921080
1467.000000	1015.000000	12.911748
1468.000000	1014.000000	12.900266
1469.000000	1013.000000	12.898162
1470.000000	1012.000000	12.900651
1471.000000	1011.000000	12.892874
1472.000000	1010.000000	12.875212
1473.000000	1009.000000	12.869073
1474.000000	1008.000000	12.867584
1475.000000	1007.000000	12.871075
1476.000000	1006.000000	12.885559
1477.000000	1005.000000	12.886537
1478.000000	1004.000000	12.888719
1479.000000	1003.000000	12.896664
1480.000000	1002.000000	12.910995
1481.000000	1001.000000	12.926647
1482.000000	1000.000000	12.950940
1483.000000	999.000000	12.970847
1484.000000	998.000000	12.992596
1485.000000	997.000000	13.017543
1486.000000	996.000000	13.044050
1487.000000	995.000000	13.069411
1488.000000	994.000000	13.091459
1489.000000	993.000000	13.123604
1490.000000	992.000000	13.152021
1491.000000	991.000000	13.185561
1492.000000	990.000000	13.224158
1493.000000	989.000000	13.258514
1494.000000	988.000000	13.292268
1495.000000	987.000000	13.327213
1496.000000	986.000000	13.364717
1497.000000	985.000000	13.404026
1498.000000	984.000000	13.453090
1499.000000	983.000000	13.497723
1500.000000	982.000000	13.545324
1501.000000	981.000000	13.593063
1502.000000	980.000000	13.636724
1503.000000	979.000000	13.699639
1504.000000	978.000000	13.756481
1505.000000	977.000000	13.803648
1506.000000	976.000000	13.855313
1507.000000	975.000000	13.909998
1508.000000	974.000000	13.969856
1509.000000	973.000000	14.021178
1510.000000	972.000000	14.069318
1511.000000	971.000000	14.124079
1512.000000	970.000000	14.180746
1513.000000	969.000000	14.226555
1514.000000	968.000000	14.275489
1515.000000	967.000000	14.328163
1516.000000	966.000000	14.379935
1517.000000	965.000000	14.428620
1518.000000	964.000000	14.475571
1519.000000	963.000000	14.528382
1520.000000	962.000000	14.573336
1521.000000	961.000000	14.617120
1522.000000	960.000000	14.666115
1523.000000	959.000000	14.700391
1524.000000	958.000000	14.741841
1525.000000	957.000000	14.788260
1526.000000	956.000000	14.830050
1527.000000	955.000000	14.866262
1528.000000	954.000000	14.900499
1529.000000	953.000000	14.937582
1530.000000	952.000000	14.973662
1531.000000	951.000000	15.007955
1532.000000	950.000000	15.033977
1533.000000	949.000000	15.062504
1534.000000	948.000000	15.093127
1535.000000	947.000000	15.119006
1536.000000	946.000000	15.134772
1537.000000	945.000000	15.156531
1538.000000	944.000000	15.172103
1539.000000	943.000000	15.190465
1540.000000	942.000000	15.207796
1541.000000	941.000000	15.221937
1542.000000	940.000000	15.244479
1543.000000	939.000000	15.262386
1544.000000	938.000000	15.279174
1545.000000	937.000000	15.294281
1546.000000	936.000000	15.316813
1547.000000	935.000000	15.339811
1548.000000	934.000000	15.366883
1549.000000	933.000000	15.382301
1550.000000	932.000000	15.400203
1551.000000	931.000000	15.425000
1552.000000	930.000000	15.438459
1553.000000	929.000000	15.451252
1554.000000	928.000000	15.462425
1555.000000	927.000000	15.479259
1556.000000	926.000000	15.486370
1557.000000	925.000000	15.488744
1558.000000	924.000000	15.489446
1559.000000	923.000000	15.495702
1560.000000	922.000000	15.492574
1561.000000	921.000000	15.496134
1562.000000	920.000000	15.499711
1563.000000	919.000000	15.504400
1564.000000	918.000000	15.499360
1565.000000	917.000000	15.491996
1566.000000	916.000000	15.477533
1567.000000	915.000000	15.489186
1568.000000	914.000000	15.485100
1569.000000	913.000000	15.480058
1570.000000	912.000000	15.491917
1571.000000	911.000000	15.488161
1572.000000	910.000000	15.503628
1573.000000	909.000000	15.510642
1574.000000	908.000000	15.522140
1575.000000	907.000000	15.533353
1576.000000	906.000000	15.550299
1577.000000	905.000000	15.571664
1578.000000	904.000000	15.592001
1579.000000	903.000000	15.618618
1580.000000	902.000000	15.643437
1581.000000	901.000000	15.681601
1582.000000	900.000000	15.718946
1583.000000	899.000000	15.750920
1584.000000	898.000000	15.788743
1585.000000	897.000000	15.819662
1586.000000	896.000000	15.861680
1587.000000	895.000000	15.904844
1588.000000	894.000000	15.946921
1589.000000	893.000000	15.995788
1590.000000	892.000000	16.038528
1591.000000	891.000000	16.092732
1592.000000	890.000000	16.141712
1593.000000	889.000000	16.193426
1594.000000	888.000000	16.251078
1595.000000	887.000000	16.305343
1596.000000	886.000000	16.364347
1597.000000	885.000000	16.417413
1598.000000	884.000000	16.478609
1599.000000	883.000000	16.549570
1600.000000	882.000000	16.604787
1601.000000	881.000000	16.670846
1602.000000	880.000000	16.734290
1603.000000	879.000000	16.795495
1604.000000	878.000000	16.871171
1605.000000	877.000000	16.944240
1606.000000	876.000000	17.007452
1607.000000	875.000000	17.068476
1608.000000	874.000000	17.138082
1609.000000	873.000000	17.196190
1610.000000	872.000000	17.259893
1611.000000	871.000000	17.317399
1612.000000	870.000000	17.395340
1613.000000	869.000000	17.470484
1614.000000	868.000000	17.538714
1615.000000	867.000000	17.622030
1616.000000	866.000000	17.691823
1617.000000	865.000000	17.757452
1618.000000	864.000000	17.828302
1619.000000	863.000000	17.900065
1620.000000	862.000000	17.984839
1621.000000	861.000000	18.050455
1622.000000	860.000000	18.136521
1623.000000	859.000000	18.222437
1624.000000	858.000000	18.299576
1625.000000	857.000000	18.377296
1626.000000	856.000000	18.447110
1627.000000	855.000000	18.534619
1628.000000	854.000000	18.609981
1629.000000	853.000000	18.679896
1630.000000	852.000000	18.778858
1631.000000	851.000000	18.850155
1632.000000	850.000000	18.918372
1633.000000	849.000000	18.994742
1634.000000	848.000000	19.065994
1635.000000	847.000000	19.125564
1636.000000	846.000000	19.192836
1637.000000	845.000000	19.268947
1638.000000	844.000000	19.342026
1639.000000	843.000000	19.395668
1640.000000	842.000000	19.460105
1641.000000	841.000000	19.517723
1642.000000	840.000000	19.573337
1643.000000	839.000000	19.616590
1644.000000	838.000000	19.676380
1645.000000	837.000000	19.726868
1646.000000	836.000000	19.780768
1647.000000	835.000000	19.814551
1648.000000	834.000000	19.856920
1649.000000	833.000000	19.892372
1650.000000	832.000000	19.928172
1651.000000	831.000000	19.938813
1652.000000	830.000000	19.966435
1653.000000	829.000000	19.973416
1654.000000	828.000000	19.984377
1655.000000	827.000000	19.979346
1656.000000	826.000000	19.967850
1657.000000	825.000000	19.956696
1658.000000	824.000000	19.933523
1659.000000	823.000000	19.891406
1660.000000	822.000000	19.859945
1661.000000	821.000000	19.811677
1662.000000	820.000000	19.758418
1663.000000	819.000000	19.692686
1664.000000	818.000000	19.609755
1665.000000	817.000000	19.528640
1666.000000	816.000000	19.418701
1667.000000	815.000000	19.314541
1668.000000	814.000000	19.184167
1669.000000	813.000000	19.037965
1670.000000	812.000000	18.854182
1671.000000	811.000000	18.648498
1672.000000	810.000000	18.407922
1673.000000	809.000000	18.147687
1674.000000	808.000000	17.833375
1675.000000	807.000000	17.478724
1676.000000	806.000000	17.061816
1677.000000	805.000000	16.631527
1678.000000	804.000000	16.178991
1679.000000	803.000000	15.732833
1680.000000	802.000000	15.324358
1681.000000	801.000000	14.995603
1682.000000	800.000000	14.771321
1683.000000	799.000000	14.625203
1684.000000	798.000000	14.545236
1685.000000	797.000000	14.509854
1686.000000	796.000000	14.490351
1687.000000	795.000000	14.432044
1688.000000	794.000000	14.356403
1689.000000	793.000000	14.261684
1690.000000	792.000000	14.133882
1691.000000	791.000000	14.013462
1692.000000	790.000000	13.907416
1693.000000	789.000000	13.833240
1694.000000	788.000000	13.797964
1695.000000	787.000000	13.830373
1696.000000	786.000000	13.884006
1697.000000	785.000000	13.975803
1698.000000	784.000000	14.108501
1699.000000	783.000000	14.229571
1700.000000	782.000000	14.343807
1701.000000	781.000000	14.458732
1702.000000	780.000000	14.543867
1703.000000	779.000000	14.607443
1704.000000	778.000000	14.655040
1705.000000	777.000000	14.700546
1706.000000	776.000000	14.736733
1707.000000	775.000000	14.757866
1708.000000	774.000000	14.771283
1709.000000	773.000000	14.757081
1710.000000	772.000000	14.745581
1711.000000	771.000000	14.711887
1712.000000	770.000000	14.664393
1713.000000	769.000000	14.604871
1714.000000	768.000000	14.544573
1715.000000	767.000000	14.487809
1716.000000	766.000000	14.432869
1717.000000	765.000000	14.392912
1718.000000	764.000000	14.356076
1719.000000	763.000000	14.327177
1720.000000	762.000000	14.302744
1721.000000	761.000000	14.290523
1722.000000	760.000000	14.267585
1723.000000	759.000000	14.221662
1724.000000	758.000000	14.157720
1725.000000	757.000000	14.110773
1726.000000	756.000000	14.031663
1727.000000	755.000000	13.946487
1728.000000	754.000000	13.862269
1729.000000	753.000000	13.782763
1730.000000	752.000000	13.719415
1731.000000	751.000000	13.675451
1732.000000	750.000000	13.661666
1733.000000	749.000000	13.699470
1734.000000	748.000000	13.748655
1735.000000	747.000000	13.833438
1736.000000	746.000000	13.958768
1737.000000	745.000000	14.116272
1738.000000	744.000000	14.288415
1739.000000	743.000000	14.474860
1740.000000	742.000000	14.642625
1741.000000	741.000000	14.813559
1742.000000	740.000000	14.966758
1743.000000	739.000000	15.097804
1744.000000	738.000000	15.221274
1745.000000	737.000000	15.306463
1746.000000	736.000000	15.378649
1747.000000	735.000000	15.440035
1748.000000	734.000000	15.485472
1749.000000	733.000000	15.500212
1750.000000	732.000000	15.522010
1751.000000	731.000000	15.522164
1752.000000	730.000000	15.511936
1753.000000	729.000000	15.493397
1754.000000	728.000000	15.449933
1755.000000	727.000000	15.405514
1756.000000	726.000000	15.352223
1757.000000	725.000000	15.296028
1758.000000	724.000000	15.232843
1759.000000	723.000000	15.176512
1760.000000	722.000000	15.126982
1761.000000	721.000000	15.090973
1762.000000	720.000000	15.084352
1763.000000	719.000000	15.096498
1764.000000	718.000000	15.129631
1765.000000	717.000000	15.181151
1766.000000	716.000000	15.259056
1767.000000	715.000000	15.341491
1768.000000	714.000000	15.423439
1769.000000	713.000000	15.509858
1770.000000	712.000000	15.613156
1771.000000	711.000000	15.711550
1772.000000	710.000000	15.806983
1773.000000	709.000000	15.900624
1774.000000	708.000000	15.989593
1775.000000	707.000000	16.078202
1776.000000	706.000000	16.157586
1777.000000	705.000000	16.226704
1778.000000	704.000000	16.300924
1779.000000	703.000000	16.366557
1780.000000	702.000000	16.428900
1781.000000	701.000000	16.495341
1782.000000	700.000000	16.561369
1783.000000	699.000000	16.626867
1784.000000	698.000000	16.692410
1785.000000	697.000000	16.748042
1786.000000	696.000000	16.798052
1787.000000	695.000000	16.854237
1788.000000	694.000000	16.905202
1789.000000	693.000000	16.951232
1790.000000	692.000000	17.001246
1791.000000	691.000000	17.058785
1792.000000	690.000000	17.109283
1793.000000	689.000000	17.153339
1794.000000	688.000000	17.196720
1795.000000	687.000000	17.233102
1796.000000	686.000000	17.271482
1797.000000	685.000000	17.307726
1798.000000	684.000000	17.347642
1799.000000	683.000000	17.399807
1800.000000	682.000000	17.457532
1801.000000	681.000000	17.496668
1802.000000	680.000000	17.532774
1803.000000	679.000000	17.582202
1804.000000	678.000000	17.622101
1805.000000	677.000000	17.665611
1806.000000	676.000000	17.706270
1807.000000	675.000000	17.738767
1808.000000	674.000000	17.772921
1809.000000	673.000000	17.802353
1810.000000	672.000000	17.830115
1811.000000	671.000000	17.854649
1812.000000	670.000000	17.873856
1813.000000	669.000000	17.881243
1814.000000	668.000000	17.887066
1815.000000	667.000000	17.891615
1816.000000	666.000000	17.899448
1817.000000	665.000000	17.904082
1818.000000	664.000000	17.927165
1819.000000	663.000000	17.968887
1820.000000	662.000000	17.993473
1821.000000	661.000000	18.008031
1822.000000	660.000000	18.019265
1823.000000	659.000000	18.041432
1824.000000	658.000000	18.077873
1825.000000	657.000000	18.136042
1826.000000	656.000000	18.187151
1827.000000	655.000000	18.251694
1828.000000	654.000000	18.318607
1829.000000	653.000000	18.366947
1830.000000	652.000000	18.420918
1831.000000	651.000000	18.471224
1832.000000	650.000000	18.518121
1833.000000	649.000000	18.566072
1834.000000	648.000000	18.615454
1835.000000	647.000000	18.659282
1836.000000	646.000000	18.700408
1837.000000	645.000000	18.728125
1838.000000	644.000000	18.751079
1839.000000	643.000000	18.788106
1840.000000	642.000000	18.798666
1841.000000	641.000000	18.812318
1842.000000	640.000000	18.802193
1843.000000	639.000000	18.806006
1844.000000	638.000000	18.830037
1845.000000	637.000000	18.854855
1846.000000	636.000000	18.895197
1847.000000	635.000000	18.929638
1848.000000	634.000000	18.944599
1849.000000	633.000000	18.939501
1850.000000	632.000000	18.930478
1851.000000	631.000000	18.927244
1852.000000	630.000000	18.907391
1853.000000	629.000000	18.909700
1854.000000	628.000000	18.877289
1855.000000	627.000000	18.841326
1856.000000	626.000000	18.790599
1857.000000	625.000000	18.723188
1858.000000	624.000000	18.645130
1859.000000	623.000000	18.556015
1860.000000	622.000000	18.430272
1861.000000	621.000000	18.297223
1862.000000	620.000000	18.157401
1863.000000	619.000000	18.019177
1864.000000	618.000000	17.869922
1865.000000	617.000000	17.705501
1866.000000	616.000000	17.535458
1867.000000	615.000000	17.338133
1868.000000	614.000000	17.101873
1869.000000	613.000000	16.814109
1870.000000	612.000000	16.525902
1871.000000	611.000000	16.200661
1872.000000	610.000000	15.876611
1873.000000	609.000000	15.517954
1874.000000	608.000000	15.149257
1875.000000	607.000000	14.777360
1876.000000	606.000000	14.399112
1877.000000	605.000000	14.002494
1878.000000	604.000000	13.593470
1879.000000	603.000000	13.202223
1880.000000	602.000000	12.817137
1881.000000	601.000000	12.411090
1882.000000	600.000000	12.019222
1883.000000	599.000000	11.632869
1884.000000	598.000000	11.254300
1885.000000	597.000000	10.937698
1886.000000	596.000000	10.621020
1887.000000	595.000000	10.356655
1888.000000	594.000000	10.105188
1889.000000	593.000000	9.882766
1890.000000	592.000000	9.648781
1891.000000	591.000000	9.421151
1892.000000	590.000000	9.205562
1893.000000	589.000000	9.025775
1894.000000	588.000000	8.842969
1895.000000	587.000000	8.703502
1896.000000	586.000000	8.558508
1897.000000	585.000000	8.394804
1898.000000	584.000000	8.260149
1899.000000	583.000000	8.106372
1900.000000	582.000000	7.965337
1901.000000	581.000000	7.830710
1902.000000	580.000000	7.719819
1903.000000	579.000000	7.596321
1904.000000	578.000000	7.481459
1905.000000	577.000000	7.385923
1906.000000	576.000000	7.266476
1907.000000	575.000000	7.169767
1908.000000	574.000000	7.086836
1909.000000	573.000000	7.010627
1910.000000	572.000000	6.940600
1911.000000	571.000000	6.875343
1912.000000	570.000000	6.803399
1913.000000	569.000000	6.717065
1914.000000	568.000000	6.649782
1915.000000	567.000000	6.590504
1916.000000	566.000000	6.531795
1917.000000	565.000000	6.482609
1918.000000	564.000000	6.427147
1919.000000	563.000000	6.394962
1920.000000	562.000000	6.336493
1921.000000	561.000000	6.295205
1922.000000	560.000000	6.250123
1923.000000	559.000000	6.208041
1924.000000	558.000000	6.175100
1925.000000	557.000000	6.157951
1926.000000	556.000000	6.122855
1927.000000	555.000000	6.096045
1928.000000	554.000000	6.080567
1929.000000	553.000000	6.036921
1930.000000	552.000000	6.025953
1931.000000	551.000000	5.999320
1932.000000	550.000000	5.998308
1933.000000	549.000000	5.990892
1934.000000	548.000000	5.987211
1935.000000	547.000000	5.969321
1936.000000	546.000000	5.968386
1937.000000	545.000000	5.967465
1938.000000	544.000000	5.964158
1939.000000	543.000000	5.961704
1940.000000	542.000000	5.964420
1941.000000	541.000000	5.957995
1942.000000	540.000000	5.958192
1943.000000	539.000000	5.979558
1944.000000	538.000000	5.980983
1945.000000	537.000000	5.998976
1946.000000	536.000000	6.011631
1947.000000	535.000000	6.006484
1948.000000	534.000000	6.018615
1949.000000	533.000000	6.033024
1950.000000	532.000000	6.041587
1951.000000	531.000000	6.063749
1952.000000	530.000000	6.086504
1953.000000	529.000000	6.094963
1954.000000	528.000000	6.105070
1955.000000	527.000000	6.143705
1956.000000	526.000000	6.152572
1957.000000	525.000000	6.167758
1958.000000	524.000000	6.185426
1959.000000	523.000000	6.206775
1960.000000	522.000000	6.216305
1961.000000	521.000000	6.250184
1962.000000	520.000000	6.262510
1963.000000	519.000000	6.291130
1964.000000	518.000000	6.299121
1965.000000	517.000000	6.328817
1966.000000	516.000000	6.357917
1967.000000	515.000000	6.371064
1968.000000	514.000000	6.400034
1969.000000	513.000000	6.410180
1970.000000	512.000000	6.441142
1971.000000	511.000000	6.460497
1972.000000	510.000000	6.493613
1973.000000	509.000000	6.523604
1974.000000	508.000000	6.547038
1975.000000	507.000000	6.572282
1976.000000	506.000000	6.600473
1977.000000	505.000000	6.625305
1978.000000	504.000000	6.663922
1979.000000	503.000000	6.693338
1980.000000	502.000000	6.730998
1981.000000	501.000000	6.751856
1982.000000	500.000000	6.780930
1983.000000	499.000000	6.810028
1984.000000	498.000000	6.840605
1985.000000	497.000000	6.879053
1986.000000	496.000000	6.918968
1987.000000	495.000000	6.940452
1988.000000	494.000000	6.967833
1989.000000	493.000000	7.018468
1990.000000	492.000000	7.032442
1991.000000	491.000000	7.057589
1992.000000	490.000000	7.097866
1993.000000	489.000000	7.120625
1994.000000	488.000000	7.144131
1995.000000	487.000000	7.176969
1996.000000	486.000000	7.212200
1997.000000	485.000000	7.226242
1998.000000	484.000000	7.252449
1999.000000	483.000000	7.276336
