PE UV       SUBTECH     SPECTRUM    ASCII       PEDS        4.00        
   -1
CICIMAUCR0257-3.Sample.ASC
24/07/01
10:08:09.00
24/07/01
10:08:09.00
Vinicio Soto Monge
C. resplendens. Sex F. Dorsal.
250,000000
1
Lambda 1050
1050L1511233
PerkinElmer UV WinLab 6.3.2.0749 / 2.02.05 Lambda 900 UV/VIS/NIR, Aug  7 2015 09:38:08

0
0
3350/servo 860,8/2
0
0
UV/VIS
1
1
1
DoubleDePol,CommonBeamDepol,RBeamAtt,SBeamAtt,60mm sphere, WB InGaAs Detector
0
0
0
0
Program
Program
3350/servo 860,8/2
3350/0,2 860,8/0,2
3350/0,2 860,8/0,2
0
15.00
 
 
 
0
 
860,8
319,2
860,8
Front
100
on
S:100 R:100
0
0
0
0
 
0
 
 
 
0
 
 
0
0
0
0
0
 
 
 
 
0
0


0
0
#HDR
-1
-1
#GR
nm
%R
1.0
0.0
2500,000000
-1,000000
2251
8
90,810900
5,926100
#DATA
250.000000	6.558800
251.000000	6.536267
252.000000	6.519467
253.000000	6.529700
254.000000	6.493300
255.000000	6.477167
256.000000	6.457067
257.000000	6.452200
258.000000	6.441667
259.000000	6.427900
260.000000	6.411300
261.000000	6.397533
262.000000	6.361300
263.000000	6.313300
264.000000	6.286533
265.000000	6.258033
266.000000	6.229833
267.000000	6.236200
268.000000	6.211667
269.000000	6.198767
270.000000	6.186733
271.000000	6.179200
272.000000	6.159467
273.000000	6.153167
274.000000	6.140067
275.000000	6.120733
276.000000	6.107567
277.000000	6.089600
278.000000	6.072167
279.000000	6.069067
280.000000	6.063133
281.000000	6.062100
282.000000	6.065667
283.000000	6.029467
284.000000	6.022700
285.000000	6.038200
286.000000	6.023733
287.000000	6.004600
288.000000	6.005733
289.000000	6.012333
290.000000	6.005533
291.000000	5.995000
292.000000	5.986700
293.000000	5.966467
294.000000	5.973067
295.000000	5.966067
296.000000	5.980067
297.000000	5.959633
298.000000	5.944900
299.000000	5.943433
300.000000	5.957700
301.000000	5.946267
302.000000	5.939333
303.000000	5.942867
304.000000	5.916200
305.000000	5.940700
306.000000	5.951433
307.000000	5.923533
308.000000	5.919400
309.000000	5.910267
310.000000	5.880500
311.000000	5.888933
312.000000	5.903333
313.000000	5.894367
314.000000	5.899333
315.000000	5.883133
316.000000	6.214967
317.000000	6.784500
318.000000	6.887233
319.000000	6.595300
320.000000	6.307167
321.000000	6.283967
322.000000	6.369400
323.000000	6.317100
324.000000	6.248333
325.000000	6.099100
326.000000	6.153800
327.000000	6.342333
328.000000	6.292900
329.000000	6.235133
330.000000	6.206833
331.000000	6.088967
332.000000	6.007100
333.000000	6.123000
334.000000	6.398300
335.000000	6.407133
336.000000	6.160967
337.000000	6.167033
338.000000	6.233800
339.000000	6.163733
340.000000	6.120167
341.000000	6.088067
342.000000	6.172300
343.000000	6.149433
344.000000	6.151367
345.000000	6.204967
346.000000	6.207967
347.000000	6.256433
348.000000	6.285333
349.000000	6.357733
350.000000	6.346433
351.000000	6.323667
352.000000	6.400900
353.000000	6.395267
354.000000	6.265967
355.000000	6.319433
356.000000	6.398667
357.000000	6.444800
358.000000	6.521467
359.000000	6.549633
360.000000	6.636467
361.000000	6.643300
362.000000	6.572200
363.000000	6.572600
364.000000	6.599333
365.000000	6.538367
366.000000	6.564133
367.000000	6.666667
368.000000	6.757567
369.000000	6.683300
370.000000	6.602467
371.000000	6.623800
372.000000	6.599233
373.000000	6.621800
374.000000	6.739833
375.000000	6.958733
376.000000	7.058200
377.000000	7.101833
378.000000	7.163667
379.000000	7.212967
380.000000	7.268733
381.000000	7.343500
382.000000	7.413467
383.000000	7.485000
384.000000	7.578500
385.000000	7.676067
386.000000	7.780767
387.000000	7.887233
388.000000	7.997700
389.000000	8.115933
390.000000	8.256800
391.000000	8.396400
392.000000	8.536567
393.000000	8.695267
394.000000	8.878067
395.000000	9.060600
396.000000	9.248667
397.000000	9.467667
398.000000	9.703000
399.000000	9.939267
400.000000	10.186233
401.000000	10.477767
402.000000	10.764067
403.000000	11.074933
404.000000	11.403233
405.000000	11.753967
406.000000	12.112333
407.000000	12.479700
408.000000	12.867667
409.000000	13.281433
410.000000	13.698067
411.000000	14.152500
412.000000	14.607067
413.000000	15.096367
414.000000	15.555000
415.000000	16.053367
416.000000	16.555133
417.000000	17.040433
418.000000	17.544567
419.000000	18.035967
420.000000	18.548767
421.000000	19.064267
422.000000	19.546033
423.000000	20.025333
424.000000	20.502033
425.000000	20.979333
426.000000	21.406867
427.000000	21.860933
428.000000	22.279867
429.000000	22.694867
430.000000	23.101100
431.000000	23.497633
432.000000	23.873400
433.000000	24.258733
434.000000	24.636300
435.000000	24.955167
436.000000	25.316367
437.000000	25.623833
438.000000	25.904367
439.000000	26.227700
440.000000	26.511633
441.000000	26.792100
442.000000	27.063700
443.000000	27.314300
444.000000	27.556633
445.000000	27.774533
446.000000	27.987533
447.000000	28.178867
448.000000	28.377600
449.000000	28.518733
450.000000	28.672867
451.000000	28.805167
452.000000	28.915867
453.000000	29.043933
454.000000	29.153200
455.000000	29.242567
456.000000	29.308433
457.000000	29.365700
458.000000	29.394867
459.000000	29.438800
460.000000	29.469167
461.000000	29.475033
462.000000	29.468600
463.000000	29.442133
464.000000	29.406633
465.000000	29.371733
466.000000	29.336033
467.000000	29.270300
468.000000	29.212867
469.000000	29.152800
470.000000	29.061767
471.000000	28.993000
472.000000	28.917667
473.000000	28.867667
474.000000	28.779533
475.000000	28.746700
476.000000	28.712933
477.000000	28.712767
478.000000	28.760667
479.000000	28.836867
480.000000	28.925767
481.000000	29.073000
482.000000	29.253433
483.000000	29.498433
484.000000	29.806800
485.000000	30.160367
486.000000	30.563933
487.000000	30.997833
488.000000	31.494467
489.000000	32.035933
490.000000	32.622967
491.000000	33.204100
492.000000	33.811800
493.000000	34.456133
494.000000	35.058267
495.000000	35.621733
496.000000	36.182967
497.000000	36.730467
498.000000	37.254933
499.000000	37.745500
500.000000	38.220100
501.000000	38.637533
502.000000	39.066867
503.000000	39.490733
504.000000	39.883833
505.000000	40.295067
506.000000	40.683233
507.000000	41.090400
508.000000	41.541433
509.000000	41.999533
510.000000	42.468000
511.000000	43.018700
512.000000	43.563733
513.000000	44.206533
514.000000	44.897067
515.000000	45.626967
516.000000	46.449100
517.000000	47.346567
518.000000	48.291667
519.000000	49.344567
520.000000	50.452900
521.000000	51.637167
522.000000	52.868967
523.000000	54.186500
524.000000	55.533400
525.000000	56.919633
526.000000	58.310633
527.000000	59.708067
528.000000	61.090100
529.000000	62.480300
530.000000	63.864900
531.000000	65.217767
532.000000	66.568100
533.000000	67.892900
534.000000	69.142233
535.000000	70.343400
536.000000	71.512267
537.000000	72.588533
538.000000	73.628900
539.000000	74.604400
540.000000	75.585567
541.000000	76.492733
542.000000	77.342967
543.000000	78.132867
544.000000	78.872700
545.000000	79.589867
546.000000	80.230033
547.000000	80.848333
548.000000	81.431300
549.000000	82.015200
550.000000	82.529100
551.000000	83.051867
552.000000	83.563867
553.000000	84.054833
554.000000	84.515867
555.000000	84.958700
556.000000	85.393400
557.000000	85.824800
558.000000	86.243933
559.000000	86.644833
560.000000	87.052400
561.000000	87.384033
562.000000	87.749333
563.000000	88.084933
564.000000	88.377333
565.000000	88.620867
566.000000	88.893367
567.000000	89.142167
568.000000	89.344500
569.000000	89.507533
570.000000	89.669633
571.000000	89.832800
572.000000	89.961133
573.000000	90.062133
574.000000	90.169133
575.000000	90.255033
576.000000	90.319433
577.000000	90.391800
578.000000	90.448333
579.000000	90.461067
580.000000	90.494600
581.000000	90.507167
582.000000	90.517200
583.000000	90.523400
584.000000	90.483900
585.000000	90.418600
586.000000	90.343033
587.000000	90.275500
588.000000	90.197600
589.000000	90.087233
590.000000	89.977233
591.000000	89.831933
592.000000	89.655733
593.000000	89.454167
594.000000	89.265900
595.000000	89.038667
596.000000	88.817933
597.000000	88.547967
598.000000	88.220400
599.000000	87.902700
600.000000	87.553300
601.000000	87.170900
602.000000	86.775400
603.000000	86.350467
604.000000	85.934667
605.000000	85.516867
606.000000	85.087800
607.000000	84.614367
608.000000	84.170967
609.000000	83.729133
610.000000	83.267433
611.000000	82.820033
612.000000	82.348633
613.000000	81.840333
614.000000	81.357733
615.000000	80.851833
616.000000	80.311967
617.000000	79.737800
618.000000	79.101833
619.000000	78.455300
620.000000	77.793267
621.000000	77.108667
622.000000	76.394600
623.000000	75.668933
624.000000	74.922133
625.000000	74.181533
626.000000	73.468433
627.000000	72.758933
628.000000	72.062033
629.000000	71.343133
630.000000	70.647867
631.000000	69.962833
632.000000	69.239700
633.000000	68.501233
634.000000	67.754900
635.000000	66.988067
636.000000	66.206500
637.000000	65.427800
638.000000	64.643800
639.000000	63.877267
640.000000	63.124233
641.000000	62.394133
642.000000	61.709900
643.000000	61.075267
644.000000	60.494600
645.000000	59.968667
646.000000	59.525167
647.000000	59.185800
648.000000	58.915800
649.000000	58.709333
650.000000	58.601133
651.000000	58.560500
652.000000	58.585333
653.000000	58.704500
654.000000	58.900200
655.000000	59.130067
656.000000	59.440500
657.000000	59.823667
658.000000	60.257967
659.000000	60.750767
660.000000	61.319433
661.000000	61.959633
662.000000	62.617867
663.000000	63.346633
664.000000	64.112900
665.000000	64.882800
666.000000	65.650033
667.000000	66.417867
668.000000	67.199500
669.000000	67.977133
670.000000	68.742867
671.000000	69.504367
672.000000	70.205700
673.000000	70.865167
674.000000	71.530567
675.000000	72.139633
676.000000	72.726667
677.000000	73.287333
678.000000	73.751933
679.000000	74.220067
680.000000	74.664500
681.000000	75.082367
682.000000	75.532767
683.000000	75.938867
684.000000	76.359933
685.000000	76.750633
686.000000	77.118133
687.000000	77.480867
688.000000	77.784567
689.000000	78.126367
690.000000	78.453867
691.000000	78.743700
692.000000	78.963233
693.000000	79.211700
694.000000	79.440467
695.000000	79.650767
696.000000	79.789833
697.000000	79.963633
698.000000	80.104333
699.000000	80.297900
700.000000	80.438667
701.000000	80.569367
702.000000	80.735267
703.000000	80.865433
704.000000	81.031667
705.000000	81.164667
706.000000	81.314000
707.000000	81.440000
708.000000	81.586600
709.000000	81.753000
710.000000	81.865467
711.000000	81.943400
712.000000	82.029567
713.000000	82.140267
714.000000	82.169267
715.000000	82.234267
716.000000	82.275933
717.000000	82.349533
718.000000	82.360833
719.000000	82.452500
720.000000	82.506700
721.000000	82.513067
722.000000	82.573567
723.000000	82.664333
724.000000	82.728000
725.000000	82.790533
726.000000	82.891000
727.000000	82.994467
728.000000	83.101500
729.000000	83.269667
730.000000	83.435400
731.000000	83.536867
732.000000	83.742167
733.000000	83.954233
734.000000	84.131367
735.000000	84.354533
736.000000	84.577467
737.000000	84.763633
738.000000	84.991933
739.000000	85.247100
740.000000	85.525167
741.000000	85.720500
742.000000	86.010300
743.000000	86.230133
744.000000	86.394533
745.000000	86.619500
746.000000	86.821000
747.000000	86.967100
748.000000	87.155300
749.000000	87.287100
750.000000	87.331333
751.000000	87.378867
752.000000	87.529733
753.000000	87.514500
754.000000	87.519967
755.000000	87.621633
756.000000	87.575367
757.000000	87.560033
758.000000	87.503633
759.000000	87.418600
760.000000	87.417000
761.000000	87.448033
762.000000	87.454933
763.000000	87.391933
764.000000	87.344367
765.000000	87.219267
766.000000	87.209100
767.000000	87.174267
768.000000	87.257833
769.000000	87.265933
770.000000	87.257400
771.000000	87.361533
772.000000	87.417133
773.000000	87.409200
774.000000	87.485833
775.000000	87.580867
776.000000	87.614600
777.000000	87.683267
778.000000	87.741433
779.000000	87.788400
780.000000	87.786633
781.000000	87.863333
782.000000	87.978533
783.000000	87.992467
784.000000	87.988467
785.000000	88.037200
786.000000	88.074433
787.000000	87.980133
788.000000	88.042800
789.000000	87.952567
790.000000	87.846300
791.000000	87.701733
792.000000	87.799433
793.000000	87.642500
794.000000	87.477967
795.000000	87.251867
796.000000	87.076667
797.000000	87.021833
798.000000	86.657033
799.000000	86.578167
800.000000	86.324967
801.000000	86.005567
802.000000	85.912900
803.000000	85.725567
804.000000	85.502100
805.000000	85.160833
806.000000	84.967300
807.000000	84.799567
808.000000	84.682033
809.000000	84.536167
810.000000	84.305067
811.000000	84.158033
812.000000	84.049733
813.000000	83.962933
814.000000	83.697400
815.000000	83.663333
816.000000	83.525900
817.000000	83.552367
818.000000	83.217333
819.000000	83.127233
820.000000	83.156367
821.000000	83.046967
822.000000	83.029067
823.000000	82.697500
824.000000	82.691667
825.000000	82.546200
826.000000	82.464700
827.000000	82.282067
828.000000	82.078533
829.000000	81.907100
830.000000	81.527033
831.000000	81.499967
832.000000	81.220933
833.000000	80.876167
834.000000	80.914067
835.000000	80.376033
836.000000	79.962267
837.000000	79.733867
838.000000	79.608000
839.000000	79.273167
840.000000	79.068867
841.000000	78.717533
842.000000	78.271900
843.000000	78.214300
844.000000	77.685800
845.000000	77.619633
846.000000	77.313733
847.000000	77.041500
848.000000	76.491000
849.000000	76.140033
850.000000	76.170400
851.000000	75.628533
852.000000	75.310733
853.000000	75.367333
854.000000	74.799900
855.000000	74.800267
856.000000	74.597267
857.000000	74.037067
858.000000	74.478200
859.000000	74.218729
860.000000	73.956593
861.000000	73.697978
862.000000	73.444524
863.000000	73.175046
864.000000	72.918027
865.000000	72.659849
866.000000	72.406662
867.000000	72.150787
868.000000	71.910958
869.000000	71.616548
870.000000	71.354474
871.000000	71.132843
872.000000	71.004727
873.000000	70.984550
874.000000	70.985255
875.000000	70.942762
876.000000	70.874601
877.000000	70.759162
878.000000	70.665891
879.000000	70.531619
880.000000	70.381924
881.000000	70.231751
882.000000	70.079937
883.000000	69.917123
884.000000	69.757263
885.000000	69.597427
886.000000	69.432136
887.000000	69.267070
888.000000	69.096151
889.000000	68.918978
890.000000	68.744586
891.000000	68.561472
892.000000	68.389452
893.000000	68.215401
894.000000	68.022765
895.000000	67.825899
896.000000	67.645057
897.000000	67.454162
898.000000	67.259588
899.000000	67.059923
900.000000	66.865786
901.000000	66.675517
902.000000	66.486958
903.000000	66.301038
904.000000	66.125983
905.000000	65.947500
906.000000	65.764522
907.000000	65.601326
908.000000	65.450569
909.000000	65.296801
910.000000	65.160043
911.000000	65.028200
912.000000	64.893017
913.000000	64.774795
914.000000	64.667469
915.000000	64.551124
916.000000	64.431294
917.000000	64.308515
918.000000	64.189186
919.000000	64.073190
920.000000	63.965319
921.000000	63.844182
922.000000	63.714750
923.000000	63.598965
924.000000	63.489659
925.000000	63.382489
926.000000	63.270449
927.000000	63.165991
928.000000	63.066065
929.000000	62.973061
930.000000	62.877641
931.000000	62.779532
932.000000	62.687443
933.000000	62.602754
934.000000	62.522042
935.000000	62.443171
936.000000	62.362380
937.000000	62.285181
938.000000	62.218582
939.000000	62.152498
940.000000	62.086846
941.000000	62.023078
942.000000	61.975982
943.000000	61.926859
944.000000	61.870231
945.000000	61.826307
946.000000	61.791481
947.000000	61.744908
948.000000	61.702872
949.000000	61.665166
950.000000	61.632938
951.000000	61.609192
952.000000	61.577890
953.000000	61.539333
954.000000	61.506209
955.000000	61.469968
956.000000	61.437163
957.000000	61.414250
958.000000	61.374820
959.000000	61.324296
960.000000	61.278450
961.000000	61.245550
962.000000	61.208348
963.000000	61.179863
964.000000	61.144550
965.000000	61.113076
966.000000	61.097438
967.000000	61.089774
968.000000	61.074897
969.000000	61.046036
970.000000	61.024306
971.000000	61.020483
972.000000	61.010024
973.000000	60.989352
974.000000	60.966626
975.000000	60.957688
976.000000	60.937538
977.000000	60.925380
978.000000	60.906999
979.000000	60.895194
980.000000	60.887034
981.000000	60.881995
982.000000	60.861662
983.000000	60.842486
984.000000	60.839933
985.000000	60.836046
986.000000	60.819624
987.000000	60.816892
988.000000	60.813990
989.000000	60.822928
990.000000	60.822230
991.000000	60.826905
992.000000	60.828310
993.000000	60.835086
994.000000	60.844985
995.000000	60.855282
996.000000	60.870369
997.000000	60.884186
998.000000	60.905833
999.000000	60.916628
1000.000000	60.928806
1001.000000	60.950656
1002.000000	60.970315
1003.000000	60.990899
1004.000000	61.003154
1005.000000	61.017134
1006.000000	61.036052
1007.000000	61.053393
1008.000000	61.065869
1009.000000	61.075675
1010.000000	61.108686
1011.000000	61.141172
1012.000000	61.170681
1013.000000	61.207021
1014.000000	61.252049
1015.000000	61.314868
1016.000000	61.383783
1017.000000	61.449732
1018.000000	61.517651
1019.000000	61.597115
1020.000000	61.664396
1021.000000	61.750433
1022.000000	61.832021
1023.000000	61.904400
1024.000000	61.991154
1025.000000	62.070389
1026.000000	62.147776
1027.000000	62.227078
1028.000000	62.307593
1029.000000	62.371153
1030.000000	62.443059
1031.000000	62.510103
1032.000000	62.580906
1033.000000	62.647555
1034.000000	62.711577
1035.000000	62.766281
1036.000000	62.821853
1037.000000	62.880203
1038.000000	62.945563
1039.000000	62.994133
1040.000000	63.035168
1041.000000	63.093175
1042.000000	63.156339
1043.000000	63.195947
1044.000000	63.239393
1045.000000	63.293105
1046.000000	63.355862
1047.000000	63.419201
1048.000000	63.467284
1049.000000	63.526273
1050.000000	63.590174
1051.000000	63.651405
1052.000000	63.707418
1053.000000	63.790246
1054.000000	63.851891
1055.000000	63.923925
1056.000000	63.993602
1057.000000	64.071063
1058.000000	64.145926
1059.000000	64.208610
1060.000000	64.287689
1061.000000	64.351652
1062.000000	64.427391
1063.000000	64.488626
1064.000000	64.553111
1065.000000	64.617095
1066.000000	64.672651
1067.000000	64.753280
1068.000000	64.812859
1069.000000	64.886372
1070.000000	64.945641
1071.000000	65.007475
1072.000000	65.062417
1073.000000	65.126921
1074.000000	65.199907
1075.000000	65.255624
1076.000000	65.317549
1077.000000	65.375788
1078.000000	65.439098
1079.000000	65.501222
1080.000000	65.574130
1081.000000	65.625360
1082.000000	65.705725
1083.000000	65.739494
1084.000000	65.825341
1085.000000	65.882263
1086.000000	65.943958
1087.000000	66.002021
1088.000000	66.065651
1089.000000	66.108351
1090.000000	66.158722
1091.000000	66.207849
1092.000000	66.254657
1093.000000	66.305593
1094.000000	66.335391
1095.000000	66.380672
1096.000000	66.406381
1097.000000	66.457353
1098.000000	66.481994
1099.000000	66.503005
1100.000000	66.528963
1101.000000	66.543582
1102.000000	66.570967
1103.000000	66.587961
1104.000000	66.588957
1105.000000	66.606554
1106.000000	66.617777
1107.000000	66.619624
1108.000000	66.639949
1109.000000	66.644597
1110.000000	66.657435
1111.000000	66.668597
1112.000000	66.661329
1113.000000	66.677066
1114.000000	66.676080
1115.000000	66.681127
1116.000000	66.683875
1117.000000	66.677034
1118.000000	66.656464
1119.000000	66.632911
1120.000000	66.592057
1121.000000	66.537000
1122.000000	66.487788
1123.000000	66.418861
1124.000000	66.327082
1125.000000	66.235277
1126.000000	66.108587
1127.000000	65.970537
1128.000000	65.786520
1129.000000	65.567283
1130.000000	65.300946
1131.000000	65.010185
1132.000000	64.689583
1133.000000	64.385973
1134.000000	64.022555
1135.000000	63.613900
1136.000000	63.208039
1137.000000	62.803408
1138.000000	62.415502
1139.000000	62.052968
1140.000000	61.687028
1141.000000	61.339626
1142.000000	60.998924
1143.000000	60.692248
1144.000000	60.445408
1145.000000	60.250294
1146.000000	60.118387
1147.000000	60.042042
1148.000000	60.008275
1149.000000	60.012395
1150.000000	60.001427
1151.000000	59.975266
1152.000000	59.926796
1153.000000	59.822662
1154.000000	59.669943
1155.000000	59.455280
1156.000000	59.195903
1157.000000	58.888816
1158.000000	58.547361
1159.000000	58.188839
1160.000000	57.818010
1161.000000	57.434934
1162.000000	57.048490
1163.000000	56.646280
1164.000000	56.250035
1165.000000	55.860726
1166.000000	55.480270
1167.000000	55.107755
1168.000000	54.734357
1169.000000	54.373145
1170.000000	54.014230
1171.000000	53.655963
1172.000000	53.316430
1173.000000	52.985672
1174.000000	52.666345
1175.000000	52.350330
1176.000000	52.004097
1177.000000	51.617629
1178.000000	51.176636
1179.000000	50.689447
1180.000000	50.169113
1181.000000	49.661600
1182.000000	49.203571
1183.000000	48.836487
1184.000000	48.603450
1185.000000	48.500694
1186.000000	48.523322
1187.000000	48.667459
1188.000000	48.936234
1189.000000	49.300971
1190.000000	49.729030
1191.000000	50.192586
1192.000000	50.634740
1193.000000	51.024985
1194.000000	51.357266
1195.000000	51.623837
1196.000000	51.826647
1197.000000	51.982126
1198.000000	52.100304
1199.000000	52.181479
1200.000000	52.235644
1201.000000	52.283418
1202.000000	52.315538
1203.000000	52.341906
1204.000000	52.386719
1205.000000	52.436691
1206.000000	52.495601
1207.000000	52.569187
1208.000000	52.658707
1209.000000	52.772333
1210.000000	52.888580
1211.000000	53.007075
1212.000000	53.129000
1213.000000	53.254994
1214.000000	53.398449
1215.000000	53.545613
1216.000000	53.688305
1217.000000	53.843289
1218.000000	54.009646
1219.000000	54.174585
1220.000000	54.354710
1221.000000	54.545229
1222.000000	54.737419
1223.000000	54.936235
1224.000000	55.133118
1225.000000	55.328513
1226.000000	55.525237
1227.000000	55.723622
1228.000000	55.919419
1229.000000	56.113224
1230.000000	56.312424
1231.000000	56.509709
1232.000000	56.699301
1233.000000	56.878438
1234.000000	57.053485
1235.000000	57.233164
1236.000000	57.412805
1237.000000	57.585762
1238.000000	57.746990
1239.000000	57.904283
1240.000000	58.065994
1241.000000	58.222421
1242.000000	58.373694
1243.000000	58.512622
1244.000000	58.645577
1245.000000	58.771585
1246.000000	58.889763
1247.000000	59.002546
1248.000000	59.102959
1249.000000	59.193499
1250.000000	59.283370
1251.000000	59.363421
1252.000000	59.440499
1253.000000	59.508283
1254.000000	59.570252
1255.000000	59.632490
1256.000000	59.687259
1257.000000	59.740581
1258.000000	59.800385
1259.000000	59.854117
1260.000000	59.902278
1261.000000	59.944455
1262.000000	59.990185
1263.000000	60.037994
1264.000000	60.090454
1265.000000	60.141172
1266.000000	60.188578
1267.000000	60.229373
1268.000000	60.270864
1269.000000	60.317622
1270.000000	60.371152
1271.000000	60.420849
1272.000000	60.467711
1273.000000	60.511269
1274.000000	60.569863
1275.000000	60.626285
1276.000000	60.684238
1277.000000	60.747887
1278.000000	60.817087
1279.000000	60.890472
1280.000000	60.961839
1281.000000	61.040731
1282.000000	61.112860
1283.000000	61.182374
1284.000000	61.249220
1285.000000	61.319985
1286.000000	61.382762
1287.000000	61.444876
1288.000000	61.505566
1289.000000	61.544023
1290.000000	61.583288
1291.000000	61.612749
1292.000000	61.635470
1293.000000	61.657173
1294.000000	61.669429
1295.000000	61.682881
1296.000000	61.684171
1297.000000	61.686152
1298.000000	61.686616
1299.000000	61.679531
1300.000000	61.679824
1301.000000	61.671781
1302.000000	61.650133
1303.000000	61.632446
1304.000000	61.614806
1305.000000	61.582177
1306.000000	61.538005
1307.000000	61.495579
1308.000000	61.433857
1309.000000	61.369062
1310.000000	61.304544
1311.000000	61.228533
1312.000000	61.147465
1313.000000	61.066457
1314.000000	60.976620
1315.000000	60.882698
1316.000000	60.779979
1317.000000	60.671815
1318.000000	60.562772
1319.000000	60.449592
1320.000000	60.327790
1321.000000	60.206150
1322.000000	60.072519
1323.000000	59.935933
1324.000000	59.792231
1325.000000	59.632192
1326.000000	59.467616
1327.000000	59.307833
1328.000000	59.127999
1329.000000	58.940733
1330.000000	58.748302
1331.000000	58.535556
1332.000000	58.320870
1333.000000	58.095141
1334.000000	57.855465
1335.000000	57.616156
1336.000000	57.364730
1337.000000	57.094961
1338.000000	56.814321
1339.000000	56.541159
1340.000000	56.248506
1341.000000	55.929197
1342.000000	55.614122
1343.000000	55.291445
1344.000000	54.942937
1345.000000	54.575846
1346.000000	54.211333
1347.000000	53.830811
1348.000000	53.410298
1349.000000	52.964085
1350.000000	52.450900
1351.000000	51.902186
1352.000000	51.331370
1353.000000	50.834917
1354.000000	50.365315
1355.000000	49.961927
1356.000000	49.659906
1357.000000	49.475869
1358.000000	49.365472
1359.000000	49.258286
1360.000000	49.258439
1361.000000	49.152894
1362.000000	49.002411
1363.000000	48.812296
1364.000000	48.652177
1365.000000	48.429120
1366.000000	48.211479
1367.000000	47.977150
1368.000000	47.684166
1369.000000	47.358188
1370.000000	47.049974
1371.000000	46.690145
1372.000000	46.332991
1373.000000	45.990700
1374.000000	45.706658
1375.000000	45.509595
1376.000000	45.351239
1377.000000	45.232264
1378.000000	45.129755
1379.000000	44.991998
1380.000000	44.828890
1381.000000	44.587788
1382.000000	44.219051
1383.000000	43.781435
1384.000000	43.331485
1385.000000	42.883924
1386.000000	42.522380
1387.000000	42.184537
1388.000000	41.877099
1389.000000	41.549263
1390.000000	41.356112
1391.000000	41.144093
1392.000000	40.943013
1393.000000	40.762719
1394.000000	40.616016
1395.000000	40.411178
1396.000000	40.123117
1397.000000	39.849036
1398.000000	39.607450
1399.000000	39.379422
1400.000000	39.048351
1401.000000	38.624291
1402.000000	38.230362
1403.000000	37.857848
1404.000000	37.483219
1405.000000	37.102696
1406.000000	36.713754
1407.000000	36.368860
1408.000000	35.989569
1409.000000	35.649379
1410.000000	35.297636
1411.000000	34.986705
1412.000000	34.768744
1413.000000	34.529318
1414.000000	34.287365
1415.000000	34.002973
1416.000000	33.755346
1417.000000	33.530934
1418.000000	33.308066
1419.000000	33.062932
1420.000000	32.806868
1421.000000	32.555622
1422.000000	32.328969
1423.000000	32.142568
1424.000000	31.907883
1425.000000	31.680152
1426.000000	31.481376
1427.000000	31.301995
1428.000000	31.116641
1429.000000	30.938608
1430.000000	30.792304
1431.000000	30.645765
1432.000000	30.510370
1433.000000	30.358153
1434.000000	30.229984
1435.000000	30.084607
1436.000000	29.960268
1437.000000	29.848549
1438.000000	29.711969
1439.000000	29.584319
1440.000000	29.461110
1441.000000	29.340091
1442.000000	29.208343
1443.000000	29.090165
1444.000000	28.981662
1445.000000	28.876360
1446.000000	28.770402
1447.000000	28.629829
1448.000000	28.517724
1449.000000	28.430963
1450.000000	28.333196
1451.000000	28.227755
1452.000000	28.123789
1453.000000	28.021602
1454.000000	27.932199
1455.000000	27.849332
1456.000000	27.754574
1457.000000	27.675587
1458.000000	27.596294
1459.000000	27.524787
1460.000000	27.457100
1461.000000	27.396029
1462.000000	27.330229
1463.000000	27.277183
1464.000000	27.236580
1465.000000	27.195712
1466.000000	27.148788
1467.000000	27.095613
1468.000000	27.063729
1469.000000	27.040247
1470.000000	27.005631
1471.000000	26.969692
1472.000000	26.935073
1473.000000	26.888041
1474.000000	26.850994
1475.000000	26.815203
1476.000000	26.786087
1477.000000	26.768487
1478.000000	26.746365
1479.000000	26.728827
1480.000000	26.706615
1481.000000	26.694272
1482.000000	26.680012
1483.000000	26.669996
1484.000000	26.662526
1485.000000	26.652535
1486.000000	26.648096
1487.000000	26.651084
1488.000000	26.648305
1489.000000	26.651774
1490.000000	26.659244
1491.000000	26.663428
1492.000000	26.660327
1493.000000	26.663163
1494.000000	26.665416
1495.000000	26.669849
1496.000000	26.681678
1497.000000	26.702855
1498.000000	26.730320
1499.000000	26.745938
1500.000000	26.768575
1501.000000	26.796443
1502.000000	26.824304
1503.000000	26.855414
1504.000000	26.889246
1505.000000	26.921987
1506.000000	26.954023
1507.000000	26.993725
1508.000000	27.035644
1509.000000	27.071307
1510.000000	27.100703
1511.000000	27.130897
1512.000000	27.163780
1513.000000	27.203782
1514.000000	27.242373
1515.000000	27.274712
1516.000000	27.304534
1517.000000	27.330566
1518.000000	27.353040
1519.000000	27.380431
1520.000000	27.416562
1521.000000	27.445561
1522.000000	27.467637
1523.000000	27.489213
1524.000000	27.508372
1525.000000	27.534830
1526.000000	27.556340
1527.000000	27.574068
1528.000000	27.599765
1529.000000	27.617194
1530.000000	27.633516
1531.000000	27.649618
1532.000000	27.654504
1533.000000	27.667594
1534.000000	27.680409
1535.000000	27.689070
1536.000000	27.693892
1537.000000	27.695557
1538.000000	27.697199
1539.000000	27.704678
1540.000000	27.710746
1541.000000	27.711783
1542.000000	27.718261
1543.000000	27.724588
1544.000000	27.737704
1545.000000	27.749963
1546.000000	27.760770
1547.000000	27.785435
1548.000000	27.809665
1549.000000	27.827895
1550.000000	27.843464
1551.000000	27.855089
1552.000000	27.867136
1553.000000	27.878060
1554.000000	27.893262
1555.000000	27.896817
1556.000000	27.897866
1557.000000	27.890322
1558.000000	27.891812
1559.000000	27.887149
1560.000000	27.877818
1561.000000	27.856736
1562.000000	27.839563
1563.000000	27.825181
1564.000000	27.803963
1565.000000	27.776741
1566.000000	27.766775
1567.000000	27.748031
1568.000000	27.724928
1569.000000	27.708997
1570.000000	27.696580
1571.000000	27.682696
1572.000000	27.670787
1573.000000	27.663764
1574.000000	27.668237
1575.000000	27.663032
1576.000000	27.669544
1577.000000	27.675781
1578.000000	27.691050
1579.000000	27.712473
1580.000000	27.730772
1581.000000	27.754087
1582.000000	27.780191
1583.000000	27.812036
1584.000000	27.838115
1585.000000	27.873573
1586.000000	27.917867
1587.000000	27.947993
1588.000000	27.993356
1589.000000	28.030697
1590.000000	28.076896
1591.000000	28.115916
1592.000000	28.169895
1593.000000	28.222184
1594.000000	28.274280
1595.000000	28.320207
1596.000000	28.383825
1597.000000	28.441822
1598.000000	28.506143
1599.000000	28.572262
1600.000000	28.629081
1601.000000	28.693487
1602.000000	28.765569
1603.000000	28.830648
1604.000000	28.901913
1605.000000	28.961560
1606.000000	29.035349
1607.000000	29.095073
1608.000000	29.164674
1609.000000	29.229999
1610.000000	29.287817
1611.000000	29.357647
1612.000000	29.421671
1613.000000	29.475644
1614.000000	29.542306
1615.000000	29.607902
1616.000000	29.678568
1617.000000	29.753089
1618.000000	29.815618
1619.000000	29.890706
1620.000000	29.970238
1621.000000	30.038186
1622.000000	30.104527
1623.000000	30.175583
1624.000000	30.258369
1625.000000	30.337329
1626.000000	30.399791
1627.000000	30.481826
1628.000000	30.556031
1629.000000	30.634548
1630.000000	30.709991
1631.000000	30.775746
1632.000000	30.840771
1633.000000	30.907785
1634.000000	30.973977
1635.000000	31.047361
1636.000000	31.103782
1637.000000	31.165043
1638.000000	31.219607
1639.000000	31.276785
1640.000000	31.333385
1641.000000	31.381668
1642.000000	31.414255
1643.000000	31.475112
1644.000000	31.518346
1645.000000	31.565337
1646.000000	31.587388
1647.000000	31.633709
1648.000000	31.682073
1649.000000	31.693154
1650.000000	31.712425
1651.000000	31.741190
1652.000000	31.754050
1653.000000	31.759000
1654.000000	31.763918
1655.000000	31.747601
1656.000000	31.733568
1657.000000	31.706250
1658.000000	31.676238
1659.000000	31.633879
1660.000000	31.574339
1661.000000	31.517762
1662.000000	31.438652
1663.000000	31.369688
1664.000000	31.270529
1665.000000	31.173861
1666.000000	31.063779
1667.000000	30.930006
1668.000000	30.804880
1669.000000	30.647342
1670.000000	30.451642
1671.000000	30.231466
1672.000000	30.012833
1673.000000	29.746384
1674.000000	29.414929
1675.000000	29.051836
1676.000000	28.630232
1677.000000	28.172318
1678.000000	27.680625
1679.000000	27.161448
1680.000000	26.668487
1681.000000	26.234233
1682.000000	25.909916
1683.000000	25.690162
1684.000000	25.562046
1685.000000	25.501015
1686.000000	25.475508
1687.000000	25.443591
1688.000000	25.383872
1689.000000	25.293199
1690.000000	25.170760
1691.000000	25.038269
1692.000000	24.911800
1693.000000	24.821160
1694.000000	24.750221
1695.000000	24.762161
1696.000000	24.816456
1697.000000	24.907365
1698.000000	25.020223
1699.000000	25.177646
1700.000000	25.311268
1701.000000	25.427780
1702.000000	25.523264
1703.000000	25.602196
1704.000000	25.659794
1705.000000	25.701960
1706.000000	25.726978
1707.000000	25.741080
1708.000000	25.755276
1709.000000	25.731253
1710.000000	25.713378
1711.000000	25.672930
1712.000000	25.616802
1713.000000	25.552038
1714.000000	25.462000
1715.000000	25.378993
1716.000000	25.304174
1717.000000	25.240053
1718.000000	25.178095
1719.000000	25.128730
1720.000000	25.095690
1721.000000	25.073457
1722.000000	25.040494
1723.000000	24.996661
1724.000000	24.948193
1725.000000	24.892474
1726.000000	24.820976
1727.000000	24.727304
1728.000000	24.626627
1729.000000	24.542635
1730.000000	24.460459
1731.000000	24.396174
1732.000000	24.362124
1733.000000	24.370398
1734.000000	24.429240
1735.000000	24.523546
1736.000000	24.660846
1737.000000	24.838458
1738.000000	25.036510
1739.000000	25.260311
1740.000000	25.482421
1741.000000	25.710560
1742.000000	25.914713
1743.000000	26.094628
1744.000000	26.262078
1745.000000	26.393313
1746.000000	26.508419
1747.000000	26.591869
1748.000000	26.672612
1749.000000	26.728497
1750.000000	26.766488
1751.000000	26.792557
1752.000000	26.804964
1753.000000	26.805757
1754.000000	26.783058
1755.000000	26.751797
1756.000000	26.704131
1757.000000	26.644295
1758.000000	26.585605
1759.000000	26.523209
1760.000000	26.465416
1761.000000	26.428458
1762.000000	26.413852
1763.000000	26.426108
1764.000000	26.460230
1765.000000	26.521046
1766.000000	26.601775
1767.000000	26.703448
1768.000000	26.820377
1769.000000	26.938550
1770.000000	27.068429
1771.000000	27.198053
1772.000000	27.324608
1773.000000	27.442689
1774.000000	27.557054
1775.000000	27.676904
1776.000000	27.782728
1777.000000	27.879781
1778.000000	27.967553
1779.000000	28.049504
1780.000000	28.134349
1781.000000	28.208674
1782.000000	28.284066
1783.000000	28.357947
1784.000000	28.430580
1785.000000	28.503060
1786.000000	28.565828
1787.000000	28.627273
1788.000000	28.688956
1789.000000	28.752107
1790.000000	28.810013
1791.000000	28.857408
1792.000000	28.903580
1793.000000	28.956961
1794.000000	29.011664
1795.000000	29.056928
1796.000000	29.096810
1797.000000	29.137171
1798.000000	29.185089
1799.000000	29.246079
1800.000000	29.306546
1801.000000	29.352540
1802.000000	29.395966
1803.000000	29.432218
1804.000000	29.472268
1805.000000	29.527882
1806.000000	29.580501
1807.000000	29.625432
1808.000000	29.662934
1809.000000	29.697312
1810.000000	29.741220
1811.000000	29.784544
1812.000000	29.806875
1813.000000	29.813211
1814.000000	29.827168
1815.000000	29.843461
1816.000000	29.847268
1817.000000	29.854798
1818.000000	29.885544
1819.000000	29.933168
1820.000000	29.966378
1821.000000	29.986613
1822.000000	29.978722
1823.000000	29.991013
1824.000000	30.039384
1825.000000	30.106482
1826.000000	30.167460
1827.000000	30.245211
1828.000000	30.331649
1829.000000	30.405934
1830.000000	30.473902
1831.000000	30.532353
1832.000000	30.599245
1833.000000	30.672035
1834.000000	30.756808
1835.000000	30.843381
1836.000000	30.904663
1837.000000	30.954940
1838.000000	30.998711
1839.000000	31.054523
1840.000000	31.097024
1841.000000	31.130633
1842.000000	31.133582
1843.000000	31.138004
1844.000000	31.178149
1845.000000	31.233635
1846.000000	31.330707
1847.000000	31.392013
1848.000000	31.435281
1849.000000	31.468527
1850.000000	31.492909
1851.000000	31.524297
1852.000000	31.566668
1853.000000	31.614570
1854.000000	31.623636
1855.000000	31.647082
1856.000000	31.658226
1857.000000	31.649200
1858.000000	31.631214
1859.000000	31.602310
1860.000000	31.543197
1861.000000	31.473069
1862.000000	31.393574
1863.000000	31.321867
1864.000000	31.251156
1865.000000	31.173997
1866.000000	31.088768
1867.000000	30.981700
1868.000000	30.841269
1869.000000	30.626508
1870.000000	30.412815
1871.000000	30.160675
1872.000000	29.885065
1873.000000	29.566185
1874.000000	29.219569
1875.000000	28.873193
1876.000000	28.506136
1877.000000	28.118144
1878.000000	27.691850
1879.000000	27.277310
1880.000000	26.864268
1881.000000	26.406299
1882.000000	25.968443
1883.000000	25.513407
1884.000000	25.075869
1885.000000	24.659309
1886.000000	24.290951
1887.000000	23.938431
1888.000000	23.616880
1889.000000	23.302034
1890.000000	23.002206
1891.000000	22.661952
1892.000000	22.307937
1893.000000	22.012879
1894.000000	21.726623
1895.000000	21.459704
1896.000000	21.203160
1897.000000	20.926177
1898.000000	20.644228
1899.000000	20.313372
1900.000000	19.990386
1901.000000	19.713728
1902.000000	19.445122
1903.000000	19.178002
1904.000000	18.918531
1905.000000	18.605759
1906.000000	18.316691
1907.000000	18.048268
1908.000000	17.827272
1909.000000	17.636215
1910.000000	17.436677
1911.000000	17.242335
1912.000000	17.011331
1913.000000	16.766620
1914.000000	16.550617
1915.000000	16.357702
1916.000000	16.211365
1917.000000	16.041081
1918.000000	15.875159
1919.000000	15.731669
1920.000000	15.557779
1921.000000	15.398800
1922.000000	15.244721
1923.000000	15.114550
1924.000000	15.022686
1925.000000	14.921218
1926.000000	14.800028
1927.000000	14.713385
1928.000000	14.625445
1929.000000	14.524480
1930.000000	14.462199
1931.000000	14.388357
1932.000000	14.347463
1933.000000	14.307077
1934.000000	14.278863
1935.000000	14.246496
1936.000000	14.225950
1937.000000	14.207972
1938.000000	14.208553
1939.000000	14.197911
1940.000000	14.210830
1941.000000	14.207653
1942.000000	14.233842
1943.000000	14.257064
1944.000000	14.291389
1945.000000	14.320355
1946.000000	14.363943
1947.000000	14.389581
1948.000000	14.438170
1949.000000	14.488921
1950.000000	14.541360
1951.000000	14.603011
1952.000000	14.651454
1953.000000	14.713614
1954.000000	14.777343
1955.000000	14.834691
1956.000000	14.891980
1957.000000	14.964426
1958.000000	15.013777
1959.000000	15.080797
1960.000000	15.141952
1961.000000	15.199171
1962.000000	15.281869
1963.000000	15.337090
1964.000000	15.395539
1965.000000	15.463870
1966.000000	15.524924
1967.000000	15.595001
1968.000000	15.659741
1969.000000	15.718248
1970.000000	15.806961
1971.000000	15.873230
1972.000000	15.941812
1973.000000	16.006814
1974.000000	16.073978
1975.000000	16.151074
1976.000000	16.224888
1977.000000	16.300897
1978.000000	16.366242
1979.000000	16.449941
1980.000000	16.521523
1981.000000	16.596932
1982.000000	16.675229
1983.000000	16.753300
1984.000000	16.822861
1985.000000	16.890846
1986.000000	16.959122
1987.000000	17.034000
1988.000000	17.091427
1989.000000	17.167726
1990.000000	17.222072
1991.000000	17.292224
1992.000000	17.344572
1993.000000	17.404340
1994.000000	17.458519
1995.000000	17.518099
1996.000000	17.556345
1997.000000	17.601897
1998.000000	17.639539
1999.000000	17.677816
