PE UV       SUBTECH     SPECTRUM    ASCII       PEDS        4.00        
   -1
CICIMAUCR0233-3.Sample.ASC
24/06/13
17:34:49.00
24/06/13
17:34:49.00
Vinicio Soto Monge
C. resplendens. Sex F. Dorsal.
250,000000
1
Lambda 1050
1050L1511233
PerkinElmer UV WinLab 6.3.2.0749 / 2.02.05 Lambda 900 UV/VIS/NIR, Aug  7 2015 09:38:08

0
0
3350/servo 860,8/2
0
0
UV/VIS
1
1
1
DoubleDePol,CommonBeamDepol,RBeamAtt,SBeamAtt,60mm sphere, WB InGaAs Detector
0
0
0
0
Program
Program
3350/servo 860,8/2
3350/0,2 860,8/0,2
3350/0,2 860,8/0,2
0
15.00
 
 
 
0
 
860,8
319,2
860,8
Front
100
on
S:100 R:100
0
0
0
0
 
0
 
 
 
0
 
 
0
0
0
0
0
 
 
 
 
0
0


0
0
#HDR
-1
-1
#GR
nm
%R
1.0
0.0
2500,000000
-1,000000
2251
8
88,468100
5,541400
#DATA
250.000000	6.295867
251.000000	6.278700
252.000000	6.259933
253.000000	6.247533
254.000000	6.273767
255.000000	6.230500
256.000000	6.204933
257.000000	6.226067
258.000000	6.192333
259.000000	6.176400
260.000000	6.173500
261.000000	6.146067
262.000000	6.100167
263.000000	6.074600
264.000000	6.032967
265.000000	6.034300
266.000000	6.027533
267.000000	5.986700
268.000000	5.965267
269.000000	5.939333
270.000000	5.919433
271.000000	5.895533
272.000000	5.871433
273.000000	5.857367
274.000000	5.828300
275.000000	5.811500
276.000000	5.799567
277.000000	5.784100
278.000000	5.756733
279.000000	5.742933
280.000000	5.742400
281.000000	5.758767
282.000000	5.751167
283.000000	5.708233
284.000000	5.708767
285.000000	5.706167
286.000000	5.685667
287.000000	5.696533
288.000000	5.695600
289.000000	5.697767
290.000000	5.676733
291.000000	5.659200
292.000000	5.642167
293.000000	5.642033
294.000000	5.659567
295.000000	5.641800
296.000000	5.631967
297.000000	5.609400
298.000000	5.593900
299.000000	5.615167
300.000000	5.610800
301.000000	5.588733
302.000000	5.570567
303.000000	5.580467
304.000000	5.599300
305.000000	5.573067
306.000000	5.561833
307.000000	5.553867
308.000000	5.567033
309.000000	5.573433
310.000000	5.575000
311.000000	5.560167
312.000000	5.549567
313.000000	5.567333
314.000000	5.551733
315.000000	5.542567
316.000000	5.926533
317.000000	6.414433
318.000000	6.402800
319.000000	6.488533
320.000000	6.250833
321.000000	5.836167
322.000000	6.062300
323.000000	6.169100
324.000000	5.938733
325.000000	5.738233
326.000000	5.661333
327.000000	5.686067
328.000000	5.871533
329.000000	5.851467
330.000000	5.772400
331.000000	5.772000
332.000000	5.826533
333.000000	5.899033
334.000000	5.798733
335.000000	5.725600
336.000000	5.685633
337.000000	5.695200
338.000000	5.838800
339.000000	5.965200
340.000000	5.976800
341.000000	5.913333
342.000000	5.914333
343.000000	5.871000
344.000000	5.844100
345.000000	5.909600
346.000000	5.936567
347.000000	5.957633
348.000000	5.917567
349.000000	5.851567
350.000000	5.944133
351.000000	6.047800
352.000000	6.104867
353.000000	6.203833
354.000000	6.255833
355.000000	6.243967
356.000000	6.232667
357.000000	6.299533
358.000000	6.354833
359.000000	6.313833
360.000000	6.341833
361.000000	6.374300
362.000000	6.396533
363.000000	6.438367
364.000000	6.548767
365.000000	6.593533
366.000000	6.642700
367.000000	6.738667
368.000000	6.668433
369.000000	6.682333
370.000000	6.729267
371.000000	6.780900
372.000000	6.830233
373.000000	6.846067
374.000000	6.906900
375.000000	7.092167
376.000000	7.284800
377.000000	7.402300
378.000000	7.503233
379.000000	7.626300
380.000000	7.751933
381.000000	7.884400
382.000000	8.024800
383.000000	8.177067
384.000000	8.342633
385.000000	8.536867
386.000000	8.742100
387.000000	8.949867
388.000000	9.173533
389.000000	9.422200
390.000000	9.669567
391.000000	9.941667
392.000000	10.256900
393.000000	10.567467
394.000000	10.903967
395.000000	11.247667
396.000000	11.585833
397.000000	11.934867
398.000000	12.322667
399.000000	12.725033
400.000000	13.133000
401.000000	13.545300
402.000000	13.960500
403.000000	14.380700
404.000000	14.801800
405.000000	15.236933
406.000000	15.665067
407.000000	16.079800
408.000000	16.481167
409.000000	16.864800
410.000000	17.276033
411.000000	17.660833
412.000000	18.026867
413.000000	18.381400
414.000000	18.731833
415.000000	19.081467
416.000000	19.392267
417.000000	19.685100
418.000000	19.966933
419.000000	20.230433
420.000000	20.492533
421.000000	20.750000
422.000000	21.011600
423.000000	21.230233
424.000000	21.431500
425.000000	21.653233
426.000000	21.825167
427.000000	22.002633
428.000000	22.185233
429.000000	22.340500
430.000000	22.481867
431.000000	22.624933
432.000000	22.765867
433.000000	22.875533
434.000000	22.987300
435.000000	23.059667
436.000000	23.138100
437.000000	23.198267
438.000000	23.229900
439.000000	23.233833
440.000000	23.276500
441.000000	23.269267
442.000000	23.226200
443.000000	23.191000
444.000000	23.114667
445.000000	23.026533
446.000000	22.906567
447.000000	22.767800
448.000000	22.633967
449.000000	22.479400
450.000000	22.314533
451.000000	22.162433
452.000000	22.003967
453.000000	21.869900
454.000000	21.751333
455.000000	21.645133
456.000000	21.562400
457.000000	21.537833
458.000000	21.546000
459.000000	21.578033
460.000000	21.702300
461.000000	21.841233
462.000000	22.020133
463.000000	22.273100
464.000000	22.566067
465.000000	22.922067
466.000000	23.280067
467.000000	23.677867
468.000000	24.092367
469.000000	24.514867
470.000000	24.959500
471.000000	25.403567
472.000000	25.847733
473.000000	26.261100
474.000000	26.663933
475.000000	27.042867
476.000000	27.390433
477.000000	27.692100
478.000000	27.969900
479.000000	28.217233
480.000000	28.424433
481.000000	28.601400
482.000000	28.744933
483.000000	28.853733
484.000000	28.934667
485.000000	28.960100
486.000000	28.958800
487.000000	28.970533
488.000000	28.983833
489.000000	29.012333
490.000000	29.034567
491.000000	29.065567
492.000000	29.135733
493.000000	29.244167
494.000000	29.374700
495.000000	29.544900
496.000000	29.778600
497.000000	30.037100
498.000000	30.370800
499.000000	30.754767
500.000000	31.157067
501.000000	31.619900
502.000000	32.126833
503.000000	32.649000
504.000000	33.217567
505.000000	33.847133
506.000000	34.478700
507.000000	35.130233
508.000000	35.771900
509.000000	36.496933
510.000000	37.208200
511.000000	37.959767
512.000000	38.730467
513.000000	39.520567
514.000000	40.355833
515.000000	41.193167
516.000000	42.075667
517.000000	42.972067
518.000000	43.909500
519.000000	44.861500
520.000000	45.905800
521.000000	46.977033
522.000000	48.078700
523.000000	49.258567
524.000000	50.451167
525.000000	51.667567
526.000000	52.925133
527.000000	54.205067
528.000000	55.477133
529.000000	56.795367
530.000000	58.121600
531.000000	59.469067
532.000000	60.807533
533.000000	62.144067
534.000000	63.458700
535.000000	64.779233
536.000000	66.045267
537.000000	67.286300
538.000000	68.502700
539.000000	69.654933
540.000000	70.769200
541.000000	71.841633
542.000000	72.847000
543.000000	73.817667
544.000000	74.743667
545.000000	75.596167
546.000000	76.391333
547.000000	77.194433
548.000000	77.921967
549.000000	78.643400
550.000000	79.315600
551.000000	79.965667
552.000000	80.563067
553.000000	81.115000
554.000000	81.650933
555.000000	82.164833
556.000000	82.644700
557.000000	83.089867
558.000000	83.550400
559.000000	83.989867
560.000000	84.402267
561.000000	84.818767
562.000000	85.243033
563.000000	85.640733
564.000000	85.980733
565.000000	86.363067
566.000000	86.678133
567.000000	87.008333
568.000000	87.272033
569.000000	87.568067
570.000000	87.812533
571.000000	88.047000
572.000000	88.238233
573.000000	88.439800
574.000000	88.594367
575.000000	88.743767
576.000000	88.894267
577.000000	89.027667
578.000000	89.147567
579.000000	89.281467
580.000000	89.406133
581.000000	89.512267
582.000000	89.612200
583.000000	89.739233
584.000000	89.834300
585.000000	89.901300
586.000000	89.992467
587.000000	90.067667
588.000000	90.118800
589.000000	90.166400
590.000000	90.190833
591.000000	90.182133
592.000000	90.143567
593.000000	90.108367
594.000000	90.055267
595.000000	89.994500
596.000000	89.908200
597.000000	89.782167
598.000000	89.659567
599.000000	89.500700
600.000000	89.312533
601.000000	89.095500
602.000000	88.875267
603.000000	88.637767
604.000000	88.367500
605.000000	88.086067
606.000000	87.761933
607.000000	87.419033
608.000000	87.068967
609.000000	86.676500
610.000000	86.262667
611.000000	85.808633
612.000000	85.298200
613.000000	84.766500
614.000000	84.203867
615.000000	83.627133
616.000000	83.029733
617.000000	82.394900
618.000000	81.732633
619.000000	81.055600
620.000000	80.378733
621.000000	79.668967
622.000000	78.900033
623.000000	78.137300
624.000000	77.353967
625.000000	76.532000
626.000000	75.678900
627.000000	74.775667
628.000000	73.856900
629.000000	72.908133
630.000000	71.906567
631.000000	70.892933
632.000000	69.881833
633.000000	68.854400
634.000000	67.813400
635.000000	66.798667
636.000000	65.813733
637.000000	64.813933
638.000000	63.816467
639.000000	62.838033
640.000000	61.899233
641.000000	60.963567
642.000000	60.036600
643.000000	59.171200
644.000000	58.359133
645.000000	57.616333
646.000000	56.958500
647.000000	56.401067
648.000000	55.923133
649.000000	55.502367
650.000000	55.199067
651.000000	55.007133
652.000000	54.901833
653.000000	54.892600
654.000000	55.003700
655.000000	55.187500
656.000000	55.455967
657.000000	55.803000
658.000000	56.237033
659.000000	56.807167
660.000000	57.403967
661.000000	58.066667
662.000000	58.822033
663.000000	59.591867
664.000000	60.390767
665.000000	61.242667
666.000000	62.113767
667.000000	62.944433
668.000000	63.755633
669.000000	64.578467
670.000000	65.415933
671.000000	66.200767
672.000000	66.894700
673.000000	67.572733
674.000000	68.198667
675.000000	68.769000
676.000000	69.300467
677.000000	69.762600
678.000000	70.161200
679.000000	70.554100
680.000000	70.926133
681.000000	71.266200
682.000000	71.586900
683.000000	71.903000
684.000000	72.156967
685.000000	72.426800
686.000000	72.661100
687.000000	72.883967
688.000000	73.140400
689.000000	73.400700
690.000000	73.692367
691.000000	73.927233
692.000000	74.170100
693.000000	74.386100
694.000000	74.602233
695.000000	74.866900
696.000000	75.093433
697.000000	75.302733
698.000000	75.502467
699.000000	75.690067
700.000000	75.970333
701.000000	76.133433
702.000000	76.321200
703.000000	76.462900
704.000000	76.577733
705.000000	76.665600
706.000000	76.706033
707.000000	76.766100
708.000000	76.783933
709.000000	76.760200
710.000000	76.685233
711.000000	76.592167
712.000000	76.493100
713.000000	76.310300
714.000000	76.180033
715.000000	76.043533
716.000000	75.860500
717.000000	75.648533
718.000000	75.463233
719.000000	75.229367
720.000000	75.026500
721.000000	74.779000
722.000000	74.574467
723.000000	74.368100
724.000000	74.184167
725.000000	73.963800
726.000000	73.803233
727.000000	73.733033
728.000000	73.603633
729.000000	73.470367
730.000000	73.425667
731.000000	73.454300
732.000000	73.518700
733.000000	73.561200
734.000000	73.655033
735.000000	73.887433
736.000000	74.066867
737.000000	74.352133
738.000000	74.642067
739.000000	75.008967
740.000000	75.307300
741.000000	75.766867
742.000000	76.287833
743.000000	76.713867
744.000000	77.199433
745.000000	77.751800
746.000000	78.295567
747.000000	78.854300
748.000000	79.483500
749.000000	80.032367
750.000000	80.586867
751.000000	81.294633
752.000000	81.970600
753.000000	82.413867
754.000000	83.058267
755.000000	83.631233
756.000000	84.142700
757.000000	84.603533
758.000000	85.101100
759.000000	85.520300
760.000000	85.956533
761.000000	86.351633
762.000000	86.751200
763.000000	87.052567
764.000000	87.346800
765.000000	87.638200
766.000000	87.863300
767.000000	88.120300
768.000000	88.292333
769.000000	88.466900
770.000000	88.624267
771.000000	88.797367
772.000000	88.853967
773.000000	89.008867
774.000000	89.121833
775.000000	89.294133
776.000000	89.353433
777.000000	89.386067
778.000000	89.596367
779.000000	89.755567
780.000000	89.750100
781.000000	89.794800
782.000000	90.020267
783.000000	90.052967
784.000000	90.205333
785.000000	90.073433
786.000000	90.402933
787.000000	90.429067
788.000000	90.509800
789.000000	90.689967
790.000000	90.671733
791.000000	90.574067
792.000000	90.832733
793.000000	90.766833
794.000000	90.877267
795.000000	90.850167
796.000000	90.991567
797.000000	90.806933
798.000000	90.907600
799.000000	90.906867
800.000000	90.850867
801.000000	90.805567
802.000000	90.681167
803.000000	90.421533
804.000000	90.388767
805.000000	90.295533
806.000000	90.153567
807.000000	90.063000
808.000000	89.818733
809.000000	89.658533
810.000000	89.512767
811.000000	89.224667
812.000000	89.171600
813.000000	88.930867
814.000000	88.787200
815.000000	88.447867
816.000000	88.490367
817.000000	88.341533
818.000000	88.151267
819.000000	88.137167
820.000000	88.134700
821.000000	87.943667
822.000000	87.809167
823.000000	87.896200
824.000000	87.797267
825.000000	87.707733
826.000000	87.568133
827.000000	87.649467
828.000000	87.635800
829.000000	87.643467
830.000000	87.477533
831.000000	87.511233
832.000000	87.396000
833.000000	87.336733
834.000000	87.344500
835.000000	87.115967
836.000000	87.023300
837.000000	86.967733
838.000000	86.677967
839.000000	86.467533
840.000000	86.190967
841.000000	85.927467
842.000000	85.640267
843.000000	85.325267
844.000000	85.010500
845.000000	84.863267
846.000000	84.400267
847.000000	83.967700
848.000000	83.551367
849.000000	83.192400
850.000000	83.002667
851.000000	82.619400
852.000000	81.978100
853.000000	81.531033
854.000000	81.048533
855.000000	80.618000
856.000000	80.289833
857.000000	78.901967
858.000000	79.936600
859.000000	79.520345
860.000000	79.132234
861.000000	78.726034
862.000000	78.330264
863.000000	77.952574
864.000000	77.571688
865.000000	77.200875
866.000000	76.835251
867.000000	76.462223
868.000000	76.086630
869.000000	75.732055
870.000000	75.439925
871.000000	75.265682
872.000000	75.164825
873.000000	75.071014
874.000000	74.955581
875.000000	74.821715
876.000000	74.654165
877.000000	74.449403
878.000000	74.254063
879.000000	74.035674
880.000000	73.831124
881.000000	73.609774
882.000000	73.406366
883.000000	73.185762
884.000000	72.987420
885.000000	72.781044
886.000000	72.587140
887.000000	72.371267
888.000000	72.164412
889.000000	71.957322
890.000000	71.732866
891.000000	71.510701
892.000000	71.303829
893.000000	71.080505
894.000000	70.831497
895.000000	70.604870
896.000000	70.392518
897.000000	70.157255
898.000000	69.916960
899.000000	69.674816
900.000000	69.429159
901.000000	69.187248
902.000000	68.957922
903.000000	68.714940
904.000000	68.463366
905.000000	68.217070
906.000000	67.977765
907.000000	67.732507
908.000000	67.484973
909.000000	67.247023
910.000000	67.005231
911.000000	66.767785
912.000000	66.526202
913.000000	66.283692
914.000000	66.044908
915.000000	65.801893
916.000000	65.565511
917.000000	65.336160
918.000000	65.105366
919.000000	64.870309
920.000000	64.637241
921.000000	64.404276
922.000000	64.168497
923.000000	63.936290
924.000000	63.718286
925.000000	63.502922
926.000000	63.291339
927.000000	63.072912
928.000000	62.854665
929.000000	62.650634
930.000000	62.439282
931.000000	62.222612
932.000000	62.017142
933.000000	61.807728
934.000000	61.595341
935.000000	61.392250
936.000000	61.188206
937.000000	60.992317
938.000000	60.789456
939.000000	60.597900
940.000000	60.415024
941.000000	60.216728
942.000000	60.027002
943.000000	59.832128
944.000000	59.637350
945.000000	59.450645
946.000000	59.255834
947.000000	59.061469
948.000000	58.876920
949.000000	58.693571
950.000000	58.509221
951.000000	58.327095
952.000000	58.151501
953.000000	57.978387
954.000000	57.806942
955.000000	57.641245
956.000000	57.480106
957.000000	57.326679
958.000000	57.173020
959.000000	57.023045
960.000000	56.882482
961.000000	56.744095
962.000000	56.605959
963.000000	56.469157
964.000000	56.347306
965.000000	56.224318
966.000000	56.103233
967.000000	55.989776
968.000000	55.871598
969.000000	55.761354
970.000000	55.654902
971.000000	55.550484
972.000000	55.444455
973.000000	55.336195
974.000000	55.232940
975.000000	55.136732
976.000000	55.044537
977.000000	54.945209
978.000000	54.849153
979.000000	54.763923
980.000000	54.681652
981.000000	54.598688
982.000000	54.517559
983.000000	54.442731
984.000000	54.378375
985.000000	54.315327
986.000000	54.261830
987.000000	54.202102
988.000000	54.149226
989.000000	54.118311
990.000000	54.079185
991.000000	54.044037
992.000000	54.017035
993.000000	53.985763
994.000000	53.966452
995.000000	53.954617
996.000000	53.938510
997.000000	53.926095
998.000000	53.920347
999.000000	53.928871
1000.000000	53.925712
1001.000000	53.920360
1002.000000	53.935069
1003.000000	53.946144
1004.000000	53.958889
1005.000000	53.969144
1006.000000	53.971437
1007.000000	53.980147
1008.000000	53.998886
1009.000000	54.020880
1010.000000	54.044741
1011.000000	54.074738
1012.000000	54.111377
1013.000000	54.157508
1014.000000	54.202632
1015.000000	54.254835
1016.000000	54.311242
1017.000000	54.368981
1018.000000	54.425163
1019.000000	54.504417
1020.000000	54.575007
1021.000000	54.642673
1022.000000	54.718392
1023.000000	54.789467
1024.000000	54.871886
1025.000000	54.953014
1026.000000	55.026724
1027.000000	55.099704
1028.000000	55.171121
1029.000000	55.239069
1030.000000	55.311514
1031.000000	55.386272
1032.000000	55.459899
1033.000000	55.532332
1034.000000	55.594474
1035.000000	55.672709
1036.000000	55.729568
1037.000000	55.801236
1038.000000	55.871928
1039.000000	55.937509
1040.000000	55.984927
1041.000000	56.043737
1042.000000	56.110043
1043.000000	56.172056
1044.000000	56.233846
1045.000000	56.299057
1046.000000	56.365313
1047.000000	56.417164
1048.000000	56.483499
1049.000000	56.547863
1050.000000	56.609090
1051.000000	56.679639
1052.000000	56.752133
1053.000000	56.823443
1054.000000	56.900121
1055.000000	56.975920
1056.000000	57.034659
1057.000000	57.112596
1058.000000	57.178754
1059.000000	57.254180
1060.000000	57.303272
1061.000000	57.373438
1062.000000	57.436995
1063.000000	57.499220
1064.000000	57.557359
1065.000000	57.635640
1066.000000	57.671987
1067.000000	57.733897
1068.000000	57.793498
1069.000000	57.858314
1070.000000	57.904484
1071.000000	57.953020
1072.000000	58.015817
1073.000000	58.059132
1074.000000	58.113603
1075.000000	58.161715
1076.000000	58.206600
1077.000000	58.260735
1078.000000	58.303609
1079.000000	58.353824
1080.000000	58.390050
1081.000000	58.449081
1082.000000	58.490007
1083.000000	58.535394
1084.000000	58.574964
1085.000000	58.613710
1086.000000	58.654214
1087.000000	58.694387
1088.000000	58.727163
1089.000000	58.750966
1090.000000	58.779731
1091.000000	58.811472
1092.000000	58.839237
1093.000000	58.857704
1094.000000	58.877414
1095.000000	58.904806
1096.000000	58.909579
1097.000000	58.924382
1098.000000	58.929848
1099.000000	58.939480
1100.000000	58.958356
1101.000000	58.950679
1102.000000	58.946904
1103.000000	58.950116
1104.000000	58.945662
1105.000000	58.941795
1106.000000	58.948398
1107.000000	58.940462
1108.000000	58.934069
1109.000000	58.938975
1110.000000	58.933339
1111.000000	58.923092
1112.000000	58.920812
1113.000000	58.910666
1114.000000	58.897364
1115.000000	58.895026
1116.000000	58.870366
1117.000000	58.840060
1118.000000	58.800219
1119.000000	58.752321
1120.000000	58.694683
1121.000000	58.628723
1122.000000	58.542296
1123.000000	58.436073
1124.000000	58.306644
1125.000000	58.171516
1126.000000	58.015863
1127.000000	57.815675
1128.000000	57.565302
1129.000000	57.291923
1130.000000	56.964088
1131.000000	56.589025
1132.000000	56.204964
1133.000000	55.811747
1134.000000	55.342564
1135.000000	54.843232
1136.000000	54.368156
1137.000000	53.901008
1138.000000	53.466794
1139.000000	53.056988
1140.000000	52.649499
1141.000000	52.264911
1142.000000	51.904464
1143.000000	51.579446
1144.000000	51.281805
1145.000000	51.031108
1146.000000	50.808709
1147.000000	50.627328
1148.000000	50.464157
1149.000000	50.306628
1150.000000	50.140805
1151.000000	49.977363
1152.000000	49.784197
1153.000000	49.558014
1154.000000	49.315545
1155.000000	49.048591
1156.000000	48.750609
1157.000000	48.434556
1158.000000	48.120508
1159.000000	47.803836
1160.000000	47.487938
1161.000000	47.163055
1162.000000	46.833364
1163.000000	46.513779
1164.000000	46.215748
1165.000000	45.916440
1166.000000	45.620828
1167.000000	45.342503
1168.000000	45.073021
1169.000000	44.798915
1170.000000	44.532828
1171.000000	44.278761
1172.000000	44.029801
1173.000000	43.787039
1174.000000	43.531241
1175.000000	43.262164
1176.000000	42.961354
1177.000000	42.632206
1178.000000	42.270113
1179.000000	41.888746
1180.000000	41.526682
1181.000000	41.202886
1182.000000	40.932959
1183.000000	40.754822
1184.000000	40.671939
1185.000000	40.672338
1186.000000	40.757688
1187.000000	40.924982
1188.000000	41.172706
1189.000000	41.455486
1190.000000	41.740684
1191.000000	42.031938
1192.000000	42.301547
1193.000000	42.517333
1194.000000	42.702014
1195.000000	42.850588
1196.000000	42.970946
1197.000000	43.062740
1198.000000	43.133199
1199.000000	43.191797
1200.000000	43.243213
1201.000000	43.288144
1202.000000	43.336261
1203.000000	43.393344
1204.000000	43.457317
1205.000000	43.540273
1206.000000	43.630274
1207.000000	43.720730
1208.000000	43.831931
1209.000000	43.949582
1210.000000	44.057575
1211.000000	44.183238
1212.000000	44.310605
1213.000000	44.431029
1214.000000	44.559690
1215.000000	44.688334
1216.000000	44.818716
1217.000000	44.949035
1218.000000	45.096201
1219.000000	45.245090
1220.000000	45.400391
1221.000000	45.549757
1222.000000	45.698186
1223.000000	45.854600
1224.000000	45.997858
1225.000000	46.147407
1226.000000	46.300458
1227.000000	46.437713
1228.000000	46.578398
1229.000000	46.720547
1230.000000	46.855417
1231.000000	46.989072
1232.000000	47.116600
1233.000000	47.237762
1234.000000	47.357225
1235.000000	47.482252
1236.000000	47.594407
1237.000000	47.704754
1238.000000	47.810160
1239.000000	47.910431
1240.000000	48.019497
1241.000000	48.125736
1242.000000	48.224423
1243.000000	48.325343
1244.000000	48.414860
1245.000000	48.503231
1246.000000	48.599488
1247.000000	48.681115
1248.000000	48.754248
1249.000000	48.824555
1250.000000	48.885903
1251.000000	48.950919
1252.000000	49.021461
1253.000000	49.075771
1254.000000	49.128781
1255.000000	49.181014
1256.000000	49.224620
1257.000000	49.264780
1258.000000	49.308450
1259.000000	49.350833
1260.000000	49.387412
1261.000000	49.419618
1262.000000	49.463551
1263.000000	49.500622
1264.000000	49.539358
1265.000000	49.566566
1266.000000	49.593842
1267.000000	49.620881
1268.000000	49.651764
1269.000000	49.685080
1270.000000	49.707386
1271.000000	49.736499
1272.000000	49.761119
1273.000000	49.782035
1274.000000	49.806744
1275.000000	49.822015
1276.000000	49.858650
1277.000000	49.891266
1278.000000	49.924746
1279.000000	49.960418
1280.000000	49.981724
1281.000000	49.999884
1282.000000	50.035697
1283.000000	50.053500
1284.000000	50.060795
1285.000000	50.085267
1286.000000	50.105475
1287.000000	50.113964
1288.000000	50.097293
1289.000000	50.087931
1290.000000	50.077572
1291.000000	50.051087
1292.000000	50.020125
1293.000000	49.982069
1294.000000	49.941884
1295.000000	49.893977
1296.000000	49.851663
1297.000000	49.807104
1298.000000	49.730640
1299.000000	49.670084
1300.000000	49.596264
1301.000000	49.523501
1302.000000	49.440688
1303.000000	49.359797
1304.000000	49.263915
1305.000000	49.156422
1306.000000	49.049661
1307.000000	48.931221
1308.000000	48.807843
1309.000000	48.676776
1310.000000	48.539989
1311.000000	48.386983
1312.000000	48.230043
1313.000000	48.070790
1314.000000	47.914277
1315.000000	47.730884
1316.000000	47.549622
1317.000000	47.368497
1318.000000	47.179427
1319.000000	46.990276
1320.000000	46.794550
1321.000000	46.574717
1322.000000	46.357400
1323.000000	46.142474
1324.000000	45.915154
1325.000000	45.675145
1326.000000	45.443123
1327.000000	45.178728
1328.000000	44.929234
1329.000000	44.677740
1330.000000	44.413304
1331.000000	44.151695
1332.000000	43.862515
1333.000000	43.584447
1334.000000	43.298202
1335.000000	43.022279
1336.000000	42.736749
1337.000000	42.449147
1338.000000	42.149140
1339.000000	41.850732
1340.000000	41.560652
1341.000000	41.265361
1342.000000	40.983879
1343.000000	40.696019
1344.000000	40.378432
1345.000000	40.077456
1346.000000	39.801248
1347.000000	39.468813
1348.000000	39.150338
1349.000000	38.794583
1350.000000	38.450870
1351.000000	38.080831
1352.000000	37.715620
1353.000000	37.453683
1354.000000	37.175349
1355.000000	36.952192
1356.000000	36.773953
1357.000000	36.643516
1358.000000	36.549098
1359.000000	36.456449
1360.000000	36.352192
1361.000000	36.170102
1362.000000	35.996753
1363.000000	35.815987
1364.000000	35.645157
1365.000000	35.430752
1366.000000	35.226159
1367.000000	34.985626
1368.000000	34.719927
1369.000000	34.467753
1370.000000	34.187970
1371.000000	33.849252
1372.000000	33.596429
1373.000000	33.294956
1374.000000	33.048809
1375.000000	32.818866
1376.000000	32.586781
1377.000000	32.323771
1378.000000	32.074686
1379.000000	31.737567
1380.000000	31.404818
1381.000000	30.924248
1382.000000	30.396528
1383.000000	29.830309
1384.000000	29.267229
1385.000000	28.767638
1386.000000	28.262697
1387.000000	27.764120
1388.000000	27.214647
1389.000000	26.752917
1390.000000	26.341228
1391.000000	25.904867
1392.000000	25.451017
1393.000000	25.087404
1394.000000	24.744355
1395.000000	24.304006
1396.000000	23.834227
1397.000000	23.490117
1398.000000	23.201865
1399.000000	22.835021
1400.000000	22.399423
1401.000000	21.978926
1402.000000	21.645855
1403.000000	21.287153
1404.000000	20.951719
1405.000000	20.574913
1406.000000	20.266892
1407.000000	19.946537
1408.000000	19.639863
1409.000000	19.332683
1410.000000	19.027937
1411.000000	18.776538
1412.000000	18.564925
1413.000000	18.341558
1414.000000	18.092944
1415.000000	17.858102
1416.000000	17.652702
1417.000000	17.482382
1418.000000	17.293050
1419.000000	17.103224
1420.000000	16.902946
1421.000000	16.746106
1422.000000	16.597408
1423.000000	16.441142
1424.000000	16.295990
1425.000000	16.152698
1426.000000	16.020918
1427.000000	15.894544
1428.000000	15.778221
1429.000000	15.674398
1430.000000	15.576460
1431.000000	15.477485
1432.000000	15.380773
1433.000000	15.274810
1434.000000	15.190352
1435.000000	15.110555
1436.000000	15.032930
1437.000000	14.965004
1438.000000	14.870753
1439.000000	14.808160
1440.000000	14.739610
1441.000000	14.673527
1442.000000	14.595956
1443.000000	14.553104
1444.000000	14.512917
1445.000000	14.443667
1446.000000	14.381232
1447.000000	14.319296
1448.000000	14.283066
1449.000000	14.249449
1450.000000	14.212471
1451.000000	14.164350
1452.000000	14.123815
1453.000000	14.088554
1454.000000	14.043917
1455.000000	14.011740
1456.000000	13.980627
1457.000000	13.949331
1458.000000	13.931782
1459.000000	13.910412
1460.000000	13.903283
1461.000000	13.898610
1462.000000	13.885200
1463.000000	13.883246
1464.000000	13.889270
1465.000000	13.879965
1466.000000	13.892350
1467.000000	13.901782
1468.000000	13.899122
1469.000000	13.916783
1470.000000	13.932830
1471.000000	13.947443
1472.000000	13.959879
1473.000000	13.969225
1474.000000	13.980614
1475.000000	14.007494
1476.000000	14.028632
1477.000000	14.043911
1478.000000	14.077262
1479.000000	14.112476
1480.000000	14.143386
1481.000000	14.172254
1482.000000	14.202550
1483.000000	14.246395
1484.000000	14.288470
1485.000000	14.336426
1486.000000	14.372449
1487.000000	14.396161
1488.000000	14.437425
1489.000000	14.481555
1490.000000	14.529937
1491.000000	14.570604
1492.000000	14.603668
1493.000000	14.651485
1494.000000	14.709359
1495.000000	14.755336
1496.000000	14.798205
1497.000000	14.854055
1498.000000	14.909158
1499.000000	14.957045
1500.000000	15.014757
1501.000000	15.071892
1502.000000	15.131117
1503.000000	15.188508
1504.000000	15.239774
1505.000000	15.293733
1506.000000	15.363888
1507.000000	15.425984
1508.000000	15.479864
1509.000000	15.538020
1510.000000	15.592603
1511.000000	15.653043
1512.000000	15.711025
1513.000000	15.765317
1514.000000	15.816747
1515.000000	15.874193
1516.000000	15.932311
1517.000000	15.990440
1518.000000	16.043325
1519.000000	16.090892
1520.000000	16.138528
1521.000000	16.191735
1522.000000	16.249225
1523.000000	16.302676
1524.000000	16.355730
1525.000000	16.401068
1526.000000	16.443429
1527.000000	16.490072
1528.000000	16.535490
1529.000000	16.581970
1530.000000	16.635796
1531.000000	16.679795
1532.000000	16.715476
1533.000000	16.763390
1534.000000	16.802734
1535.000000	16.840961
1536.000000	16.886527
1537.000000	16.916720
1538.000000	16.958900
1539.000000	16.993138
1540.000000	17.026531
1541.000000	17.064512
1542.000000	17.107282
1543.000000	17.148266
1544.000000	17.171267
1545.000000	17.209546
1546.000000	17.244318
1547.000000	17.278402
1548.000000	17.321871
1549.000000	17.369881
1550.000000	17.416685
1551.000000	17.452466
1552.000000	17.488912
1553.000000	17.523289
1554.000000	17.559293
1555.000000	17.602998
1556.000000	17.638540
1557.000000	17.663243
1558.000000	17.696671
1559.000000	17.721533
1560.000000	17.753489
1561.000000	17.791277
1562.000000	17.813726
1563.000000	17.828209
1564.000000	17.848281
1565.000000	17.876398
1566.000000	17.905164
1567.000000	17.928159
1568.000000	17.960123
1569.000000	17.977496
1570.000000	18.001653
1571.000000	18.029310
1572.000000	18.068394
1573.000000	18.098973
1574.000000	18.119071
1575.000000	18.156613
1576.000000	18.191506
1577.000000	18.228101
1578.000000	18.276671
1579.000000	18.300563
1580.000000	18.344753
1581.000000	18.381692
1582.000000	18.428777
1583.000000	18.485981
1584.000000	18.520510
1585.000000	18.555760
1586.000000	18.606161
1587.000000	18.651895
1588.000000	18.710496
1589.000000	18.760412
1590.000000	18.809026
1591.000000	18.847557
1592.000000	18.903906
1593.000000	18.960352
1594.000000	19.004825
1595.000000	19.050839
1596.000000	19.107451
1597.000000	19.152470
1598.000000	19.205639
1599.000000	19.269786
1600.000000	19.324142
1601.000000	19.371564
1602.000000	19.428454
1603.000000	19.471757
1604.000000	19.535675
1605.000000	19.580482
1606.000000	19.631024
1607.000000	19.684290
1608.000000	19.728473
1609.000000	19.795920
1610.000000	19.849174
1611.000000	19.893565
1612.000000	19.956970
1613.000000	20.004825
1614.000000	20.047973
1615.000000	20.096725
1616.000000	20.157091
1617.000000	20.213387
1618.000000	20.259907
1619.000000	20.312994
1620.000000	20.366801
1621.000000	20.424562
1622.000000	20.468706
1623.000000	20.520664
1624.000000	20.583592
1625.000000	20.649764
1626.000000	20.710460
1627.000000	20.768420
1628.000000	20.825436
1629.000000	20.880176
1630.000000	20.938205
1631.000000	20.991355
1632.000000	21.049985
1633.000000	21.112084
1634.000000	21.158534
1635.000000	21.211070
1636.000000	21.260232
1637.000000	21.303663
1638.000000	21.364160
1639.000000	21.394345
1640.000000	21.441831
1641.000000	21.484270
1642.000000	21.529757
1643.000000	21.564759
1644.000000	21.609549
1645.000000	21.626779
1646.000000	21.672800
1647.000000	21.695738
1648.000000	21.729475
1649.000000	21.758425
1650.000000	21.787879
1651.000000	21.796696
1652.000000	21.821801
1653.000000	21.833950
1654.000000	21.828897
1655.000000	21.832270
1656.000000	21.824983
1657.000000	21.815498
1658.000000	21.793599
1659.000000	21.779890
1660.000000	21.744039
1661.000000	21.714697
1662.000000	21.669504
1663.000000	21.629440
1664.000000	21.580834
1665.000000	21.515014
1666.000000	21.449471
1667.000000	21.364849
1668.000000	21.293340
1669.000000	21.179451
1670.000000	21.044830
1671.000000	20.914239
1672.000000	20.724026
1673.000000	20.521114
1674.000000	20.306093
1675.000000	20.058605
1676.000000	19.777004
1677.000000	19.501857
1678.000000	19.234353
1679.000000	18.969206
1680.000000	18.730909
1681.000000	18.542828
1682.000000	18.416764
1683.000000	18.334606
1684.000000	18.267804
1685.000000	18.219959
1686.000000	18.171631
1687.000000	18.123107
1688.000000	18.040519
1689.000000	17.960019
1690.000000	17.876526
1691.000000	17.806684
1692.000000	17.760060
1693.000000	17.751402
1694.000000	17.754313
1695.000000	17.796114
1696.000000	17.861550
1697.000000	17.939258
1698.000000	18.038578
1699.000000	18.118336
1700.000000	18.200271
1701.000000	18.267120
1702.000000	18.324773
1703.000000	18.377222
1704.000000	18.415161
1705.000000	18.445920
1706.000000	18.457645
1707.000000	18.462975
1708.000000	18.452660
1709.000000	18.428579
1710.000000	18.395973
1711.000000	18.348293
1712.000000	18.298691
1713.000000	18.247167
1714.000000	18.184782
1715.000000	18.117797
1716.000000	18.069464
1717.000000	18.019941
1718.000000	17.964305
1719.000000	17.925281
1720.000000	17.878516
1721.000000	17.843245
1722.000000	17.805313
1723.000000	17.755137
1724.000000	17.694076
1725.000000	17.634397
1726.000000	17.567620
1727.000000	17.513507
1728.000000	17.462859
1729.000000	17.401906
1730.000000	17.374809
1731.000000	17.356179
1732.000000	17.362262
1733.000000	17.381866
1734.000000	17.434920
1735.000000	17.500811
1736.000000	17.590120
1737.000000	17.684911
1738.000000	17.793412
1739.000000	17.891462
1740.000000	17.977604
1741.000000	18.064716
1742.000000	18.133526
1743.000000	18.193362
1744.000000	18.239029
1745.000000	18.269783
1746.000000	18.286904
1747.000000	18.299147
1748.000000	18.310589
1749.000000	18.313717
1750.000000	18.287447
1751.000000	18.264029
1752.000000	18.240036
1753.000000	18.206597
1754.000000	18.153089
1755.000000	18.092815
1756.000000	18.049142
1757.000000	17.988365
1758.000000	17.940765
1759.000000	17.904590
1760.000000	17.872487
1761.000000	17.855824
1762.000000	17.837339
1763.000000	17.843998
1764.000000	17.864626
1765.000000	17.895577
1766.000000	17.937196
1767.000000	17.982792
1768.000000	18.025139
1769.000000	18.074654
1770.000000	18.123446
1771.000000	18.175895
1772.000000	18.218689
1773.000000	18.258991
1774.000000	18.307522
1775.000000	18.359927
1776.000000	18.398232
1777.000000	18.424608
1778.000000	18.463811
1779.000000	18.505668
1780.000000	18.538888
1781.000000	18.583808
1782.000000	18.623920
1783.000000	18.651892
1784.000000	18.688075
1785.000000	18.725468
1786.000000	18.754199
1787.000000	18.786280
1788.000000	18.824085
1789.000000	18.859217
1790.000000	18.892721
1791.000000	18.933583
1792.000000	18.978830
1793.000000	19.010152
1794.000000	19.040792
1795.000000	19.072253
1796.000000	19.101477
1797.000000	19.141942
1798.000000	19.188796
1799.000000	19.228188
1800.000000	19.269592
1801.000000	19.302523
1802.000000	19.331536
1803.000000	19.369467
1804.000000	19.403711
1805.000000	19.436667
1806.000000	19.475345
1807.000000	19.504464
1808.000000	19.533875
1809.000000	19.572330
1810.000000	19.601841
1811.000000	19.629973
1812.000000	19.651908
1813.000000	19.664224
1814.000000	19.682798
1815.000000	19.697277
1816.000000	19.711880
1817.000000	19.745163
1818.000000	19.793306
1819.000000	19.828118
1820.000000	19.827786
1821.000000	19.817494
1822.000000	19.834322
1823.000000	19.869872
1824.000000	19.917203
1825.000000	19.966533
1826.000000	19.987889
1827.000000	20.024136
1828.000000	20.067699
1829.000000	20.094899
1830.000000	20.109520
1831.000000	20.135976
1832.000000	20.179129
1833.000000	20.235092
1834.000000	20.276867
1835.000000	20.294924
1836.000000	20.294411
1837.000000	20.292820
1838.000000	20.306310
1839.000000	20.310794
1840.000000	20.293546
1841.000000	20.245908
1842.000000	20.205735
1843.000000	20.212934
1844.000000	20.249294
1845.000000	20.274612
1846.000000	20.272228
1847.000000	20.201188
1848.000000	20.131205
1849.000000	20.093096
1850.000000	20.062390
1851.000000	20.013712
1852.000000	19.979593
1853.000000	19.925215
1854.000000	19.825745
1855.000000	19.736165
1856.000000	19.650367
1857.000000	19.556192
1858.000000	19.418682
1859.000000	19.247547
1860.000000	19.098171
1861.000000	18.920052
1862.000000	18.756814
1863.000000	18.620737
1864.000000	18.468484
1865.000000	18.293367
1866.000000	18.121521
1867.000000	17.911002
1868.000000	17.677345
1869.000000	17.356098
1870.000000	17.031797
1871.000000	16.699313
1872.000000	16.357188
1873.000000	15.989904
1874.000000	15.634289
1875.000000	15.270044
1876.000000	14.914993
1877.000000	14.556684
1878.000000	14.171213
1879.000000	13.839913
1880.000000	13.491145
1881.000000	13.139395
1882.000000	12.774998
1883.000000	12.400331
1884.000000	12.026015
1885.000000	11.691219
1886.000000	11.373590
1887.000000	11.086864
1888.000000	10.795463
1889.000000	10.526742
1890.000000	10.252614
1891.000000	9.971247
1892.000000	9.702704
1893.000000	9.487230
1894.000000	9.303562
1895.000000	9.138857
1896.000000	8.991366
1897.000000	8.833541
1898.000000	8.659356
1899.000000	8.487706
1900.000000	8.328554
1901.000000	8.205457
1902.000000	8.076100
1903.000000	7.967209
1904.000000	7.850844
1905.000000	7.735019
1906.000000	7.608134
1907.000000	7.512628
1908.000000	7.435110
1909.000000	7.370512
1910.000000	7.320339
1911.000000	7.243718
1912.000000	7.161321
1913.000000	7.081580
1914.000000	7.014303
1915.000000	6.956269
1916.000000	6.912858
1917.000000	6.873441
1918.000000	6.831669
1919.000000	6.791379
1920.000000	6.744000
1921.000000	6.695558
1922.000000	6.631554
1923.000000	6.611536
1924.000000	6.592742
1925.000000	6.571693
1926.000000	6.544555
1927.000000	6.514136
1928.000000	6.496384
1929.000000	6.477496
1930.000000	6.466754
1931.000000	6.443949
1932.000000	6.439917
1933.000000	6.423395
1934.000000	6.431363
1935.000000	6.425323
1936.000000	6.411945
1937.000000	6.432703
1938.000000	6.433317
1939.000000	6.434297
1940.000000	6.425145
1941.000000	6.436863
1942.000000	6.452863
1943.000000	6.453061
1944.000000	6.464906
1945.000000	6.484807
1946.000000	6.503288
1947.000000	6.514138
1948.000000	6.531164
1949.000000	6.552119
1950.000000	6.570516
1951.000000	6.592838
1952.000000	6.628355
1953.000000	6.636513
1954.000000	6.654826
1955.000000	6.684153
1956.000000	6.715528
1957.000000	6.726610
1958.000000	6.752261
1959.000000	6.793659
1960.000000	6.817018
1961.000000	6.841985
1962.000000	6.869398
1963.000000	6.906671
1964.000000	6.925841
1965.000000	6.955025
1966.000000	6.985394
1967.000000	7.003079
1968.000000	7.033449
1969.000000	7.063651
1970.000000	7.108370
1971.000000	7.142477
1972.000000	7.160955
1973.000000	7.199167
1974.000000	7.228555
1975.000000	7.267792
1976.000000	7.301406
1977.000000	7.339332
1978.000000	7.375634
1979.000000	7.409865
1980.000000	7.462795
1981.000000	7.480657
1982.000000	7.518117
1983.000000	7.553985
1984.000000	7.587697
1985.000000	7.627129
1986.000000	7.666362
1987.000000	7.691458
1988.000000	7.735026
1989.000000	7.773500
1990.000000	7.801529
1991.000000	7.843296
1992.000000	7.877352
1993.000000	7.909276
1994.000000	7.936300
1995.000000	7.981865
1996.000000	8.010066
1997.000000	8.044014
1998.000000	8.072486
1999.000000	8.100754
