PE UV       SUBTECH     SPECTRUM    ASCII       PEDS        4.00        
   -1
CICIMAUCR0242-3.Sample.ASC
24/06/21
11:31:23.00
24/06/21
11:31:23.00
Vinicio Soto Monge
C. cupreomarginata. Sex M. Dorsal
250,000000
1
Lambda 1050
1050L1511233
PerkinElmer UV WinLab 6.3.2.0749 / 2.02.05 Lambda 900 UV/VIS/NIR, Aug  7 2015 09:38:08

0
0
3350/servo 860,8/2
0
0
UV/VIS
1
1
1
DoubleDePol,CommonBeamDepol,RBeamAtt,SBeamAtt,60mm sphere, WB InGaAs Detector
0
0
0
0
Program
Program
3350/servo 860,8/2
3350/0,2 860,8/0,2
3350/0,2 860,8/0,2
0
15.00
 
 
 
0
 
860,8
319,2
860,8
Front
100
on
S:100 R:100
0
0
0
0
 
0
 
 
 
0
 
 
0
0
0
0
0
 
 
 
 
0
0


0
0
#HDR
-1
-1
#GR
nm
%R
1.0
0.0
2500,000000
-1,000000
2251
8
69,189700
5,636700
#DATA
250.000000	6.190433
251.000000	6.162133
252.000000	6.145433
253.000000	6.157133
254.000000	6.126467
255.000000	6.130367
256.000000	6.082867
257.000000	6.077233
258.000000	6.078533
259.000000	6.051733
260.000000	6.016200
261.000000	6.009567
262.000000	5.983900
263.000000	5.965633
264.000000	5.933500
265.000000	5.904533
266.000000	5.864533
267.000000	5.844433
268.000000	5.836667
269.000000	5.813867
270.000000	5.796500
271.000000	5.788900
272.000000	5.761800
273.000000	5.736933
274.000000	5.763700
275.000000	5.745567
276.000000	5.712300
277.000000	5.710833
278.000000	5.695833
279.000000	5.703767
280.000000	5.663633
281.000000	5.643067
282.000000	5.662867
283.000000	5.662200
284.000000	5.661867
285.000000	5.657767
286.000000	5.633800
287.000000	5.611967
288.000000	5.623800
289.000000	5.634333
290.000000	5.634433
291.000000	5.620233
292.000000	5.633200
293.000000	5.636233
294.000000	5.609167
295.000000	5.604800
296.000000	5.602000
297.000000	5.615300
298.000000	5.586300
299.000000	5.572067
300.000000	5.584567
301.000000	5.569700
302.000000	5.579733
303.000000	5.574167
304.000000	5.586300
305.000000	5.584500
306.000000	5.579233
307.000000	5.584733
308.000000	5.574767
309.000000	5.566833
310.000000	5.555433
311.000000	5.554533
312.000000	5.559733
313.000000	5.542367
314.000000	5.547333
315.000000	5.568533
316.000000	5.797800
317.000000	6.241500
318.000000	6.283833
319.000000	6.123600
320.000000	6.144400
321.000000	6.263167
322.000000	6.187000
323.000000	6.002767
324.000000	6.004300
325.000000	5.961600
326.000000	6.046500
327.000000	5.886300
328.000000	5.765733
329.000000	5.927800
330.000000	6.004100
331.000000	5.958300
332.000000	5.810567
333.000000	5.647867
334.000000	5.644400
335.000000	5.813567
336.000000	5.811000
337.000000	5.622933
338.000000	5.653900
339.000000	5.769033
340.000000	5.812467
341.000000	5.781367
342.000000	5.785167
343.000000	5.774400
344.000000	5.750067
345.000000	5.756967
346.000000	5.750367
347.000000	5.704733
348.000000	5.690100
349.000000	5.675267
350.000000	5.661633
351.000000	5.711967
352.000000	5.691733
353.000000	5.691367
354.000000	5.670300
355.000000	5.694033
356.000000	5.750267
357.000000	5.737733
358.000000	5.740700
359.000000	5.771333
360.000000	5.806200
361.000000	5.814067
362.000000	5.828600
363.000000	5.755433
364.000000	5.744267
365.000000	5.791167
366.000000	5.795400
367.000000	5.835233
368.000000	5.886233
369.000000	5.889633
370.000000	5.888033
371.000000	5.909000
372.000000	5.847933
373.000000	5.742033
374.000000	5.755433
375.000000	5.919933
376.000000	6.129000
377.000000	6.234500
378.000000	6.290933
379.000000	6.331267
380.000000	6.393767
381.000000	6.473233
382.000000	6.540833
383.000000	6.602567
384.000000	6.678133
385.000000	6.765933
386.000000	6.844500
387.000000	6.925933
388.000000	7.031333
389.000000	7.120767
390.000000	7.214167
391.000000	7.323167
392.000000	7.437900
393.000000	7.560100
394.000000	7.679200
395.000000	7.800300
396.000000	7.941200
397.000000	8.068533
398.000000	8.212733
399.000000	8.348900
400.000000	8.477700
401.000000	8.646400
402.000000	8.822733
403.000000	8.976433
404.000000	9.137000
405.000000	9.312367
406.000000	9.508367
407.000000	9.680767
408.000000	9.854200
409.000000	10.044633
410.000000	10.246900
411.000000	10.455800
412.000000	10.640967
413.000000	10.841800
414.000000	11.046333
415.000000	11.254633
416.000000	11.439833
417.000000	11.655700
418.000000	11.861867
419.000000	12.067833
420.000000	12.277333
421.000000	12.472833
422.000000	12.662800
423.000000	12.877033
424.000000	13.076300
425.000000	13.285900
426.000000	13.445900
427.000000	13.628000
428.000000	13.836500
429.000000	14.019967
430.000000	14.180000
431.000000	14.372633
432.000000	14.545767
433.000000	14.732000
434.000000	14.909067
435.000000	15.082500
436.000000	15.234867
437.000000	15.390600
438.000000	15.544533
439.000000	15.715333
440.000000	15.866733
441.000000	16.004533
442.000000	16.155533
443.000000	16.306333
444.000000	16.438967
445.000000	16.563100
446.000000	16.676067
447.000000	16.781100
448.000000	16.892000
449.000000	17.004767
450.000000	17.092467
451.000000	17.187733
452.000000	17.270333
453.000000	17.348367
454.000000	17.435767
455.000000	17.522767
456.000000	17.600667
457.000000	17.657700
458.000000	17.728133
459.000000	17.796433
460.000000	17.848033
461.000000	17.904400
462.000000	17.982900
463.000000	18.035633
464.000000	18.089667
465.000000	18.146133
466.000000	18.218733
467.000000	18.288533
468.000000	18.394500
469.000000	18.469367
470.000000	18.589767
471.000000	18.723867
472.000000	18.884533
473.000000	19.031633
474.000000	19.199667
475.000000	19.398967
476.000000	19.606000
477.000000	19.836500
478.000000	20.084867
479.000000	20.360533
480.000000	20.633100
481.000000	20.923067
482.000000	21.204867
483.000000	21.526600
484.000000	21.863733
485.000000	22.182567
486.000000	22.534167
487.000000	22.891767
488.000000	23.256400
489.000000	23.639233
490.000000	24.043033
491.000000	24.442433
492.000000	24.854233
493.000000	25.273967
494.000000	25.705500
495.000000	26.134267
496.000000	26.589567
497.000000	27.051933
498.000000	27.513900
499.000000	27.983400
500.000000	28.436633
501.000000	28.945600
502.000000	29.435033
503.000000	29.944667
504.000000	30.444000
505.000000	30.954767
506.000000	31.470667
507.000000	31.986467
508.000000	32.488433
509.000000	33.017900
510.000000	33.547500
511.000000	34.093100
512.000000	34.659633
513.000000	35.209500
514.000000	35.799267
515.000000	36.386467
516.000000	36.985167
517.000000	37.580567
518.000000	38.214633
519.000000	38.846367
520.000000	39.502300
521.000000	40.187933
522.000000	40.899233
523.000000	41.616500
524.000000	42.346867
525.000000	43.100933
526.000000	43.872767
527.000000	44.675467
528.000000	45.488333
529.000000	46.335467
530.000000	47.222733
531.000000	48.120867
532.000000	49.056533
533.000000	50.012800
534.000000	50.968500
535.000000	51.926633
536.000000	52.906900
537.000000	53.858900
538.000000	54.821533
539.000000	55.771633
540.000000	56.713067
541.000000	57.632667
542.000000	58.552633
543.000000	59.426133
544.000000	60.266900
545.000000	61.063633
546.000000	61.839800
547.000000	62.569433
548.000000	63.239700
549.000000	63.877867
550.000000	64.493400
551.000000	65.069267
552.000000	65.603733
553.000000	66.102133
554.000000	66.533733
555.000000	66.954900
556.000000	67.321467
557.000000	67.692967
558.000000	68.009333
559.000000	68.269667
560.000000	68.543600
561.000000	68.825100
562.000000	69.043967
563.000000	69.248767
564.000000	69.399467
565.000000	69.539467
566.000000	69.655500
567.000000	69.722133
568.000000	69.771067
569.000000	69.805433
570.000000	69.780633
571.000000	69.741900
572.000000	69.688967
573.000000	69.571233
574.000000	69.464300
575.000000	69.337567
576.000000	69.194067
577.000000	69.042567
578.000000	68.862333
579.000000	68.700100
580.000000	68.524867
581.000000	68.337200
582.000000	68.155067
583.000000	67.966367
584.000000	67.790367
585.000000	67.593133
586.000000	67.378867
587.000000	67.165000
588.000000	66.937767
589.000000	66.701633
590.000000	66.459633
591.000000	66.217033
592.000000	65.938733
593.000000	65.642200
594.000000	65.333333
595.000000	65.004633
596.000000	64.663467
597.000000	64.331267
598.000000	63.997700
599.000000	63.654933
600.000000	63.313133
601.000000	62.988967
602.000000	62.658900
603.000000	62.321300
604.000000	62.004267
605.000000	61.682800
606.000000	61.369400
607.000000	61.057967
608.000000	60.756367
609.000000	60.473433
610.000000	60.173567
611.000000	59.860700
612.000000	59.564100
613.000000	59.275700
614.000000	58.971933
615.000000	58.667933
616.000000	58.349333
617.000000	58.014367
618.000000	57.675600
619.000000	57.311133
620.000000	56.924800
621.000000	56.557067
622.000000	56.175033
623.000000	55.753833
624.000000	55.317900
625.000000	54.893867
626.000000	54.460100
627.000000	54.011067
628.000000	53.543833
629.000000	53.077033
630.000000	52.611700
631.000000	52.142567
632.000000	51.697600
633.000000	51.270867
634.000000	50.875033
635.000000	50.501767
636.000000	50.166500
637.000000	49.870933
638.000000	49.598900
639.000000	49.367567
640.000000	49.191267
641.000000	49.055467
642.000000	48.940367
643.000000	48.875867
644.000000	48.858567
645.000000	48.853600
646.000000	48.882867
647.000000	48.945933
648.000000	49.042133
649.000000	49.127433
650.000000	49.251333
651.000000	49.411633
652.000000	49.542433
653.000000	49.709600
654.000000	49.915767
655.000000	50.124600
656.000000	50.353167
657.000000	50.569600
658.000000	50.787567
659.000000	51.023967
660.000000	51.259267
661.000000	51.481833
662.000000	51.700133
663.000000	51.897400
664.000000	52.092467
665.000000	52.285900
666.000000	52.424300
667.000000	52.581533
668.000000	52.740200
669.000000	52.856900
670.000000	52.962267
671.000000	53.083000
672.000000	53.182567
673.000000	53.283267
674.000000	53.382067
675.000000	53.484467
676.000000	53.577000
677.000000	53.681800
678.000000	53.782067
679.000000	53.872067
680.000000	53.947933
681.000000	54.040567
682.000000	54.149233
683.000000	54.265167
684.000000	54.363100
685.000000	54.432900
686.000000	54.522500
687.000000	54.589567
688.000000	54.638567
689.000000	54.757233
690.000000	54.838633
691.000000	54.902633
692.000000	54.989800
693.000000	55.036100
694.000000	55.065767
695.000000	55.131900
696.000000	55.212967
697.000000	55.262333
698.000000	55.320933
699.000000	55.405167
700.000000	55.475933
701.000000	55.522900
702.000000	55.619033
703.000000	55.733600
704.000000	55.823667
705.000000	55.875500
706.000000	55.947767
707.000000	56.037367
708.000000	56.164000
709.000000	56.246233
710.000000	56.370000
711.000000	56.439867
712.000000	56.478567
713.000000	56.590167
714.000000	56.691533
715.000000	56.796067
716.000000	56.934833
717.000000	57.030467
718.000000	57.078067
719.000000	57.217167
720.000000	57.342633
721.000000	57.467667
722.000000	57.570267
723.000000	57.682767
724.000000	57.824700
725.000000	57.943500
726.000000	58.069833
727.000000	58.115567
728.000000	58.234167
729.000000	58.373500
730.000000	58.476667
731.000000	58.560967
732.000000	58.713400
733.000000	58.841400
734.000000	58.922467
735.000000	59.051000
736.000000	59.138267
737.000000	59.236900
738.000000	59.358467
739.000000	59.454500
740.000000	59.517700
741.000000	59.654200
742.000000	59.721933
743.000000	59.796733
744.000000	59.895667
745.000000	59.960200
746.000000	60.012733
747.000000	60.095067
748.000000	60.207067
749.000000	60.278600
750.000000	60.328100
751.000000	60.399967
752.000000	60.501400
753.000000	60.549933
754.000000	60.611600
755.000000	60.715433
756.000000	60.740900
757.000000	60.830767
758.000000	60.862133
759.000000	61.029433
760.000000	61.051000
761.000000	61.064333
762.000000	61.144333
763.000000	61.276833
764.000000	61.281833
765.000000	61.296867
766.000000	61.389200
767.000000	61.412067
768.000000	61.516667
769.000000	61.552567
770.000000	61.622067
771.000000	61.760700
772.000000	61.831367
773.000000	61.850200
774.000000	61.865167
775.000000	61.969667
776.000000	62.064733
777.000000	62.047700
778.000000	62.282367
779.000000	62.312267
780.000000	62.386700
781.000000	62.485900
782.000000	62.583067
783.000000	62.564733
784.000000	62.786367
785.000000	62.948700
786.000000	62.929533
787.000000	62.978533
788.000000	63.142233
789.000000	63.218500
790.000000	63.375767
791.000000	63.458267
792.000000	63.656933
793.000000	63.582967
794.000000	63.818033
795.000000	63.863267
796.000000	63.866367
797.000000	64.075833
798.000000	64.169167
799.000000	64.213433
800.000000	64.351267
801.000000	64.246533
802.000000	64.354567
803.000000	64.414533
804.000000	64.572667
805.000000	64.587867
806.000000	64.683533
807.000000	64.809600
808.000000	64.926967
809.000000	64.914700
810.000000	64.937167
811.000000	65.027633
812.000000	65.194067
813.000000	65.281300
814.000000	65.323367
815.000000	65.344900
816.000000	65.327167
817.000000	65.350533
818.000000	65.432400
819.000000	65.443867
820.000000	65.507400
821.000000	65.615700
822.000000	65.568367
823.000000	65.703733
824.000000	65.691967
825.000000	65.767433
826.000000	65.679833
827.000000	65.797100
828.000000	65.964433
829.000000	65.902000
830.000000	65.854933
831.000000	65.945967
832.000000	65.860567
833.000000	65.911800
834.000000	65.901467
835.000000	65.931233
836.000000	66.109500
837.000000	65.981500
838.000000	66.131700
839.000000	66.037733
840.000000	66.029633
841.000000	66.020933
842.000000	65.921867
843.000000	66.015933
844.000000	65.956200
845.000000	66.052200
846.000000	66.265600
847.000000	66.212067
848.000000	66.139300
849.000000	65.984500
850.000000	65.889967
851.000000	66.078133
852.000000	66.001567
853.000000	65.961167
854.000000	66.110233
855.000000	66.091533
856.000000	66.106400
857.000000	65.432733
858.000000	65.876889
859.000000	65.862004
860.000000	65.843535
861.000000	65.820563
862.000000	65.797576
863.000000	65.770498
864.000000	65.748380
865.000000	65.724302
866.000000	65.700705
867.000000	65.653795
868.000000	65.623419
869.000000	65.566157
870.000000	65.522662
871.000000	65.531959
872.000000	65.654575
873.000000	65.852791
874.000000	66.080504
875.000000	66.324455
876.000000	66.556963
877.000000	66.718603
878.000000	66.898136
879.000000	67.033432
880.000000	67.139529
881.000000	67.207604
882.000000	67.275060
883.000000	67.323073
884.000000	67.368166
885.000000	67.424362
886.000000	67.461877
887.000000	67.493456
888.000000	67.522497
889.000000	67.546488
890.000000	67.561334
891.000000	67.556644
892.000000	67.564743
893.000000	67.570090
894.000000	67.561569
895.000000	67.539973
896.000000	67.531758
897.000000	67.515745
898.000000	67.488490
899.000000	67.470111
900.000000	67.442883
901.000000	67.417719
902.000000	67.388081
903.000000	67.366921
904.000000	67.350820
905.000000	67.334647
906.000000	67.321303
907.000000	67.320293
908.000000	67.323586
909.000000	67.314766
910.000000	67.317650
911.000000	67.316239
912.000000	67.307911
913.000000	67.312156
914.000000	67.316349
915.000000	67.308482
916.000000	67.286857
917.000000	67.258725
918.000000	67.237320
919.000000	67.214787
920.000000	67.196376
921.000000	67.151045
922.000000	67.099616
923.000000	67.062499
924.000000	67.007868
925.000000	66.950911
926.000000	66.901925
927.000000	66.853752
928.000000	66.792736
929.000000	66.732387
930.000000	66.676750
931.000000	66.611071
932.000000	66.548205
933.000000	66.474839
934.000000	66.412348
935.000000	66.348384
936.000000	66.278507
937.000000	66.216190
938.000000	66.157191
939.000000	66.107619
940.000000	66.068867
941.000000	66.018935
942.000000	65.964886
943.000000	65.915135
944.000000	65.867230
945.000000	65.830177
946.000000	65.798659
947.000000	65.753347
948.000000	65.717937
949.000000	65.680979
950.000000	65.651913
951.000000	65.626213
952.000000	65.589948
953.000000	65.572534
954.000000	65.551764
955.000000	65.521314
956.000000	65.494010
957.000000	65.468962
958.000000	65.457048
959.000000	65.432447
960.000000	65.400606
961.000000	65.371183
962.000000	65.347863
963.000000	65.328903
964.000000	65.304808
965.000000	65.281894
966.000000	65.247452
967.000000	65.220479
968.000000	65.202779
969.000000	65.172457
970.000000	65.141370
971.000000	65.113474
972.000000	65.081480
973.000000	65.041703
974.000000	64.994621
975.000000	64.959068
976.000000	64.918934
977.000000	64.865480
978.000000	64.818927
979.000000	64.767221
980.000000	64.708112
981.000000	64.655116
982.000000	64.592473
983.000000	64.533728
984.000000	64.476698
985.000000	64.418296
986.000000	64.356443
987.000000	64.300730
988.000000	64.249338
989.000000	64.196285
990.000000	64.148454
991.000000	64.096701
992.000000	64.049356
993.000000	64.010177
994.000000	63.974917
995.000000	63.931173
996.000000	63.904114
997.000000	63.877795
998.000000	63.844460
999.000000	63.823347
1000.000000	63.808943
1001.000000	63.787410
1002.000000	63.772857
1003.000000	63.766178
1004.000000	63.751901
1005.000000	63.745009
1006.000000	63.746038
1007.000000	63.752717
1008.000000	63.762090
1009.000000	63.778788
1010.000000	63.803082
1011.000000	63.825467
1012.000000	63.857599
1013.000000	63.897960
1014.000000	63.944430
1015.000000	64.003410
1016.000000	64.081722
1017.000000	64.147533
1018.000000	64.212604
1019.000000	64.298575
1020.000000	64.374624
1021.000000	64.465887
1022.000000	64.550501
1023.000000	64.642883
1024.000000	64.719512
1025.000000	64.809262
1026.000000	64.901443
1027.000000	64.979967
1028.000000	65.057006
1029.000000	65.128934
1030.000000	65.213142
1031.000000	65.278329
1032.000000	65.348135
1033.000000	65.422052
1034.000000	65.481130
1035.000000	65.539035
1036.000000	65.597557
1037.000000	65.658225
1038.000000	65.705666
1039.000000	65.750629
1040.000000	65.797112
1041.000000	65.834399
1042.000000	65.871176
1043.000000	65.921144
1044.000000	65.952326
1045.000000	66.003037
1046.000000	66.026743
1047.000000	66.069578
1048.000000	66.104895
1049.000000	66.139983
1050.000000	66.172471
1051.000000	66.209288
1052.000000	66.255748
1053.000000	66.291473
1054.000000	66.315881
1055.000000	66.367493
1056.000000	66.404725
1057.000000	66.445297
1058.000000	66.471135
1059.000000	66.506305
1060.000000	66.544128
1061.000000	66.572843
1062.000000	66.609032
1063.000000	66.652933
1064.000000	66.675196
1065.000000	66.706142
1066.000000	66.723656
1067.000000	66.761717
1068.000000	66.793865
1069.000000	66.825955
1070.000000	66.846159
1071.000000	66.874327
1072.000000	66.904695
1073.000000	66.942740
1074.000000	66.965546
1075.000000	67.010818
1076.000000	67.022207
1077.000000	67.040254
1078.000000	67.066805
1079.000000	67.108306
1080.000000	67.131728
1081.000000	67.172016
1082.000000	67.207942
1083.000000	67.232171
1084.000000	67.257310
1085.000000	67.287272
1086.000000	67.318872
1087.000000	67.357134
1088.000000	67.387069
1089.000000	67.398777
1090.000000	67.441164
1091.000000	67.455974
1092.000000	67.481855
1093.000000	67.510272
1094.000000	67.521477
1095.000000	67.529504
1096.000000	67.560572
1097.000000	67.572109
1098.000000	67.573288
1099.000000	67.591329
1100.000000	67.601524
1101.000000	67.622466
1102.000000	67.620334
1103.000000	67.632490
1104.000000	67.634553
1105.000000	67.633075
1106.000000	67.646069
1107.000000	67.639696
1108.000000	67.650495
1109.000000	67.651270
1110.000000	67.656052
1111.000000	67.650299
1112.000000	67.648724
1113.000000	67.652879
1114.000000	67.671878
1115.000000	67.666572
1116.000000	67.660952
1117.000000	67.637801
1118.000000	67.604240
1119.000000	67.577600
1120.000000	67.536400
1121.000000	67.485238
1122.000000	67.414978
1123.000000	67.340727
1124.000000	67.240301
1125.000000	67.138950
1126.000000	67.000825
1127.000000	66.855548
1128.000000	66.650100
1129.000000	66.417814
1130.000000	66.141608
1131.000000	65.854379
1132.000000	65.548095
1133.000000	65.231463
1134.000000	64.842070
1135.000000	64.431853
1136.000000	64.026182
1137.000000	63.638886
1138.000000	63.263611
1139.000000	62.920550
1140.000000	62.569753
1141.000000	62.246625
1142.000000	61.930693
1143.000000	61.645912
1144.000000	61.387812
1145.000000	61.175635
1146.000000	61.007389
1147.000000	60.871176
1148.000000	60.757393
1149.000000	60.666682
1150.000000	60.566085
1151.000000	60.457423
1152.000000	60.328799
1153.000000	60.162511
1154.000000	59.972305
1155.000000	59.739139
1156.000000	59.477990
1157.000000	59.187831
1158.000000	58.879667
1159.000000	58.572466
1160.000000	58.246831
1161.000000	57.924693
1162.000000	57.606940
1163.000000	57.274337
1164.000000	56.955733
1165.000000	56.646669
1166.000000	56.334619
1167.000000	56.033954
1168.000000	55.731021
1169.000000	55.444384
1170.000000	55.167152
1171.000000	54.886406
1172.000000	54.620882
1173.000000	54.354115
1174.000000	54.101501
1175.000000	53.837999
1176.000000	53.555414
1177.000000	53.238028
1178.000000	52.887635
1179.000000	52.503575
1180.000000	52.114537
1181.000000	51.748353
1182.000000	51.425488
1183.000000	51.187214
1184.000000	51.035349
1185.000000	50.986852
1186.000000	51.027591
1187.000000	51.153558
1188.000000	51.370247
1189.000000	51.649019
1190.000000	51.971017
1191.000000	52.297410
1192.000000	52.593532
1193.000000	52.854415
1194.000000	53.085072
1195.000000	53.274714
1196.000000	53.415141
1197.000000	53.525553
1198.000000	53.624989
1199.000000	53.694477
1200.000000	53.739955
1201.000000	53.789014
1202.000000	53.830044
1203.000000	53.876027
1204.000000	53.937561
1205.000000	54.000013
1206.000000	54.067609
1207.000000	54.149654
1208.000000	54.250263
1209.000000	54.346467
1210.000000	54.446140
1211.000000	54.565312
1212.000000	54.683611
1213.000000	54.803354
1214.000000	54.923308
1215.000000	55.040280
1216.000000	55.170077
1217.000000	55.307338
1218.000000	55.438402
1219.000000	55.571489
1220.000000	55.711726
1221.000000	55.855863
1222.000000	56.000798
1223.000000	56.148498
1224.000000	56.286440
1225.000000	56.432491
1226.000000	56.582503
1227.000000	56.717876
1228.000000	56.860888
1229.000000	57.004525
1230.000000	57.137618
1231.000000	57.264311
1232.000000	57.393074
1233.000000	57.515187
1234.000000	57.639622
1235.000000	57.755868
1236.000000	57.866208
1237.000000	57.979895
1238.000000	58.081629
1239.000000	58.179557
1240.000000	58.278442
1241.000000	58.377524
1242.000000	58.476231
1243.000000	58.558754
1244.000000	58.644789
1245.000000	58.727902
1246.000000	58.804907
1247.000000	58.874977
1248.000000	58.940523
1249.000000	59.000818
1250.000000	59.049347
1251.000000	59.095883
1252.000000	59.141074
1253.000000	59.182494
1254.000000	59.227609
1255.000000	59.261843
1256.000000	59.284414
1257.000000	59.308653
1258.000000	59.335630
1259.000000	59.359893
1260.000000	59.378500
1261.000000	59.398249
1262.000000	59.421555
1263.000000	59.437790
1264.000000	59.457173
1265.000000	59.478905
1266.000000	59.495381
1267.000000	59.511009
1268.000000	59.520281
1269.000000	59.533953
1270.000000	59.544738
1271.000000	59.557960
1272.000000	59.571695
1273.000000	59.588165
1274.000000	59.597858
1275.000000	59.621053
1276.000000	59.645803
1277.000000	59.672901
1278.000000	59.697353
1279.000000	59.724266
1280.000000	59.759505
1281.000000	59.791961
1282.000000	59.817168
1283.000000	59.849287
1284.000000	59.881056
1285.000000	59.903596
1286.000000	59.922886
1287.000000	59.946370
1288.000000	59.956435
1289.000000	59.962815
1290.000000	59.962861
1291.000000	59.966537
1292.000000	59.961105
1293.000000	59.943522
1294.000000	59.918807
1295.000000	59.895739
1296.000000	59.878498
1297.000000	59.848262
1298.000000	59.822697
1299.000000	59.792989
1300.000000	59.764720
1301.000000	59.725205
1302.000000	59.682450
1303.000000	59.635398
1304.000000	59.583128
1305.000000	59.521448
1306.000000	59.459778
1307.000000	59.384608
1308.000000	59.311295
1309.000000	59.240849
1310.000000	59.146614
1311.000000	59.052588
1312.000000	58.958370
1313.000000	58.846934
1314.000000	58.744409
1315.000000	58.631701
1316.000000	58.512402
1317.000000	58.392173
1318.000000	58.276902
1319.000000	58.145001
1320.000000	58.003452
1321.000000	57.867542
1322.000000	57.723879
1323.000000	57.570672
1324.000000	57.419226
1325.000000	57.244769
1326.000000	57.077386
1327.000000	56.909233
1328.000000	56.720710
1329.000000	56.533986
1330.000000	56.329961
1331.000000	56.134135
1332.000000	55.923814
1333.000000	55.706383
1334.000000	55.483425
1335.000000	55.256478
1336.000000	55.028788
1337.000000	54.777176
1338.000000	54.534778
1339.000000	54.286532
1340.000000	54.042819
1341.000000	53.772227
1342.000000	53.515137
1343.000000	53.263969
1344.000000	52.983161
1345.000000	52.698516
1346.000000	52.429580
1347.000000	52.140891
1348.000000	51.831224
1349.000000	51.497596
1350.000000	51.154668
1351.000000	50.773991
1352.000000	50.392490
1353.000000	50.093140
1354.000000	49.783062
1355.000000	49.532660
1356.000000	49.313303
1357.000000	49.186711
1358.000000	49.097066
1359.000000	49.008780
1360.000000	48.956980
1361.000000	48.836146
1362.000000	48.683201
1363.000000	48.507704
1364.000000	48.362894
1365.000000	48.167827
1366.000000	47.982324
1367.000000	47.777097
1368.000000	47.539629
1369.000000	47.277585
1370.000000	47.021237
1371.000000	46.715938
1372.000000	46.437811
1373.000000	46.148027
1374.000000	45.910700
1375.000000	45.724446
1376.000000	45.549408
1377.000000	45.362050
1378.000000	45.204745
1379.000000	44.993010
1380.000000	44.744863
1381.000000	44.420488
1382.000000	43.982197
1383.000000	43.489127
1384.000000	43.026887
1385.000000	42.550318
1386.000000	42.147126
1387.000000	41.722653
1388.000000	41.303097
1389.000000	40.900597
1390.000000	40.599171
1391.000000	40.273943
1392.000000	39.957108
1393.000000	39.666560
1394.000000	39.410469
1395.000000	39.078381
1396.000000	38.689512
1397.000000	38.346234
1398.000000	38.071587
1399.000000	37.806593
1400.000000	37.445384
1401.000000	37.014408
1402.000000	36.625680
1403.000000	36.279745
1404.000000	35.908400
1405.000000	35.554982
1406.000000	35.190100
1407.000000	34.860114
1408.000000	34.503441
1409.000000	34.167059
1410.000000	33.821666
1411.000000	33.505442
1412.000000	33.252191
1413.000000	33.026445
1414.000000	32.753073
1415.000000	32.468172
1416.000000	32.222972
1417.000000	32.021907
1418.000000	31.805914
1419.000000	31.583331
1420.000000	31.340845
1421.000000	31.123964
1422.000000	30.938176
1423.000000	30.751247
1424.000000	30.562086
1425.000000	30.378534
1426.000000	30.212140
1427.000000	30.066043
1428.000000	29.909752
1429.000000	29.761481
1430.000000	29.644673
1431.000000	29.530189
1432.000000	29.412099
1433.000000	29.292167
1434.000000	29.172474
1435.000000	29.058189
1436.000000	28.975478
1437.000000	28.883181
1438.000000	28.795869
1439.000000	28.696176
1440.000000	28.605255
1441.000000	28.525643
1442.000000	28.440378
1443.000000	28.357811
1444.000000	28.285838
1445.000000	28.229633
1446.000000	28.155146
1447.000000	28.060726
1448.000000	27.993767
1449.000000	27.941402
1450.000000	27.896834
1451.000000	27.832288
1452.000000	27.758378
1453.000000	27.697572
1454.000000	27.658077
1455.000000	27.616163
1456.000000	27.566881
1457.000000	27.518777
1458.000000	27.491545
1459.000000	27.461959
1460.000000	27.431737
1461.000000	27.407266
1462.000000	27.388892
1463.000000	27.378619
1464.000000	27.362701
1465.000000	27.364414
1466.000000	27.363899
1467.000000	27.347184
1468.000000	27.350913
1469.000000	27.369302
1470.000000	27.376354
1471.000000	27.379700
1472.000000	27.382648
1473.000000	27.374195
1474.000000	27.377378
1475.000000	27.392042
1476.000000	27.404856
1477.000000	27.418657
1478.000000	27.441291
1479.000000	27.467179
1480.000000	27.487972
1481.000000	27.509725
1482.000000	27.540863
1483.000000	27.569917
1484.000000	27.603626
1485.000000	27.637135
1486.000000	27.672392
1487.000000	27.707455
1488.000000	27.739311
1489.000000	27.776231
1490.000000	27.813991
1491.000000	27.860262
1492.000000	27.895859
1493.000000	27.933414
1494.000000	27.975424
1495.000000	28.020103
1496.000000	28.074486
1497.000000	28.119977
1498.000000	28.164242
1499.000000	28.215336
1500.000000	28.270743
1501.000000	28.328065
1502.000000	28.390280
1503.000000	28.453850
1504.000000	28.509605
1505.000000	28.566011
1506.000000	28.625519
1507.000000	28.688763
1508.000000	28.749152
1509.000000	28.806310
1510.000000	28.867528
1511.000000	28.920441
1512.000000	28.980366
1513.000000	29.040229
1514.000000	29.090388
1515.000000	29.143493
1516.000000	29.195988
1517.000000	29.246836
1518.000000	29.299265
1519.000000	29.354221
1520.000000	29.398757
1521.000000	29.444310
1522.000000	29.486270
1523.000000	29.528550
1524.000000	29.568945
1525.000000	29.612456
1526.000000	29.661029
1527.000000	29.697769
1528.000000	29.729831
1529.000000	29.765392
1530.000000	29.804010
1531.000000	29.840319
1532.000000	29.875057
1533.000000	29.900153
1534.000000	29.932241
1535.000000	29.957206
1536.000000	29.971370
1537.000000	29.994438
1538.000000	30.014321
1539.000000	30.037011
1540.000000	30.063037
1541.000000	30.089694
1542.000000	30.107931
1543.000000	30.125653
1544.000000	30.156484
1545.000000	30.188660
1546.000000	30.217482
1547.000000	30.249661
1548.000000	30.282421
1549.000000	30.316079
1550.000000	30.346954
1551.000000	30.376032
1552.000000	30.413540
1553.000000	30.440789
1554.000000	30.463260
1555.000000	30.488967
1556.000000	30.509516
1557.000000	30.526328
1558.000000	30.539604
1559.000000	30.552957
1560.000000	30.574942
1561.000000	30.580344
1562.000000	30.581851
1563.000000	30.581957
1564.000000	30.584477
1565.000000	30.593874
1566.000000	30.606426
1567.000000	30.606615
1568.000000	30.604183
1569.000000	30.611925
1570.000000	30.614079
1571.000000	30.618831
1572.000000	30.625452
1573.000000	30.643164
1574.000000	30.670194
1575.000000	30.686918
1576.000000	30.709728
1577.000000	30.737599
1578.000000	30.759655
1579.000000	30.791816
1580.000000	30.834713
1581.000000	30.870668
1582.000000	30.909810
1583.000000	30.946184
1584.000000	30.997271
1585.000000	31.039049
1586.000000	31.090487
1587.000000	31.128011
1588.000000	31.186620
1589.000000	31.236087
1590.000000	31.277594
1591.000000	31.344763
1592.000000	31.393940
1593.000000	31.439862
1594.000000	31.489630
1595.000000	31.546911
1596.000000	31.603308
1597.000000	31.674204
1598.000000	31.741101
1599.000000	31.800957
1600.000000	31.872083
1601.000000	31.941328
1602.000000	31.992154
1603.000000	32.065843
1604.000000	32.133942
1605.000000	32.198763
1606.000000	32.263073
1607.000000	32.330905
1608.000000	32.387402
1609.000000	32.452456
1610.000000	32.512438
1611.000000	32.574625
1612.000000	32.641541
1613.000000	32.706012
1614.000000	32.751265
1615.000000	32.814398
1616.000000	32.878653
1617.000000	32.939237
1618.000000	33.006343
1619.000000	33.064147
1620.000000	33.137017
1621.000000	33.209044
1622.000000	33.267132
1623.000000	33.329773
1624.000000	33.408477
1625.000000	33.475069
1626.000000	33.532576
1627.000000	33.608166
1628.000000	33.671333
1629.000000	33.750592
1630.000000	33.810586
1631.000000	33.872712
1632.000000	33.934511
1633.000000	33.989819
1634.000000	34.046890
1635.000000	34.106991
1636.000000	34.155806
1637.000000	34.214384
1638.000000	34.265370
1639.000000	34.323430
1640.000000	34.366351
1641.000000	34.394715
1642.000000	34.442446
1643.000000	34.490399
1644.000000	34.529085
1645.000000	34.554047
1646.000000	34.596920
1647.000000	34.624957
1648.000000	34.660461
1649.000000	34.687803
1650.000000	34.714640
1651.000000	34.717283
1652.000000	34.720483
1653.000000	34.734878
1654.000000	34.730262
1655.000000	34.719152
1656.000000	34.695567
1657.000000	34.680965
1658.000000	34.649192
1659.000000	34.589711
1660.000000	34.535280
1661.000000	34.490247
1662.000000	34.432983
1663.000000	34.350113
1664.000000	34.271025
1665.000000	34.170268
1666.000000	34.061281
1667.000000	33.962376
1668.000000	33.848965
1669.000000	33.707930
1670.000000	33.531028
1671.000000	33.354643
1672.000000	33.152598
1673.000000	32.920442
1674.000000	32.656755
1675.000000	32.365473
1676.000000	32.044190
1677.000000	31.677019
1678.000000	31.291104
1679.000000	30.929309
1680.000000	30.571699
1681.000000	30.261666
1682.000000	30.019223
1683.000000	29.865253
1684.000000	29.746585
1685.000000	29.682434
1686.000000	29.620226
1687.000000	29.560784
1688.000000	29.484634
1689.000000	29.399625
1690.000000	29.297019
1691.000000	29.197683
1692.000000	29.124613
1693.000000	29.064201
1694.000000	29.027291
1695.000000	29.045311
1696.000000	29.110170
1697.000000	29.185159
1698.000000	29.280707
1699.000000	29.384965
1700.000000	29.498899
1701.000000	29.579626
1702.000000	29.653660
1703.000000	29.716462
1704.000000	29.754012
1705.000000	29.781714
1706.000000	29.800524
1707.000000	29.810298
1708.000000	29.786855
1709.000000	29.767461
1710.000000	29.722659
1711.000000	29.664797
1712.000000	29.601978
1713.000000	29.518712
1714.000000	29.429607
1715.000000	29.344221
1716.000000	29.264009
1717.000000	29.178334
1718.000000	29.098726
1719.000000	29.028592
1720.000000	28.974869
1721.000000	28.925933
1722.000000	28.870307
1723.000000	28.815972
1724.000000	28.768370
1725.000000	28.696876
1726.000000	28.625433
1727.000000	28.556970
1728.000000	28.476203
1729.000000	28.422543
1730.000000	28.359758
1731.000000	28.324384
1732.000000	28.303307
1733.000000	28.315225
1734.000000	28.363584
1735.000000	28.436279
1736.000000	28.535659
1737.000000	28.657775
1738.000000	28.804176
1739.000000	28.953448
1740.000000	29.108344
1741.000000	29.244740
1742.000000	29.366583
1743.000000	29.482507
1744.000000	29.570576
1745.000000	29.638993
1746.000000	29.707071
1747.000000	29.756401
1748.000000	29.787887
1749.000000	29.809071
1750.000000	29.820633
1751.000000	29.815879
1752.000000	29.807737
1753.000000	29.776400
1754.000000	29.736501
1755.000000	29.699515
1756.000000	29.645191
1757.000000	29.582779
1758.000000	29.534284
1759.000000	29.482779
1760.000000	29.442279
1761.000000	29.412378
1762.000000	29.398643
1763.000000	29.403868
1764.000000	29.426006
1765.000000	29.472500
1766.000000	29.534589
1767.000000	29.600128
1768.000000	29.666201
1769.000000	29.745016
1770.000000	29.827603
1771.000000	29.906043
1772.000000	29.981986
1773.000000	30.053363
1774.000000	30.131701
1775.000000	30.202250
1776.000000	30.269576
1777.000000	30.333337
1778.000000	30.394322
1779.000000	30.443670
1780.000000	30.490513
1781.000000	30.546248
1782.000000	30.598310
1783.000000	30.645807
1784.000000	30.696614
1785.000000	30.744227
1786.000000	30.786493
1787.000000	30.836342
1788.000000	30.878630
1789.000000	30.911372
1790.000000	30.953378
1791.000000	30.994266
1792.000000	31.040571
1793.000000	31.080738
1794.000000	31.111344
1795.000000	31.150263
1796.000000	31.193965
1797.000000	31.234019
1798.000000	31.269177
1799.000000	31.317896
1800.000000	31.374748
1801.000000	31.412592
1802.000000	31.445373
1803.000000	31.477228
1804.000000	31.514915
1805.000000	31.564226
1806.000000	31.602344
1807.000000	31.638598
1808.000000	31.669007
1809.000000	31.698440
1810.000000	31.739608
1811.000000	31.767506
1812.000000	31.790176
1813.000000	31.810982
1814.000000	31.825809
1815.000000	31.835049
1816.000000	31.853441
1817.000000	31.879582
1818.000000	31.917180
1819.000000	31.961861
1820.000000	31.984268
1821.000000	31.979397
1822.000000	31.980179
1823.000000	32.002382
1824.000000	32.045258
1825.000000	32.097270
1826.000000	32.143853
1827.000000	32.200641
1828.000000	32.264194
1829.000000	32.320537
1830.000000	32.356922
1831.000000	32.393952
1832.000000	32.437234
1833.000000	32.503257
1834.000000	32.581396
1835.000000	32.638324
1836.000000	32.671781
1837.000000	32.686226
1838.000000	32.712474
1839.000000	32.747764
1840.000000	32.760210
1841.000000	32.760592
1842.000000	32.728019
1843.000000	32.721403
1844.000000	32.764934
1845.000000	32.803955
1846.000000	32.847300
1847.000000	32.861583
1848.000000	32.833550
1849.000000	32.806200
1850.000000	32.795811
1851.000000	32.778505
1852.000000	32.764033
1853.000000	32.761144
1854.000000	32.722877
1855.000000	32.674389
1856.000000	32.632338
1857.000000	32.567245
1858.000000	32.473880
1859.000000	32.372012
1860.000000	32.256987
1861.000000	32.112758
1862.000000	31.974207
1863.000000	31.855265
1864.000000	31.735443
1865.000000	31.603357
1866.000000	31.471982
1867.000000	31.298430
1868.000000	31.102644
1869.000000	30.827135
1870.000000	30.551632
1871.000000	30.223288
1872.000000	29.903979
1873.000000	29.521421
1874.000000	29.139094
1875.000000	28.762946
1876.000000	28.368152
1877.000000	27.950690
1878.000000	27.514519
1879.000000	27.087211
1880.000000	26.658776
1881.000000	26.195292
1882.000000	25.730099
1883.000000	25.244676
1884.000000	24.761380
1885.000000	24.277090
1886.000000	23.850982
1887.000000	23.435310
1888.000000	23.028090
1889.000000	22.622962
1890.000000	22.224097
1891.000000	21.811795
1892.000000	21.390120
1893.000000	21.013292
1894.000000	20.678657
1895.000000	20.351808
1896.000000	20.046940
1897.000000	19.732938
1898.000000	19.405435
1899.000000	19.059693
1900.000000	18.730117
1901.000000	18.412617
1902.000000	18.144169
1903.000000	17.862588
1904.000000	17.605788
1905.000000	17.325599
1906.000000	17.043269
1907.000000	16.779549
1908.000000	16.570813
1909.000000	16.369881
1910.000000	16.162425
1911.000000	15.975294
1912.000000	15.764488
1913.000000	15.563474
1914.000000	15.358635
1915.000000	15.178948
1916.000000	15.031272
1917.000000	14.871363
1918.000000	14.727528
1919.000000	14.596948
1920.000000	14.459110
1921.000000	14.319029
1922.000000	14.202218
1923.000000	14.083101
1924.000000	13.991598
1925.000000	13.882387
1926.000000	13.796317
1927.000000	13.731387
1928.000000	13.660413
1929.000000	13.592069
1930.000000	13.534143
1931.000000	13.482041
1932.000000	13.437249
1933.000000	13.406370
1934.000000	13.382765
1935.000000	13.361728
1936.000000	13.355883
1937.000000	13.352433
1938.000000	13.354551
1939.000000	13.365536
1940.000000	13.364882
1941.000000	13.403888
1942.000000	13.402917
1943.000000	13.423882
1944.000000	13.460333
1945.000000	13.512273
1946.000000	13.548614
1947.000000	13.602648
1948.000000	13.647792
1949.000000	13.697356
1950.000000	13.739366
1951.000000	13.792388
1952.000000	13.848025
1953.000000	13.920101
1954.000000	13.970012
1955.000000	14.040967
1956.000000	14.103906
1957.000000	14.159589
1958.000000	14.233160
1959.000000	14.290707
1960.000000	14.372672
1961.000000	14.457437
1962.000000	14.515896
1963.000000	14.579128
1964.000000	14.650108
1965.000000	14.720968
1966.000000	14.787954
1967.000000	14.858141
1968.000000	14.938680
1969.000000	15.011760
1970.000000	15.095656
1971.000000	15.169024
1972.000000	15.240424
1973.000000	15.314177
1974.000000	15.390722
1975.000000	15.463228
1976.000000	15.549383
1977.000000	15.626584
1978.000000	15.711063
1979.000000	15.806401
1980.000000	15.889846
1981.000000	15.961745
1982.000000	16.048505
1983.000000	16.138081
1984.000000	16.203611
1985.000000	16.281712
1986.000000	16.365973
1987.000000	16.446665
1988.000000	16.532534
1989.000000	16.606999
1990.000000	16.690596
1991.000000	16.754682
1992.000000	16.828062
1993.000000	16.904098
1994.000000	16.966388
1995.000000	17.032284
1996.000000	17.105802
1997.000000	17.179203
1998.000000	17.226904
1999.000000	17.282571
