PE UV       SUBTECH     SPECTRUM    ASCII       PEDS        4.00        
   -1
CICIMAUCR0250-3.Sample.ASC
24/05/27
16:50:50.00
24/05/27
16:50:50.00
Vinicio Soto Monge
C. resplendens, M
250,000000
1
Lambda 1050
1050L1511233
PerkinElmer UV WinLab 6.3.2.0749 / 2.02.05 Lambda 900 UV/VIS/NIR, Aug  7 2015 09:38:08

0
0
3350/servo 860,8/2
0
0
UV/VIS
1
1
1
DoubleDePol,CommonBeamDepol,RBeamAtt,SBeamAtt,60mm sphere, WB InGaAs Detector
0
0
0
0
Program
Program
3350/servo 860,8/2
3350/0,2 860,8/0,2
3350/0,2 860,8/0,2
0
15.00
 
 
 
0
 
860,8
319,2
860,8
Front
100
on
S:100 R:100
0
0
0
0
 
0
 
 
 
0
 
 
0
0
0
0
0
 
 
 
 
0
0


0
0
#HDR
-1
-1
#GR
nm
%R
1.0
0.0
2500,000000
-1,000000
2251
8
89,705100
5,547200
#DATA
250.000000	2232.000000	6.313633
251.000000	2231.000000	6.282600
252.000000	2230.000000	6.254233
253.000000	2229.000000	6.267733
254.000000	2228.000000	6.254267
255.000000	2227.000000	6.236000
256.000000	2226.000000	6.220900
257.000000	2225.000000	6.196033
258.000000	2224.000000	6.175533
259.000000	2223.000000	6.175000
260.000000	2222.000000	6.155100
261.000000	2221.000000	6.134067
262.000000	2220.000000	6.105400
263.000000	2219.000000	6.092167
264.000000	2218.000000	6.084467
265.000000	2217.000000	6.039767
266.000000	2216.000000	6.009900
267.000000	2215.000000	6.002400
268.000000	2214.000000	5.974100
269.000000	2213.000000	5.948900
270.000000	2212.000000	5.957433
271.000000	2211.000000	5.947800
272.000000	2210.000000	5.923100
273.000000	2209.000000	5.917300
274.000000	2208.000000	5.901500
275.000000	2207.000000	5.908000
276.000000	2206.000000	5.899600
277.000000	2205.000000	5.874367
278.000000	2204.000000	5.875367
279.000000	2203.000000	5.867300
280.000000	2202.000000	5.870533
281.000000	2201.000000	5.854667
282.000000	2200.000000	5.849167
283.000000	2199.000000	5.836400
284.000000	2198.000000	5.813300
285.000000	2197.000000	5.812200
286.000000	2196.000000	5.808267
287.000000	2195.000000	5.776067
288.000000	2194.000000	5.788800
289.000000	2193.000000	5.784700
290.000000	2192.000000	5.761433
291.000000	2191.000000	5.772533
292.000000	2190.000000	5.759700
293.000000	2189.000000	5.739667
294.000000	2188.000000	5.733433
295.000000	2187.000000	5.733467
296.000000	2186.000000	5.724000
297.000000	2185.000000	5.712400
298.000000	2184.000000	5.708500
299.000000	2183.000000	5.679767
300.000000	2182.000000	5.684467
301.000000	2181.000000	5.701367
302.000000	2180.000000	5.683067
303.000000	2179.000000	5.673067
304.000000	2178.000000	5.656567
305.000000	2177.000000	5.640567
306.000000	2176.000000	5.647700
307.000000	2175.000000	5.653200
308.000000	2174.000000	5.643233
309.000000	2173.000000	5.630867
310.000000	2172.000000	5.636600
311.000000	2171.000000	5.655967
312.000000	2170.000000	5.638333
313.000000	2169.000000	5.610100
314.000000	2168.000000	5.621067
315.000000	2167.000000	5.636600
316.000000	2166.000000	5.724900
317.000000	2165.000000	5.837400
318.000000	2164.000000	5.841233
319.000000	2163.000000	5.873000
320.000000	2162.000000	5.908400
321.000000	2161.000000	5.823667
322.000000	2160.000000	5.797833
323.000000	2159.000000	5.854767
324.000000	2158.000000	5.827500
325.000000	2157.000000	5.810067
326.000000	2156.000000	5.749567
327.000000	2155.000000	5.699733
328.000000	2154.000000	5.716933
329.000000	2153.000000	5.801667
330.000000	2152.000000	5.840133
331.000000	2151.000000	5.761133
332.000000	2150.000000	5.769500
333.000000	2149.000000	5.756267
334.000000	2148.000000	5.711167
335.000000	2147.000000	5.727833
336.000000	2146.000000	5.725667
337.000000	2145.000000	5.790500
338.000000	2144.000000	5.813033
339.000000	2143.000000	5.785267
340.000000	2142.000000	5.828700
341.000000	2141.000000	5.809833
342.000000	2140.000000	5.831767
343.000000	2139.000000	5.853067
344.000000	2138.000000	5.779800
345.000000	2137.000000	5.744400
346.000000	2136.000000	5.769433
347.000000	2135.000000	5.849467
348.000000	2134.000000	5.906100
349.000000	2133.000000	5.883467
350.000000	2132.000000	5.880200
351.000000	2131.000000	5.833333
352.000000	2130.000000	5.864667
353.000000	2129.000000	5.904767
354.000000	2128.000000	5.929733
355.000000	2127.000000	6.007700
356.000000	2126.000000	6.021133
357.000000	2125.000000	6.027733
358.000000	2124.000000	6.057767
359.000000	2123.000000	6.128067
360.000000	2122.000000	6.153567
361.000000	2121.000000	6.168500
362.000000	2120.000000	6.205600
363.000000	2119.000000	6.225100
364.000000	2118.000000	6.257267
365.000000	2117.000000	6.284300
366.000000	2116.000000	6.356900
367.000000	2115.000000	6.415267
368.000000	2114.000000	6.378267
369.000000	2113.000000	6.395833
370.000000	2112.000000	6.472467
371.000000	2111.000000	6.485867
372.000000	2110.000000	6.455133
373.000000	2109.000000	6.449367
374.000000	2108.000000	6.537300
375.000000	2107.000000	6.621800
376.000000	2106.000000	6.664100
377.000000	2105.000000	6.706100
378.000000	2104.000000	6.747200
379.000000	2103.000000	6.792167
380.000000	2102.000000	6.850700
381.000000	2101.000000	6.908500
382.000000	2100.000000	6.969467
383.000000	2099.000000	7.032933
384.000000	2098.000000	7.105033
385.000000	2097.000000	7.185700
386.000000	2096.000000	7.255633
387.000000	2095.000000	7.325467
388.000000	2094.000000	7.409133
389.000000	2093.000000	7.503967
390.000000	2092.000000	7.598933
391.000000	2091.000000	7.707867
392.000000	2090.000000	7.821900
393.000000	2089.000000	7.937300
394.000000	2088.000000	8.058233
395.000000	2087.000000	8.185500
396.000000	2086.000000	8.333700
397.000000	2085.000000	8.478867
398.000000	2084.000000	8.646867
399.000000	2083.000000	8.820900
400.000000	2082.000000	9.024233
401.000000	2081.000000	9.222700
402.000000	2080.000000	9.436667
403.000000	2079.000000	9.686633
404.000000	2078.000000	9.926467
405.000000	2077.000000	10.200233
406.000000	2076.000000	10.469367
407.000000	2075.000000	10.744867
408.000000	2074.000000	11.061000
409.000000	2073.000000	11.380700
410.000000	2072.000000	11.711333
411.000000	2071.000000	12.068733
412.000000	2070.000000	12.433900
413.000000	2069.000000	12.806767
414.000000	2068.000000	13.192500
415.000000	2067.000000	13.596067
416.000000	2066.000000	14.009800
417.000000	2065.000000	14.432967
418.000000	2064.000000	14.847433
419.000000	2063.000000	15.267133
420.000000	2062.000000	15.706633
421.000000	2061.000000	16.132200
422.000000	2060.000000	16.576567
423.000000	2059.000000	17.000667
424.000000	2058.000000	17.452500
425.000000	2057.000000	17.887067
426.000000	2056.000000	18.341967
427.000000	2055.000000	18.763467
428.000000	2054.000000	19.169467
429.000000	2053.000000	19.592567
430.000000	2052.000000	20.020700
431.000000	2051.000000	20.402167
432.000000	2050.000000	20.810100
433.000000	2049.000000	21.221233
434.000000	2048.000000	21.593667
435.000000	2047.000000	21.987133
436.000000	2046.000000	22.329600
437.000000	2045.000000	22.677400
438.000000	2044.000000	23.041000
439.000000	2043.000000	23.370033
440.000000	2042.000000	23.689767
441.000000	2041.000000	24.006700
442.000000	2040.000000	24.298033
443.000000	2039.000000	24.619367
444.000000	2038.000000	24.871600
445.000000	2037.000000	25.126333
446.000000	2036.000000	25.356667
447.000000	2035.000000	25.619333
448.000000	2034.000000	25.832833
449.000000	2033.000000	26.037133
450.000000	2032.000000	26.244733
451.000000	2031.000000	26.422000
452.000000	2030.000000	26.599267
453.000000	2029.000000	26.751200
454.000000	2028.000000	26.880600
455.000000	2027.000000	27.007267
456.000000	2026.000000	27.122367
457.000000	2025.000000	27.214800
458.000000	2024.000000	27.326567
459.000000	2023.000000	27.393667
460.000000	2022.000000	27.442933
461.000000	2021.000000	27.512733
462.000000	2020.000000	27.541233
463.000000	2019.000000	27.548567
464.000000	2018.000000	27.587767
465.000000	2017.000000	27.598367
466.000000	2016.000000	27.584000
467.000000	2015.000000	27.578467
468.000000	2014.000000	27.554633
469.000000	2013.000000	27.547900
470.000000	2012.000000	27.502000
471.000000	2011.000000	27.468167
472.000000	2010.000000	27.442833
473.000000	2009.000000	27.412200
474.000000	2008.000000	27.390133
475.000000	2007.000000	27.360700
476.000000	2006.000000	27.345600
477.000000	2005.000000	27.344433
478.000000	2004.000000	27.355333
479.000000	2003.000000	27.379267
480.000000	2002.000000	27.401600
481.000000	2001.000000	27.465667
482.000000	2000.000000	27.539933
483.000000	1999.000000	27.643667
484.000000	1998.000000	27.752900
485.000000	1997.000000	27.908767
486.000000	1996.000000	28.079333
487.000000	1995.000000	28.261733
488.000000	1994.000000	28.458567
489.000000	1993.000000	28.696533
490.000000	1992.000000	28.981100
491.000000	1991.000000	29.276467
492.000000	1990.000000	29.577600
493.000000	1989.000000	29.941700
494.000000	1988.000000	30.274633
495.000000	1987.000000	30.662700
496.000000	1986.000000	31.079867
497.000000	1985.000000	31.494633
498.000000	1984.000000	31.934500
499.000000	1983.000000	32.416133
500.000000	1982.000000	32.890900
501.000000	1981.000000	33.381767
502.000000	1980.000000	33.904133
503.000000	1979.000000	34.426100
504.000000	1978.000000	34.927067
505.000000	1977.000000	35.480100
506.000000	1976.000000	36.036133
507.000000	1975.000000	36.607867
508.000000	1974.000000	37.198467
509.000000	1973.000000	37.827567
510.000000	1972.000000	38.489533
511.000000	1971.000000	39.187067
512.000000	1970.000000	39.932200
513.000000	1969.000000	40.709367
514.000000	1968.000000	41.533333
515.000000	1967.000000	42.374300
516.000000	1966.000000	43.246133
517.000000	1965.000000	44.186500
518.000000	1964.000000	45.157167
519.000000	1963.000000	46.161700
520.000000	1962.000000	47.224433
521.000000	1961.000000	48.305233
522.000000	1960.000000	49.444267
523.000000	1959.000000	50.602133
524.000000	1958.000000	51.797200
525.000000	1957.000000	53.012267
526.000000	1956.000000	54.227967
527.000000	1955.000000	55.466067
528.000000	1954.000000	56.697567
529.000000	1953.000000	57.942300
530.000000	1952.000000	59.204133
531.000000	1951.000000	60.453767
532.000000	1950.000000	61.687967
533.000000	1949.000000	62.915200
534.000000	1948.000000	64.117233
535.000000	1947.000000	65.288033
536.000000	1946.000000	66.425800
537.000000	1945.000000	67.509200
538.000000	1944.000000	68.558133
539.000000	1943.000000	69.557700
540.000000	1942.000000	70.547033
541.000000	1941.000000	71.480167
542.000000	1940.000000	72.400400
543.000000	1939.000000	73.269867
544.000000	1938.000000	74.099200
545.000000	1937.000000	74.900467
546.000000	1936.000000	75.637033
547.000000	1935.000000	76.364600
548.000000	1934.000000	77.034433
549.000000	1933.000000	77.683567
550.000000	1932.000000	78.344633
551.000000	1931.000000	78.940767
552.000000	1930.000000	79.504733
553.000000	1929.000000	80.058767
554.000000	1928.000000	80.620600
555.000000	1927.000000	81.126267
556.000000	1926.000000	81.583600
557.000000	1925.000000	82.049200
558.000000	1924.000000	82.478033
559.000000	1923.000000	82.886367
560.000000	1922.000000	83.293767
561.000000	1921.000000	83.665100
562.000000	1920.000000	84.017533
563.000000	1919.000000	84.374800
564.000000	1918.000000	84.703900
565.000000	1917.000000	85.042733
566.000000	1916.000000	85.328933
567.000000	1915.000000	85.637333
568.000000	1914.000000	85.922300
569.000000	1913.000000	86.183267
570.000000	1912.000000	86.441533
571.000000	1911.000000	86.710300
572.000000	1910.000000	86.943667
573.000000	1909.000000	87.191100
574.000000	1908.000000	87.407933
575.000000	1907.000000	87.609000
576.000000	1906.000000	87.774300
577.000000	1905.000000	87.962367
578.000000	1904.000000	88.121600
579.000000	1903.000000	88.255667
580.000000	1902.000000	88.389700
581.000000	1901.000000	88.468400
582.000000	1900.000000	88.584033
583.000000	1899.000000	88.624867
584.000000	1898.000000	88.651167
585.000000	1897.000000	88.680333
586.000000	1896.000000	88.710433
587.000000	1895.000000	88.695067
588.000000	1894.000000	88.644933
589.000000	1893.000000	88.629367
590.000000	1892.000000	88.573533
591.000000	1891.000000	88.482000
592.000000	1890.000000	88.388867
593.000000	1889.000000	88.277800
594.000000	1888.000000	88.152600
595.000000	1887.000000	88.004533
596.000000	1886.000000	87.827600
597.000000	1885.000000	87.657867
598.000000	1884.000000	87.440067
599.000000	1883.000000	87.225133
600.000000	1882.000000	87.006400
601.000000	1881.000000	86.744533
602.000000	1880.000000	86.486233
603.000000	1879.000000	86.196567
604.000000	1878.000000	85.882300
605.000000	1877.000000	85.548967
606.000000	1876.000000	85.190167
607.000000	1875.000000	84.819100
608.000000	1874.000000	84.376067
609.000000	1873.000000	83.918867
610.000000	1872.000000	83.449667
611.000000	1871.000000	82.914500
612.000000	1870.000000	82.321067
613.000000	1869.000000	81.691067
614.000000	1868.000000	81.039567
615.000000	1867.000000	80.342533
616.000000	1866.000000	79.612467
617.000000	1865.000000	78.862533
618.000000	1864.000000	78.041400
619.000000	1863.000000	77.204233
620.000000	1862.000000	76.363433
621.000000	1861.000000	75.471633
622.000000	1860.000000	74.541400
623.000000	1859.000000	73.575200
624.000000	1858.000000	72.586600
625.000000	1857.000000	71.553733
626.000000	1856.000000	70.504800
627.000000	1855.000000	69.441633
628.000000	1854.000000	68.329367
629.000000	1853.000000	67.188367
630.000000	1852.000000	66.032633
631.000000	1851.000000	64.862833
632.000000	1850.000000	63.716567
633.000000	1849.000000	62.560067
634.000000	1848.000000	61.445033
635.000000	1847.000000	60.386500
636.000000	1846.000000	59.372433
637.000000	1845.000000	58.437167
638.000000	1844.000000	57.579900
639.000000	1843.000000	56.797600
640.000000	1842.000000	56.132467
641.000000	1841.000000	55.582933
642.000000	1840.000000	55.147233
643.000000	1839.000000	54.845367
644.000000	1838.000000	54.665433
645.000000	1837.000000	54.599467
646.000000	1836.000000	54.649567
647.000000	1835.000000	54.831133
648.000000	1834.000000	55.137567
649.000000	1833.000000	55.524333
650.000000	1832.000000	56.032733
651.000000	1831.000000	56.639400
652.000000	1830.000000	57.343300
653.000000	1829.000000	58.140367
654.000000	1828.000000	58.961967
655.000000	1827.000000	59.794067
656.000000	1826.000000	60.647467
657.000000	1825.000000	61.559233
658.000000	1824.000000	62.459800
659.000000	1823.000000	63.330333
660.000000	1822.000000	64.224900
661.000000	1821.000000	65.141167
662.000000	1820.000000	66.034900
663.000000	1819.000000	66.887800
664.000000	1818.000000	67.704433
665.000000	1817.000000	68.508867
666.000000	1816.000000	69.279767
667.000000	1815.000000	70.054700
668.000000	1814.000000	70.780100
669.000000	1813.000000	71.451500
670.000000	1812.000000	72.102367
671.000000	1811.000000	72.753700
672.000000	1810.000000	73.384667
673.000000	1809.000000	73.985300
674.000000	1808.000000	74.555867
675.000000	1807.000000	75.083667
676.000000	1806.000000	75.568200
677.000000	1805.000000	76.033467
678.000000	1804.000000	76.477433
679.000000	1803.000000	76.895800
680.000000	1802.000000	77.255467
681.000000	1801.000000	77.592467
682.000000	1800.000000	77.886267
683.000000	1799.000000	78.173600
684.000000	1798.000000	78.447533
685.000000	1797.000000	78.676100
686.000000	1796.000000	78.832000
687.000000	1795.000000	79.032767
688.000000	1794.000000	79.174100
689.000000	1793.000000	79.285467
690.000000	1792.000000	79.406000
691.000000	1791.000000	79.526833
692.000000	1790.000000	79.596500
693.000000	1789.000000	79.644033
694.000000	1788.000000	79.696967
695.000000	1787.000000	79.729433
696.000000	1786.000000	79.782933
697.000000	1785.000000	79.862733
698.000000	1784.000000	79.944833
699.000000	1783.000000	80.001067
700.000000	1782.000000	80.053133
701.000000	1781.000000	80.140733
702.000000	1780.000000	80.253233
703.000000	1779.000000	80.407933
704.000000	1778.000000	80.557100
705.000000	1777.000000	80.761700
706.000000	1776.000000	80.932933
707.000000	1775.000000	81.149100
708.000000	1774.000000	81.423300
709.000000	1773.000000	81.673467
710.000000	1772.000000	81.967200
711.000000	1771.000000	82.292700
712.000000	1770.000000	82.606133
713.000000	1769.000000	82.987400
714.000000	1768.000000	83.329267
715.000000	1767.000000	83.690033
716.000000	1766.000000	84.149633
717.000000	1765.000000	84.479767
718.000000	1764.000000	84.862400
719.000000	1763.000000	85.267467
720.000000	1762.000000	85.661867
721.000000	1761.000000	86.053267
722.000000	1760.000000	86.450400
723.000000	1759.000000	86.838967
724.000000	1758.000000	87.227533
725.000000	1757.000000	87.609200
726.000000	1756.000000	87.916367
727.000000	1755.000000	88.302433
728.000000	1754.000000	88.666067
729.000000	1753.000000	88.936200
730.000000	1752.000000	89.218267
731.000000	1751.000000	89.521333
732.000000	1750.000000	89.822033
733.000000	1749.000000	90.059533
734.000000	1748.000000	90.324067
735.000000	1747.000000	90.527967
736.000000	1746.000000	90.760767
737.000000	1745.000000	90.898233
738.000000	1744.000000	91.127833
739.000000	1743.000000	91.333433
740.000000	1742.000000	91.477233
741.000000	1741.000000	91.639900
742.000000	1740.000000	91.788800
743.000000	1739.000000	91.866200
744.000000	1738.000000	91.904167
745.000000	1737.000000	92.086400
746.000000	1736.000000	92.129833
747.000000	1735.000000	92.249600
748.000000	1734.000000	92.308767
749.000000	1733.000000	92.378000
750.000000	1732.000000	92.424467
751.000000	1731.000000	92.511600
752.000000	1730.000000	92.580833
753.000000	1729.000000	92.564000
754.000000	1728.000000	92.665833
755.000000	1727.000000	92.778800
756.000000	1726.000000	92.745700
757.000000	1725.000000	92.729833
758.000000	1724.000000	92.693467
759.000000	1723.000000	92.695433
760.000000	1722.000000	92.752533
761.000000	1721.000000	92.765033
762.000000	1720.000000	92.756133
763.000000	1719.000000	92.810600
764.000000	1718.000000	92.700067
765.000000	1717.000000	92.545433
766.000000	1716.000000	92.507900
767.000000	1715.000000	92.429233
768.000000	1714.000000	92.294233
769.000000	1713.000000	92.259000
770.000000	1712.000000	92.175200
771.000000	1711.000000	91.974833
772.000000	1710.000000	91.867200
773.000000	1709.000000	91.727033
774.000000	1708.000000	91.599600
775.000000	1707.000000	91.518067
776.000000	1706.000000	91.334933
777.000000	1705.000000	91.105433
778.000000	1704.000000	90.976967
779.000000	1703.000000	90.992500
780.000000	1702.000000	90.790767
781.000000	1701.000000	90.620533
782.000000	1700.000000	90.499300
783.000000	1699.000000	90.420433
784.000000	1698.000000	90.204867
785.000000	1697.000000	90.132567
786.000000	1696.000000	90.006900
787.000000	1695.000000	89.999433
788.000000	1694.000000	89.899933
789.000000	1693.000000	89.861767
790.000000	1692.000000	89.603033
791.000000	1691.000000	89.610633
792.000000	1690.000000	89.330967
793.000000	1689.000000	89.160833
794.000000	1688.000000	89.067333
795.000000	1687.000000	89.011967
796.000000	1686.000000	88.805200
797.000000	1685.000000	88.602367
798.000000	1684.000000	88.439400
799.000000	1683.000000	88.111700
800.000000	1682.000000	87.849900
801.000000	1681.000000	87.411067
802.000000	1680.000000	87.191467
803.000000	1679.000000	86.937333
804.000000	1678.000000	86.625500
805.000000	1677.000000	86.149400
806.000000	1676.000000	85.819267
807.000000	1675.000000	85.510733
808.000000	1674.000000	85.049467
809.000000	1673.000000	84.667600
810.000000	1672.000000	84.160667
811.000000	1671.000000	83.780933
812.000000	1670.000000	83.374233
813.000000	1669.000000	82.852800
814.000000	1668.000000	82.507167
815.000000	1667.000000	82.078033
816.000000	1666.000000	81.696600
817.000000	1665.000000	81.255200
818.000000	1664.000000	80.831700
819.000000	1663.000000	80.525700
820.000000	1662.000000	79.997467
821.000000	1661.000000	79.579900
822.000000	1660.000000	79.231567
823.000000	1659.000000	78.922433
824.000000	1658.000000	78.496733
825.000000	1657.000000	78.202900
826.000000	1656.000000	78.004800
827.000000	1655.000000	77.767200
828.000000	1654.000000	77.393633
829.000000	1653.000000	77.318400
830.000000	1652.000000	76.932033
831.000000	1651.000000	76.684933
832.000000	1650.000000	76.407800
833.000000	1649.000000	76.443033
834.000000	1648.000000	76.156833
835.000000	1647.000000	76.113667
836.000000	1646.000000	75.951500
837.000000	1645.000000	75.875367
838.000000	1644.000000	75.651100
839.000000	1643.000000	75.580367
840.000000	1642.000000	75.645233
841.000000	1641.000000	75.489533
842.000000	1640.000000	75.299833
843.000000	1639.000000	75.318467
844.000000	1638.000000	75.065467
845.000000	1637.000000	74.928367
846.000000	1636.000000	75.189700
847.000000	1635.000000	75.123600
848.000000	1634.000000	74.912200
849.000000	1633.000000	74.645433
850.000000	1632.000000	74.694500
851.000000	1631.000000	74.732867
852.000000	1630.000000	74.521700
853.000000	1629.000000	74.533767
854.000000	1628.000000	74.422967
855.000000	1627.000000	74.088167
856.000000	1626.000000	73.874300
857.000000	1625.000000	73.716100
858.000000	1624.000000	73.892855
859.000000	1623.000000	73.755406
860.000000	1622.000000	73.622171
861.000000	1621.000000	73.494317
862.000000	1620.000000	73.354490
863.000000	1619.000000	73.210248
864.000000	1618.000000	73.082895
865.000000	1617.000000	72.947733
866.000000	1616.000000	72.817140
867.000000	1615.000000	72.666516
868.000000	1614.000000	72.561034
869.000000	1613.000000	72.452730
870.000000	1612.000000	72.396215
871.000000	1611.000000	72.389938
872.000000	1610.000000	72.426724
873.000000	1609.000000	72.483397
874.000000	1608.000000	72.562123
875.000000	1607.000000	72.600428
876.000000	1606.000000	72.604150
877.000000	1605.000000	72.591445
878.000000	1604.000000	72.567280
879.000000	1603.000000	72.539779
880.000000	1602.000000	72.497015
881.000000	1601.000000	72.461718
882.000000	1600.000000	72.405638
883.000000	1599.000000	72.369554
884.000000	1598.000000	72.312037
885.000000	1597.000000	72.260231
886.000000	1596.000000	72.209406
887.000000	1595.000000	72.147123
888.000000	1594.000000	72.083993
889.000000	1593.000000	72.020842
890.000000	1592.000000	71.966018
891.000000	1591.000000	71.900150
892.000000	1590.000000	71.820158
893.000000	1589.000000	71.742779
894.000000	1588.000000	71.641683
895.000000	1587.000000	71.553372
896.000000	1586.000000	71.451465
897.000000	1585.000000	71.339758
898.000000	1584.000000	71.217599
899.000000	1583.000000	71.093474
900.000000	1582.000000	70.967645
901.000000	1581.000000	70.833000
902.000000	1580.000000	70.697285
903.000000	1579.000000	70.561265
904.000000	1578.000000	70.426948
905.000000	1577.000000	70.290694
906.000000	1576.000000	70.166467
907.000000	1575.000000	70.033113
908.000000	1574.000000	69.897892
909.000000	1573.000000	69.767717
910.000000	1572.000000	69.647269
911.000000	1571.000000	69.524637
912.000000	1570.000000	69.412171
913.000000	1569.000000	69.285514
914.000000	1568.000000	69.150003
915.000000	1567.000000	69.027993
916.000000	1566.000000	68.913705
917.000000	1565.000000	68.790324
918.000000	1564.000000	68.674370
919.000000	1563.000000	68.552519
920.000000	1562.000000	68.428629
921.000000	1561.000000	68.303934
922.000000	1560.000000	68.178187
923.000000	1559.000000	68.043659
924.000000	1558.000000	67.906432
925.000000	1557.000000	67.775496
926.000000	1556.000000	67.645170
927.000000	1555.000000	67.521854
928.000000	1554.000000	67.395939
929.000000	1553.000000	67.246246
930.000000	1552.000000	67.112761
931.000000	1551.000000	66.978656
932.000000	1550.000000	66.837662
933.000000	1549.000000	66.697399
934.000000	1548.000000	66.550235
935.000000	1547.000000	66.408649
936.000000	1546.000000	66.270224
937.000000	1545.000000	66.118958
938.000000	1544.000000	65.978021
939.000000	1543.000000	65.840545
940.000000	1542.000000	65.702303
941.000000	1541.000000	65.557593
942.000000	1540.000000	65.411287
943.000000	1539.000000	65.271533
944.000000	1538.000000	65.123804
945.000000	1537.000000	64.968059
946.000000	1536.000000	64.812961
947.000000	1535.000000	64.656207
948.000000	1534.000000	64.500819
949.000000	1533.000000	64.345653
950.000000	1532.000000	64.187650
951.000000	1531.000000	64.025482
952.000000	1530.000000	63.862829
953.000000	1529.000000	63.703408
954.000000	1528.000000	63.551584
955.000000	1527.000000	63.400817
956.000000	1526.000000	63.253623
957.000000	1525.000000	63.101672
958.000000	1524.000000	62.946804
959.000000	1523.000000	62.800694
960.000000	1522.000000	62.659691
961.000000	1521.000000	62.516293
962.000000	1520.000000	62.374550
963.000000	1519.000000	62.240299
964.000000	1518.000000	62.107798
965.000000	1517.000000	61.986179
966.000000	1516.000000	61.863662
967.000000	1515.000000	61.735284
968.000000	1514.000000	61.621718
969.000000	1513.000000	61.507633
970.000000	1512.000000	61.395987
971.000000	1511.000000	61.284331
972.000000	1510.000000	61.162203
973.000000	1509.000000	61.059346
974.000000	1508.000000	60.953659
975.000000	1507.000000	60.848773
976.000000	1506.000000	60.738858
977.000000	1505.000000	60.628262
978.000000	1504.000000	60.534104
979.000000	1503.000000	60.437079
980.000000	1502.000000	60.335512
981.000000	1501.000000	60.241699
982.000000	1500.000000	60.154912
983.000000	1499.000000	60.063992
984.000000	1498.000000	59.973549
985.000000	1497.000000	59.892433
986.000000	1496.000000	59.806173
987.000000	1495.000000	59.728102
988.000000	1494.000000	59.649984
989.000000	1493.000000	59.577016
990.000000	1492.000000	59.509074
991.000000	1491.000000	59.449009
992.000000	1490.000000	59.383495
993.000000	1489.000000	59.326496
994.000000	1488.000000	59.275935
995.000000	1487.000000	59.222563
996.000000	1486.000000	59.175059
997.000000	1485.000000	59.136105
998.000000	1484.000000	59.085840
999.000000	1483.000000	59.053111
1000.000000	1482.000000	59.023245
1001.000000	1481.000000	58.993850
1002.000000	1480.000000	58.967159
1003.000000	1479.000000	58.932912
1004.000000	1478.000000	58.901187
1005.000000	1477.000000	58.882272
1006.000000	1476.000000	58.844256
1007.000000	1475.000000	58.820048
1008.000000	1474.000000	58.804613
1009.000000	1473.000000	58.797635
1010.000000	1472.000000	58.771739
1011.000000	1471.000000	58.769564
1012.000000	1470.000000	58.768197
1013.000000	1469.000000	58.781997
1014.000000	1468.000000	58.784462
1015.000000	1467.000000	58.814084
1016.000000	1466.000000	58.835662
1017.000000	1465.000000	58.857355
1018.000000	1464.000000	58.888524
1019.000000	1463.000000	58.925674
1020.000000	1462.000000	58.965981
1021.000000	1461.000000	59.006228
1022.000000	1460.000000	59.046938
1023.000000	1459.000000	59.096721
1024.000000	1458.000000	59.145324
1025.000000	1457.000000	59.188164
1026.000000	1456.000000	59.235509
1027.000000	1455.000000	59.287707
1028.000000	1454.000000	59.333503
1029.000000	1453.000000	59.379549
1030.000000	1452.000000	59.411659
1031.000000	1451.000000	59.461095
1032.000000	1450.000000	59.494721
1033.000000	1449.000000	59.539430
1034.000000	1448.000000	59.579760
1035.000000	1447.000000	59.629844
1036.000000	1446.000000	59.658651
1037.000000	1445.000000	59.704663
1038.000000	1444.000000	59.743590
1039.000000	1443.000000	59.777918
1040.000000	1442.000000	59.817855
1041.000000	1441.000000	59.858711
1042.000000	1440.000000	59.889628
1043.000000	1439.000000	59.934946
1044.000000	1438.000000	59.974391
1045.000000	1437.000000	60.018669
1046.000000	1436.000000	60.059221
1047.000000	1435.000000	60.102990
1048.000000	1434.000000	60.148384
1049.000000	1433.000000	60.193606
1050.000000	1432.000000	60.239023
1051.000000	1431.000000	60.293829
1052.000000	1430.000000	60.354523
1053.000000	1429.000000	60.405476
1054.000000	1428.000000	60.464543
1055.000000	1427.000000	60.521983
1056.000000	1426.000000	60.580021
1057.000000	1425.000000	60.640169
1058.000000	1424.000000	60.706167
1059.000000	1423.000000	60.757117
1060.000000	1422.000000	60.810053
1061.000000	1421.000000	60.874171
1062.000000	1420.000000	60.926316
1063.000000	1419.000000	60.971652
1064.000000	1418.000000	61.029210
1065.000000	1417.000000	61.077402
1066.000000	1416.000000	61.128949
1067.000000	1415.000000	61.171275
1068.000000	1414.000000	61.225035
1069.000000	1413.000000	61.276591
1070.000000	1412.000000	61.322432
1071.000000	1411.000000	61.374929
1072.000000	1410.000000	61.417881
1073.000000	1409.000000	61.459075
1074.000000	1408.000000	61.510061
1075.000000	1407.000000	61.561528
1076.000000	1406.000000	61.609478
1077.000000	1405.000000	61.643954
1078.000000	1404.000000	61.700395
1079.000000	1403.000000	61.746345
1080.000000	1402.000000	61.788812
1081.000000	1401.000000	61.842818
1082.000000	1400.000000	61.875482
1083.000000	1399.000000	61.931945
1084.000000	1398.000000	61.972713
1085.000000	1397.000000	62.017533
1086.000000	1396.000000	62.055824
1087.000000	1395.000000	62.109361
1088.000000	1394.000000	62.153754
1089.000000	1393.000000	62.187987
1090.000000	1392.000000	62.230722
1091.000000	1391.000000	62.263680
1092.000000	1390.000000	62.294747
1093.000000	1389.000000	62.341991
1094.000000	1388.000000	62.363999
1095.000000	1387.000000	62.404634
1096.000000	1386.000000	62.416659
1097.000000	1385.000000	62.444706
1098.000000	1384.000000	62.468668
1099.000000	1383.000000	62.489075
1100.000000	1382.000000	62.500103
1101.000000	1381.000000	62.513417
1102.000000	1380.000000	62.553474
1103.000000	1379.000000	62.548098
1104.000000	1378.000000	62.559265
1105.000000	1377.000000	62.566307
1106.000000	1376.000000	62.575017
1107.000000	1375.000000	62.588569
1108.000000	1374.000000	62.598541
1109.000000	1373.000000	62.611640
1110.000000	1372.000000	62.620266
1111.000000	1371.000000	62.625245
1112.000000	1370.000000	62.627470
1113.000000	1369.000000	62.633649
1114.000000	1368.000000	62.636194
1115.000000	1367.000000	62.634788
1116.000000	1366.000000	62.641624
1117.000000	1365.000000	62.629225
1118.000000	1364.000000	62.601536
1119.000000	1363.000000	62.575738
1120.000000	1362.000000	62.520416
1121.000000	1361.000000	62.475414
1122.000000	1360.000000	62.412899
1123.000000	1359.000000	62.320385
1124.000000	1358.000000	62.230894
1125.000000	1357.000000	62.123595
1126.000000	1356.000000	61.991135
1127.000000	1355.000000	61.830695
1128.000000	1354.000000	61.643165
1129.000000	1353.000000	61.396673
1130.000000	1352.000000	61.120204
1131.000000	1351.000000	60.818444
1132.000000	1350.000000	60.475933
1133.000000	1349.000000	60.147615
1134.000000	1348.000000	59.759738
1135.000000	1347.000000	59.339803
1136.000000	1346.000000	58.930857
1137.000000	1345.000000	58.538897
1138.000000	1344.000000	58.155175
1139.000000	1343.000000	57.799085
1140.000000	1342.000000	57.453508
1141.000000	1341.000000	57.110903
1142.000000	1340.000000	56.785259
1143.000000	1339.000000	56.494736
1144.000000	1338.000000	56.258382
1145.000000	1337.000000	56.052852
1146.000000	1336.000000	55.903321
1147.000000	1335.000000	55.807078
1148.000000	1334.000000	55.738065
1149.000000	1333.000000	55.688743
1150.000000	1332.000000	55.625761
1151.000000	1331.000000	55.553258
1152.000000	1330.000000	55.456192
1153.000000	1329.000000	55.326813
1154.000000	1328.000000	55.133741
1155.000000	1327.000000	54.908511
1156.000000	1326.000000	54.642287
1157.000000	1325.000000	54.354485
1158.000000	1324.000000	54.034787
1159.000000	1323.000000	53.707571
1160.000000	1322.000000	53.365779
1161.000000	1321.000000	53.034712
1162.000000	1320.000000	52.670172
1163.000000	1319.000000	52.322024
1164.000000	1318.000000	51.979948
1165.000000	1317.000000	51.643343
1166.000000	1316.000000	51.312486
1167.000000	1315.000000	50.977695
1168.000000	1314.000000	50.653086
1169.000000	1313.000000	50.346084
1170.000000	1312.000000	50.035751
1171.000000	1311.000000	49.739184
1172.000000	1310.000000	49.442712
1173.000000	1309.000000	49.157789
1174.000000	1308.000000	48.869976
1175.000000	1307.000000	48.586179
1176.000000	1306.000000	48.267653
1177.000000	1305.000000	47.910039
1178.000000	1304.000000	47.511359
1179.000000	1303.000000	47.066860
1180.000000	1302.000000	46.610994
1181.000000	1301.000000	46.176105
1182.000000	1300.000000	45.795532
1183.000000	1299.000000	45.510688
1184.000000	1298.000000	45.343755
1185.000000	1297.000000	45.281576
1186.000000	1296.000000	45.329568
1187.000000	1295.000000	45.492733
1188.000000	1294.000000	45.759533
1189.000000	1293.000000	46.091633
1190.000000	1292.000000	46.464318
1191.000000	1291.000000	46.857330
1192.000000	1290.000000	47.222058
1193.000000	1289.000000	47.537005
1194.000000	1288.000000	47.804138
1195.000000	1287.000000	48.016395
1196.000000	1286.000000	48.172353
1197.000000	1285.000000	48.296671
1198.000000	1284.000000	48.385196
1199.000000	1283.000000	48.445829
1200.000000	1282.000000	48.497356
1201.000000	1281.000000	48.533275
1202.000000	1280.000000	48.569606
1203.000000	1279.000000	48.611191
1204.000000	1278.000000	48.651470
1205.000000	1277.000000	48.702191
1206.000000	1276.000000	48.779946
1207.000000	1275.000000	48.867507
1208.000000	1274.000000	48.956608
1209.000000	1273.000000	49.054248
1210.000000	1272.000000	49.161054
1211.000000	1271.000000	49.284659
1212.000000	1270.000000	49.400224
1213.000000	1269.000000	49.515641
1214.000000	1268.000000	49.646510
1215.000000	1267.000000	49.780232
1216.000000	1266.000000	49.915279
1217.000000	1265.000000	50.059134
1218.000000	1264.000000	50.198590
1219.000000	1263.000000	50.350450
1220.000000	1262.000000	50.509296
1221.000000	1261.000000	50.670355
1222.000000	1260.000000	50.838252
1223.000000	1259.000000	51.006481
1224.000000	1258.000000	51.173978
1225.000000	1257.000000	51.348084
1226.000000	1256.000000	51.513896
1227.000000	1255.000000	51.674512
1228.000000	1254.000000	51.847325
1229.000000	1253.000000	52.009495
1230.000000	1252.000000	52.165176
1231.000000	1251.000000	52.324726
1232.000000	1250.000000	52.479544
1233.000000	1249.000000	52.636419
1234.000000	1248.000000	52.787549
1235.000000	1247.000000	52.925501
1236.000000	1246.000000	53.061111
1237.000000	1245.000000	53.206563
1238.000000	1244.000000	53.346474
1239.000000	1243.000000	53.475837
1240.000000	1242.000000	53.600217
1241.000000	1241.000000	53.724912
1242.000000	1240.000000	53.838311
1243.000000	1239.000000	53.956232
1244.000000	1238.000000	54.074708
1245.000000	1237.000000	54.170544
1246.000000	1236.000000	54.274600
1247.000000	1235.000000	54.368449
1248.000000	1234.000000	54.451234
1249.000000	1233.000000	54.529993
1250.000000	1232.000000	54.605211
1251.000000	1231.000000	54.672643
1252.000000	1230.000000	54.735797
1253.000000	1229.000000	54.797974
1254.000000	1228.000000	54.853469
1255.000000	1227.000000	54.900158
1256.000000	1226.000000	54.945221
1257.000000	1225.000000	55.004160
1258.000000	1224.000000	55.052534
1259.000000	1223.000000	55.083655
1260.000000	1222.000000	55.127710
1261.000000	1221.000000	55.176942
1262.000000	1220.000000	55.213318
1263.000000	1219.000000	55.254026
1264.000000	1218.000000	55.301400
1265.000000	1217.000000	55.341204
1266.000000	1216.000000	55.388580
1267.000000	1215.000000	55.428882
1268.000000	1214.000000	55.462243
1269.000000	1213.000000	55.502917
1270.000000	1212.000000	55.549409
1271.000000	1211.000000	55.580325
1272.000000	1210.000000	55.603503
1273.000000	1209.000000	55.646682
1274.000000	1208.000000	55.687251
1275.000000	1207.000000	55.731053
1276.000000	1206.000000	55.783704
1277.000000	1205.000000	55.835861
1278.000000	1204.000000	55.890758
1279.000000	1203.000000	55.945825
1280.000000	1202.000000	55.994665
1281.000000	1201.000000	56.055794
1282.000000	1200.000000	56.109997
1283.000000	1199.000000	56.159383
1284.000000	1198.000000	56.213822
1285.000000	1197.000000	56.259767
1286.000000	1196.000000	56.296692
1287.000000	1195.000000	56.339844
1288.000000	1194.000000	56.372204
1289.000000	1193.000000	56.390796
1290.000000	1192.000000	56.407612
1291.000000	1191.000000	56.406421
1292.000000	1190.000000	56.415879
1293.000000	1189.000000	56.419221
1294.000000	1188.000000	56.418122
1295.000000	1187.000000	56.405932
1296.000000	1186.000000	56.390882
1297.000000	1185.000000	56.376962
1298.000000	1184.000000	56.356450
1299.000000	1183.000000	56.329522
1300.000000	1182.000000	56.303088
1301.000000	1181.000000	56.270430
1302.000000	1180.000000	56.232230
1303.000000	1179.000000	56.192203
1304.000000	1178.000000	56.148915
1305.000000	1177.000000	56.083450
1306.000000	1176.000000	56.019488
1307.000000	1175.000000	55.954643
1308.000000	1174.000000	55.878037
1309.000000	1173.000000	55.789966
1310.000000	1172.000000	55.696696
1311.000000	1171.000000	55.595144
1312.000000	1170.000000	55.498852
1313.000000	1169.000000	55.387149
1314.000000	1168.000000	55.280607
1315.000000	1167.000000	55.156380
1316.000000	1166.000000	55.025961
1317.000000	1165.000000	54.900357
1318.000000	1164.000000	54.757746
1319.000000	1163.000000	54.636712
1320.000000	1162.000000	54.493599
1321.000000	1161.000000	54.349569
1322.000000	1160.000000	54.190244
1323.000000	1159.000000	54.029501
1324.000000	1158.000000	53.860279
1325.000000	1157.000000	53.678581
1326.000000	1156.000000	53.494814
1327.000000	1155.000000	53.300170
1328.000000	1154.000000	53.112677
1329.000000	1153.000000	52.912204
1330.000000	1152.000000	52.685231
1331.000000	1151.000000	52.456995
1332.000000	1150.000000	52.241158
1333.000000	1149.000000	51.996691
1334.000000	1148.000000	51.746531
1335.000000	1147.000000	51.503474
1336.000000	1146.000000	51.237249
1337.000000	1145.000000	50.968751
1338.000000	1144.000000	50.702471
1339.000000	1143.000000	50.428691
1340.000000	1142.000000	50.148460
1341.000000	1141.000000	49.856914
1342.000000	1140.000000	49.556786
1343.000000	1139.000000	49.271082
1344.000000	1138.000000	48.945189
1345.000000	1137.000000	48.604762
1346.000000	1136.000000	48.297725
1347.000000	1135.000000	47.948943
1348.000000	1134.000000	47.579874
1349.000000	1133.000000	47.191735
1350.000000	1132.000000	46.765306
1351.000000	1131.000000	46.304196
1352.000000	1130.000000	45.819029
1353.000000	1129.000000	45.463886
1354.000000	1128.000000	45.088766
1355.000000	1127.000000	44.763101
1356.000000	1126.000000	44.520621
1357.000000	1125.000000	44.389865
1358.000000	1124.000000	44.283351
1359.000000	1123.000000	44.180723
1360.000000	1122.000000	44.172839
1361.000000	1121.000000	44.038818
1362.000000	1120.000000	43.878987
1363.000000	1119.000000	43.690265
1364.000000	1118.000000	43.517196
1365.000000	1117.000000	43.311356
1366.000000	1116.000000	43.122051
1367.000000	1115.000000	42.894604
1368.000000	1114.000000	42.626503
1369.000000	1113.000000	42.319510
1370.000000	1112.000000	42.027513
1371.000000	1111.000000	41.687338
1372.000000	1110.000000	41.363650
1373.000000	1109.000000	41.065848
1374.000000	1108.000000	40.823373
1375.000000	1107.000000	40.606594
1376.000000	1106.000000	40.438399
1377.000000	1105.000000	40.261050
1378.000000	1104.000000	40.110035
1379.000000	1103.000000	39.892312
1380.000000	1102.000000	39.648363
1381.000000	1101.000000	39.297832
1382.000000	1100.000000	38.858859
1383.000000	1099.000000	38.344270
1384.000000	1098.000000	37.837249
1385.000000	1097.000000	37.370706
1386.000000	1096.000000	36.939685
1387.000000	1095.000000	36.540455
1388.000000	1094.000000	36.145238
1389.000000	1093.000000	35.777364
1390.000000	1092.000000	35.491045
1391.000000	1091.000000	35.200815
1392.000000	1090.000000	34.900199
1393.000000	1089.000000	34.644037
1394.000000	1088.000000	34.426247
1395.000000	1087.000000	34.138985
1396.000000	1086.000000	33.765142
1397.000000	1085.000000	33.444666
1398.000000	1084.000000	33.184898
1399.000000	1083.000000	32.892480
1400.000000	1082.000000	32.508733
1401.000000	1081.000000	32.078827
1402.000000	1080.000000	31.701178
1403.000000	1079.000000	31.319592
1404.000000	1078.000000	30.942527
1405.000000	1077.000000	30.557321
1406.000000	1076.000000	30.179226
1407.000000	1075.000000	29.838253
1408.000000	1074.000000	29.469142
1409.000000	1073.000000	29.118625
1410.000000	1072.000000	28.762200
1411.000000	1071.000000	28.450562
1412.000000	1070.000000	28.202788
1413.000000	1069.000000	27.950622
1414.000000	1068.000000	27.695075
1415.000000	1067.000000	27.398046
1416.000000	1066.000000	27.147394
1417.000000	1065.000000	26.940869
1418.000000	1064.000000	26.707246
1419.000000	1063.000000	26.481777
1420.000000	1062.000000	26.236774
1421.000000	1061.000000	26.009089
1422.000000	1060.000000	25.818088
1423.000000	1059.000000	25.616432
1424.000000	1058.000000	25.410818
1425.000000	1057.000000	25.217715
1426.000000	1056.000000	25.030935
1427.000000	1055.000000	24.866711
1428.000000	1054.000000	24.705893
1429.000000	1053.000000	24.550421
1430.000000	1052.000000	24.422000
1431.000000	1051.000000	24.288457
1432.000000	1050.000000	24.169127
1433.000000	1049.000000	24.029327
1434.000000	1048.000000	23.903400
1435.000000	1047.000000	23.789796
1436.000000	1046.000000	23.681654
1437.000000	1045.000000	23.574227
1438.000000	1044.000000	23.464614
1439.000000	1043.000000	23.354688
1440.000000	1042.000000	23.247070
1441.000000	1041.000000	23.151731
1442.000000	1040.000000	23.031265
1443.000000	1039.000000	22.934019
1444.000000	1038.000000	22.857619
1445.000000	1037.000000	22.770751
1446.000000	1036.000000	22.670805
1447.000000	1035.000000	22.568001
1448.000000	1034.000000	22.477098
1449.000000	1033.000000	22.411115
1450.000000	1032.000000	22.344805
1451.000000	1031.000000	22.256205
1452.000000	1030.000000	22.167249
1453.000000	1029.000000	22.091805
1454.000000	1028.000000	22.022466
1455.000000	1027.000000	21.956544
1456.000000	1026.000000	21.888967
1457.000000	1025.000000	21.831685
1458.000000	1024.000000	21.779835
1459.000000	1023.000000	21.724865
1460.000000	1022.000000	21.669302
1461.000000	1021.000000	21.637732
1462.000000	1020.000000	21.607576
1463.000000	1019.000000	21.571362
1464.000000	1018.000000	21.535748
1465.000000	1017.000000	21.515352
1466.000000	1016.000000	21.489479
1467.000000	1015.000000	21.467130
1468.000000	1014.000000	21.448069
1469.000000	1013.000000	21.440843
1470.000000	1012.000000	21.434840
1471.000000	1011.000000	21.424312
1472.000000	1010.000000	21.414750
1473.000000	1009.000000	21.389377
1474.000000	1008.000000	21.374079
1475.000000	1007.000000	21.374448
1476.000000	1006.000000	21.372332
1477.000000	1005.000000	21.359858
1478.000000	1004.000000	21.357121
1479.000000	1003.000000	21.366790
1480.000000	1002.000000	21.382387
1481.000000	1001.000000	21.391451
1482.000000	1000.000000	21.395849
1483.000000	999.000000	21.407047
1484.000000	998.000000	21.432135
1485.000000	997.000000	21.461879
1486.000000	996.000000	21.483321
1487.000000	995.000000	21.506970
1488.000000	994.000000	21.526010
1489.000000	993.000000	21.545953
1490.000000	992.000000	21.572822
1491.000000	991.000000	21.599151
1492.000000	990.000000	21.629073
1493.000000	989.000000	21.662156
1494.000000	988.000000	21.690764
1495.000000	987.000000	21.723335
1496.000000	986.000000	21.771316
1497.000000	985.000000	21.816705
1498.000000	984.000000	21.853377
1499.000000	983.000000	21.898062
1500.000000	982.000000	21.944532
1501.000000	981.000000	21.990732
1502.000000	980.000000	22.045493
1503.000000	979.000000	22.099426
1504.000000	978.000000	22.150233
1505.000000	977.000000	22.207372
1506.000000	976.000000	22.259696
1507.000000	975.000000	22.318120
1508.000000	974.000000	22.380719
1509.000000	973.000000	22.435944
1510.000000	972.000000	22.485082
1511.000000	971.000000	22.539608
1512.000000	970.000000	22.599700
1513.000000	969.000000	22.651025
1514.000000	968.000000	22.704588
1515.000000	967.000000	22.758403
1516.000000	966.000000	22.805884
1517.000000	965.000000	22.849466
1518.000000	964.000000	22.896357
1519.000000	963.000000	22.944131
1520.000000	962.000000	22.987917
1521.000000	961.000000	23.032276
1522.000000	960.000000	23.075553
1523.000000	959.000000	23.121764
1524.000000	958.000000	23.168385
1525.000000	957.000000	23.205912
1526.000000	956.000000	23.245503
1527.000000	955.000000	23.274366
1528.000000	954.000000	23.307796
1529.000000	953.000000	23.345169
1530.000000	952.000000	23.378533
1531.000000	951.000000	23.406781
1532.000000	950.000000	23.440022
1533.000000	949.000000	23.468858
1534.000000	948.000000	23.491250
1535.000000	947.000000	23.507894
1536.000000	946.000000	23.525786
1537.000000	945.000000	23.545219
1538.000000	944.000000	23.560199
1539.000000	943.000000	23.578526
1540.000000	942.000000	23.591434
1541.000000	941.000000	23.607415
1542.000000	940.000000	23.620710
1543.000000	939.000000	23.638106
1544.000000	938.000000	23.652298
1545.000000	937.000000	23.674467
1546.000000	936.000000	23.693937
1547.000000	935.000000	23.717451
1548.000000	934.000000	23.743781
1549.000000	933.000000	23.769346
1550.000000	932.000000	23.795359
1551.000000	931.000000	23.810517
1552.000000	930.000000	23.826152
1553.000000	929.000000	23.845629
1554.000000	928.000000	23.861959
1555.000000	927.000000	23.884159
1556.000000	926.000000	23.894266
1557.000000	925.000000	23.894889
1558.000000	924.000000	23.897822
1559.000000	923.000000	23.896608
1560.000000	922.000000	23.892804
1561.000000	921.000000	23.886620
1562.000000	920.000000	23.891062
1563.000000	919.000000	23.884604
1564.000000	918.000000	23.877003
1565.000000	917.000000	23.875225
1566.000000	916.000000	23.864522
1567.000000	915.000000	23.856591
1568.000000	914.000000	23.849118
1569.000000	913.000000	23.843119
1570.000000	912.000000	23.843261
1571.000000	911.000000	23.851546
1572.000000	910.000000	23.853055
1573.000000	909.000000	23.861030
1574.000000	908.000000	23.861678
1575.000000	907.000000	23.877954
1576.000000	906.000000	23.888479
1577.000000	905.000000	23.903689
1578.000000	904.000000	23.929679
1579.000000	903.000000	23.954774
1580.000000	902.000000	23.982588
1581.000000	901.000000	24.012547
1582.000000	900.000000	24.049776
1583.000000	899.000000	24.092701
1584.000000	898.000000	24.122703
1585.000000	897.000000	24.153645
1586.000000	896.000000	24.206105
1587.000000	895.000000	24.257959
1588.000000	894.000000	24.305711
1589.000000	893.000000	24.352659
1590.000000	892.000000	24.392469
1591.000000	891.000000	24.443510
1592.000000	890.000000	24.493881
1593.000000	889.000000	24.545554
1594.000000	888.000000	24.600677
1595.000000	887.000000	24.653455
1596.000000	886.000000	24.722450
1597.000000	885.000000	24.792868
1598.000000	884.000000	24.846089
1599.000000	883.000000	24.915834
1600.000000	882.000000	24.979018
1601.000000	881.000000	25.042499
1602.000000	880.000000	25.114544
1603.000000	879.000000	25.170331
1604.000000	878.000000	25.245443
1605.000000	877.000000	25.307885
1606.000000	876.000000	25.386584
1607.000000	875.000000	25.448351
1608.000000	874.000000	25.513753
1609.000000	873.000000	25.576441
1610.000000	872.000000	25.642229
1611.000000	871.000000	25.704517
1612.000000	870.000000	25.778217
1613.000000	869.000000	25.846443
1614.000000	868.000000	25.909773
1615.000000	867.000000	25.975597
1616.000000	866.000000	26.047645
1617.000000	865.000000	26.112785
1618.000000	864.000000	26.186349
1619.000000	863.000000	26.259232
1620.000000	862.000000	26.320259
1621.000000	861.000000	26.396822
1622.000000	860.000000	26.472662
1623.000000	859.000000	26.535115
1624.000000	858.000000	26.615426
1625.000000	857.000000	26.686657
1626.000000	856.000000	26.766546
1627.000000	855.000000	26.840186
1628.000000	854.000000	26.905662
1629.000000	853.000000	26.987017
1630.000000	852.000000	27.054490
1631.000000	851.000000	27.132548
1632.000000	850.000000	27.199810
1633.000000	849.000000	27.261861
1634.000000	848.000000	27.332639
1635.000000	847.000000	27.386858
1636.000000	846.000000	27.456794
1637.000000	845.000000	27.499938
1638.000000	844.000000	27.575299
1639.000000	843.000000	27.621133
1640.000000	842.000000	27.665142
1641.000000	841.000000	27.716395
1642.000000	840.000000	27.771791
1643.000000	839.000000	27.815492
1644.000000	838.000000	27.852019
1645.000000	837.000000	27.894451
1646.000000	836.000000	27.932469
1647.000000	835.000000	27.967549
1648.000000	834.000000	28.015481
1649.000000	833.000000	28.037751
1650.000000	832.000000	28.053451
1651.000000	831.000000	28.065496
1652.000000	830.000000	28.087232
1653.000000	829.000000	28.075343
1654.000000	828.000000	28.079149
1655.000000	827.000000	28.075710
1656.000000	826.000000	28.050806
1657.000000	825.000000	28.024366
1658.000000	824.000000	27.995158
1659.000000	823.000000	27.939614
1660.000000	822.000000	27.904601
1661.000000	821.000000	27.827534
1662.000000	820.000000	27.779792
1663.000000	819.000000	27.700911
1664.000000	818.000000	27.599620
1665.000000	817.000000	27.494884
1666.000000	816.000000	27.400861
1667.000000	815.000000	27.289851
1668.000000	814.000000	27.150132
1669.000000	813.000000	26.992846
1670.000000	812.000000	26.819517
1671.000000	811.000000	26.617147
1672.000000	810.000000	26.374832
1673.000000	809.000000	26.093128
1674.000000	808.000000	25.781821
1675.000000	807.000000	25.433788
1676.000000	806.000000	25.036571
1677.000000	805.000000	24.588457
1678.000000	804.000000	24.135969
1679.000000	803.000000	23.675774
1680.000000	802.000000	23.246779
1681.000000	801.000000	22.888477
1682.000000	800.000000	22.612507
1683.000000	799.000000	22.453769
1684.000000	798.000000	22.341679
1685.000000	797.000000	22.293187
1686.000000	796.000000	22.272224
1687.000000	795.000000	22.231491
1688.000000	794.000000	22.156330
1689.000000	793.000000	22.065862
1690.000000	792.000000	21.942905
1691.000000	791.000000	21.811278
1692.000000	790.000000	21.711681
1693.000000	789.000000	21.638224
1694.000000	788.000000	21.612348
1695.000000	787.000000	21.640100
1696.000000	786.000000	21.717013
1697.000000	785.000000	21.833173
1698.000000	784.000000	21.968398
1699.000000	783.000000	22.098614
1700.000000	782.000000	22.239884
1701.000000	781.000000	22.371135
1702.000000	780.000000	22.459029
1703.000000	779.000000	22.533361
1704.000000	778.000000	22.596882
1705.000000	777.000000	22.636605
1706.000000	776.000000	22.671573
1707.000000	775.000000	22.689071
1708.000000	774.000000	22.693739
1709.000000	773.000000	22.694210
1710.000000	772.000000	22.671112
1711.000000	771.000000	22.624438
1712.000000	770.000000	22.570268
1713.000000	769.000000	22.502223
1714.000000	768.000000	22.420728
1715.000000	767.000000	22.339726
1716.000000	766.000000	22.272075
1717.000000	765.000000	22.209904
1718.000000	764.000000	22.156364
1719.000000	763.000000	22.109691
1720.000000	762.000000	22.071382
1721.000000	761.000000	22.035585
1722.000000	760.000000	22.002059
1723.000000	759.000000	21.961378
1724.000000	758.000000	21.906180
1725.000000	757.000000	21.843357
1726.000000	756.000000	21.767277
1727.000000	755.000000	21.677657
1728.000000	754.000000	21.587834
1729.000000	753.000000	21.507550
1730.000000	752.000000	21.438861
1731.000000	751.000000	21.385036
1732.000000	750.000000	21.368374
1733.000000	749.000000	21.389295
1734.000000	748.000000	21.447767
1735.000000	747.000000	21.551762
1736.000000	746.000000	21.686131
1737.000000	745.000000	21.843971
1738.000000	744.000000	22.034516
1739.000000	743.000000	22.233681
1740.000000	742.000000	22.425937
1741.000000	741.000000	22.617309
1742.000000	740.000000	22.786846
1743.000000	739.000000	22.934380
1744.000000	738.000000	23.064655
1745.000000	737.000000	23.167088
1746.000000	736.000000	23.249352
1747.000000	735.000000	23.313790
1748.000000	734.000000	23.365565
1749.000000	733.000000	23.409014
1750.000000	732.000000	23.424298
1751.000000	731.000000	23.424867
1752.000000	730.000000	23.423342
1753.000000	729.000000	23.405645
1754.000000	728.000000	23.363353
1755.000000	727.000000	23.322165
1756.000000	726.000000	23.270336
1757.000000	725.000000	23.198198
1758.000000	724.000000	23.127548
1759.000000	723.000000	23.071757
1760.000000	722.000000	23.024774
1761.000000	721.000000	22.990588
1762.000000	720.000000	22.981979
1763.000000	719.000000	22.996071
1764.000000	718.000000	23.029372
1765.000000	717.000000	23.080811
1766.000000	716.000000	23.155016
1767.000000	715.000000	23.245064
1768.000000	714.000000	23.336607
1769.000000	713.000000	23.440088
1770.000000	712.000000	23.541685
1771.000000	711.000000	23.642970
1772.000000	710.000000	23.754152
1773.000000	709.000000	23.858306
1774.000000	708.000000	23.949862
1775.000000	707.000000	24.037054
1776.000000	706.000000	24.118484
1777.000000	705.000000	24.199742
1778.000000	704.000000	24.273694
1779.000000	703.000000	24.341871
1780.000000	702.000000	24.404493
1781.000000	701.000000	24.468856
1782.000000	700.000000	24.543278
1783.000000	699.000000	24.609152
1784.000000	698.000000	24.671005
1785.000000	697.000000	24.734972
1786.000000	696.000000	24.789191
1787.000000	695.000000	24.843406
1788.000000	694.000000	24.900075
1789.000000	693.000000	24.942814
1790.000000	692.000000	24.993336
1791.000000	691.000000	25.047491
1792.000000	690.000000	25.095143
1793.000000	689.000000	25.144359
1794.000000	688.000000	25.194175
1795.000000	687.000000	25.233028
1796.000000	686.000000	25.274240
1797.000000	685.000000	25.322800
1798.000000	684.000000	25.366717
1799.000000	683.000000	25.419679
1800.000000	682.000000	25.483445
1801.000000	681.000000	25.536176
1802.000000	680.000000	25.579620
1803.000000	679.000000	25.615030
1804.000000	678.000000	25.656770
1805.000000	677.000000	25.714504
1806.000000	676.000000	25.760881
1807.000000	675.000000	25.796769
1808.000000	674.000000	25.831547
1809.000000	673.000000	25.864819
1810.000000	672.000000	25.906647
1811.000000	671.000000	25.937775
1812.000000	670.000000	25.963579
1813.000000	669.000000	25.983076
1814.000000	668.000000	25.997944
1815.000000	667.000000	26.015199
1816.000000	666.000000	26.025368
1817.000000	665.000000	26.034485
1818.000000	664.000000	26.067446
1819.000000	663.000000	26.114803
1820.000000	662.000000	26.154553
1821.000000	661.000000	26.173006
1822.000000	660.000000	26.172913
1823.000000	659.000000	26.189517
1824.000000	658.000000	26.235752
1825.000000	657.000000	26.297998
1826.000000	656.000000	26.356408
1827.000000	655.000000	26.421143
1828.000000	654.000000	26.494365
1829.000000	653.000000	26.556996
1830.000000	652.000000	26.618281
1831.000000	651.000000	26.669796
1832.000000	650.000000	26.720489
1833.000000	649.000000	26.783888
1834.000000	648.000000	26.857412
1835.000000	647.000000	26.926242
1836.000000	646.000000	26.979875
1837.000000	645.000000	27.012008
1838.000000	644.000000	27.055125
1839.000000	643.000000	27.090892
1840.000000	642.000000	27.111762
1841.000000	641.000000	27.122160
1842.000000	640.000000	27.116427
1843.000000	639.000000	27.121110
1844.000000	638.000000	27.149863
1845.000000	637.000000	27.203284
1846.000000	636.000000	27.260178
1847.000000	635.000000	27.305077
1848.000000	634.000000	27.309647
1849.000000	633.000000	27.313235
1850.000000	632.000000	27.302552
1851.000000	631.000000	27.295313
1852.000000	630.000000	27.306033
1853.000000	629.000000	27.318463
1854.000000	628.000000	27.296072
1855.000000	627.000000	27.262214
1856.000000	626.000000	27.230661
1857.000000	625.000000	27.198653
1858.000000	624.000000	27.131402
1859.000000	623.000000	27.035106
1860.000000	622.000000	26.935850
1861.000000	621.000000	26.801038
1862.000000	620.000000	26.667989
1863.000000	619.000000	26.548825
1864.000000	618.000000	26.433223
1865.000000	617.000000	26.294065
1866.000000	616.000000	26.159985
1867.000000	615.000000	25.991614
1868.000000	614.000000	25.780076
1869.000000	613.000000	25.511055
1870.000000	612.000000	25.227939
1871.000000	611.000000	24.915055
1872.000000	610.000000	24.567286
1873.000000	609.000000	24.186132
1874.000000	608.000000	23.789376
1875.000000	607.000000	23.378029
1876.000000	606.000000	22.959691
1877.000000	605.000000	22.511475
1878.000000	604.000000	22.050913
1879.000000	603.000000	21.600921
1880.000000	602.000000	21.150791
1881.000000	601.000000	20.661342
1882.000000	600.000000	20.182201
1883.000000	599.000000	19.688867
1884.000000	598.000000	19.203255
1885.000000	597.000000	18.763323
1886.000000	596.000000	18.351173
1887.000000	595.000000	17.973088
1888.000000	594.000000	17.614873
1889.000000	593.000000	17.276980
1890.000000	592.000000	16.930950
1891.000000	591.000000	16.555630
1892.000000	590.000000	16.191210
1893.000000	589.000000	15.880737
1894.000000	588.000000	15.619049
1895.000000	587.000000	15.354080
1896.000000	586.000000	15.098306
1897.000000	585.000000	14.831556
1898.000000	584.000000	14.564606
1899.000000	583.000000	14.281331
1900.000000	582.000000	14.006774
1901.000000	581.000000	13.762486
1902.000000	580.000000	13.529107
1903.000000	579.000000	13.304992
1904.000000	578.000000	13.081517
1905.000000	577.000000	12.830526
1906.000000	576.000000	12.590826
1907.000000	575.000000	12.385839
1908.000000	574.000000	12.200755
1909.000000	573.000000	12.027178
1910.000000	572.000000	11.883651
1911.000000	571.000000	11.732506
1912.000000	570.000000	11.537032
1913.000000	569.000000	11.367287
1914.000000	568.000000	11.209076
1915.000000	567.000000	11.064335
1916.000000	566.000000	10.937526
1917.000000	565.000000	10.818089
1918.000000	564.000000	10.693787
1919.000000	563.000000	10.591302
1920.000000	562.000000	10.471291
1921.000000	561.000000	10.365649
1922.000000	560.000000	10.249967
1923.000000	559.000000	10.158721
1924.000000	558.000000	10.071836
1925.000000	557.000000	10.010270
1926.000000	556.000000	9.946595
1927.000000	555.000000	9.876341
1928.000000	554.000000	9.816695
1929.000000	553.000000	9.758217
1930.000000	552.000000	9.704381
1931.000000	551.000000	9.672425
1932.000000	550.000000	9.635081
1933.000000	549.000000	9.602866
1934.000000	548.000000	9.572576
1935.000000	547.000000	9.567782
1936.000000	546.000000	9.575342
1937.000000	545.000000	9.577731
1938.000000	544.000000	9.566477
1939.000000	543.000000	9.584696
1940.000000	542.000000	9.581474
1941.000000	541.000000	9.595439
1942.000000	540.000000	9.615660
1943.000000	539.000000	9.640243
1944.000000	538.000000	9.659109
1945.000000	537.000000	9.702444
1946.000000	536.000000	9.738042
1947.000000	535.000000	9.776307
1948.000000	534.000000	9.805672
1949.000000	533.000000	9.860294
1950.000000	532.000000	9.897331
1951.000000	531.000000	9.944707
1952.000000	530.000000	9.997956
1953.000000	529.000000	10.042728
1954.000000	528.000000	10.107169
1955.000000	527.000000	10.158272
1956.000000	526.000000	10.224009
1957.000000	525.000000	10.275469
1958.000000	524.000000	10.331888
1959.000000	523.000000	10.391370
1960.000000	522.000000	10.448831
1961.000000	521.000000	10.512709
1962.000000	520.000000	10.567513
1963.000000	519.000000	10.622666
1964.000000	518.000000	10.694250
1965.000000	517.000000	10.757572
1966.000000	516.000000	10.816677
1967.000000	515.000000	10.883672
1968.000000	514.000000	10.938597
1969.000000	513.000000	11.014458
1970.000000	512.000000	11.083668
1971.000000	511.000000	11.147899
1972.000000	510.000000	11.222456
1973.000000	509.000000	11.283654
1974.000000	508.000000	11.353458
1975.000000	507.000000	11.426877
1976.000000	506.000000	11.488090
1977.000000	505.000000	11.564755
1978.000000	504.000000	11.631242
1979.000000	503.000000	11.720002
1980.000000	502.000000	11.796051
1981.000000	501.000000	11.864723
1982.000000	500.000000	11.922603
1983.000000	499.000000	12.018268
1984.000000	498.000000	12.063097
1985.000000	497.000000	12.155814
1986.000000	496.000000	12.228106
1987.000000	495.000000	12.308620
1988.000000	494.000000	12.359179
1989.000000	493.000000	12.434085
1990.000000	492.000000	12.509773
1991.000000	491.000000	12.571921
1992.000000	490.000000	12.641859
1993.000000	489.000000	12.703018
1994.000000	488.000000	12.768676
1995.000000	487.000000	12.821628
1996.000000	486.000000	12.880721
1997.000000	485.000000	12.939695
1998.000000	484.000000	12.991115
1999.000000	483.000000	13.039425
