PE UV       SUBTECH     SPECTRUM    ASCII       PEDS        4.00        
   -1
CICIMAUCR0236-3.ASC
24/06/17
17:27:19.00
24/06/17
17:27:19.00
Vinicio Soto Monge
C. resplendens. Sex M. Dorsal.
250,000000
1
Lambda 1050
1050L1511233
PerkinElmer UV WinLab 6.3.2.0749 / 2.02.05 Lambda 900 UV/VIS/NIR, Aug  7 2015 09:38:08

0
0
3350/servo 860,8/2
0
0
UV/VIS
1
1
1
DoubleDePol,CommonBeamDepol,RBeamAtt,SBeamAtt,60mm sphere, WB InGaAs Detector
0
0
0
0
Program
Program
3350/servo 860,8/2
3350/0,2 860,8/0,2
3350/0,2 860,8/0,2
0
15.00
 
 
 
0
 
860,8
319,2
860,8
Front
100
on
S:100 R:100
0
0
0
0
 
0
 
 
 
0
 
 
0
0
0
0
0
 
 
 
 
0
0


0
0
#HDR
-1
-1
#GR
nm
%R
1.0
0.0
2500,000000
-1,000000
2251
8
91,555400
5,465400
#DATA
250.000000	6.143533
251.000000	6.123033
252.000000	6.123300
253.000000	6.127100
254.000000	6.121567
255.000000	6.116267
256.000000	6.090000
257.000000	6.093167
258.000000	6.069300
259.000000	6.070800
260.000000	6.037567
261.000000	6.025500
262.000000	5.993033
263.000000	5.965367
264.000000	5.934267
265.000000	5.873600
266.000000	5.882267
267.000000	5.860367
268.000000	5.887067
269.000000	5.821033
270.000000	5.776767
271.000000	5.788767
272.000000	5.751067
273.000000	5.735333
274.000000	5.760667
275.000000	5.744833
276.000000	5.722100
277.000000	5.700833
278.000000	5.696967
279.000000	5.693400
280.000000	5.692733
281.000000	5.674433
282.000000	5.639433
283.000000	5.663367
284.000000	5.632967
285.000000	5.622467
286.000000	5.606867
287.000000	5.590167
288.000000	5.588667
289.000000	5.583600
290.000000	5.593167
291.000000	5.579433
292.000000	5.571967
293.000000	5.569333
294.000000	5.565033
295.000000	5.572800
296.000000	5.586200
297.000000	5.564133
298.000000	5.545333
299.000000	5.553667
300.000000	5.560900
301.000000	5.533533
302.000000	5.538300
303.000000	5.540300
304.000000	5.522633
305.000000	5.512667
306.000000	5.512167
307.000000	5.514633
308.000000	5.517800
309.000000	5.523867
310.000000	5.533533
311.000000	5.513700
312.000000	5.489967
313.000000	5.505533
314.000000	5.508300
315.000000	5.518067
316.000000	6.012400
317.000000	6.372167
318.000000	6.021667
319.000000	5.962133
320.000000	6.122433
321.000000	6.147333
322.000000	5.823800
323.000000	5.784033
324.000000	5.990333
325.000000	5.951167
326.000000	5.786900
327.000000	5.773400
328.000000	5.809633
329.000000	5.773633
330.000000	5.525000
331.000000	5.601167
332.000000	5.737733
333.000000	5.675367
334.000000	5.623433
335.000000	5.692633
336.000000	5.683067
337.000000	5.682567
338.000000	5.705933
339.000000	5.681367
340.000000	5.761167
341.000000	5.839267
342.000000	5.677733
343.000000	5.689200
344.000000	5.794200
345.000000	5.730367
346.000000	5.685200
347.000000	5.653433
348.000000	5.697300
349.000000	5.680700
350.000000	5.723933
351.000000	5.823433
352.000000	5.774467
353.000000	5.756800
354.000000	5.786633
355.000000	5.834767
356.000000	5.883267
357.000000	5.873233
358.000000	5.865267
359.000000	5.923733
360.000000	6.001100
361.000000	5.993967
362.000000	6.048967
363.000000	5.984500
364.000000	6.015767
365.000000	6.108233
366.000000	6.114800
367.000000	6.102133
368.000000	6.062933
369.000000	5.993867
370.000000	6.058100
371.000000	6.109700
372.000000	6.144767
373.000000	6.088800
374.000000	5.973133
375.000000	6.143767
376.000000	6.327633
377.000000	6.371800
378.000000	6.400067
379.000000	6.426200
380.000000	6.462800
381.000000	6.501900
382.000000	6.531567
383.000000	6.567933
384.000000	6.593300
385.000000	6.620100
386.000000	6.659533
387.000000	6.685067
388.000000	6.715200
389.000000	6.747833
390.000000	6.784267
391.000000	6.810367
392.000000	6.853400
393.000000	6.885267
394.000000	6.924300
395.000000	6.969633
396.000000	6.993800
397.000000	7.041700
398.000000	7.079567
399.000000	7.125833
400.000000	7.155600
401.000000	7.219733
402.000000	7.287633
403.000000	7.343400
404.000000	7.415567
405.000000	7.479833
406.000000	7.544533
407.000000	7.629367
408.000000	7.736067
409.000000	7.844133
410.000000	7.960300
411.000000	8.078567
412.000000	8.218833
413.000000	8.356167
414.000000	8.534400
415.000000	8.709400
416.000000	8.911333
417.000000	9.113333
418.000000	9.354800
419.000000	9.602633
420.000000	9.867967
421.000000	10.158833
422.000000	10.488233
423.000000	10.827333
424.000000	11.216500
425.000000	11.603167
426.000000	12.005300
427.000000	12.441633
428.000000	12.903333
429.000000	13.385000
430.000000	13.896067
431.000000	14.418200
432.000000	14.971200
433.000000	15.534733
434.000000	16.116233
435.000000	16.718700
436.000000	17.312700
437.000000	17.924100
438.000000	18.540467
439.000000	19.165800
440.000000	19.751233
441.000000	20.361400
442.000000	20.960067
443.000000	21.562967
444.000000	22.153400
445.000000	22.728533
446.000000	23.254933
447.000000	23.791967
448.000000	24.281267
449.000000	24.783600
450.000000	25.255333
451.000000	25.684833
452.000000	26.125633
453.000000	26.547333
454.000000	26.956033
455.000000	27.293233
456.000000	27.650533
457.000000	27.989167
458.000000	28.319700
459.000000	28.619867
460.000000	28.923333
461.000000	29.175700
462.000000	29.491800
463.000000	29.739867
464.000000	29.967533
465.000000	30.209967
466.000000	30.442067
467.000000	30.691600
468.000000	30.883967
469.000000	31.111667
470.000000	31.343833
471.000000	31.534667
472.000000	31.730833
473.000000	31.927567
474.000000	32.117567
475.000000	32.310100
476.000000	32.475867
477.000000	32.644467
478.000000	32.821667
479.000000	32.980400
480.000000	33.180533
481.000000	33.347133
482.000000	33.497433
483.000000	33.680067
484.000000	33.805533
485.000000	33.966600
486.000000	34.100767
487.000000	34.250067
488.000000	34.367967
489.000000	34.498000
490.000000	34.619233
491.000000	34.735367
492.000000	34.862333
493.000000	34.933567
494.000000	35.038867
495.000000	35.112067
496.000000	35.185000
497.000000	35.241833
498.000000	35.279000
499.000000	35.334167
500.000000	35.357667
501.000000	35.382100
502.000000	35.421233
503.000000	35.463600
504.000000	35.551733
505.000000	35.624900
506.000000	35.728167
507.000000	35.873167
508.000000	36.091600
509.000000	36.318500
510.000000	36.624067
511.000000	36.961833
512.000000	37.368067
513.000000	37.852933
514.000000	38.367967
515.000000	38.946867
516.000000	39.550000
517.000000	40.190933
518.000000	40.855833
519.000000	41.534367
520.000000	42.245333
521.000000	42.933933
522.000000	43.644900
523.000000	44.328567
524.000000	45.027567
525.000000	45.706500
526.000000	46.340733
527.000000	46.998567
528.000000	47.656267
529.000000	48.314567
530.000000	48.984867
531.000000	49.680867
532.000000	50.389300
533.000000	51.084400
534.000000	51.798067
535.000000	52.557100
536.000000	53.312400
537.000000	54.080567
538.000000	54.886000
539.000000	55.704867
540.000000	56.551700
541.000000	57.407300
542.000000	58.304700
543.000000	59.232933
544.000000	60.182667
545.000000	61.140067
546.000000	62.099133
547.000000	63.109333
548.000000	64.151233
549.000000	65.175667
550.000000	66.232867
551.000000	67.314433
552.000000	68.393933
553.000000	69.490600
554.000000	70.551133
555.000000	71.645800
556.000000	72.664933
557.000000	73.678700
558.000000	74.628867
559.000000	75.604700
560.000000	76.617400
561.000000	77.487167
562.000000	78.351367
563.000000	79.145967
564.000000	79.908700
565.000000	80.626533
566.000000	81.304267
567.000000	81.969000
568.000000	82.582833
569.000000	83.166500
570.000000	83.745700
571.000000	84.268567
572.000000	84.796800
573.000000	85.281067
574.000000	85.727867
575.000000	86.131533
576.000000	86.517667
577.000000	86.866900
578.000000	87.198033
579.000000	87.530400
580.000000	87.833833
581.000000	88.123433
582.000000	88.390300
583.000000	88.628833
584.000000	88.883633
585.000000	89.142067
586.000000	89.363733
587.000000	89.575967
588.000000	89.789933
589.000000	90.003267
590.000000	90.200200
591.000000	90.382633
592.000000	90.559600
593.000000	90.692767
594.000000	90.794333
595.000000	90.886367
596.000000	90.939500
597.000000	90.958067
598.000000	90.946400
599.000000	90.892700
600.000000	90.851600
601.000000	90.772900
602.000000	90.658233
603.000000	90.546467
604.000000	90.408700
605.000000	90.264500
606.000000	90.138633
607.000000	90.032133
608.000000	89.907400
609.000000	89.801067
610.000000	89.747767
611.000000	89.681567
612.000000	89.615467
613.000000	89.550333
614.000000	89.487533
615.000000	89.399367
616.000000	89.288167
617.000000	89.164300
618.000000	88.990867
619.000000	88.778567
620.000000	88.541067
621.000000	88.262167
622.000000	87.949000
623.000000	87.588867
624.000000	87.177400
625.000000	86.799100
626.000000	86.396633
627.000000	86.011033
628.000000	85.605700
629.000000	85.178267
630.000000	84.799800
631.000000	84.444133
632.000000	84.055367
633.000000	83.649433
634.000000	83.257133
635.000000	82.855967
636.000000	82.452967
637.000000	81.997133
638.000000	81.517100
639.000000	80.995867
640.000000	80.369933
641.000000	79.697067
642.000000	78.986500
643.000000	78.182833
644.000000	77.311800
645.000000	76.437533
646.000000	75.552567
647.000000	74.629633
648.000000	73.695633
649.000000	72.778400
650.000000	71.865833
651.000000	70.953200
652.000000	70.030933
653.000000	69.154400
654.000000	68.302433
655.000000	67.448633
656.000000	66.662267
657.000000	65.887267
658.000000	65.074433
659.000000	64.270800
660.000000	63.503600
661.000000	62.694533
662.000000	61.903200
663.000000	61.108900
664.000000	60.321567
665.000000	59.542800
666.000000	58.834767
667.000000	58.145800
668.000000	57.481000
669.000000	56.900967
670.000000	56.387700
671.000000	55.965067
672.000000	55.630133
673.000000	55.394633
674.000000	55.289433
675.000000	55.262600
676.000000	55.319933
677.000000	55.471333
678.000000	55.699533
679.000000	56.004767
680.000000	56.390900
681.000000	56.846833
682.000000	57.336600
683.000000	57.867133
684.000000	58.434700
685.000000	59.042267
686.000000	59.665267
687.000000	60.254533
688.000000	60.887167
689.000000	61.544900
690.000000	62.201667
691.000000	62.924933
692.000000	63.576167
693.000000	64.255233
694.000000	64.962900
695.000000	65.663433
696.000000	66.352333
697.000000	67.023700
698.000000	67.664333
699.000000	68.350267
700.000000	68.998267
701.000000	69.627967
702.000000	70.223567
703.000000	70.805233
704.000000	71.374433
705.000000	71.910400
706.000000	72.342700
707.000000	72.816667
708.000000	73.174467
709.000000	73.559100
710.000000	73.861500
711.000000	74.152500
712.000000	74.440633
713.000000	74.637033
714.000000	74.795700
715.000000	74.941700
716.000000	75.117767
717.000000	75.250167
718.000000	75.337333
719.000000	75.400433
720.000000	75.441000
721.000000	75.460100
722.000000	75.484700
723.000000	75.438500
724.000000	75.394500
725.000000	75.369633
726.000000	75.335867
727.000000	75.276933
728.000000	75.156533
729.000000	75.086100
730.000000	74.962667
731.000000	74.825300
732.000000	74.663200
733.000000	74.533033
734.000000	74.389567
735.000000	74.264633
736.000000	74.096100
737.000000	73.955500
738.000000	73.839133
739.000000	73.671167
740.000000	73.568367
741.000000	73.443067
742.000000	73.305600
743.000000	73.244933
744.000000	73.120000
745.000000	73.057067
746.000000	73.013233
747.000000	72.956967
748.000000	72.947633
749.000000	72.908700
750.000000	72.902467
751.000000	72.946067
752.000000	72.986833
753.000000	73.155167
754.000000	73.165667
755.000000	73.294667
756.000000	73.416000
757.000000	73.524533
758.000000	73.768433
759.000000	73.985033
760.000000	74.228767
761.000000	74.473667
762.000000	74.783467
763.000000	75.052433
764.000000	75.496167
765.000000	75.794800
766.000000	76.219700
767.000000	76.577233
768.000000	76.905333
769.000000	77.393300
770.000000	77.842700
771.000000	78.231267
772.000000	78.699433
773.000000	79.181567
774.000000	79.583767
775.000000	79.986933
776.000000	80.527900
777.000000	81.010800
778.000000	81.343667
779.000000	81.835033
780.000000	82.231133
781.000000	82.731200
782.000000	83.077067
783.000000	83.543967
784.000000	83.963533
785.000000	84.303567
786.000000	84.772467
787.000000	85.239800
788.000000	85.533767
789.000000	85.906233
790.000000	86.213867
791.000000	86.565367
792.000000	86.762067
793.000000	87.139900
794.000000	87.487300
795.000000	87.629900
796.000000	87.896200
797.000000	88.051867
798.000000	88.334167
799.000000	88.467333
800.000000	88.749967
801.000000	88.858400
802.000000	89.098900
803.000000	89.297433
804.000000	89.421033
805.000000	89.540833
806.000000	89.678900
807.000000	89.769633
808.000000	89.987900
809.000000	90.050033
810.000000	90.265367
811.000000	90.240233
812.000000	90.354733
813.000000	90.500133
814.000000	90.422467
815.000000	90.596433
816.000000	90.680733
817.000000	90.716933
818.000000	90.641533
819.000000	90.722533
820.000000	90.784633
821.000000	90.781633
822.000000	90.825733
823.000000	90.850300
824.000000	90.837800
825.000000	90.884533
826.000000	90.715467
827.000000	90.789967
828.000000	90.834867
829.000000	90.893600
830.000000	90.960033
831.000000	90.916233
832.000000	90.864600
833.000000	90.827700
834.000000	90.816867
835.000000	90.909267
836.000000	90.820400
837.000000	90.842533
838.000000	90.685900
839.000000	90.886100
840.000000	90.670433
841.000000	90.750500
842.000000	90.619467
843.000000	90.606667
844.000000	90.594700
845.000000	90.527767
846.000000	90.350067
847.000000	90.174867
848.000000	90.086067
849.000000	90.405567
850.000000	90.590567
851.000000	90.175600
852.000000	90.323833
853.000000	90.262567
854.000000	89.977867
855.000000	89.912200
856.000000	89.606600
857.000000	88.495833
858.000000	89.338211
859.000000	89.212106
860.000000	89.089631
861.000000	88.936799
862.000000	88.809745
863.000000	88.682989
864.000000	88.547490
865.000000	88.406607
866.000000	88.273465
867.000000	88.114103
868.000000	87.938912
869.000000	87.777182
870.000000	87.669465
871.000000	87.713455
872.000000	87.889622
873.000000	88.052143
874.000000	88.190053
875.000000	88.314836
876.000000	88.376771
877.000000	88.431435
878.000000	88.416993
879.000000	88.392150
880.000000	88.369021
881.000000	88.304420
882.000000	88.251355
883.000000	88.166276
884.000000	88.083305
885.000000	87.984322
886.000000	87.862567
887.000000	87.723976
888.000000	87.585140
889.000000	87.422301
890.000000	87.297381
891.000000	87.121790
892.000000	86.927354
893.000000	86.764855
894.000000	86.564357
895.000000	86.336732
896.000000	86.108185
897.000000	85.897303
898.000000	85.696093
899.000000	85.461480
900.000000	85.241469
901.000000	85.003418
902.000000	84.754752
903.000000	84.512504
904.000000	84.277292
905.000000	84.044827
906.000000	83.806034
907.000000	83.574890
908.000000	83.356228
909.000000	83.136913
910.000000	82.925994
911.000000	82.732065
912.000000	82.518409
913.000000	82.295281
914.000000	82.070671
915.000000	81.878897
916.000000	81.695717
917.000000	81.502177
918.000000	81.313338
919.000000	81.115580
920.000000	80.935410
921.000000	80.764849
922.000000	80.592065
923.000000	80.407095
924.000000	80.222223
925.000000	80.064288
926.000000	79.906624
927.000000	79.751936
928.000000	79.591765
929.000000	79.432481
930.000000	79.289672
931.000000	79.147014
932.000000	78.988774
933.000000	78.836719
934.000000	78.694791
935.000000	78.551534
936.000000	78.410404
937.000000	78.266144
938.000000	78.130221
939.000000	78.004746
940.000000	77.871024
941.000000	77.724340
942.000000	77.589243
943.000000	77.460817
944.000000	77.316552
945.000000	77.169991
946.000000	77.011870
947.000000	76.855581
948.000000	76.692369
949.000000	76.517861
950.000000	76.350255
951.000000	76.174121
952.000000	75.992434
953.000000	75.816933
954.000000	75.637432
955.000000	75.442946
956.000000	75.236233
957.000000	75.032479
958.000000	74.839681
959.000000	74.639998
960.000000	74.425954
961.000000	74.207857
962.000000	74.001694
963.000000	73.795898
964.000000	73.591890
965.000000	73.388021
966.000000	73.173378
967.000000	72.963519
968.000000	72.770466
969.000000	72.584686
970.000000	72.393900
971.000000	72.207581
972.000000	72.027863
973.000000	71.843959
974.000000	71.662630
975.000000	71.508377
976.000000	71.352240
977.000000	71.187605
978.000000	71.024954
979.000000	70.883220
980.000000	70.735754
981.000000	70.604358
982.000000	70.468046
983.000000	70.350552
984.000000	70.222530
985.000000	70.101198
986.000000	69.980984
987.000000	69.883682
988.000000	69.781223
989.000000	69.692682
990.000000	69.605542
991.000000	69.507690
992.000000	69.424354
993.000000	69.356757
994.000000	69.285672
995.000000	69.199988
996.000000	69.125016
997.000000	69.056251
998.000000	68.987354
999.000000	68.930490
1000.000000	68.863895
1001.000000	68.804042
1002.000000	68.737623
1003.000000	68.678379
1004.000000	68.612074
1005.000000	68.554598
1006.000000	68.497011
1007.000000	68.439704
1008.000000	68.383665
1009.000000	68.344041
1010.000000	68.297836
1011.000000	68.259656
1012.000000	68.223969
1013.000000	68.206827
1014.000000	68.180962
1015.000000	68.162397
1016.000000	68.148185
1017.000000	68.143510
1018.000000	68.125831
1019.000000	68.117867
1020.000000	68.116936
1021.000000	68.104761
1022.000000	68.104608
1023.000000	68.104196
1024.000000	68.081122
1025.000000	68.092028
1026.000000	68.064523
1027.000000	68.040755
1028.000000	68.019649
1029.000000	67.992879
1030.000000	67.963502
1031.000000	67.938953
1032.000000	67.909633
1033.000000	67.868714
1034.000000	67.829439
1035.000000	67.791199
1036.000000	67.750658
1037.000000	67.713321
1038.000000	67.663473
1039.000000	67.614392
1040.000000	67.557644
1041.000000	67.526805
1042.000000	67.474174
1043.000000	67.436272
1044.000000	67.388394
1045.000000	67.341078
1046.000000	67.300288
1047.000000	67.281349
1048.000000	67.239588
1049.000000	67.212442
1050.000000	67.192252
1051.000000	67.170483
1052.000000	67.163741
1053.000000	67.159337
1054.000000	67.143762
1055.000000	67.154800
1056.000000	67.181404
1057.000000	67.199218
1058.000000	67.209466
1059.000000	67.251814
1060.000000	67.276555
1061.000000	67.316319
1062.000000	67.368214
1063.000000	67.408233
1064.000000	67.459159
1065.000000	67.518656
1066.000000	67.568443
1067.000000	67.627807
1068.000000	67.684747
1069.000000	67.732060
1070.000000	67.786968
1071.000000	67.860746
1072.000000	67.915725
1073.000000	67.960614
1074.000000	68.022093
1075.000000	68.066368
1076.000000	68.124796
1077.000000	68.178574
1078.000000	68.221763
1079.000000	68.257698
1080.000000	68.292331
1081.000000	68.327049
1082.000000	68.367759
1083.000000	68.393856
1084.000000	68.420354
1085.000000	68.437754
1086.000000	68.454665
1087.000000	68.468975
1088.000000	68.474904
1089.000000	68.474360
1090.000000	68.479492
1091.000000	68.477345
1092.000000	68.480188
1093.000000	68.456229
1094.000000	68.433716
1095.000000	68.428541
1096.000000	68.386108
1097.000000	68.365135
1098.000000	68.351316
1099.000000	68.310644
1100.000000	68.280790
1101.000000	68.237112
1102.000000	68.209857
1103.000000	68.191058
1104.000000	68.135140
1105.000000	68.105923
1106.000000	68.080431
1107.000000	68.039008
1108.000000	68.006569
1109.000000	67.973770
1110.000000	67.948341
1111.000000	67.918684
1112.000000	67.886559
1113.000000	67.866615
1114.000000	67.863648
1115.000000	67.828237
1116.000000	67.806529
1117.000000	67.770858
1118.000000	67.726069
1119.000000	67.684857
1120.000000	67.629513
1121.000000	67.581204
1122.000000	67.512908
1123.000000	67.444457
1124.000000	67.350576
1125.000000	67.245158
1126.000000	67.123815
1127.000000	66.983746
1128.000000	66.802762
1129.000000	66.598651
1130.000000	66.348264
1131.000000	66.086151
1132.000000	65.801479
1133.000000	65.521658
1134.000000	65.188571
1135.000000	64.808123
1136.000000	64.439182
1137.000000	64.100003
1138.000000	63.770361
1139.000000	63.453161
1140.000000	63.144830
1141.000000	62.863770
1142.000000	62.581483
1143.000000	62.333821
1144.000000	62.125190
1145.000000	61.939858
1146.000000	61.777143
1147.000000	61.642719
1148.000000	61.520506
1149.000000	61.422538
1150.000000	61.304984
1151.000000	61.195203
1152.000000	61.066090
1153.000000	60.892434
1154.000000	60.706164
1155.000000	60.483884
1156.000000	60.259261
1157.000000	60.019429
1158.000000	59.761366
1159.000000	59.501835
1160.000000	59.234182
1161.000000	58.965086
1162.000000	58.699922
1163.000000	58.438029
1164.000000	58.174454
1165.000000	57.925394
1166.000000	57.686415
1167.000000	57.447850
1168.000000	57.204811
1169.000000	56.982328
1170.000000	56.757154
1171.000000	56.538027
1172.000000	56.329837
1173.000000	56.129018
1174.000000	55.910438
1175.000000	55.686472
1176.000000	55.444641
1177.000000	55.168627
1178.000000	54.867832
1179.000000	54.553766
1180.000000	54.241648
1181.000000	53.954943
1182.000000	53.710768
1183.000000	53.541934
1184.000000	53.450783
1185.000000	53.436222
1186.000000	53.502157
1187.000000	53.632031
1188.000000	53.825038
1189.000000	54.066045
1190.000000	54.324448
1191.000000	54.583713
1192.000000	54.815743
1193.000000	55.025294
1194.000000	55.187284
1195.000000	55.322399
1196.000000	55.431039
1197.000000	55.506347
1198.000000	55.576387
1199.000000	55.641418
1200.000000	55.684603
1201.000000	55.713161
1202.000000	55.756111
1203.000000	55.797868
1204.000000	55.850400
1205.000000	55.910982
1206.000000	55.983590
1207.000000	56.065782
1208.000000	56.152059
1209.000000	56.238907
1210.000000	56.323232
1211.000000	56.421245
1212.000000	56.527199
1213.000000	56.628659
1214.000000	56.732627
1215.000000	56.839782
1216.000000	56.948976
1217.000000	57.063421
1218.000000	57.180003
1219.000000	57.298594
1220.000000	57.424352
1221.000000	57.551109
1222.000000	57.680181
1223.000000	57.809186
1224.000000	57.926376
1225.000000	58.046379
1226.000000	58.168547
1227.000000	58.293023
1228.000000	58.417372
1229.000000	58.531300
1230.000000	58.648687
1231.000000	58.761140
1232.000000	58.868378
1233.000000	58.974888
1234.000000	59.083600
1235.000000	59.190366
1236.000000	59.287366
1237.000000	59.379197
1238.000000	59.474960
1239.000000	59.567078
1240.000000	59.664621
1241.000000	59.761348
1242.000000	59.853215
1243.000000	59.936873
1244.000000	60.030307
1245.000000	60.122711
1246.000000	60.194560
1247.000000	60.267758
1248.000000	60.339668
1249.000000	60.409780
1250.000000	60.480802
1251.000000	60.545834
1252.000000	60.597573
1253.000000	60.655115
1254.000000	60.713750
1255.000000	60.761571
1256.000000	60.813814
1257.000000	60.860237
1258.000000	60.905606
1259.000000	60.934099
1260.000000	60.975586
1261.000000	61.024247
1262.000000	61.064024
1263.000000	61.092671
1264.000000	61.127647
1265.000000	61.171170
1266.000000	61.207721
1267.000000	61.236944
1268.000000	61.266651
1269.000000	61.300389
1270.000000	61.332400
1271.000000	61.350628
1272.000000	61.375152
1273.000000	61.408887
1274.000000	61.443158
1275.000000	61.476311
1276.000000	61.507349
1277.000000	61.548970
1278.000000	61.585510
1279.000000	61.624593
1280.000000	61.673018
1281.000000	61.699754
1282.000000	61.734971
1283.000000	61.774279
1284.000000	61.797566
1285.000000	61.823721
1286.000000	61.839729
1287.000000	61.851476
1288.000000	61.871517
1289.000000	61.876271
1290.000000	61.871453
1291.000000	61.859049
1292.000000	61.840735
1293.000000	61.830086
1294.000000	61.814245
1295.000000	61.790529
1296.000000	61.748755
1297.000000	61.705901
1298.000000	61.665099
1299.000000	61.621066
1300.000000	61.577940
1301.000000	61.521699
1302.000000	61.457158
1303.000000	61.393305
1304.000000	61.319013
1305.000000	61.239729
1306.000000	61.160278
1307.000000	61.073961
1308.000000	60.967981
1309.000000	60.857484
1310.000000	60.756872
1311.000000	60.633968
1312.000000	60.507451
1313.000000	60.385256
1314.000000	60.251683
1315.000000	60.105946
1316.000000	59.957883
1317.000000	59.809231
1318.000000	59.653617
1319.000000	59.492917
1320.000000	59.330017
1321.000000	59.156182
1322.000000	58.982024
1323.000000	58.805427
1324.000000	58.625218
1325.000000	58.426879
1326.000000	58.234249
1327.000000	58.022974
1328.000000	57.825823
1329.000000	57.610663
1330.000000	57.385555
1331.000000	57.154607
1332.000000	56.933335
1333.000000	56.695782
1334.000000	56.473854
1335.000000	56.227564
1336.000000	55.978450
1337.000000	55.722946
1338.000000	55.475842
1339.000000	55.238187
1340.000000	54.985464
1341.000000	54.718109
1342.000000	54.478800
1343.000000	54.226505
1344.000000	53.952591
1345.000000	53.676052
1346.000000	53.439960
1347.000000	53.163064
1348.000000	52.872047
1349.000000	52.581747
1350.000000	52.254267
1351.000000	51.920138
1352.000000	51.599186
1353.000000	51.363123
1354.000000	51.103706
1355.000000	50.895602
1356.000000	50.719651
1357.000000	50.611834
1358.000000	50.523039
1359.000000	50.442618
1360.000000	50.389876
1361.000000	50.256743
1362.000000	50.099072
1363.000000	49.950844
1364.000000	49.818594
1365.000000	49.610066
1366.000000	49.444427
1367.000000	49.242310
1368.000000	49.002593
1369.000000	48.758382
1370.000000	48.520201
1371.000000	48.242252
1372.000000	47.978646
1373.000000	47.722500
1374.000000	47.505048
1375.000000	47.304113
1376.000000	47.103554
1377.000000	46.882942
1378.000000	46.685999
1379.000000	46.424812
1380.000000	46.140029
1381.000000	45.736134
1382.000000	45.269818
1383.000000	44.750472
1384.000000	44.248610
1385.000000	43.751771
1386.000000	43.291667
1387.000000	42.832759
1388.000000	42.336883
1389.000000	41.873851
1390.000000	41.511994
1391.000000	41.106653
1392.000000	40.694829
1393.000000	40.354933
1394.000000	40.041552
1395.000000	39.634665
1396.000000	39.161970
1397.000000	38.765200
1398.000000	38.473078
1399.000000	38.130709
1400.000000	37.705962
1401.000000	37.229797
1402.000000	36.843973
1403.000000	36.457567
1404.000000	36.068602
1405.000000	35.674537
1406.000000	35.294869
1407.000000	34.945082
1408.000000	34.579212
1409.000000	34.224169
1410.000000	33.850905
1411.000000	33.515512
1412.000000	33.253372
1413.000000	32.988480
1414.000000	32.697841
1415.000000	32.389300
1416.000000	32.114503
1417.000000	31.892052
1418.000000	31.670588
1419.000000	31.412847
1420.000000	31.163884
1421.000000	30.941314
1422.000000	30.733531
1423.000000	30.542498
1424.000000	30.344994
1425.000000	30.139377
1426.000000	29.955256
1427.000000	29.797423
1428.000000	29.640202
1429.000000	29.480552
1430.000000	29.346670
1431.000000	29.215595
1432.000000	29.093550
1433.000000	28.942548
1434.000000	28.818015
1435.000000	28.697663
1436.000000	28.582144
1437.000000	28.486476
1438.000000	28.385385
1439.000000	28.278824
1440.000000	28.175027
1441.000000	28.078137
1442.000000	27.979158
1443.000000	27.899411
1444.000000	27.832493
1445.000000	27.755850
1446.000000	27.671858
1447.000000	27.581269
1448.000000	27.502543
1449.000000	27.451851
1450.000000	27.395010
1451.000000	27.326327
1452.000000	27.256235
1453.000000	27.190128
1454.000000	27.124576
1455.000000	27.081368
1456.000000	27.030909
1457.000000	26.990200
1458.000000	26.947902
1459.000000	26.902543
1460.000000	26.872126
1461.000000	26.849050
1462.000000	26.829681
1463.000000	26.807024
1464.000000	26.803446
1465.000000	26.799400
1466.000000	26.798083
1467.000000	26.795001
1468.000000	26.788174
1469.000000	26.800468
1470.000000	26.817808
1471.000000	26.831345
1472.000000	26.834905
1473.000000	26.828492
1474.000000	26.839251
1475.000000	26.853785
1476.000000	26.877234
1477.000000	26.905303
1478.000000	26.928069
1479.000000	26.956888
1480.000000	26.991972
1481.000000	27.020022
1482.000000	27.059031
1483.000000	27.093090
1484.000000	27.130385
1485.000000	27.183702
1486.000000	27.230262
1487.000000	27.271144
1488.000000	27.313148
1489.000000	27.361229
1490.000000	27.410208
1491.000000	27.455003
1492.000000	27.506134
1493.000000	27.562749
1494.000000	27.620719
1495.000000	27.676586
1496.000000	27.737848
1497.000000	27.797355
1498.000000	27.863475
1499.000000	27.931167
1500.000000	27.997276
1501.000000	28.062370
1502.000000	28.141000
1503.000000	28.215417
1504.000000	28.286663
1505.000000	28.357739
1506.000000	28.429473
1507.000000	28.513206
1508.000000	28.588364
1509.000000	28.661096
1510.000000	28.741679
1511.000000	28.811563
1512.000000	28.878557
1513.000000	28.954151
1514.000000	29.031673
1515.000000	29.101814
1516.000000	29.171924
1517.000000	29.240114
1518.000000	29.309340
1519.000000	29.379466
1520.000000	29.445508
1521.000000	29.513160
1522.000000	29.570256
1523.000000	29.630493
1524.000000	29.700769
1525.000000	29.753574
1526.000000	29.814018
1527.000000	29.878007
1528.000000	29.938157
1529.000000	29.992828
1530.000000	30.050471
1531.000000	30.105731
1532.000000	30.154205
1533.000000	30.194564
1534.000000	30.238187
1535.000000	30.282828
1536.000000	30.335095
1537.000000	30.377468
1538.000000	30.414042
1539.000000	30.454913
1540.000000	30.496654
1541.000000	30.537020
1542.000000	30.579665
1543.000000	30.624706
1544.000000	30.668999
1545.000000	30.711462
1546.000000	30.754946
1547.000000	30.802273
1548.000000	30.859613
1549.000000	30.916424
1550.000000	30.959034
1551.000000	30.998122
1552.000000	31.044763
1553.000000	31.087463
1554.000000	31.133720
1555.000000	31.176208
1556.000000	31.207648
1557.000000	31.239763
1558.000000	31.270933
1559.000000	31.300403
1560.000000	31.332736
1561.000000	31.347775
1562.000000	31.372097
1563.000000	31.385216
1564.000000	31.393039
1565.000000	31.411206
1566.000000	31.425443
1567.000000	31.441536
1568.000000	31.451746
1569.000000	31.472072
1570.000000	31.492745
1571.000000	31.515655
1572.000000	31.527057
1573.000000	31.551541
1574.000000	31.574674
1575.000000	31.594186
1576.000000	31.635162
1577.000000	31.670259
1578.000000	31.697253
1579.000000	31.741071
1580.000000	31.781530
1581.000000	31.822530
1582.000000	31.871432
1583.000000	31.904341
1584.000000	31.947572
1585.000000	32.005493
1586.000000	32.055845
1587.000000	32.105334
1588.000000	32.140857
1589.000000	32.191739
1590.000000	32.251626
1591.000000	32.298699
1592.000000	32.346997
1593.000000	32.396525
1594.000000	32.457533
1595.000000	32.512063
1596.000000	32.579638
1597.000000	32.636702
1598.000000	32.697155
1599.000000	32.749926
1600.000000	32.806476
1601.000000	32.872297
1602.000000	32.938435
1603.000000	33.002415
1604.000000	33.053379
1605.000000	33.120064
1606.000000	33.185916
1607.000000	33.238381
1608.000000	33.291026
1609.000000	33.343354
1610.000000	33.411598
1611.000000	33.472306
1612.000000	33.537679
1613.000000	33.589165
1614.000000	33.646230
1615.000000	33.699318
1616.000000	33.749282
1617.000000	33.814029
1618.000000	33.882806
1619.000000	33.936167
1620.000000	33.997892
1621.000000	34.061754
1622.000000	34.132127
1623.000000	34.200490
1624.000000	34.252024
1625.000000	34.317392
1626.000000	34.388622
1627.000000	34.441454
1628.000000	34.514867
1629.000000	34.583753
1630.000000	34.645547
1631.000000	34.708885
1632.000000	34.783920
1633.000000	34.834253
1634.000000	34.892830
1635.000000	34.946921
1636.000000	35.016197
1637.000000	35.051641
1638.000000	35.103813
1639.000000	35.153397
1640.000000	35.188429
1641.000000	35.235406
1642.000000	35.279442
1643.000000	35.314797
1644.000000	35.369122
1645.000000	35.411159
1646.000000	35.441327
1647.000000	35.472484
1648.000000	35.513243
1649.000000	35.531045
1650.000000	35.548404
1651.000000	35.562532
1652.000000	35.585006
1653.000000	35.594712
1654.000000	35.594895
1655.000000	35.589196
1656.000000	35.571649
1657.000000	35.561057
1658.000000	35.522302
1659.000000	35.500773
1660.000000	35.460663
1661.000000	35.408860
1662.000000	35.350231
1663.000000	35.289135
1664.000000	35.220373
1665.000000	35.143882
1666.000000	35.043096
1667.000000	34.949647
1668.000000	34.836985
1669.000000	34.712212
1670.000000	34.532301
1671.000000	34.351751
1672.000000	34.158430
1673.000000	33.920660
1674.000000	33.658279
1675.000000	33.364754
1676.000000	33.047217
1677.000000	32.696694
1678.000000	32.337722
1679.000000	32.008060
1680.000000	31.695870
1681.000000	31.438403
1682.000000	31.239727
1683.000000	31.108151
1684.000000	31.005751
1685.000000	30.948074
1686.000000	30.878072
1687.000000	30.808933
1688.000000	30.720293
1689.000000	30.623628
1690.000000	30.532895
1691.000000	30.429736
1692.000000	30.355596
1693.000000	30.331848
1694.000000	30.334884
1695.000000	30.361445
1696.000000	30.422696
1697.000000	30.525377
1698.000000	30.639693
1699.000000	30.743301
1700.000000	30.835680
1701.000000	30.918826
1702.000000	30.991756
1703.000000	31.051205
1704.000000	31.094859
1705.000000	31.122696
1706.000000	31.137829
1707.000000	31.140557
1708.000000	31.127957
1709.000000	31.094070
1710.000000	31.047817
1711.000000	30.996534
1712.000000	30.923100
1713.000000	30.840188
1714.000000	30.749991
1715.000000	30.672496
1716.000000	30.591571
1717.000000	30.504330
1718.000000	30.438093
1719.000000	30.374523
1720.000000	30.309620
1721.000000	30.252713
1722.000000	30.188090
1723.000000	30.134169
1724.000000	30.066210
1725.000000	30.007328
1726.000000	29.938299
1727.000000	29.863860
1728.000000	29.792329
1729.000000	29.728933
1730.000000	29.685485
1731.000000	29.665241
1732.000000	29.674177
1733.000000	29.709537
1734.000000	29.766754
1735.000000	29.842628
1736.000000	29.951388
1737.000000	30.074374
1738.000000	30.211219
1739.000000	30.338552
1740.000000	30.465899
1741.000000	30.581434
1742.000000	30.686923
1743.000000	30.775120
1744.000000	30.850384
1745.000000	30.901314
1746.000000	30.943992
1747.000000	30.972120
1748.000000	30.994913
1749.000000	30.998905
1750.000000	30.995765
1751.000000	30.980181
1752.000000	30.956498
1753.000000	30.924237
1754.000000	30.881713
1755.000000	30.820257
1756.000000	30.762591
1757.000000	30.708037
1758.000000	30.645657
1759.000000	30.595218
1760.000000	30.566890
1761.000000	30.543262
1762.000000	30.535982
1763.000000	30.550566
1764.000000	30.570567
1765.000000	30.609331
1766.000000	30.661727
1767.000000	30.719493
1768.000000	30.794246
1769.000000	30.865062
1770.000000	30.926575
1771.000000	30.996298
1772.000000	31.065026
1773.000000	31.128203
1774.000000	31.185706
1775.000000	31.245759
1776.000000	31.303294
1777.000000	31.358836
1778.000000	31.409918
1779.000000	31.454971
1780.000000	31.498725
1781.000000	31.547539
1782.000000	31.594370
1783.000000	31.641275
1784.000000	31.682038
1785.000000	31.719273
1786.000000	31.764666
1787.000000	31.803547
1788.000000	31.835489
1789.000000	31.875072
1790.000000	31.918801
1791.000000	31.957034
1792.000000	31.990365
1793.000000	32.037182
1794.000000	32.080965
1795.000000	32.113172
1796.000000	32.150264
1797.000000	32.190674
1798.000000	32.237364
1799.000000	32.293535
1800.000000	32.335475
1801.000000	32.370694
1802.000000	32.410916
1803.000000	32.442126
1804.000000	32.478215
1805.000000	32.537955
1806.000000	32.581832
1807.000000	32.600545
1808.000000	32.620752
1809.000000	32.656320
1810.000000	32.691582
1811.000000	32.724418
1812.000000	32.754920
1813.000000	32.769327
1814.000000	32.796103
1815.000000	32.803877
1816.000000	32.799395
1817.000000	32.818913
1818.000000	32.863843
1819.000000	32.912106
1820.000000	32.930505
1821.000000	32.941609
1822.000000	32.943728
1823.000000	32.954627
1824.000000	32.989075
1825.000000	33.031320
1826.000000	33.059599
1827.000000	33.106753
1828.000000	33.174144
1829.000000	33.222546
1830.000000	33.256815
1831.000000	33.279202
1832.000000	33.312016
1833.000000	33.354854
1834.000000	33.395568
1835.000000	33.424774
1836.000000	33.438765
1837.000000	33.462377
1838.000000	33.479026
1839.000000	33.499924
1840.000000	33.502559
1841.000000	33.487435
1842.000000	33.442387
1843.000000	33.419146
1844.000000	33.433528
1845.000000	33.457617
1846.000000	33.471516
1847.000000	33.452220
1848.000000	33.407279
1849.000000	33.366849
1850.000000	33.322791
1851.000000	33.278203
1852.000000	33.229761
1853.000000	33.203285
1854.000000	33.103220
1855.000000	33.009409
1856.000000	32.943798
1857.000000	32.843459
1858.000000	32.713204
1859.000000	32.570551
1860.000000	32.411157
1861.000000	32.229716
1862.000000	32.044845
1863.000000	31.880371
1864.000000	31.716042
1865.000000	31.515663
1866.000000	31.315401
1867.000000	31.080304
1868.000000	30.801416
1869.000000	30.452938
1870.000000	30.125942
1871.000000	29.744146
1872.000000	29.357800
1873.000000	28.931769
1874.000000	28.502013
1875.000000	28.056559
1876.000000	27.619232
1877.000000	27.162256
1878.000000	26.680914
1879.000000	26.194944
1880.000000	25.712616
1881.000000	25.173003
1882.000000	24.658121
1883.000000	24.090245
1884.000000	23.511279
1885.000000	22.977743
1886.000000	22.460622
1887.000000	21.956032
1888.000000	21.457167
1889.000000	20.995107
1890.000000	20.518030
1891.000000	20.006785
1892.000000	19.532575
1893.000000	19.110815
1894.000000	18.708068
1895.000000	18.334186
1896.000000	17.970049
1897.000000	17.595407
1898.000000	17.208038
1899.000000	16.837075
1900.000000	16.483717
1901.000000	16.169567
1902.000000	15.842908
1903.000000	15.560552
1904.000000	15.274235
1905.000000	14.982190
1906.000000	14.704415
1907.000000	14.453252
1908.000000	14.212992
1909.000000	14.011601
1910.000000	13.804450
1911.000000	13.593138
1912.000000	13.403553
1913.000000	13.201432
1914.000000	12.999139
1915.000000	12.821037
1916.000000	12.675479
1917.000000	12.510325
1918.000000	12.359913
1919.000000	12.243121
1920.000000	12.106670
1921.000000	11.976660
1922.000000	11.853794
1923.000000	11.765315
1924.000000	11.672580
1925.000000	11.573958
1926.000000	11.506841
1927.000000	11.439995
1928.000000	11.355387
1929.000000	11.317047
1930.000000	11.263716
1931.000000	11.245458
1932.000000	11.191563
1933.000000	11.182504
1934.000000	11.149649
1935.000000	11.138360
1936.000000	11.136284
1937.000000	11.164352
1938.000000	11.171473
1939.000000	11.189984
1940.000000	11.204609
1941.000000	11.236931
1942.000000	11.258409
1943.000000	11.290168
1944.000000	11.338790
1945.000000	11.380922
1946.000000	11.432726
1947.000000	11.494100
1948.000000	11.558834
1949.000000	11.617319
1950.000000	11.675974
1951.000000	11.724598
1952.000000	11.802396
1953.000000	11.869126
1954.000000	11.952243
1955.000000	12.027381
1956.000000	12.105924
1957.000000	12.163649
1958.000000	12.243510
1959.000000	12.322200
1960.000000	12.404852
1961.000000	12.482678
1962.000000	12.571973
1963.000000	12.654626
1964.000000	12.735419
1965.000000	12.817475
1966.000000	12.910765
1967.000000	12.978211
1968.000000	13.067557
1969.000000	13.169189
1970.000000	13.246991
1971.000000	13.333724
1972.000000	13.425825
1973.000000	13.520118
1974.000000	13.603327
1975.000000	13.697137
1976.000000	13.804358
1977.000000	13.888653
1978.000000	13.986427
1979.000000	14.083046
1980.000000	14.163909
1981.000000	14.260830
1982.000000	14.363962
1983.000000	14.456827
1984.000000	14.534075
1985.000000	14.631246
1986.000000	14.724753
1987.000000	14.824171
1988.000000	14.922101
1989.000000	14.995677
1990.000000	15.085034
1991.000000	15.168605
1992.000000	15.256564
1993.000000	15.337724
1994.000000	15.427224
1995.000000	15.511245
1996.000000	15.575436
1997.000000	15.643606
1998.000000	15.723783
1999.000000	15.800547
