PE UV       SUBTECH     SPECTRUM    ASCII       PEDS        4.00        
   -1
CICIMAUCR0223-3.Sample.ASC
24/06/13
17:08:03.00
24/06/13
17:08:03.00
Vinicio Soto Monge
C. resplendens. Sex M. Dorsal.
250,000000
1
Lambda 1050
1050L1511233
PerkinElmer UV WinLab 6.3.2.0749 / 2.02.05 Lambda 900 UV/VIS/NIR, Aug  7 2015 09:38:08

0
0
3350/servo 860,8/2
0
0
UV/VIS
1
1
1
DoubleDePol,CommonBeamDepol,RBeamAtt,SBeamAtt,60mm sphere, WB InGaAs Detector
0
0
0
0
Program
Program
3350/servo 860,8/2
3350/0,2 860,8/0,2
3350/0,2 860,8/0,2
0
15.00
 
 
 
0
 
860,8
319,2
860,8
Front
100
on
S:100 R:100
0
0
0
0
 
0
 
 
 
0
 
 
0
0
0
0
0
 
 
 
 
0
0


0
0
#HDR
-1
-1
#GR
nm
%R
1.0
0.0
2500,000000
-1,000000
2251
8
86,421400
5,728600
#DATA
250.000000	6.565300
251.000000	6.532467
252.000000	6.545300
253.000000	6.536700
254.000000	6.500967
255.000000	6.493767
256.000000	6.485833
257.000000	6.458733
258.000000	6.421333
259.000000	6.417567
260.000000	6.384433
261.000000	6.373333
262.000000	6.351100
263.000000	6.320833
264.000000	6.266467
265.000000	6.257400
266.000000	6.236967
267.000000	6.235100
268.000000	6.208333
269.000000	6.136367
270.000000	6.138133
271.000000	6.124567
272.000000	6.127600
273.000000	6.108067
274.000000	6.115467
275.000000	6.090467
276.000000	6.055467
277.000000	6.040133
278.000000	6.048567
279.000000	6.038433
280.000000	6.020400
281.000000	6.033333
282.000000	6.048100
283.000000	6.030933
284.000000	6.008333
285.000000	5.994567
286.000000	5.994067
287.000000	5.976533
288.000000	5.984400
289.000000	5.991333
290.000000	5.973633
291.000000	5.993500
292.000000	5.979967
293.000000	5.969500
294.000000	5.971633
295.000000	5.959033
296.000000	5.970400
297.000000	5.945567
298.000000	5.923833
299.000000	5.934733
300.000000	5.933533
301.000000	5.927400
302.000000	5.937867
303.000000	5.915767
304.000000	5.881767
305.000000	5.903000
306.000000	5.921033
307.000000	5.925033
308.000000	5.908233
309.000000	5.886933
310.000000	5.894433
311.000000	5.895867
312.000000	5.878467
313.000000	5.867367
314.000000	5.868367
315.000000	5.864533
316.000000	6.241500
317.000000	6.673033
318.000000	6.713733
319.000000	6.647233
320.000000	6.369233
321.000000	6.320533
322.000000	6.385867
323.000000	6.404800
324.000000	6.422800
325.000000	6.557033
326.000000	6.421600
327.000000	6.313833
328.000000	6.297600
329.000000	6.063767
330.000000	5.996433
331.000000	6.026033
332.000000	6.054733
333.000000	6.099267
334.000000	5.957033
335.000000	5.971000
336.000000	6.054500
337.000000	6.083967
338.000000	6.053833
339.000000	5.955967
340.000000	5.911500
341.000000	5.945167
342.000000	6.048633
343.000000	6.078733
344.000000	5.968267
345.000000	5.876733
346.000000	5.887900
347.000000	5.981267
348.000000	6.010600
349.000000	5.955367
350.000000	5.969733
351.000000	6.032700
352.000000	6.065333
353.000000	6.052067
354.000000	6.010833
355.000000	6.097933
356.000000	6.234867
357.000000	6.180767
358.000000	6.169767
359.000000	6.293933
360.000000	6.313233
361.000000	6.313000
362.000000	6.389200
363.000000	6.403433
364.000000	6.470533
365.000000	6.582400
366.000000	6.560700
367.000000	6.601833
368.000000	6.635133
369.000000	6.655833
370.000000	6.644900
371.000000	6.670333
372.000000	6.819400
373.000000	6.892233
374.000000	6.828167
375.000000	7.160967
376.000000	7.439900
377.000000	7.546767
378.000000	7.677800
379.000000	7.819433
380.000000	7.983733
381.000000	8.166600
382.000000	8.370867
383.000000	8.571733
384.000000	8.812700
385.000000	9.057600
386.000000	9.312933
387.000000	9.582867
388.000000	9.881667
389.000000	10.194000
390.000000	10.519300
391.000000	10.859267
392.000000	11.223333
393.000000	11.599700
394.000000	11.990133
395.000000	12.400900
396.000000	12.819500
397.000000	13.254400
398.000000	13.674400
399.000000	14.104567
400.000000	14.555467
401.000000	15.011233
402.000000	15.464067
403.000000	15.908067
404.000000	16.391700
405.000000	16.856733
406.000000	17.279733
407.000000	17.721000
408.000000	18.136800
409.000000	18.538367
410.000000	18.944233
411.000000	19.337533
412.000000	19.721400
413.000000	20.085667
414.000000	20.439467
415.000000	20.795133
416.000000	21.102433
417.000000	21.397567
418.000000	21.691200
419.000000	21.972533
420.000000	22.238533
421.000000	22.480000
422.000000	22.712433
423.000000	22.929067
424.000000	23.136033
425.000000	23.329500
426.000000	23.499933
427.000000	23.643933
428.000000	23.809400
429.000000	23.928100
430.000000	24.055400
431.000000	24.157567
432.000000	24.244333
433.000000	24.337367
434.000000	24.414300
435.000000	24.452967
436.000000	24.509400
437.000000	24.530600
438.000000	24.576867
439.000000	24.584367
440.000000	24.579267
441.000000	24.557733
442.000000	24.567567
443.000000	24.532233
444.000000	24.517267
445.000000	24.465067
446.000000	24.410200
447.000000	24.362767
448.000000	24.309067
449.000000	24.267767
450.000000	24.240000
451.000000	24.251500
452.000000	24.237100
453.000000	24.234200
454.000000	24.274867
455.000000	24.324667
456.000000	24.381700
457.000000	24.478200
458.000000	24.585033
459.000000	24.751533
460.000000	24.906133
461.000000	25.105667
462.000000	25.344700
463.000000	25.600733
464.000000	25.872933
465.000000	26.137100
466.000000	26.444400
467.000000	26.749033
468.000000	27.060800
469.000000	27.379533
470.000000	27.681367
471.000000	28.003767
472.000000	28.326867
473.000000	28.630933
474.000000	28.932600
475.000000	29.224667
476.000000	29.490933
477.000000	29.775700
478.000000	30.009267
479.000000	30.235600
480.000000	30.447933
481.000000	30.670833
482.000000	30.869767
483.000000	31.074233
484.000000	31.307167
485.000000	31.505067
486.000000	31.735167
487.000000	31.991167
488.000000	32.275000
489.000000	32.627000
490.000000	32.982833
491.000000	33.402033
492.000000	33.906533
493.000000	34.437467
494.000000	35.033500
495.000000	35.688600
496.000000	36.454800
497.000000	37.246300
498.000000	38.167767
499.000000	39.127933
500.000000	40.172500
501.000000	41.272400
502.000000	42.455733
503.000000	43.670233
504.000000	44.929967
505.000000	46.167300
506.000000	47.466600
507.000000	48.757267
508.000000	50.033933
509.000000	51.356567
510.000000	52.618467
511.000000	53.907400
512.000000	55.181133
513.000000	56.460100
514.000000	57.703133
515.000000	58.917667
516.000000	60.096767
517.000000	61.253767
518.000000	62.366733
519.000000	63.459333
520.000000	64.512567
521.000000	65.550600
522.000000	66.551067
523.000000	67.538833
524.000000	68.483400
525.000000	69.405833
526.000000	70.323200
527.000000	71.196000
528.000000	72.071033
529.000000	72.908533
530.000000	73.752467
531.000000	74.555600
532.000000	75.361500
533.000000	76.090133
534.000000	76.821133
535.000000	77.491167
536.000000	78.132367
537.000000	78.734800
538.000000	79.310433
539.000000	79.882367
540.000000	80.416067
541.000000	80.934933
542.000000	81.411433
543.000000	81.891800
544.000000	82.320033
545.000000	82.737833
546.000000	83.127467
547.000000	83.496200
548.000000	83.849000
549.000000	84.157233
550.000000	84.449067
551.000000	84.742933
552.000000	85.027800
553.000000	85.293500
554.000000	85.528433
555.000000	85.738533
556.000000	85.948133
557.000000	86.134000
558.000000	86.327400
559.000000	86.495933
560.000000	86.684933
561.000000	86.843833
562.000000	86.978467
563.000000	87.107567
564.000000	87.186967
565.000000	87.286000
566.000000	87.391033
567.000000	87.466233
568.000000	87.522933
569.000000	87.569833
570.000000	87.593100
571.000000	87.599300
572.000000	87.587367
573.000000	87.543367
574.000000	87.491533
575.000000	87.419000
576.000000	87.333500
577.000000	87.203400
578.000000	87.071633
579.000000	86.926667
580.000000	86.751500
581.000000	86.581567
582.000000	86.384833
583.000000	86.192500
584.000000	85.958800
585.000000	85.726033
586.000000	85.511600
587.000000	85.273633
588.000000	85.014467
589.000000	84.752267
590.000000	84.482867
591.000000	84.180900
592.000000	83.840400
593.000000	83.483033
594.000000	83.095767
595.000000	82.683300
596.000000	82.214267
597.000000	81.746900
598.000000	81.240267
599.000000	80.691233
600.000000	80.130167
601.000000	79.513733
602.000000	78.866600
603.000000	78.198333
604.000000	77.494667
605.000000	76.784967
606.000000	76.041433
607.000000	75.288133
608.000000	74.532400
609.000000	73.726867
610.000000	72.874033
611.000000	72.017933
612.000000	71.137067
613.000000	70.261533
614.000000	69.365700
615.000000	68.444167
616.000000	67.538167
617.000000	66.616333
618.000000	65.705233
619.000000	64.816500
620.000000	63.941767
621.000000	63.116267
622.000000	62.304000
623.000000	61.514533
624.000000	60.760167
625.000000	60.057567
626.000000	59.416567
627.000000	58.810967
628.000000	58.266233
629.000000	57.793467
630.000000	57.409167
631.000000	57.112067
632.000000	56.903800
633.000000	56.807833
634.000000	56.817400
635.000000	56.939400
636.000000	57.186100
637.000000	57.529167
638.000000	57.959400
639.000000	58.485967
640.000000	59.090200
641.000000	59.756367
642.000000	60.493400
643.000000	61.245933
644.000000	62.006533
645.000000	62.799633
646.000000	63.594167
647.000000	64.376500
648.000000	65.144667
649.000000	65.934167
650.000000	66.746433
651.000000	67.536867
652.000000	68.318133
653.000000	69.090733
654.000000	69.838033
655.000000	70.542000
656.000000	71.244300
657.000000	71.902467
658.000000	72.521733
659.000000	73.123233
660.000000	73.661067
661.000000	74.186533
662.000000	74.647267
663.000000	75.056700
664.000000	75.441767
665.000000	75.802600
666.000000	76.109567
667.000000	76.396267
668.000000	76.685300
669.000000	76.965533
670.000000	77.228633
671.000000	77.454433
672.000000	77.705567
673.000000	77.947800
674.000000	78.182700
675.000000	78.409900
676.000000	78.643733
677.000000	78.877667
678.000000	79.079967
679.000000	79.273467
680.000000	79.408900
681.000000	79.551833
682.000000	79.702400
683.000000	79.795200
684.000000	79.903967
685.000000	79.991367
686.000000	80.080167
687.000000	80.132067
688.000000	80.184700
689.000000	80.221467
690.000000	80.190033
691.000000	80.210033
692.000000	80.222967
693.000000	80.198467
694.000000	80.176600
695.000000	80.127233
696.000000	80.084467
697.000000	80.016400
698.000000	79.956800
699.000000	79.934967
700.000000	79.950467
701.000000	79.955167
702.000000	79.980533
703.000000	80.047100
704.000000	80.173767
705.000000	80.315167
706.000000	80.481800
707.000000	80.673433
708.000000	80.909733
709.000000	81.189567
710.000000	81.423533
711.000000	81.710033
712.000000	82.052333
713.000000	82.373100
714.000000	82.727333
715.000000	83.014567
716.000000	83.393400
717.000000	83.749633
718.000000	84.099233
719.000000	84.433567
720.000000	84.678567
721.000000	84.971700
722.000000	85.210667
723.000000	85.393467
724.000000	85.590700
725.000000	85.662300
726.000000	85.793300
727.000000	85.812367
728.000000	85.869067
729.000000	85.829133
730.000000	85.844367
731.000000	85.691767
732.000000	85.719100
733.000000	85.589533
734.000000	85.585167
735.000000	85.536167
736.000000	85.518233
737.000000	85.445867
738.000000	85.505567
739.000000	85.498233
740.000000	85.538500
741.000000	85.570333
742.000000	85.652333
743.000000	85.746500
744.000000	85.867167
745.000000	85.986800
746.000000	86.122233
747.000000	86.235633
748.000000	86.379700
749.000000	86.535833
750.000000	86.680267
751.000000	86.880433
752.000000	87.057467
753.000000	87.204533
754.000000	87.301900
755.000000	87.522967
756.000000	87.645867
757.000000	87.673567
758.000000	87.738967
759.000000	87.799467
760.000000	87.854467
761.000000	87.804300
762.000000	87.733467
763.000000	87.567533
764.000000	87.426767
765.000000	87.271100
766.000000	86.936900
767.000000	86.779667
768.000000	86.531800
769.000000	86.128267
770.000000	85.846467
771.000000	85.489400
772.000000	85.176033
773.000000	84.905733
774.000000	84.440700
775.000000	84.070933
776.000000	83.833500
777.000000	83.505667
778.000000	83.120333
779.000000	82.892500
780.000000	82.747467
781.000000	82.583633
782.000000	82.317233
783.000000	82.286267
784.000000	82.184433
785.000000	82.092967
786.000000	82.000733
787.000000	82.028800
788.000000	81.942200
789.000000	82.045400
790.000000	82.079800
791.000000	82.045267
792.000000	82.229300
793.000000	82.312467
794.000000	82.398900
795.000000	82.321267
796.000000	82.224867
797.000000	82.208533
798.000000	82.214400
799.000000	82.046567
800.000000	82.047067
801.000000	81.775267
802.000000	81.525667
803.000000	81.323800
804.000000	81.112933
805.000000	80.710767
806.000000	80.504533
807.000000	80.111233
808.000000	79.753200
809.000000	79.377967
810.000000	79.058267
811.000000	78.718500
812.000000	78.373900
813.000000	77.993533
814.000000	77.660467
815.000000	77.353367
816.000000	77.116133
817.000000	76.786000
818.000000	76.443333
819.000000	76.214000
820.000000	76.000167
821.000000	75.791533
822.000000	75.480767
823.000000	75.355667
824.000000	75.212033
825.000000	75.107167
826.000000	74.778900
827.000000	74.687033
828.000000	74.587500
829.000000	74.306567
830.000000	74.099800
831.000000	74.009400
832.000000	73.881033
833.000000	73.750167
834.000000	73.495033
835.000000	73.340600
836.000000	73.234667
837.000000	72.948233
838.000000	72.810500
839.000000	72.741433
840.000000	72.595067
841.000000	72.422633
842.000000	72.166167
843.000000	72.020933
844.000000	71.848700
845.000000	71.703100
846.000000	71.635233
847.000000	71.281300
848.000000	71.074967
849.000000	70.946500
850.000000	70.892967
851.000000	70.723033
852.000000	70.518433
853.000000	70.166433
854.000000	69.932400
855.000000	69.990667
856.000000	69.619333
857.000000	69.436633
858.000000	69.682211
859.000000	69.460707
860.000000	69.235184
861.000000	69.002251
862.000000	68.784745
863.000000	68.561420
864.000000	68.340672
865.000000	68.106062
866.000000	67.896924
867.000000	67.664742
868.000000	67.446227
869.000000	67.236092
870.000000	67.070764
871.000000	66.962388
872.000000	66.865012
873.000000	66.743833
874.000000	66.606288
875.000000	66.438311
876.000000	66.270116
877.000000	66.076163
878.000000	65.872296
879.000000	65.668274
880.000000	65.457890
881.000000	65.247067
882.000000	65.034290
883.000000	64.822455
884.000000	64.620653
885.000000	64.414277
886.000000	64.203178
887.000000	63.990903
888.000000	63.779962
889.000000	63.562448
890.000000	63.354875
891.000000	63.150873
892.000000	62.944530
893.000000	62.733862
894.000000	62.537276
895.000000	62.324065
896.000000	62.114385
897.000000	61.917009
898.000000	61.717760
899.000000	61.522667
900.000000	61.330383
901.000000	61.133481
902.000000	60.949651
903.000000	60.761664
904.000000	60.581214
905.000000	60.403973
906.000000	60.240792
907.000000	60.077478
908.000000	59.925939
909.000000	59.773876
910.000000	59.643718
911.000000	59.512098
912.000000	59.367767
913.000000	59.241651
914.000000	59.121209
915.000000	58.994341
916.000000	58.871036
917.000000	58.746780
918.000000	58.632170
919.000000	58.521851
920.000000	58.402935
921.000000	58.286063
922.000000	58.173447
923.000000	58.062973
924.000000	57.961648
925.000000	57.858266
926.000000	57.757461
927.000000	57.665837
928.000000	57.574830
929.000000	57.477756
930.000000	57.384482
931.000000	57.299143
932.000000	57.208216
933.000000	57.130739
934.000000	57.049687
935.000000	56.959747
936.000000	56.878979
937.000000	56.804848
938.000000	56.739989
939.000000	56.674287
940.000000	56.604067
941.000000	56.554609
942.000000	56.505242
943.000000	56.438628
944.000000	56.386280
945.000000	56.350518
946.000000	56.303307
947.000000	56.249927
948.000000	56.210146
949.000000	56.174616
950.000000	56.131354
951.000000	56.096853
952.000000	56.057332
953.000000	56.011054
954.000000	55.985262
955.000000	55.957069
956.000000	55.920850
957.000000	55.896487
958.000000	55.864419
959.000000	55.832668
960.000000	55.808192
961.000000	55.785003
962.000000	55.767652
963.000000	55.754793
964.000000	55.737706
965.000000	55.712753
966.000000	55.696328
967.000000	55.696572
968.000000	55.678765
969.000000	55.670584
970.000000	55.665692
971.000000	55.657303
972.000000	55.650813
973.000000	55.641241
974.000000	55.635280
975.000000	55.622888
976.000000	55.610531
977.000000	55.603976
978.000000	55.603792
979.000000	55.597231
980.000000	55.591655
981.000000	55.582658
982.000000	55.583254
983.000000	55.581395
984.000000	55.580521
985.000000	55.583864
986.000000	55.594739
987.000000	55.594088
988.000000	55.604279
989.000000	55.618954
990.000000	55.634296
991.000000	55.653245
992.000000	55.681126
993.000000	55.698290
994.000000	55.729672
995.000000	55.763007
996.000000	55.793353
997.000000	55.822138
998.000000	55.850842
999.000000	55.900437
1000.000000	55.944310
1001.000000	55.982861
1002.000000	56.030407
1003.000000	56.070171
1004.000000	56.121265
1005.000000	56.168120
1006.000000	56.210118
1007.000000	56.256470
1008.000000	56.306472
1009.000000	56.359341
1010.000000	56.418216
1011.000000	56.470874
1012.000000	56.528413
1013.000000	56.593617
1014.000000	56.652436
1015.000000	56.731830
1016.000000	56.821177
1017.000000	56.880868
1018.000000	56.964322
1019.000000	57.039385
1020.000000	57.123194
1021.000000	57.210590
1022.000000	57.289128
1023.000000	57.373748
1024.000000	57.452681
1025.000000	57.527940
1026.000000	57.602561
1027.000000	57.683012
1028.000000	57.757868
1029.000000	57.811249
1030.000000	57.883811
1031.000000	57.955453
1032.000000	58.018895
1033.000000	58.088063
1034.000000	58.144679
1035.000000	58.206516
1036.000000	58.270211
1037.000000	58.323920
1038.000000	58.377919
1039.000000	58.431008
1040.000000	58.488216
1041.000000	58.550158
1042.000000	58.616808
1043.000000	58.665360
1044.000000	58.707204
1045.000000	58.776806
1046.000000	58.836408
1047.000000	58.895507
1048.000000	58.957143
1049.000000	59.030212
1050.000000	59.095025
1051.000000	59.138626
1052.000000	59.216167
1053.000000	59.294508
1054.000000	59.364357
1055.000000	59.440838
1056.000000	59.496936
1057.000000	59.572609
1058.000000	59.645013
1059.000000	59.709619
1060.000000	59.796259
1061.000000	59.862732
1062.000000	59.916928
1063.000000	59.991449
1064.000000	60.054856
1065.000000	60.113924
1066.000000	60.170940
1067.000000	60.240772
1068.000000	60.305209
1069.000000	60.360286
1070.000000	60.426996
1071.000000	60.482613
1072.000000	60.533938
1073.000000	60.581444
1074.000000	60.651598
1075.000000	60.717730
1076.000000	60.765762
1077.000000	60.815899
1078.000000	60.880391
1079.000000	60.929824
1080.000000	60.977783
1081.000000	61.028438
1082.000000	61.074196
1083.000000	61.131082
1084.000000	61.191898
1085.000000	61.239035
1086.000000	61.286355
1087.000000	61.332716
1088.000000	61.390547
1089.000000	61.427306
1090.000000	61.473466
1091.000000	61.519214
1092.000000	61.547506
1093.000000	61.597318
1094.000000	61.625920
1095.000000	61.662279
1096.000000	61.701105
1097.000000	61.721001
1098.000000	61.753760
1099.000000	61.789017
1100.000000	61.817875
1101.000000	61.830617
1102.000000	61.855237
1103.000000	61.881730
1104.000000	61.902601
1105.000000	61.918997
1106.000000	61.932142
1107.000000	61.953784
1108.000000	61.971415
1109.000000	61.988229
1110.000000	62.002198
1111.000000	62.015073
1112.000000	62.033346
1113.000000	62.039451
1114.000000	62.045652
1115.000000	62.061333
1116.000000	62.072212
1117.000000	62.068012
1118.000000	62.049702
1119.000000	62.037046
1120.000000	62.013458
1121.000000	61.983073
1122.000000	61.934400
1123.000000	61.875487
1124.000000	61.798209
1125.000000	61.718584
1126.000000	61.610809
1127.000000	61.489451
1128.000000	61.321865
1129.000000	61.134762
1130.000000	60.907736
1131.000000	60.659739
1132.000000	60.400314
1133.000000	60.138053
1134.000000	59.825548
1135.000000	59.494654
1136.000000	59.156204
1137.000000	58.835804
1138.000000	58.549345
1139.000000	58.269946
1140.000000	57.993319
1141.000000	57.726982
1142.000000	57.480722
1143.000000	57.266235
1144.000000	57.073489
1145.000000	56.914415
1146.000000	56.808297
1147.000000	56.728951
1148.000000	56.657065
1149.000000	56.598659
1150.000000	56.537866
1151.000000	56.469972
1152.000000	56.377719
1153.000000	56.241604
1154.000000	56.073175
1155.000000	55.893427
1156.000000	55.669681
1157.000000	55.431210
1158.000000	55.167586
1159.000000	54.909831
1160.000000	54.645988
1161.000000	54.366781
1162.000000	54.081458
1163.000000	53.795656
1164.000000	53.522592
1165.000000	53.264485
1166.000000	52.994402
1167.000000	52.733579
1168.000000	52.473992
1169.000000	52.216030
1170.000000	51.970685
1171.000000	51.728187
1172.000000	51.494343
1173.000000	51.268497
1174.000000	51.030982
1175.000000	50.794636
1176.000000	50.534643
1177.000000	50.231201
1178.000000	49.890428
1179.000000	49.524494
1180.000000	49.157172
1181.000000	48.813778
1182.000000	48.518675
1183.000000	48.306463
1184.000000	48.194298
1185.000000	48.182944
1186.000000	48.263383
1187.000000	48.422582
1188.000000	48.662754
1189.000000	48.967875
1190.000000	49.300031
1191.000000	49.632801
1192.000000	49.932682
1193.000000	50.192405
1194.000000	50.416838
1195.000000	50.594075
1196.000000	50.731707
1197.000000	50.844509
1198.000000	50.937209
1199.000000	51.008909
1200.000000	51.063705
1201.000000	51.116213
1202.000000	51.161440
1203.000000	51.211242
1204.000000	51.279024
1205.000000	51.350547
1206.000000	51.426635
1207.000000	51.522664
1208.000000	51.628093
1209.000000	51.726894
1210.000000	51.831487
1211.000000	51.946216
1212.000000	52.072251
1213.000000	52.185268
1214.000000	52.307566
1215.000000	52.436165
1216.000000	52.562905
1217.000000	52.691536
1218.000000	52.820266
1219.000000	52.959692
1220.000000	53.098935
1221.000000	53.241107
1222.000000	53.392451
1223.000000	53.539356
1224.000000	53.681545
1225.000000	53.825660
1226.000000	53.968999
1227.000000	54.109305
1228.000000	54.253432
1229.000000	54.398694
1230.000000	54.532726
1231.000000	54.662022
1232.000000	54.791098
1233.000000	54.914447
1234.000000	55.039050
1235.000000	55.160209
1236.000000	55.270598
1237.000000	55.380498
1238.000000	55.491981
1239.000000	55.598891
1240.000000	55.705110
1241.000000	55.818554
1242.000000	55.924041
1243.000000	56.022745
1244.000000	56.105149
1245.000000	56.195967
1246.000000	56.292966
1247.000000	56.364161
1248.000000	56.440441
1249.000000	56.507784
1250.000000	56.555638
1251.000000	56.615388
1252.000000	56.678345
1253.000000	56.721970
1254.000000	56.770888
1255.000000	56.815122
1256.000000	56.848451
1257.000000	56.889314
1258.000000	56.933783
1259.000000	56.966802
1260.000000	57.002794
1261.000000	57.039798
1262.000000	57.074113
1263.000000	57.104080
1264.000000	57.142462
1265.000000	57.180283
1266.000000	57.209823
1267.000000	57.245072
1268.000000	57.274916
1269.000000	57.305470
1270.000000	57.340725
1271.000000	57.372433
1272.000000	57.403042
1273.000000	57.435117
1274.000000	57.466658
1275.000000	57.505366
1276.000000	57.549828
1277.000000	57.591196
1278.000000	57.633933
1279.000000	57.682611
1280.000000	57.736649
1281.000000	57.788260
1282.000000	57.828386
1283.000000	57.874808
1284.000000	57.929714
1285.000000	57.963788
1286.000000	57.998574
1287.000000	58.025864
1288.000000	58.060461
1289.000000	58.082971
1290.000000	58.105025
1291.000000	58.108370
1292.000000	58.119195
1293.000000	58.121104
1294.000000	58.113330
1295.000000	58.102300
1296.000000	58.089288
1297.000000	58.076760
1298.000000	58.057580
1299.000000	58.026164
1300.000000	57.997659
1301.000000	57.966398
1302.000000	57.928743
1303.000000	57.881978
1304.000000	57.825349
1305.000000	57.777386
1306.000000	57.720211
1307.000000	57.653190
1308.000000	57.575944
1309.000000	57.496073
1310.000000	57.401870
1311.000000	57.318661
1312.000000	57.216743
1313.000000	57.121935
1314.000000	57.013846
1315.000000	56.898367
1316.000000	56.786305
1317.000000	56.667045
1318.000000	56.533893
1319.000000	56.403469
1320.000000	56.267585
1321.000000	56.123287
1322.000000	55.980291
1323.000000	55.823426
1324.000000	55.678514
1325.000000	55.499246
1326.000000	55.332976
1327.000000	55.159725
1328.000000	54.969420
1329.000000	54.783279
1330.000000	54.591892
1331.000000	54.377831
1332.000000	54.157167
1333.000000	53.929587
1334.000000	53.705317
1335.000000	53.487140
1336.000000	53.239441
1337.000000	52.993852
1338.000000	52.744838
1339.000000	52.499088
1340.000000	52.243208
1341.000000	51.963386
1342.000000	51.712812
1343.000000	51.430208
1344.000000	51.134564
1345.000000	50.841614
1346.000000	50.551643
1347.000000	50.250678
1348.000000	49.905853
1349.000000	49.558569
1350.000000	49.189087
1351.000000	48.781342
1352.000000	48.378168
1353.000000	48.092679
1354.000000	47.775485
1355.000000	47.503670
1356.000000	47.312638
1357.000000	47.205851
1358.000000	47.104161
1359.000000	47.061132
1360.000000	47.005704
1361.000000	46.862521
1362.000000	46.708589
1363.000000	46.538818
1364.000000	46.374899
1365.000000	46.184946
1366.000000	46.004198
1367.000000	45.774709
1368.000000	45.512006
1369.000000	45.246581
1370.000000	44.988295
1371.000000	44.667532
1372.000000	44.367777
1373.000000	44.098122
1374.000000	43.874005
1375.000000	43.673286
1376.000000	43.500728
1377.000000	43.308828
1378.000000	43.126556
1379.000000	42.866892
1380.000000	42.625388
1381.000000	42.220256
1382.000000	41.734261
1383.000000	41.202283
1384.000000	40.689232
1385.000000	40.192937
1386.000000	39.733903
1387.000000	39.297114
1388.000000	38.833543
1389.000000	38.440860
1390.000000	38.117788
1391.000000	37.757012
1392.000000	37.397907
1393.000000	37.110430
1394.000000	36.829687
1395.000000	36.454588
1396.000000	36.030370
1397.000000	35.687909
1398.000000	35.410430
1399.000000	35.068467
1400.000000	34.633633
1401.000000	34.148896
1402.000000	33.760653
1403.000000	33.344609
1404.000000	32.942631
1405.000000	32.511703
1406.000000	32.090116
1407.000000	31.726151
1408.000000	31.327743
1409.000000	30.937535
1410.000000	30.556652
1411.000000	30.215016
1412.000000	29.954994
1413.000000	29.672277
1414.000000	29.367812
1415.000000	29.055865
1416.000000	28.768737
1417.000000	28.543871
1418.000000	28.303116
1419.000000	28.036511
1420.000000	27.782446
1421.000000	27.545413
1422.000000	27.337316
1423.000000	27.125164
1424.000000	26.904962
1425.000000	26.699430
1426.000000	26.506387
1427.000000	26.335979
1428.000000	26.155096
1429.000000	25.997095
1430.000000	25.863523
1431.000000	25.732880
1432.000000	25.599536
1433.000000	25.456075
1434.000000	25.329582
1435.000000	25.203823
1436.000000	25.097200
1437.000000	24.997417
1438.000000	24.879085
1439.000000	24.780649
1440.000000	24.675431
1441.000000	24.578607
1442.000000	24.474788
1443.000000	24.379417
1444.000000	24.308259
1445.000000	24.211549
1446.000000	24.116869
1447.000000	24.018829
1448.000000	23.941240
1449.000000	23.896226
1450.000000	23.825711
1451.000000	23.738069
1452.000000	23.665498
1453.000000	23.594838
1454.000000	23.530296
1455.000000	23.469666
1456.000000	23.412970
1457.000000	23.359458
1458.000000	23.320549
1459.000000	23.277611
1460.000000	23.240242
1461.000000	23.211757
1462.000000	23.186524
1463.000000	23.163680
1464.000000	23.142565
1465.000000	23.125089
1466.000000	23.121791
1467.000000	23.117638
1468.000000	23.105426
1469.000000	23.107582
1470.000000	23.108717
1471.000000	23.097811
1472.000000	23.088508
1473.000000	23.089207
1474.000000	23.086643
1475.000000	23.086811
1476.000000	23.082726
1477.000000	23.094597
1478.000000	23.114093
1479.000000	23.127035
1480.000000	23.145307
1481.000000	23.164155
1482.000000	23.181479
1483.000000	23.199004
1484.000000	23.227823
1485.000000	23.266276
1486.000000	23.294692
1487.000000	23.313689
1488.000000	23.352921
1489.000000	23.389589
1490.000000	23.424344
1491.000000	23.460947
1492.000000	23.494269
1493.000000	23.534405
1494.000000	23.583845
1495.000000	23.619961
1496.000000	23.655537
1497.000000	23.710635
1498.000000	23.764275
1499.000000	23.815802
1500.000000	23.870315
1501.000000	23.926935
1502.000000	23.988157
1503.000000	24.050234
1504.000000	24.117665
1505.000000	24.184764
1506.000000	24.245337
1507.000000	24.310382
1508.000000	24.375337
1509.000000	24.448245
1510.000000	24.517478
1511.000000	24.575826
1512.000000	24.634756
1513.000000	24.700591
1514.000000	24.769228
1515.000000	24.829395
1516.000000	24.889313
1517.000000	24.949241
1518.000000	25.007975
1519.000000	25.071748
1520.000000	25.126825
1521.000000	25.177049
1522.000000	25.234577
1523.000000	25.291283
1524.000000	25.344495
1525.000000	25.393440
1526.000000	25.446948
1527.000000	25.502740
1528.000000	25.551741
1529.000000	25.597143
1530.000000	25.636058
1531.000000	25.684578
1532.000000	25.734378
1533.000000	25.772482
1534.000000	25.807867
1535.000000	25.851358
1536.000000	25.886330
1537.000000	25.918216
1538.000000	25.960590
1539.000000	25.988591
1540.000000	26.016006
1541.000000	26.048431
1542.000000	26.085640
1543.000000	26.120507
1544.000000	26.148478
1545.000000	26.191636
1546.000000	26.234779
1547.000000	26.279233
1548.000000	26.328784
1549.000000	26.374393
1550.000000	26.411227
1551.000000	26.447238
1552.000000	26.491086
1553.000000	26.527707
1554.000000	26.559125
1555.000000	26.587143
1556.000000	26.613585
1557.000000	26.637283
1558.000000	26.655190
1559.000000	26.678883
1560.000000	26.694872
1561.000000	26.706590
1562.000000	26.715334
1563.000000	26.717388
1564.000000	26.728847
1565.000000	26.731319
1566.000000	26.739180
1567.000000	26.741912
1568.000000	26.744487
1569.000000	26.754912
1570.000000	26.770193
1571.000000	26.775010
1572.000000	26.785360
1573.000000	26.807499
1574.000000	26.832366
1575.000000	26.855755
1576.000000	26.882957
1577.000000	26.907977
1578.000000	26.935850
1579.000000	26.972280
1580.000000	27.008112
1581.000000	27.042622
1582.000000	27.094026
1583.000000	27.138875
1584.000000	27.193804
1585.000000	27.240947
1586.000000	27.289519
1587.000000	27.340373
1588.000000	27.396958
1589.000000	27.445916
1590.000000	27.502679
1591.000000	27.556691
1592.000000	27.609045
1593.000000	27.667146
1594.000000	27.728582
1595.000000	27.788068
1596.000000	27.853012
1597.000000	27.922338
1598.000000	27.988242
1599.000000	28.059478
1600.000000	28.127099
1601.000000	28.197176
1602.000000	28.264100
1603.000000	28.334506
1604.000000	28.402642
1605.000000	28.483285
1606.000000	28.549678
1607.000000	28.619865
1608.000000	28.685163
1609.000000	28.765756
1610.000000	28.807546
1611.000000	28.871064
1612.000000	28.944883
1613.000000	29.022665
1614.000000	29.085383
1615.000000	29.142138
1616.000000	29.212393
1617.000000	29.285997
1618.000000	29.360442
1619.000000	29.419401
1620.000000	29.499140
1621.000000	29.572718
1622.000000	29.647824
1623.000000	29.712113
1624.000000	29.798072
1625.000000	29.873627
1626.000000	29.961288
1627.000000	30.038292
1628.000000	30.110465
1629.000000	30.195432
1630.000000	30.276780
1631.000000	30.350880
1632.000000	30.413818
1633.000000	30.485375
1634.000000	30.558928
1635.000000	30.618548
1636.000000	30.689313
1637.000000	30.753332
1638.000000	30.811056
1639.000000	30.861640
1640.000000	30.916628
1641.000000	30.960220
1642.000000	31.028809
1643.000000	31.081342
1644.000000	31.127604
1645.000000	31.168124
1646.000000	31.214456
1647.000000	31.242955
1648.000000	31.281775
1649.000000	31.318888
1650.000000	31.342889
1651.000000	31.353467
1652.000000	31.381781
1653.000000	31.382009
1654.000000	31.379254
1655.000000	31.384114
1656.000000	31.358299
1657.000000	31.323420
1658.000000	31.287271
1659.000000	31.240507
1660.000000	31.205454
1661.000000	31.136144
1662.000000	31.061105
1663.000000	30.982667
1664.000000	30.886046
1665.000000	30.801475
1666.000000	30.684227
1667.000000	30.545655
1668.000000	30.425963
1669.000000	30.254853
1670.000000	30.061868
1671.000000	29.862063
1672.000000	29.628505
1673.000000	29.341270
1674.000000	29.016090
1675.000000	28.661260
1676.000000	28.255620
1677.000000	27.798438
1678.000000	27.325526
1679.000000	26.867865
1680.000000	26.441785
1681.000000	26.105460
1682.000000	25.835346
1683.000000	25.669875
1684.000000	25.570269
1685.000000	25.511621
1686.000000	25.469910
1687.000000	25.420794
1688.000000	25.326356
1689.000000	25.226450
1690.000000	25.093033
1691.000000	24.966600
1692.000000	24.864439
1693.000000	24.810021
1694.000000	24.790049
1695.000000	24.839494
1696.000000	24.925826
1697.000000	25.048384
1698.000000	25.185525
1699.000000	25.337144
1700.000000	25.472660
1701.000000	25.592450
1702.000000	25.680692
1703.000000	25.759534
1704.000000	25.819937
1705.000000	25.846710
1706.000000	25.879832
1707.000000	25.897403
1708.000000	25.896189
1709.000000	25.874135
1710.000000	25.833115
1711.000000	25.768444
1712.000000	25.692404
1713.000000	25.608947
1714.000000	25.510649
1715.000000	25.416553
1716.000000	25.313147
1717.000000	25.239235
1718.000000	25.172409
1719.000000	25.107365
1720.000000	25.057070
1721.000000	25.009929
1722.000000	24.944593
1723.000000	24.888018
1724.000000	24.825561
1725.000000	24.742389
1726.000000	24.664577
1727.000000	24.571593
1728.000000	24.468702
1729.000000	24.385171
1730.000000	24.316324
1731.000000	24.273420
1732.000000	24.269157
1733.000000	24.291629
1734.000000	24.364959
1735.000000	24.473308
1736.000000	24.614369
1737.000000	24.788311
1738.000000	24.979935
1739.000000	25.175569
1740.000000	25.373916
1741.000000	25.559681
1742.000000	25.714125
1743.000000	25.854401
1744.000000	25.974340
1745.000000	26.064394
1746.000000	26.145119
1747.000000	26.196445
1748.000000	26.237954
1749.000000	26.265068
1750.000000	26.280780
1751.000000	26.281979
1752.000000	26.265842
1753.000000	26.225575
1754.000000	26.179084
1755.000000	26.121496
1756.000000	26.061677
1757.000000	25.991457
1758.000000	25.916857
1759.000000	25.856966
1760.000000	25.809749
1761.000000	25.777216
1762.000000	25.773401
1763.000000	25.795077
1764.000000	25.831299
1765.000000	25.893180
1766.000000	25.974113
1767.000000	26.065346
1768.000000	26.153058
1769.000000	26.261146
1770.000000	26.371598
1771.000000	26.465410
1772.000000	26.564361
1773.000000	26.670531
1774.000000	26.770081
1775.000000	26.855614
1776.000000	26.945032
1777.000000	27.025046
1778.000000	27.091897
1779.000000	27.166597
1780.000000	27.235149
1781.000000	27.307781
1782.000000	27.372078
1783.000000	27.440864
1784.000000	27.504936
1785.000000	27.559833
1786.000000	27.622877
1787.000000	27.683228
1788.000000	27.729859
1789.000000	27.780258
1790.000000	27.839151
1791.000000	27.892886
1792.000000	27.941058
1793.000000	27.991059
1794.000000	28.049559
1795.000000	28.098619
1796.000000	28.137805
1797.000000	28.191489
1798.000000	28.253026
1799.000000	28.305703
1800.000000	28.357702
1801.000000	28.413051
1802.000000	28.465679
1803.000000	28.510005
1804.000000	28.556649
1805.000000	28.613546
1806.000000	28.663973
1807.000000	28.697261
1808.000000	28.733381
1809.000000	28.782958
1810.000000	28.820049
1811.000000	28.845989
1812.000000	28.872765
1813.000000	28.887194
1814.000000	28.912670
1815.000000	28.929518
1816.000000	28.937062
1817.000000	28.956830
1818.000000	28.998119
1819.000000	29.039900
1820.000000	29.058976
1821.000000	29.057261
1822.000000	29.059953
1823.000000	29.099787
1824.000000	29.161554
1825.000000	29.224771
1826.000000	29.266790
1827.000000	29.323373
1828.000000	29.396374
1829.000000	29.454015
1830.000000	29.494433
1831.000000	29.543961
1832.000000	29.597176
1833.000000	29.672567
1834.000000	29.740622
1835.000000	29.782571
1836.000000	29.806284
1837.000000	29.833378
1838.000000	29.862243
1839.000000	29.888845
1840.000000	29.898357
1841.000000	29.889215
1842.000000	29.864617
1843.000000	29.883133
1844.000000	29.932701
1845.000000	29.991654
1846.000000	30.024279
1847.000000	30.010726
1848.000000	29.972351
1849.000000	29.959535
1850.000000	29.959469
1851.000000	29.945927
1852.000000	29.940535
1853.000000	29.926793
1854.000000	29.867001
1855.000000	29.812770
1856.000000	29.760092
1857.000000	29.686933
1858.000000	29.583743
1859.000000	29.462582
1860.000000	29.321766
1861.000000	29.164856
1862.000000	29.016061
1863.000000	28.885614
1864.000000	28.748268
1865.000000	28.581725
1866.000000	28.408718
1867.000000	28.197152
1868.000000	27.932536
1869.000000	27.600689
1870.000000	27.246024
1871.000000	26.878497
1872.000000	26.470912
1873.000000	26.043241
1874.000000	25.604953
1875.000000	25.148320
1876.000000	24.689250
1877.000000	24.201470
1878.000000	23.694456
1879.000000	23.208727
1880.000000	22.706095
1881.000000	22.146849
1882.000000	21.610825
1883.000000	21.045135
1884.000000	20.467421
1885.000000	19.968049
1886.000000	19.494280
1887.000000	19.070317
1888.000000	18.635942
1889.000000	18.212870
1890.000000	17.795223
1891.000000	17.367901
1892.000000	16.943262
1893.000000	16.593691
1894.000000	16.274818
1895.000000	15.993781
1896.000000	15.692462
1897.000000	15.383218
1898.000000	15.064627
1899.000000	14.723858
1900.000000	14.408999
1901.000000	14.135882
1902.000000	13.880986
1903.000000	13.633614
1904.000000	13.367311
1905.000000	13.096665
1906.000000	12.841346
1907.000000	12.612563
1908.000000	12.415548
1909.000000	12.260962
1910.000000	12.086306
1911.000000	11.923993
1912.000000	11.726152
1913.000000	11.524145
1914.000000	11.336122
1915.000000	11.203490
1916.000000	11.081317
1917.000000	10.953792
1918.000000	10.825428
1919.000000	10.702432
1920.000000	10.569496
1921.000000	10.433853
1922.000000	10.329331
1923.000000	10.243356
1924.000000	10.165510
1925.000000	10.096130
1926.000000	10.017679
1927.000000	9.951374
1928.000000	9.884604
1929.000000	9.831676
1930.000000	9.793172
1931.000000	9.752033
1932.000000	9.722631
1933.000000	9.717664
1934.000000	9.706204
1935.000000	9.689045
1936.000000	9.689246
1937.000000	9.682714
1938.000000	9.697508
1939.000000	9.707822
1940.000000	9.727771
1941.000000	9.749713
1942.000000	9.777990
1943.000000	9.807607
1944.000000	9.833473
1945.000000	9.890700
1946.000000	9.931615
1947.000000	9.969133
1948.000000	10.016244
1949.000000	10.081965
1950.000000	10.114935
1951.000000	10.186257
1952.000000	10.237838
1953.000000	10.297497
1954.000000	10.369916
1955.000000	10.425272
1956.000000	10.502741
1957.000000	10.580643
1958.000000	10.634399
1959.000000	10.694240
1960.000000	10.771402
1961.000000	10.830653
1962.000000	10.905025
1963.000000	10.983349
1964.000000	11.045208
1965.000000	11.117359
1966.000000	11.191323
1967.000000	11.277232
1968.000000	11.337401
1969.000000	11.416732
1970.000000	11.485877
1971.000000	11.562985
1972.000000	11.638341
1973.000000	11.716950
1974.000000	11.805820
1975.000000	11.884867
1976.000000	11.977035
1977.000000	12.063053
1978.000000	12.131125
1979.000000	12.224357
1980.000000	12.297997
1981.000000	12.392547
1982.000000	12.477045
1983.000000	12.552007
1984.000000	12.623882
1985.000000	12.711349
1986.000000	12.794827
1987.000000	12.868694
1988.000000	12.948123
1989.000000	13.033454
1990.000000	13.110007
1991.000000	13.174408
1992.000000	13.246064
1993.000000	13.321965
1994.000000	13.385801
1995.000000	13.460486
1996.000000	13.522959
1997.000000	13.578921
1998.000000	13.639991
1999.000000	13.699244
