PE UV       SUBTECH     SPECTRUM    ASCII       PEDS        4.00        
   -1
CICIMAUCR0250-3.Sample.ASC
24/05/27
16:50:50.00
24/05/27
16:50:50.00
Vinicio Soto Monge
C. resplendens, M
250,000000
1
Lambda 1050
1050L1511233
PerkinElmer UV WinLab 6.3.2.0749 / 2.02.05 Lambda 900 UV/VIS/NIR, Aug  7 2015 09:38:08

0
0
3350/servo 860,8/2
0
0
UV/VIS
1
1
1
DoubleDePol,CommonBeamDepol,RBeamAtt,SBeamAtt,60mm sphere, WB InGaAs Detector
0
0
0
0
Program
Program
3350/servo 860,8/2
3350/0,2 860,8/0,2
3350/0,2 860,8/0,2
0
15.00
 
 
 
0
 
860,8
319,2
860,8
Front
100
on
S:100 R:100
0
0
0
0
 
0
 
 
 
0
 
 
0
0
0
0
0
 
 
 
 
0
0


0
0
#HDR
-1
-1
#GR
nm
%R
1.0
0.0
2500,000000
-1,000000
2251
8
89,705100
5,547200
#DATA
250.000000	6.313633
251.000000	6.282600
252.000000	6.254233
253.000000	6.267733
254.000000	6.254267
255.000000	6.236000
256.000000	6.220900
257.000000	6.196033
258.000000	6.175533
259.000000	6.175000
260.000000	6.155100
261.000000	6.134067
262.000000	6.105400
263.000000	6.092167
264.000000	6.084467
265.000000	6.039767
266.000000	6.009900
267.000000	6.002400
268.000000	5.974100
269.000000	5.948900
270.000000	5.957433
271.000000	5.947800
272.000000	5.923100
273.000000	5.917300
274.000000	5.901500
275.000000	5.908000
276.000000	5.899600
277.000000	5.874367
278.000000	5.875367
279.000000	5.867300
280.000000	5.870533
281.000000	5.854667
282.000000	5.849167
283.000000	5.836400
284.000000	5.813300
285.000000	5.812200
286.000000	5.808267
287.000000	5.776067
288.000000	5.788800
289.000000	5.784700
290.000000	5.761433
291.000000	5.772533
292.000000	5.759700
293.000000	5.739667
294.000000	5.733433
295.000000	5.733467
296.000000	5.724000
297.000000	5.712400
298.000000	5.708500
299.000000	5.679767
300.000000	5.684467
301.000000	5.701367
302.000000	5.683067
303.000000	5.673067
304.000000	5.656567
305.000000	5.640567
306.000000	5.647700
307.000000	5.653200
308.000000	5.643233
309.000000	5.630867
310.000000	5.636600
311.000000	5.655967
312.000000	5.638333
313.000000	5.610100
314.000000	5.621067
315.000000	5.636600
316.000000	5.724900
317.000000	5.837400
318.000000	5.841233
319.000000	5.873000
320.000000	5.908400
321.000000	5.823667
322.000000	5.797833
323.000000	5.854767
324.000000	5.827500
325.000000	5.810067
326.000000	5.749567
327.000000	5.699733
328.000000	5.716933
329.000000	5.801667
330.000000	5.840133
331.000000	5.761133
332.000000	5.769500
333.000000	5.756267
334.000000	5.711167
335.000000	5.727833
336.000000	5.725667
337.000000	5.790500
338.000000	5.813033
339.000000	5.785267
340.000000	5.828700
341.000000	5.809833
342.000000	5.831767
343.000000	5.853067
344.000000	5.779800
345.000000	5.744400
346.000000	5.769433
347.000000	5.849467
348.000000	5.906100
349.000000	5.883467
350.000000	5.880200
351.000000	5.833333
352.000000	5.864667
353.000000	5.904767
354.000000	5.929733
355.000000	6.007700
356.000000	6.021133
357.000000	6.027733
358.000000	6.057767
359.000000	6.128067
360.000000	6.153567
361.000000	6.168500
362.000000	6.205600
363.000000	6.225100
364.000000	6.257267
365.000000	6.284300
366.000000	6.356900
367.000000	6.415267
368.000000	6.378267
369.000000	6.395833
370.000000	6.472467
371.000000	6.485867
372.000000	6.455133
373.000000	6.449367
374.000000	6.537300
375.000000	6.621800
376.000000	6.664100
377.000000	6.706100
378.000000	6.747200
379.000000	6.792167
380.000000	6.850700
381.000000	6.908500
382.000000	6.969467
383.000000	7.032933
384.000000	7.105033
385.000000	7.185700
386.000000	7.255633
387.000000	7.325467
388.000000	7.409133
389.000000	7.503967
390.000000	7.598933
391.000000	7.707867
392.000000	7.821900
393.000000	7.937300
394.000000	8.058233
395.000000	8.185500
396.000000	8.333700
397.000000	8.478867
398.000000	8.646867
399.000000	8.820900
400.000000	9.024233
401.000000	9.222700
402.000000	9.436667
403.000000	9.686633
404.000000	9.926467
405.000000	10.200233
406.000000	10.469367
407.000000	10.744867
408.000000	11.061000
409.000000	11.380700
410.000000	11.711333
411.000000	12.068733
412.000000	12.433900
413.000000	12.806767
414.000000	13.192500
415.000000	13.596067
416.000000	14.009800
417.000000	14.432967
418.000000	14.847433
419.000000	15.267133
420.000000	15.706633
421.000000	16.132200
422.000000	16.576567
423.000000	17.000667
424.000000	17.452500
425.000000	17.887067
426.000000	18.341967
427.000000	18.763467
428.000000	19.169467
429.000000	19.592567
430.000000	20.020700
431.000000	20.402167
432.000000	20.810100
433.000000	21.221233
434.000000	21.593667
435.000000	21.987133
436.000000	22.329600
437.000000	22.677400
438.000000	23.041000
439.000000	23.370033
440.000000	23.689767
441.000000	24.006700
442.000000	24.298033
443.000000	24.619367
444.000000	24.871600
445.000000	25.126333
446.000000	25.356667
447.000000	25.619333
448.000000	25.832833
449.000000	26.037133
450.000000	26.244733
451.000000	26.422000
452.000000	26.599267
453.000000	26.751200
454.000000	26.880600
455.000000	27.007267
456.000000	27.122367
457.000000	27.214800
458.000000	27.326567
459.000000	27.393667
460.000000	27.442933
461.000000	27.512733
462.000000	27.541233
463.000000	27.548567
464.000000	27.587767
465.000000	27.598367
466.000000	27.584000
467.000000	27.578467
468.000000	27.554633
469.000000	27.547900
470.000000	27.502000
471.000000	27.468167
472.000000	27.442833
473.000000	27.412200
474.000000	27.390133
475.000000	27.360700
476.000000	27.345600
477.000000	27.344433
478.000000	27.355333
479.000000	27.379267
480.000000	27.401600
481.000000	27.465667
482.000000	27.539933
483.000000	27.643667
484.000000	27.752900
485.000000	27.908767
486.000000	28.079333
487.000000	28.261733
488.000000	28.458567
489.000000	28.696533
490.000000	28.981100
491.000000	29.276467
492.000000	29.577600
493.000000	29.941700
494.000000	30.274633
495.000000	30.662700
496.000000	31.079867
497.000000	31.494633
498.000000	31.934500
499.000000	32.416133
500.000000	32.890900
501.000000	33.381767
502.000000	33.904133
503.000000	34.426100
504.000000	34.927067
505.000000	35.480100
506.000000	36.036133
507.000000	36.607867
508.000000	37.198467
509.000000	37.827567
510.000000	38.489533
511.000000	39.187067
512.000000	39.932200
513.000000	40.709367
514.000000	41.533333
515.000000	42.374300
516.000000	43.246133
517.000000	44.186500
518.000000	45.157167
519.000000	46.161700
520.000000	47.224433
521.000000	48.305233
522.000000	49.444267
523.000000	50.602133
524.000000	51.797200
525.000000	53.012267
526.000000	54.227967
527.000000	55.466067
528.000000	56.697567
529.000000	57.942300
530.000000	59.204133
531.000000	60.453767
532.000000	61.687967
533.000000	62.915200
534.000000	64.117233
535.000000	65.288033
536.000000	66.425800
537.000000	67.509200
538.000000	68.558133
539.000000	69.557700
540.000000	70.547033
541.000000	71.480167
542.000000	72.400400
543.000000	73.269867
544.000000	74.099200
545.000000	74.900467
546.000000	75.637033
547.000000	76.364600
548.000000	77.034433
549.000000	77.683567
550.000000	78.344633
551.000000	78.940767
552.000000	79.504733
553.000000	80.058767
554.000000	80.620600
555.000000	81.126267
556.000000	81.583600
557.000000	82.049200
558.000000	82.478033
559.000000	82.886367
560.000000	83.293767
561.000000	83.665100
562.000000	84.017533
563.000000	84.374800
564.000000	84.703900
565.000000	85.042733
566.000000	85.328933
567.000000	85.637333
568.000000	85.922300
569.000000	86.183267
570.000000	86.441533
571.000000	86.710300
572.000000	86.943667
573.000000	87.191100
574.000000	87.407933
575.000000	87.609000
576.000000	87.774300
577.000000	87.962367
578.000000	88.121600
579.000000	88.255667
580.000000	88.389700
581.000000	88.468400
582.000000	88.584033
583.000000	88.624867
584.000000	88.651167
585.000000	88.680333
586.000000	88.710433
587.000000	88.695067
588.000000	88.644933
589.000000	88.629367
590.000000	88.573533
591.000000	88.482000
592.000000	88.388867
593.000000	88.277800
594.000000	88.152600
595.000000	88.004533
596.000000	87.827600
597.000000	87.657867
598.000000	87.440067
599.000000	87.225133
600.000000	87.006400
601.000000	86.744533
602.000000	86.486233
603.000000	86.196567
604.000000	85.882300
605.000000	85.548967
606.000000	85.190167
607.000000	84.819100
608.000000	84.376067
609.000000	83.918867
610.000000	83.449667
611.000000	82.914500
612.000000	82.321067
613.000000	81.691067
614.000000	81.039567
615.000000	80.342533
616.000000	79.612467
617.000000	78.862533
618.000000	78.041400
619.000000	77.204233
620.000000	76.363433
621.000000	75.471633
622.000000	74.541400
623.000000	73.575200
624.000000	72.586600
625.000000	71.553733
626.000000	70.504800
627.000000	69.441633
628.000000	68.329367
629.000000	67.188367
630.000000	66.032633
631.000000	64.862833
632.000000	63.716567
633.000000	62.560067
634.000000	61.445033
635.000000	60.386500
636.000000	59.372433
637.000000	58.437167
638.000000	57.579900
639.000000	56.797600
640.000000	56.132467
641.000000	55.582933
642.000000	55.147233
643.000000	54.845367
644.000000	54.665433
645.000000	54.599467
646.000000	54.649567
647.000000	54.831133
648.000000	55.137567
649.000000	55.524333
650.000000	56.032733
651.000000	56.639400
652.000000	57.343300
653.000000	58.140367
654.000000	58.961967
655.000000	59.794067
656.000000	60.647467
657.000000	61.559233
658.000000	62.459800
659.000000	63.330333
660.000000	64.224900
661.000000	65.141167
662.000000	66.034900
663.000000	66.887800
664.000000	67.704433
665.000000	68.508867
666.000000	69.279767
667.000000	70.054700
668.000000	70.780100
669.000000	71.451500
670.000000	72.102367
671.000000	72.753700
672.000000	73.384667
673.000000	73.985300
674.000000	74.555867
675.000000	75.083667
676.000000	75.568200
677.000000	76.033467
678.000000	76.477433
679.000000	76.895800
680.000000	77.255467
681.000000	77.592467
682.000000	77.886267
683.000000	78.173600
684.000000	78.447533
685.000000	78.676100
686.000000	78.832000
687.000000	79.032767
688.000000	79.174100
689.000000	79.285467
690.000000	79.406000
691.000000	79.526833
692.000000	79.596500
693.000000	79.644033
694.000000	79.696967
695.000000	79.729433
696.000000	79.782933
697.000000	79.862733
698.000000	79.944833
699.000000	80.001067
700.000000	80.053133
701.000000	80.140733
702.000000	80.253233
703.000000	80.407933
704.000000	80.557100
705.000000	80.761700
706.000000	80.932933
707.000000	81.149100
708.000000	81.423300
709.000000	81.673467
710.000000	81.967200
711.000000	82.292700
712.000000	82.606133
713.000000	82.987400
714.000000	83.329267
715.000000	83.690033
716.000000	84.149633
717.000000	84.479767
718.000000	84.862400
719.000000	85.267467
720.000000	85.661867
721.000000	86.053267
722.000000	86.450400
723.000000	86.838967
724.000000	87.227533
725.000000	87.609200
726.000000	87.916367
727.000000	88.302433
728.000000	88.666067
729.000000	88.936200
730.000000	89.218267
731.000000	89.521333
732.000000	89.822033
733.000000	90.059533
734.000000	90.324067
735.000000	90.527967
736.000000	90.760767
737.000000	90.898233
738.000000	91.127833
739.000000	91.333433
740.000000	91.477233
741.000000	91.639900
742.000000	91.788800
743.000000	91.866200
744.000000	91.904167
745.000000	92.086400
746.000000	92.129833
747.000000	92.249600
748.000000	92.308767
749.000000	92.378000
750.000000	92.424467
751.000000	92.511600
752.000000	92.580833
753.000000	92.564000
754.000000	92.665833
755.000000	92.778800
756.000000	92.745700
757.000000	92.729833
758.000000	92.693467
759.000000	92.695433
760.000000	92.752533
761.000000	92.765033
762.000000	92.756133
763.000000	92.810600
764.000000	92.700067
765.000000	92.545433
766.000000	92.507900
767.000000	92.429233
768.000000	92.294233
769.000000	92.259000
770.000000	92.175200
771.000000	91.974833
772.000000	91.867200
773.000000	91.727033
774.000000	91.599600
775.000000	91.518067
776.000000	91.334933
777.000000	91.105433
778.000000	90.976967
779.000000	90.992500
780.000000	90.790767
781.000000	90.620533
782.000000	90.499300
783.000000	90.420433
784.000000	90.204867
785.000000	90.132567
786.000000	90.006900
787.000000	89.999433
788.000000	89.899933
789.000000	89.861767
790.000000	89.603033
791.000000	89.610633
792.000000	89.330967
793.000000	89.160833
794.000000	89.067333
795.000000	89.011967
796.000000	88.805200
797.000000	88.602367
798.000000	88.439400
799.000000	88.111700
800.000000	87.849900
801.000000	87.411067
802.000000	87.191467
803.000000	86.937333
804.000000	86.625500
805.000000	86.149400
806.000000	85.819267
807.000000	85.510733
808.000000	85.049467
809.000000	84.667600
810.000000	84.160667
811.000000	83.780933
812.000000	83.374233
813.000000	82.852800
814.000000	82.507167
815.000000	82.078033
816.000000	81.696600
817.000000	81.255200
818.000000	80.831700
819.000000	80.525700
820.000000	79.997467
821.000000	79.579900
822.000000	79.231567
823.000000	78.922433
824.000000	78.496733
825.000000	78.202900
826.000000	78.004800
827.000000	77.767200
828.000000	77.393633
829.000000	77.318400
830.000000	76.932033
831.000000	76.684933
832.000000	76.407800
833.000000	76.443033
834.000000	76.156833
835.000000	76.113667
836.000000	75.951500
837.000000	75.875367
838.000000	75.651100
839.000000	75.580367
840.000000	75.645233
841.000000	75.489533
842.000000	75.299833
843.000000	75.318467
844.000000	75.065467
845.000000	74.928367
846.000000	75.189700
847.000000	75.123600
848.000000	74.912200
849.000000	74.645433
850.000000	74.694500
851.000000	74.732867
852.000000	74.521700
853.000000	74.533767
854.000000	74.422967
855.000000	74.088167
856.000000	73.874300
857.000000	73.716100
858.000000	73.892855
859.000000	73.755406
860.000000	73.622171
861.000000	73.494317
862.000000	73.354490
863.000000	73.210248
864.000000	73.082895
865.000000	72.947733
866.000000	72.817140
867.000000	72.666516
868.000000	72.561034
869.000000	72.452730
870.000000	72.396215
871.000000	72.389938
872.000000	72.426724
873.000000	72.483397
874.000000	72.562123
875.000000	72.600428
876.000000	72.604150
877.000000	72.591445
878.000000	72.567280
879.000000	72.539779
880.000000	72.497015
881.000000	72.461718
882.000000	72.405638
883.000000	72.369554
884.000000	72.312037
885.000000	72.260231
886.000000	72.209406
887.000000	72.147123
888.000000	72.083993
889.000000	72.020842
890.000000	71.966018
891.000000	71.900150
892.000000	71.820158
893.000000	71.742779
894.000000	71.641683
895.000000	71.553372
896.000000	71.451465
897.000000	71.339758
898.000000	71.217599
899.000000	71.093474
900.000000	70.967645
901.000000	70.833000
902.000000	70.697285
903.000000	70.561265
904.000000	70.426948
905.000000	70.290694
906.000000	70.166467
907.000000	70.033113
908.000000	69.897892
909.000000	69.767717
910.000000	69.647269
911.000000	69.524637
912.000000	69.412171
913.000000	69.285514
914.000000	69.150003
915.000000	69.027993
916.000000	68.913705
917.000000	68.790324
918.000000	68.674370
919.000000	68.552519
920.000000	68.428629
921.000000	68.303934
922.000000	68.178187
923.000000	68.043659
924.000000	67.906432
925.000000	67.775496
926.000000	67.645170
927.000000	67.521854
928.000000	67.395939
929.000000	67.246246
930.000000	67.112761
931.000000	66.978656
932.000000	66.837662
933.000000	66.697399
934.000000	66.550235
935.000000	66.408649
936.000000	66.270224
937.000000	66.118958
938.000000	65.978021
939.000000	65.840545
940.000000	65.702303
941.000000	65.557593
942.000000	65.411287
943.000000	65.271533
944.000000	65.123804
945.000000	64.968059
946.000000	64.812961
947.000000	64.656207
948.000000	64.500819
949.000000	64.345653
950.000000	64.187650
951.000000	64.025482
952.000000	63.862829
953.000000	63.703408
954.000000	63.551584
955.000000	63.400817
956.000000	63.253623
957.000000	63.101672
958.000000	62.946804
959.000000	62.800694
960.000000	62.659691
961.000000	62.516293
962.000000	62.374550
963.000000	62.240299
964.000000	62.107798
965.000000	61.986179
966.000000	61.863662
967.000000	61.735284
968.000000	61.621718
969.000000	61.507633
970.000000	61.395987
971.000000	61.284331
972.000000	61.162203
973.000000	61.059346
974.000000	60.953659
975.000000	60.848773
976.000000	60.738858
977.000000	60.628262
978.000000	60.534104
979.000000	60.437079
980.000000	60.335512
981.000000	60.241699
982.000000	60.154912
983.000000	60.063992
984.000000	59.973549
985.000000	59.892433
986.000000	59.806173
987.000000	59.728102
988.000000	59.649984
989.000000	59.577016
990.000000	59.509074
991.000000	59.449009
992.000000	59.383495
993.000000	59.326496
994.000000	59.275935
995.000000	59.222563
996.000000	59.175059
997.000000	59.136105
998.000000	59.085840
999.000000	59.053111
1000.000000	59.023245
1001.000000	58.993850
1002.000000	58.967159
1003.000000	58.932912
1004.000000	58.901187
1005.000000	58.882272
1006.000000	58.844256
1007.000000	58.820048
1008.000000	58.804613
1009.000000	58.797635
1010.000000	58.771739
1011.000000	58.769564
1012.000000	58.768197
1013.000000	58.781997
1014.000000	58.784462
1015.000000	58.814084
1016.000000	58.835662
1017.000000	58.857355
1018.000000	58.888524
1019.000000	58.925674
1020.000000	58.965981
1021.000000	59.006228
1022.000000	59.046938
1023.000000	59.096721
1024.000000	59.145324
1025.000000	59.188164
1026.000000	59.235509
1027.000000	59.287707
1028.000000	59.333503
1029.000000	59.379549
1030.000000	59.411659
1031.000000	59.461095
1032.000000	59.494721
1033.000000	59.539430
1034.000000	59.579760
1035.000000	59.629844
1036.000000	59.658651
1037.000000	59.704663
1038.000000	59.743590
1039.000000	59.777918
1040.000000	59.817855
1041.000000	59.858711
1042.000000	59.889628
1043.000000	59.934946
1044.000000	59.974391
1045.000000	60.018669
1046.000000	60.059221
1047.000000	60.102990
1048.000000	60.148384
1049.000000	60.193606
1050.000000	60.239023
1051.000000	60.293829
1052.000000	60.354523
1053.000000	60.405476
1054.000000	60.464543
1055.000000	60.521983
1056.000000	60.580021
1057.000000	60.640169
1058.000000	60.706167
1059.000000	60.757117
1060.000000	60.810053
1061.000000	60.874171
1062.000000	60.926316
1063.000000	60.971652
1064.000000	61.029210
1065.000000	61.077402
1066.000000	61.128949
1067.000000	61.171275
1068.000000	61.225035
1069.000000	61.276591
1070.000000	61.322432
1071.000000	61.374929
1072.000000	61.417881
1073.000000	61.459075
1074.000000	61.510061
1075.000000	61.561528
1076.000000	61.609478
1077.000000	61.643954
1078.000000	61.700395
1079.000000	61.746345
1080.000000	61.788812
1081.000000	61.842818
1082.000000	61.875482
1083.000000	61.931945
1084.000000	61.972713
1085.000000	62.017533
1086.000000	62.055824
1087.000000	62.109361
1088.000000	62.153754
1089.000000	62.187987
1090.000000	62.230722
1091.000000	62.263680
1092.000000	62.294747
1093.000000	62.341991
1094.000000	62.363999
1095.000000	62.404634
1096.000000	62.416659
1097.000000	62.444706
1098.000000	62.468668
1099.000000	62.489075
1100.000000	62.500103
1101.000000	62.513417
1102.000000	62.553474
1103.000000	62.548098
1104.000000	62.559265
1105.000000	62.566307
1106.000000	62.575017
1107.000000	62.588569
1108.000000	62.598541
1109.000000	62.611640
1110.000000	62.620266
1111.000000	62.625245
1112.000000	62.627470
1113.000000	62.633649
1114.000000	62.636194
1115.000000	62.634788
1116.000000	62.641624
1117.000000	62.629225
1118.000000	62.601536
1119.000000	62.575738
1120.000000	62.520416
1121.000000	62.475414
1122.000000	62.412899
1123.000000	62.320385
1124.000000	62.230894
1125.000000	62.123595
1126.000000	61.991135
1127.000000	61.830695
1128.000000	61.643165
1129.000000	61.396673
1130.000000	61.120204
1131.000000	60.818444
1132.000000	60.475933
1133.000000	60.147615
1134.000000	59.759738
1135.000000	59.339803
1136.000000	58.930857
1137.000000	58.538897
1138.000000	58.155175
1139.000000	57.799085
1140.000000	57.453508
1141.000000	57.110903
1142.000000	56.785259
1143.000000	56.494736
1144.000000	56.258382
1145.000000	56.052852
1146.000000	55.903321
1147.000000	55.807078
1148.000000	55.738065
1149.000000	55.688743
1150.000000	55.625761
1151.000000	55.553258
1152.000000	55.456192
1153.000000	55.326813
1154.000000	55.133741
1155.000000	54.908511
1156.000000	54.642287
1157.000000	54.354485
1158.000000	54.034787
1159.000000	53.707571
1160.000000	53.365779
1161.000000	53.034712
1162.000000	52.670172
1163.000000	52.322024
1164.000000	51.979948
1165.000000	51.643343
1166.000000	51.312486
1167.000000	50.977695
1168.000000	50.653086
1169.000000	50.346084
1170.000000	50.035751
1171.000000	49.739184
1172.000000	49.442712
1173.000000	49.157789
1174.000000	48.869976
1175.000000	48.586179
1176.000000	48.267653
1177.000000	47.910039
1178.000000	47.511359
1179.000000	47.066860
1180.000000	46.610994
1181.000000	46.176105
1182.000000	45.795532
1183.000000	45.510688
1184.000000	45.343755
1185.000000	45.281576
1186.000000	45.329568
1187.000000	45.492733
1188.000000	45.759533
1189.000000	46.091633
1190.000000	46.464318
1191.000000	46.857330
1192.000000	47.222058
1193.000000	47.537005
1194.000000	47.804138
1195.000000	48.016395
1196.000000	48.172353
1197.000000	48.296671
1198.000000	48.385196
1199.000000	48.445829
1200.000000	48.497356
1201.000000	48.533275
1202.000000	48.569606
1203.000000	48.611191
1204.000000	48.651470
1205.000000	48.702191
1206.000000	48.779946
1207.000000	48.867507
1208.000000	48.956608
1209.000000	49.054248
1210.000000	49.161054
1211.000000	49.284659
1212.000000	49.400224
1213.000000	49.515641
1214.000000	49.646510
1215.000000	49.780232
1216.000000	49.915279
1217.000000	50.059134
1218.000000	50.198590
1219.000000	50.350450
1220.000000	50.509296
1221.000000	50.670355
1222.000000	50.838252
1223.000000	51.006481
1224.000000	51.173978
1225.000000	51.348084
1226.000000	51.513896
1227.000000	51.674512
1228.000000	51.847325
1229.000000	52.009495
1230.000000	52.165176
1231.000000	52.324726
1232.000000	52.479544
1233.000000	52.636419
1234.000000	52.787549
1235.000000	52.925501
1236.000000	53.061111
1237.000000	53.206563
1238.000000	53.346474
1239.000000	53.475837
1240.000000	53.600217
1241.000000	53.724912
1242.000000	53.838311
1243.000000	53.956232
1244.000000	54.074708
1245.000000	54.170544
1246.000000	54.274600
1247.000000	54.368449
1248.000000	54.451234
1249.000000	54.529993
1250.000000	54.605211
1251.000000	54.672643
1252.000000	54.735797
1253.000000	54.797974
1254.000000	54.853469
1255.000000	54.900158
1256.000000	54.945221
1257.000000	55.004160
1258.000000	55.052534
1259.000000	55.083655
1260.000000	55.127710
1261.000000	55.176942
1262.000000	55.213318
1263.000000	55.254026
1264.000000	55.301400
1265.000000	55.341204
1266.000000	55.388580
1267.000000	55.428882
1268.000000	55.462243
1269.000000	55.502917
1270.000000	55.549409
1271.000000	55.580325
1272.000000	55.603503
1273.000000	55.646682
1274.000000	55.687251
1275.000000	55.731053
1276.000000	55.783704
1277.000000	55.835861
1278.000000	55.890758
1279.000000	55.945825
1280.000000	55.994665
1281.000000	56.055794
1282.000000	56.109997
1283.000000	56.159383
1284.000000	56.213822
1285.000000	56.259767
1286.000000	56.296692
1287.000000	56.339844
1288.000000	56.372204
1289.000000	56.390796
1290.000000	56.407612
1291.000000	56.406421
1292.000000	56.415879
1293.000000	56.419221
1294.000000	56.418122
1295.000000	56.405932
1296.000000	56.390882
1297.000000	56.376962
1298.000000	56.356450
1299.000000	56.329522
1300.000000	56.303088
1301.000000	56.270430
1302.000000	56.232230
1303.000000	56.192203
1304.000000	56.148915
1305.000000	56.083450
1306.000000	56.019488
1307.000000	55.954643
1308.000000	55.878037
1309.000000	55.789966
1310.000000	55.696696
1311.000000	55.595144
1312.000000	55.498852
1313.000000	55.387149
1314.000000	55.280607
1315.000000	55.156380
1316.000000	55.025961
1317.000000	54.900357
1318.000000	54.757746
1319.000000	54.636712
1320.000000	54.493599
1321.000000	54.349569
1322.000000	54.190244
1323.000000	54.029501
1324.000000	53.860279
1325.000000	53.678581
1326.000000	53.494814
1327.000000	53.300170
1328.000000	53.112677
1329.000000	52.912204
1330.000000	52.685231
1331.000000	52.456995
1332.000000	52.241158
1333.000000	51.996691
1334.000000	51.746531
1335.000000	51.503474
1336.000000	51.237249
1337.000000	50.968751
1338.000000	50.702471
1339.000000	50.428691
1340.000000	50.148460
1341.000000	49.856914
1342.000000	49.556786
1343.000000	49.271082
1344.000000	48.945189
1345.000000	48.604762
1346.000000	48.297725
1347.000000	47.948943
1348.000000	47.579874
1349.000000	47.191735
1350.000000	46.765306
1351.000000	46.304196
1352.000000	45.819029
1353.000000	45.463886
1354.000000	45.088766
1355.000000	44.763101
1356.000000	44.520621
1357.000000	44.389865
1358.000000	44.283351
1359.000000	44.180723
1360.000000	44.172839
1361.000000	44.038818
1362.000000	43.878987
1363.000000	43.690265
1364.000000	43.517196
1365.000000	43.311356
1366.000000	43.122051
1367.000000	42.894604
1368.000000	42.626503
1369.000000	42.319510
1370.000000	42.027513
1371.000000	41.687338
1372.000000	41.363650
1373.000000	41.065848
1374.000000	40.823373
1375.000000	40.606594
1376.000000	40.438399
1377.000000	40.261050
1378.000000	40.110035
1379.000000	39.892312
1380.000000	39.648363
1381.000000	39.297832
1382.000000	38.858859
1383.000000	38.344270
1384.000000	37.837249
1385.000000	37.370706
1386.000000	36.939685
1387.000000	36.540455
1388.000000	36.145238
1389.000000	35.777364
1390.000000	35.491045
1391.000000	35.200815
1392.000000	34.900199
1393.000000	34.644037
1394.000000	34.426247
1395.000000	34.138985
1396.000000	33.765142
1397.000000	33.444666
1398.000000	33.184898
1399.000000	32.892480
1400.000000	32.508733
1401.000000	32.078827
1402.000000	31.701178
1403.000000	31.319592
1404.000000	30.942527
1405.000000	30.557321
1406.000000	30.179226
1407.000000	29.838253
1408.000000	29.469142
1409.000000	29.118625
1410.000000	28.762200
1411.000000	28.450562
1412.000000	28.202788
1413.000000	27.950622
1414.000000	27.695075
1415.000000	27.398046
1416.000000	27.147394
1417.000000	26.940869
1418.000000	26.707246
1419.000000	26.481777
1420.000000	26.236774
1421.000000	26.009089
1422.000000	25.818088
1423.000000	25.616432
1424.000000	25.410818
1425.000000	25.217715
1426.000000	25.030935
1427.000000	24.866711
1428.000000	24.705893
1429.000000	24.550421
1430.000000	24.422000
1431.000000	24.288457
1432.000000	24.169127
1433.000000	24.029327
1434.000000	23.903400
1435.000000	23.789796
1436.000000	23.681654
1437.000000	23.574227
1438.000000	23.464614
1439.000000	23.354688
1440.000000	23.247070
1441.000000	23.151731
1442.000000	23.031265
1443.000000	22.934019
1444.000000	22.857619
1445.000000	22.770751
1446.000000	22.670805
1447.000000	22.568001
1448.000000	22.477098
1449.000000	22.411115
1450.000000	22.344805
1451.000000	22.256205
1452.000000	22.167249
1453.000000	22.091805
1454.000000	22.022466
1455.000000	21.956544
1456.000000	21.888967
1457.000000	21.831685
1458.000000	21.779835
1459.000000	21.724865
1460.000000	21.669302
1461.000000	21.637732
1462.000000	21.607576
1463.000000	21.571362
1464.000000	21.535748
1465.000000	21.515352
1466.000000	21.489479
1467.000000	21.467130
1468.000000	21.448069
1469.000000	21.440843
1470.000000	21.434840
1471.000000	21.424312
1472.000000	21.414750
1473.000000	21.389377
1474.000000	21.374079
1475.000000	21.374448
1476.000000	21.372332
1477.000000	21.359858
1478.000000	21.357121
1479.000000	21.366790
1480.000000	21.382387
1481.000000	21.391451
1482.000000	21.395849
1483.000000	21.407047
1484.000000	21.432135
1485.000000	21.461879
1486.000000	21.483321
1487.000000	21.506970
1488.000000	21.526010
1489.000000	21.545953
1490.000000	21.572822
1491.000000	21.599151
1492.000000	21.629073
1493.000000	21.662156
1494.000000	21.690764
1495.000000	21.723335
1496.000000	21.771316
1497.000000	21.816705
1498.000000	21.853377
1499.000000	21.898062
1500.000000	21.944532
1501.000000	21.990732
1502.000000	22.045493
1503.000000	22.099426
1504.000000	22.150233
1505.000000	22.207372
1506.000000	22.259696
1507.000000	22.318120
1508.000000	22.380719
1509.000000	22.435944
1510.000000	22.485082
1511.000000	22.539608
1512.000000	22.599700
1513.000000	22.651025
1514.000000	22.704588
1515.000000	22.758403
1516.000000	22.805884
1517.000000	22.849466
1518.000000	22.896357
1519.000000	22.944131
1520.000000	22.987917
1521.000000	23.032276
1522.000000	23.075553
1523.000000	23.121764
1524.000000	23.168385
1525.000000	23.205912
1526.000000	23.245503
1527.000000	23.274366
1528.000000	23.307796
1529.000000	23.345169
1530.000000	23.378533
1531.000000	23.406781
1532.000000	23.440022
1533.000000	23.468858
1534.000000	23.491250
1535.000000	23.507894
1536.000000	23.525786
1537.000000	23.545219
1538.000000	23.560199
1539.000000	23.578526
1540.000000	23.591434
1541.000000	23.607415
1542.000000	23.620710
1543.000000	23.638106
1544.000000	23.652298
1545.000000	23.674467
1546.000000	23.693937
1547.000000	23.717451
1548.000000	23.743781
1549.000000	23.769346
1550.000000	23.795359
1551.000000	23.810517
1552.000000	23.826152
1553.000000	23.845629
1554.000000	23.861959
1555.000000	23.884159
1556.000000	23.894266
1557.000000	23.894889
1558.000000	23.897822
1559.000000	23.896608
1560.000000	23.892804
1561.000000	23.886620
1562.000000	23.891062
1563.000000	23.884604
1564.000000	23.877003
1565.000000	23.875225
1566.000000	23.864522
1567.000000	23.856591
1568.000000	23.849118
1569.000000	23.843119
1570.000000	23.843261
1571.000000	23.851546
1572.000000	23.853055
1573.000000	23.861030
1574.000000	23.861678
1575.000000	23.877954
1576.000000	23.888479
1577.000000	23.903689
1578.000000	23.929679
1579.000000	23.954774
1580.000000	23.982588
1581.000000	24.012547
1582.000000	24.049776
1583.000000	24.092701
1584.000000	24.122703
1585.000000	24.153645
1586.000000	24.206105
1587.000000	24.257959
1588.000000	24.305711
1589.000000	24.352659
1590.000000	24.392469
1591.000000	24.443510
1592.000000	24.493881
1593.000000	24.545554
1594.000000	24.600677
1595.000000	24.653455
1596.000000	24.722450
1597.000000	24.792868
1598.000000	24.846089
1599.000000	24.915834
1600.000000	24.979018
1601.000000	25.042499
1602.000000	25.114544
1603.000000	25.170331
1604.000000	25.245443
1605.000000	25.307885
1606.000000	25.386584
1607.000000	25.448351
1608.000000	25.513753
1609.000000	25.576441
1610.000000	25.642229
1611.000000	25.704517
1612.000000	25.778217
1613.000000	25.846443
1614.000000	25.909773
1615.000000	25.975597
1616.000000	26.047645
1617.000000	26.112785
1618.000000	26.186349
1619.000000	26.259232
1620.000000	26.320259
1621.000000	26.396822
1622.000000	26.472662
1623.000000	26.535115
1624.000000	26.615426
1625.000000	26.686657
1626.000000	26.766546
1627.000000	26.840186
1628.000000	26.905662
1629.000000	26.987017
1630.000000	27.054490
1631.000000	27.132548
1632.000000	27.199810
1633.000000	27.261861
1634.000000	27.332639
1635.000000	27.386858
1636.000000	27.456794
1637.000000	27.499938
1638.000000	27.575299
1639.000000	27.621133
1640.000000	27.665142
1641.000000	27.716395
1642.000000	27.771791
1643.000000	27.815492
1644.000000	27.852019
1645.000000	27.894451
1646.000000	27.932469
1647.000000	27.967549
1648.000000	28.015481
1649.000000	28.037751
1650.000000	28.053451
1651.000000	28.065496
1652.000000	28.087232
1653.000000	28.075343
1654.000000	28.079149
1655.000000	28.075710
1656.000000	28.050806
1657.000000	28.024366
1658.000000	27.995158
1659.000000	27.939614
1660.000000	27.904601
1661.000000	27.827534
1662.000000	27.779792
1663.000000	27.700911
1664.000000	27.599620
1665.000000	27.494884
1666.000000	27.400861
1667.000000	27.289851
1668.000000	27.150132
1669.000000	26.992846
1670.000000	26.819517
1671.000000	26.617147
1672.000000	26.374832
1673.000000	26.093128
1674.000000	25.781821
1675.000000	25.433788
1676.000000	25.036571
1677.000000	24.588457
1678.000000	24.135969
1679.000000	23.675774
1680.000000	23.246779
1681.000000	22.888477
1682.000000	22.612507
1683.000000	22.453769
1684.000000	22.341679
1685.000000	22.293187
1686.000000	22.272224
1687.000000	22.231491
1688.000000	22.156330
1689.000000	22.065862
1690.000000	21.942905
1691.000000	21.811278
1692.000000	21.711681
1693.000000	21.638224
1694.000000	21.612348
1695.000000	21.640100
1696.000000	21.717013
1697.000000	21.833173
1698.000000	21.968398
1699.000000	22.098614
1700.000000	22.239884
1701.000000	22.371135
1702.000000	22.459029
1703.000000	22.533361
1704.000000	22.596882
1705.000000	22.636605
1706.000000	22.671573
1707.000000	22.689071
1708.000000	22.693739
1709.000000	22.694210
1710.000000	22.671112
1711.000000	22.624438
1712.000000	22.570268
1713.000000	22.502223
1714.000000	22.420728
1715.000000	22.339726
1716.000000	22.272075
1717.000000	22.209904
1718.000000	22.156364
1719.000000	22.109691
1720.000000	22.071382
1721.000000	22.035585
1722.000000	22.002059
1723.000000	21.961378
1724.000000	21.906180
1725.000000	21.843357
1726.000000	21.767277
1727.000000	21.677657
1728.000000	21.587834
1729.000000	21.507550
1730.000000	21.438861
1731.000000	21.385036
1732.000000	21.368374
1733.000000	21.389295
1734.000000	21.447767
1735.000000	21.551762
1736.000000	21.686131
1737.000000	21.843971
1738.000000	22.034516
1739.000000	22.233681
1740.000000	22.425937
1741.000000	22.617309
1742.000000	22.786846
1743.000000	22.934380
1744.000000	23.064655
1745.000000	23.167088
1746.000000	23.249352
1747.000000	23.313790
1748.000000	23.365565
1749.000000	23.409014
1750.000000	23.424298
1751.000000	23.424867
1752.000000	23.423342
1753.000000	23.405645
1754.000000	23.363353
1755.000000	23.322165
1756.000000	23.270336
1757.000000	23.198198
1758.000000	23.127548
1759.000000	23.071757
1760.000000	23.024774
1761.000000	22.990588
1762.000000	22.981979
1763.000000	22.996071
1764.000000	23.029372
1765.000000	23.080811
1766.000000	23.155016
1767.000000	23.245064
1768.000000	23.336607
1769.000000	23.440088
1770.000000	23.541685
1771.000000	23.642970
1772.000000	23.754152
1773.000000	23.858306
1774.000000	23.949862
1775.000000	24.037054
1776.000000	24.118484
1777.000000	24.199742
1778.000000	24.273694
1779.000000	24.341871
1780.000000	24.404493
1781.000000	24.468856
1782.000000	24.543278
1783.000000	24.609152
1784.000000	24.671005
1785.000000	24.734972
1786.000000	24.789191
1787.000000	24.843406
1788.000000	24.900075
1789.000000	24.942814
1790.000000	24.993336
1791.000000	25.047491
1792.000000	25.095143
1793.000000	25.144359
1794.000000	25.194175
1795.000000	25.233028
1796.000000	25.274240
1797.000000	25.322800
1798.000000	25.366717
1799.000000	25.419679
1800.000000	25.483445
1801.000000	25.536176
1802.000000	25.579620
1803.000000	25.615030
1804.000000	25.656770
1805.000000	25.714504
1806.000000	25.760881
1807.000000	25.796769
1808.000000	25.831547
1809.000000	25.864819
1810.000000	25.906647
1811.000000	25.937775
1812.000000	25.963579
1813.000000	25.983076
1814.000000	25.997944
1815.000000	26.015199
1816.000000	26.025368
1817.000000	26.034485
1818.000000	26.067446
1819.000000	26.114803
1820.000000	26.154553
1821.000000	26.173006
1822.000000	26.172913
1823.000000	26.189517
1824.000000	26.235752
1825.000000	26.297998
1826.000000	26.356408
1827.000000	26.421143
1828.000000	26.494365
1829.000000	26.556996
1830.000000	26.618281
1831.000000	26.669796
1832.000000	26.720489
1833.000000	26.783888
1834.000000	26.857412
1835.000000	26.926242
1836.000000	26.979875
1837.000000	27.012008
1838.000000	27.055125
1839.000000	27.090892
1840.000000	27.111762
1841.000000	27.122160
1842.000000	27.116427
1843.000000	27.121110
1844.000000	27.149863
1845.000000	27.203284
1846.000000	27.260178
1847.000000	27.305077
1848.000000	27.309647
1849.000000	27.313235
1850.000000	27.302552
1851.000000	27.295313
1852.000000	27.306033
1853.000000	27.318463
1854.000000	27.296072
1855.000000	27.262214
1856.000000	27.230661
1857.000000	27.198653
1858.000000	27.131402
1859.000000	27.035106
1860.000000	26.935850
1861.000000	26.801038
1862.000000	26.667989
1863.000000	26.548825
1864.000000	26.433223
1865.000000	26.294065
1866.000000	26.159985
1867.000000	25.991614
1868.000000	25.780076
1869.000000	25.511055
1870.000000	25.227939
1871.000000	24.915055
1872.000000	24.567286
1873.000000	24.186132
1874.000000	23.789376
1875.000000	23.378029
1876.000000	22.959691
1877.000000	22.511475
1878.000000	22.050913
1879.000000	21.600921
1880.000000	21.150791
1881.000000	20.661342
1882.000000	20.182201
1883.000000	19.688867
1884.000000	19.203255
1885.000000	18.763323
1886.000000	18.351173
1887.000000	17.973088
1888.000000	17.614873
1889.000000	17.276980
1890.000000	16.930950
1891.000000	16.555630
1892.000000	16.191210
1893.000000	15.880737
1894.000000	15.619049
1895.000000	15.354080
1896.000000	15.098306
1897.000000	14.831556
1898.000000	14.564606
1899.000000	14.281331
1900.000000	14.006774
1901.000000	13.762486
1902.000000	13.529107
1903.000000	13.304992
1904.000000	13.081517
1905.000000	12.830526
1906.000000	12.590826
1907.000000	12.385839
1908.000000	12.200755
1909.000000	12.027178
1910.000000	11.883651
1911.000000	11.732506
1912.000000	11.537032
1913.000000	11.367287
1914.000000	11.209076
1915.000000	11.064335
1916.000000	10.937526
1917.000000	10.818089
1918.000000	10.693787
1919.000000	10.591302
1920.000000	10.471291
1921.000000	10.365649
1922.000000	10.249967
1923.000000	10.158721
1924.000000	10.071836
1925.000000	10.010270
1926.000000	9.946595
1927.000000	9.876341
1928.000000	9.816695
1929.000000	9.758217
1930.000000	9.704381
1931.000000	9.672425
1932.000000	9.635081
1933.000000	9.602866
1934.000000	9.572576
1935.000000	9.567782
1936.000000	9.575342
1937.000000	9.577731
1938.000000	9.566477
1939.000000	9.584696
1940.000000	9.581474
1941.000000	9.595439
1942.000000	9.615660
1943.000000	9.640243
1944.000000	9.659109
1945.000000	9.702444
1946.000000	9.738042
1947.000000	9.776307
1948.000000	9.805672
1949.000000	9.860294
1950.000000	9.897331
1951.000000	9.944707
1952.000000	9.997956
1953.000000	10.042728
1954.000000	10.107169
1955.000000	10.158272
1956.000000	10.224009
1957.000000	10.275469
1958.000000	10.331888
1959.000000	10.391370
1960.000000	10.448831
1961.000000	10.512709
1962.000000	10.567513
1963.000000	10.622666
1964.000000	10.694250
1965.000000	10.757572
1966.000000	10.816677
1967.000000	10.883672
1968.000000	10.938597
1969.000000	11.014458
1970.000000	11.083668
1971.000000	11.147899
1972.000000	11.222456
1973.000000	11.283654
1974.000000	11.353458
1975.000000	11.426877
1976.000000	11.488090
1977.000000	11.564755
1978.000000	11.631242
1979.000000	11.720002
1980.000000	11.796051
1981.000000	11.864723
1982.000000	11.922603
1983.000000	12.018268
1984.000000	12.063097
1985.000000	12.155814
1986.000000	12.228106
1987.000000	12.308620
1988.000000	12.359179
1989.000000	12.434085
1990.000000	12.509773
1991.000000	12.571921
1992.000000	12.641859
1993.000000	12.703018
1994.000000	12.768676
1995.000000	12.821628
1996.000000	12.880721
1997.000000	12.939695
1998.000000	12.991115
1999.000000	13.039425
2000.000000	13.095282
2001.000000	13.129994
2002.000000	13.181022
2003.000000	13.218097
2004.000000	13.262704
2005.000000	13.299601
2006.000000	13.322942
2007.000000	13.354525
2008.000000	13.383595
2009.000000	13.412011
2010.000000	13.431191
2011.000000	13.447358
2012.000000	13.461841
2013.000000	13.466346
2014.000000	13.463833
2015.000000	13.474323
2016.000000	13.477285
2017.000000	13.470807
2018.000000	13.462622
2019.000000	13.449670
2020.000000	13.442115
2021.000000	13.423296
2022.000000	13.410069
2023.000000	13.387704
2024.000000	13.374622
2025.000000	13.343473
2026.000000	13.314192
2027.000000	13.282127
2028.000000	13.243001
2029.000000	13.218311
2030.000000	13.182172
2031.000000	13.127630
2032.000000	13.079893
2033.000000	13.033078
2034.000000	12.977824
2035.000000	12.921074
2036.000000	12.862262
2037.000000	12.808344
2038.000000	12.737584
2039.000000	12.662441
2040.000000	12.592481
2041.000000	12.525469
2042.000000	12.450300
2043.000000	12.369515
2044.000000	12.300621
2045.000000	12.227595
2046.000000	12.159834
2047.000000	12.086716
2048.000000	12.030755
2049.000000	11.991828
2050.000000	11.947560
2051.000000	11.897635
2052.000000	11.863483
2053.000000	11.841114
2054.000000	11.833425
2055.000000	11.825858
2056.000000	11.822355
2057.000000	11.825830
2058.000000	11.841287
2059.000000	11.865605
2060.000000	11.881181
2061.000000	11.900090
2062.000000	11.934654
2063.000000	11.962678
2064.000000	11.988374
2065.000000	12.027916
2066.000000	12.070530
2067.000000	12.101443
2068.000000	12.130019
2069.000000	12.162115
2070.000000	12.198559
2071.000000	12.239079
2072.000000	12.274977
2073.000000	12.301610
2074.000000	12.330231
2075.000000	12.366523
2076.000000	12.398337
2077.000000	12.431430
2078.000000	12.470151
2079.000000	12.491756
2080.000000	12.513512
2081.000000	12.545942
2082.000000	12.567607
2083.000000	12.586464
2084.000000	12.614116
2085.000000	12.631557
2086.000000	12.641854
2087.000000	12.659089
2088.000000	12.677836
2089.000000	12.694396
2090.000000	12.715782
2091.000000	12.726665
2092.000000	12.744272
2093.000000	12.758684
2094.000000	12.775688
2095.000000	12.800654
2096.000000	12.821718
2097.000000	12.850136
2098.000000	12.874059
2099.000000	12.895793
2100.000000	12.918845
2101.000000	12.950653
2102.000000	12.981736
2103.000000	12.999373
2104.000000	13.026416
2105.000000	13.062133
2106.000000	13.095606
2107.000000	13.115528
2108.000000	13.136052
2109.000000	13.163499
2110.000000	13.195696
2111.000000	13.217962
2112.000000	13.242904
2113.000000	13.264597
2114.000000	13.287644
2115.000000	13.319486
2116.000000	13.336107
2117.000000	13.361941
2118.000000	13.375621
2119.000000	13.395739
2120.000000	13.413732
2121.000000	13.423172
2122.000000	13.431242
2123.000000	13.444807
2124.000000	13.453078
2125.000000	13.457812
2126.000000	13.463402
2127.000000	13.470083
2128.000000	13.474717
2129.000000	13.461876
2130.000000	13.449385
2131.000000	13.449189
2132.000000	13.441756
2133.000000	13.427660
2134.000000	13.408014
2135.000000	13.390217
2136.000000	13.370976
2137.000000	13.348050
2138.000000	13.327638
2139.000000	13.307192
2140.000000	13.274164
2141.000000	13.251162
2142.000000	13.210558
2143.000000	13.182868
2144.000000	13.151166
2145.000000	13.120495
2146.000000	13.084942
2147.000000	13.048798
2148.000000	13.011777
2149.000000	12.982098
2150.000000	12.954783
2151.000000	12.911949
2152.000000	12.875467
2153.000000	12.839598
2154.000000	12.807168
2155.000000	12.765094
2156.000000	12.736775
2157.000000	12.709459
2158.000000	12.679541
2159.000000	12.654873
2160.000000	12.630061
2161.000000	12.608723
2162.000000	12.584035
2163.000000	12.566044
2164.000000	12.550383
2165.000000	12.535853
2166.000000	12.524917
2167.000000	12.512125
2168.000000	12.498088
2169.000000	12.487647
2170.000000	12.479634
2171.000000	12.481369
2172.000000	12.467856
2173.000000	12.465074
2174.000000	12.465938
2175.000000	12.468689
2176.000000	12.469825
2177.000000	12.477050
2178.000000	12.496354
2179.000000	12.504934
2180.000000	12.504261
2181.000000	12.525060
2182.000000	12.549428
2183.000000	12.557091
2184.000000	12.567818
2185.000000	12.579612
2186.000000	12.591794
2187.000000	12.605712
2188.000000	12.614612
2189.000000	12.629415
2190.000000	12.644668
2191.000000	12.647639
2192.000000	12.665537
2193.000000	12.671246
2194.000000	12.678418
2195.000000	12.697913
2196.000000	12.710640
2197.000000	12.716825
2198.000000	12.725191
2199.000000	12.740966
2200.000000	12.765523
2201.000000	12.761273
2202.000000	12.792085
2203.000000	12.816724
2204.000000	12.828993
2205.000000	12.843016
2206.000000	12.849501
2207.000000	12.882756
2208.000000	12.894866
2209.000000	12.916867
2210.000000	12.933994
2211.000000	12.951349
2212.000000	12.986341
2213.000000	13.003217
2214.000000	13.034543
2215.000000	13.053832
2216.000000	13.078484
2217.000000	13.106260
2218.000000	13.131247
2219.000000	13.148382
2220.000000	13.165611
2221.000000	13.192503
2222.000000	13.187690
2223.000000	13.207119
2224.000000	13.218143
2225.000000	13.206998
2226.000000	13.197849
2227.000000	13.188838
2228.000000	13.180706
2229.000000	13.156088
2230.000000	13.117551
2231.000000	13.094103
2232.000000	13.034789
2233.000000	13.009343
2234.000000	12.946870
2235.000000	12.901508
2236.000000	12.829542
2237.000000	12.762717
2238.000000	12.692076
2239.000000	12.602271
2240.000000	12.516777
2241.000000	12.423172
2242.000000	12.299069
2243.000000	12.196930
2244.000000	12.082053
2245.000000	11.949648
2246.000000	11.811701
2247.000000	11.658083
2248.000000	11.498895
2249.000000	11.322205
2250.000000	11.157247
2251.000000	10.968657
2252.000000	10.784239
2253.000000	10.580803
2254.000000	10.377544
2255.000000	10.175204
2256.000000	9.976723
2257.000000	9.768528
2258.000000	9.600614
2259.000000	9.419128
2260.000000	9.244972
2261.000000	9.096703
2262.000000	8.953275
2263.000000	8.828349
2264.000000	8.721006
2265.000000	8.634144
2266.000000	8.554309
2267.000000	8.496050
2268.000000	8.457232
2269.000000	8.423280
2270.000000	8.410042
2271.000000	8.412616
2272.000000	8.414936
2273.000000	8.430433
2274.000000	8.453712
2275.000000	8.478272
2276.000000	8.518741
2277.000000	8.559039
2278.000000	8.587802
2279.000000	8.625771
2280.000000	8.667315
2281.000000	8.720470
2282.000000	8.750274
2283.000000	8.795137
2284.000000	8.821176
2285.000000	8.839249
2286.000000	8.847146
2287.000000	8.844324
2288.000000	8.836076
2289.000000	8.834222
2290.000000	8.799009
2291.000000	8.764106
2292.000000	8.727161
2293.000000	8.673294
2294.000000	8.619555
2295.000000	8.558784
2296.000000	8.490636
2297.000000	8.432895
2298.000000	8.364449
2299.000000	8.292582
2300.000000	8.234697
2301.000000	8.194652
2302.000000	8.162479
2303.000000	8.134308
2304.000000	8.116008
2305.000000	8.114953
2306.000000	8.116262
2307.000000	8.138917
2308.000000	8.172241
2309.000000	8.221060
2310.000000	8.277040
2311.000000	8.343256
2312.000000	8.415200
2313.000000	8.490933
2314.000000	8.583251
2315.000000	8.670377
2316.000000	8.754192
2317.000000	8.833233
2318.000000	8.918778
2319.000000	9.001734
2320.000000	9.087556
2321.000000	9.168975
2322.000000	9.230217
2323.000000	9.304235
2324.000000	9.382251
2325.000000	9.448387
2326.000000	9.494443
2327.000000	9.539557
2328.000000	9.589120
2329.000000	9.629999
2330.000000	9.665498
2331.000000	9.705013
2332.000000	9.738782
2333.000000	9.760037
2334.000000	9.775816
2335.000000	9.783809
2336.000000	9.792498
2337.000000	9.784522
2338.000000	9.782489
2339.000000	9.775158
2340.000000	9.758449
2341.000000	9.733069
2342.000000	9.701607
2343.000000	9.674249
2344.000000	9.642339
2345.000000	9.616694
2346.000000	9.595455
2347.000000	9.570870
2348.000000	9.553923
2349.000000	9.546120
2350.000000	9.537798
2351.000000	9.541103
2352.000000	9.546926
2353.000000	9.553812
2354.000000	9.574696
2355.000000	9.605385
2356.000000	9.642568
2357.000000	9.679640
2358.000000	9.723613
2359.000000	9.769025
2360.000000	9.808668
2361.000000	9.850743
2362.000000	9.903492
2363.000000	9.948554
2364.000000	9.990879
2365.000000	10.032494
2366.000000	10.067774
2367.000000	10.107185
2368.000000	10.138681
2369.000000	10.167948
2370.000000	10.200786
2371.000000	10.218831
2372.000000	10.232574
2373.000000	10.255623
2374.000000	10.273677
2375.000000	10.290679
2376.000000	10.304483
2377.000000	10.319251
2378.000000	10.329551
2379.000000	10.338844
2380.000000	10.342549
2381.000000	10.351256
2382.000000	10.352021
2383.000000	10.352438
2384.000000	10.353062
2385.000000	10.346945
2386.000000	10.338108
2387.000000	10.331852
2388.000000	10.330163
2389.000000	10.313249
2390.000000	10.297189
2391.000000	10.279023
2392.000000	10.260754
2393.000000	10.242101
2394.000000	10.219415
2395.000000	10.208112
2396.000000	10.186973
2397.000000	10.165824
2398.000000	10.145595
2399.000000	10.129450
2400.000000	10.114151
2401.000000	10.097931
2402.000000	10.085310
2403.000000	10.065736
2404.000000	10.044885
2405.000000	10.016615
2406.000000	9.990223
2407.000000	9.981676
2408.000000	9.953236
2409.000000	9.926652
2410.000000	9.907604
2411.000000	9.881166
2412.000000	9.855441
2413.000000	9.833341
2414.000000	9.810578
2415.000000	9.793354
2416.000000	9.763050
2417.000000	9.728332
2418.000000	9.706846
2419.000000	9.679421
2420.000000	9.645854
2421.000000	9.619032
2422.000000	9.591173
2423.000000	9.562542
2424.000000	9.529329
2425.000000	9.491558
2426.000000	9.457831
2427.000000	9.416823
2428.000000	9.384224
2429.000000	9.337671
2430.000000	9.297245
2431.000000	9.255787
2432.000000	9.204402
2433.000000	9.160754
2434.000000	9.111878
2435.000000	9.053694
2436.000000	9.016283
2437.000000	8.961360
2438.000000	8.908668
2439.000000	8.852473
2440.000000	8.798324
2441.000000	8.756635
2442.000000	8.696366
2443.000000	8.625768
2444.000000	8.575650
2445.000000	8.528693
2446.000000	8.474429
2447.000000	8.417811
2448.000000	8.371511
2449.000000	8.305603
2450.000000	8.244920
2451.000000	8.195286
2452.000000	8.155147
2453.000000	8.094461
2454.000000	8.049677
2455.000000	7.998729
2456.000000	7.962792
2457.000000	7.926274
2458.000000	7.886042
2459.000000	7.846348
2460.000000	7.811485
2461.000000	7.792178
2462.000000	7.766778
2463.000000	7.753378
2464.000000	7.727649
2465.000000	7.738057
2466.000000	7.718193
2467.000000	7.723588
2468.000000	7.691456
2469.000000	7.684873
2470.000000	7.681480
2471.000000	7.670722
2472.000000	7.684273
2473.000000	7.648997
2474.000000	7.676579
2475.000000	7.665200
2476.000000	7.672860
2477.000000	7.666296
2478.000000	7.686787
2479.000000	7.643054
2480.000000	7.656843
2481.000000	7.662349
2482.000000	7.673863
2483.000000	7.650763
2484.000000	7.658624
2485.000000	7.666436
2486.000000	7.670654
2487.000000	7.677890
2488.000000	7.664271
2489.000000	7.727494
2490.000000	7.753583
2491.000000	7.736778
2492.000000	7.774631
2493.000000	7.715484
2494.000000	7.689954
2495.000000	7.810586
2496.000000	7.901141
2497.000000	7.833412
2498.000000	7.868061
2499.000000	7.972677
2500.000000	7.916617
