PE UV       SUBTECH     SPECTRUM    ASCII       PEDS        4.00        
   -1
CICIMAUCR0240-3.Sample.ASC
24/06/20
12:39:27.00
24/06/20
12:39:27.00
Vinicio Soto Monge
C. resplendens. Sex M. Dorsal.
250,000000
1
Lambda 1050
1050L1511233
PerkinElmer UV WinLab 6.3.2.0749 / 2.02.05 Lambda 900 UV/VIS/NIR, Aug  7 2015 09:38:08

0
0
3350/servo 860,8/2
0
0
UV/VIS
1
1
1
DoubleDePol,CommonBeamDepol,RBeamAtt,SBeamAtt,60mm sphere, WB InGaAs Detector
0
0
0
0
Program
Program
3350/servo 860,8/2
3350/0,2 860,8/0,2
3350/0,2 860,8/0,2
0
15.00
 
 
 
0
 
860,8
319,2
860,8
Front
100
on
S:100 R:100
0
0
0
0
 
0
 
 
 
0
 
 
0
0
0
0
0
 
 
 
 
0
0


0
0
#HDR
-1
-1
#GR
nm
%R
1.0
0.0
2500,000000
-1,000000
2251
8
89,336400
5,668900
#DATA
250.000000	2232.000000	6.160467
251.000000	2231.000000	6.148000
252.000000	2230.000000	6.158867
253.000000	2229.000000	6.141067
254.000000	2228.000000	6.129500
255.000000	2227.000000	6.108367
256.000000	2226.000000	6.114267
257.000000	2225.000000	6.089167
258.000000	2224.000000	6.090733
259.000000	2223.000000	6.070600
260.000000	2222.000000	6.065067
261.000000	2221.000000	6.044567
262.000000	2220.000000	6.009000
263.000000	2219.000000	5.998333
264.000000	2218.000000	5.983867
265.000000	2217.000000	5.929900
266.000000	2216.000000	5.895733
267.000000	2215.000000	5.875233
268.000000	2214.000000	5.872700
269.000000	2213.000000	5.864467
270.000000	2212.000000	5.828600
271.000000	2211.000000	5.808600
272.000000	2210.000000	5.791800
273.000000	2209.000000	5.796833
274.000000	2208.000000	5.804467
275.000000	2207.000000	5.774433
276.000000	2206.000000	5.739867
277.000000	2205.000000	5.737967
278.000000	2204.000000	5.734800
279.000000	2203.000000	5.742300
280.000000	2202.000000	5.735867
281.000000	2201.000000	5.720300
282.000000	2200.000000	5.709100
283.000000	2199.000000	5.693767
284.000000	2198.000000	5.695133
285.000000	2197.000000	5.686900
286.000000	2196.000000	5.663367
287.000000	2195.000000	5.661800
288.000000	2194.000000	5.665267
289.000000	2193.000000	5.660900
290.000000	2192.000000	5.661767
291.000000	2191.000000	5.666133
292.000000	2190.000000	5.638900
293.000000	2189.000000	5.668600
294.000000	2188.000000	5.678833
295.000000	2187.000000	5.669567
296.000000	2186.000000	5.671933
297.000000	2185.000000	5.651267
298.000000	2184.000000	5.641733
299.000000	2183.000000	5.648267
300.000000	2182.000000	5.667733
301.000000	2181.000000	5.655367
302.000000	2180.000000	5.649767
303.000000	2179.000000	5.631433
304.000000	2178.000000	5.646800
305.000000	2177.000000	5.653767
306.000000	2176.000000	5.630000
307.000000	2175.000000	5.631333
308.000000	2174.000000	5.652900
309.000000	2173.000000	5.623367
310.000000	2172.000000	5.626500
311.000000	2171.000000	5.638167
312.000000	2170.000000	5.633867
313.000000	2169.000000	5.629967
314.000000	2168.000000	5.647633
315.000000	2167.000000	5.647067
316.000000	2166.000000	6.075833
317.000000	2165.000000	6.556233
318.000000	2164.000000	6.280567
319.000000	2163.000000	6.111600
320.000000	2162.000000	6.238633
321.000000	2161.000000	6.303933
322.000000	2160.000000	6.119433
323.000000	2159.000000	6.041833
324.000000	2158.000000	6.086267
325.000000	2157.000000	5.923700
326.000000	2156.000000	5.984800
327.000000	2155.000000	6.035200
328.000000	2154.000000	5.843833
329.000000	2153.000000	5.751667
330.000000	2152.000000	5.821500
331.000000	2151.000000	5.766233
332.000000	2150.000000	5.891967
333.000000	2149.000000	6.000233
334.000000	2148.000000	5.898367
335.000000	2147.000000	5.958267
336.000000	2146.000000	6.001100
337.000000	2145.000000	5.840033
338.000000	2144.000000	5.904533
339.000000	2143.000000	6.027600
340.000000	2142.000000	6.002700
341.000000	2141.000000	5.943433
342.000000	2140.000000	5.955600
343.000000	2139.000000	6.046667
344.000000	2138.000000	6.034867
345.000000	2137.000000	6.034300
346.000000	2136.000000	6.100200
347.000000	2135.000000	6.059867
348.000000	2134.000000	6.073600
349.000000	2133.000000	6.147100
350.000000	2132.000000	6.071767
351.000000	2131.000000	5.994400
352.000000	2130.000000	5.979633
353.000000	2129.000000	6.095633
354.000000	2128.000000	6.143367
355.000000	2127.000000	6.086667
356.000000	2126.000000	6.218400
357.000000	2125.000000	6.305867
358.000000	2124.000000	6.211367
359.000000	2123.000000	6.252800
360.000000	2122.000000	6.330400
361.000000	2121.000000	6.302933
362.000000	2120.000000	6.268633
363.000000	2119.000000	6.327133
364.000000	2118.000000	6.373733
365.000000	2117.000000	6.397033
366.000000	2116.000000	6.386667
367.000000	2115.000000	6.363267
368.000000	2114.000000	6.405933
369.000000	2113.000000	6.485567
370.000000	2112.000000	6.477167
371.000000	2111.000000	6.403800
372.000000	2110.000000	6.423933
373.000000	2109.000000	6.419500
374.000000	2108.000000	6.353667
375.000000	2107.000000	6.525733
376.000000	2106.000000	6.666633
377.000000	2105.000000	6.703133
378.000000	2104.000000	6.736033
379.000000	2103.000000	6.767067
380.000000	2102.000000	6.809733
381.000000	2101.000000	6.843367
382.000000	2100.000000	6.881100
383.000000	2099.000000	6.921833
384.000000	2098.000000	6.966633
385.000000	2097.000000	7.018800
386.000000	2096.000000	7.058433
387.000000	2095.000000	7.109533
388.000000	2094.000000	7.160867
389.000000	2093.000000	7.236733
390.000000	2092.000000	7.303367
391.000000	2091.000000	7.360333
392.000000	2090.000000	7.442667
393.000000	2089.000000	7.516100
394.000000	2088.000000	7.587967
395.000000	2087.000000	7.682067
396.000000	2086.000000	7.788700
397.000000	2085.000000	7.894400
398.000000	2084.000000	8.002633
399.000000	2083.000000	8.119600
400.000000	2082.000000	8.244067
401.000000	2081.000000	8.386067
402.000000	2080.000000	8.546933
403.000000	2079.000000	8.710033
404.000000	2078.000000	8.876100
405.000000	2077.000000	9.064867
406.000000	2076.000000	9.267067
407.000000	2075.000000	9.470033
408.000000	2074.000000	9.701000
409.000000	2073.000000	9.940367
410.000000	2072.000000	10.204233
411.000000	2071.000000	10.484233
412.000000	2070.000000	10.779400
413.000000	2069.000000	11.105200
414.000000	2068.000000	11.460133
415.000000	2067.000000	11.803100
416.000000	2066.000000	12.182133
417.000000	2065.000000	12.572400
418.000000	2064.000000	12.993800
419.000000	2063.000000	13.419500
420.000000	2062.000000	13.875467
421.000000	2061.000000	14.317800
422.000000	2060.000000	14.809867
423.000000	2059.000000	15.308400
424.000000	2058.000000	15.801033
425.000000	2057.000000	16.328467
426.000000	2056.000000	16.851033
427.000000	2055.000000	17.364000
428.000000	2054.000000	17.879067
429.000000	2053.000000	18.406267
430.000000	2052.000000	18.928333
431.000000	2051.000000	19.456933
432.000000	2050.000000	19.968633
433.000000	2049.000000	20.482067
434.000000	2048.000000	21.001400
435.000000	2047.000000	21.492667
436.000000	2046.000000	21.953400
437.000000	2045.000000	22.438967
438.000000	2044.000000	22.896633
439.000000	2043.000000	23.339933
440.000000	2042.000000	23.761067
441.000000	2041.000000	24.180633
442.000000	2040.000000	24.550967
443.000000	2039.000000	24.941967
444.000000	2038.000000	25.301367
445.000000	2037.000000	25.661867
446.000000	2036.000000	25.973733
447.000000	2035.000000	26.273267
448.000000	2034.000000	26.594567
449.000000	2033.000000	26.859433
450.000000	2032.000000	27.130333
451.000000	2031.000000	27.388667
452.000000	2030.000000	27.627933
453.000000	2029.000000	27.859733
454.000000	2028.000000	28.091200
455.000000	2027.000000	28.273267
456.000000	2026.000000	28.494100
457.000000	2025.000000	28.649867
458.000000	2024.000000	28.813367
459.000000	2023.000000	28.976267
460.000000	2022.000000	29.121967
461.000000	2021.000000	29.250100
462.000000	2020.000000	29.361067
463.000000	2019.000000	29.489500
464.000000	2018.000000	29.592233
465.000000	2017.000000	29.690133
466.000000	2016.000000	29.784400
467.000000	2015.000000	29.853933
468.000000	2014.000000	29.932767
469.000000	2013.000000	29.977800
470.000000	2012.000000	30.038733
471.000000	2011.000000	30.080533
472.000000	2010.000000	30.138400
473.000000	2009.000000	30.164833
474.000000	2008.000000	30.195700
475.000000	2007.000000	30.227033
476.000000	2006.000000	30.252367
477.000000	2005.000000	30.269233
478.000000	2004.000000	30.274967
479.000000	2003.000000	30.289367
480.000000	2002.000000	30.298600
481.000000	2001.000000	30.303967
482.000000	2000.000000	30.317700
483.000000	1999.000000	30.319900
484.000000	1998.000000	30.318133
485.000000	1997.000000	30.339667
486.000000	1996.000000	30.348100
487.000000	1995.000000	30.385133
488.000000	1994.000000	30.425633
489.000000	1993.000000	30.469333
490.000000	1992.000000	30.546033
491.000000	1991.000000	30.646600
492.000000	1990.000000	30.749233
493.000000	1989.000000	30.880433
494.000000	1988.000000	31.064467
495.000000	1987.000000	31.269733
496.000000	1986.000000	31.511067
497.000000	1985.000000	31.820600
498.000000	1984.000000	32.172500
499.000000	1983.000000	32.533567
500.000000	1982.000000	32.954200
501.000000	1981.000000	33.430733
502.000000	1980.000000	33.940867
503.000000	1979.000000	34.484100
504.000000	1978.000000	35.050767
505.000000	1977.000000	35.626333
506.000000	1976.000000	36.201733
507.000000	1975.000000	36.794933
508.000000	1974.000000	37.374167
509.000000	1973.000000	37.964200
510.000000	1972.000000	38.522733
511.000000	1971.000000	39.106967
512.000000	1970.000000	39.674533
513.000000	1969.000000	40.252900
514.000000	1968.000000	40.822800
515.000000	1967.000000	41.392333
516.000000	1966.000000	41.954400
517.000000	1965.000000	42.524400
518.000000	1964.000000	43.113733
519.000000	1963.000000	43.720933
520.000000	1962.000000	44.331967
521.000000	1961.000000	44.998133
522.000000	1960.000000	45.693433
523.000000	1959.000000	46.442800
524.000000	1958.000000	47.229700
525.000000	1957.000000	48.047933
526.000000	1956.000000	48.910833
527.000000	1955.000000	49.803133
528.000000	1954.000000	50.737100
529.000000	1953.000000	51.749600
530.000000	1952.000000	52.828367
531.000000	1951.000000	53.921033
532.000000	1950.000000	55.064667
533.000000	1949.000000	56.237967
534.000000	1948.000000	57.460867
535.000000	1947.000000	58.710467
536.000000	1946.000000	59.960500
537.000000	1945.000000	61.240900
538.000000	1944.000000	62.536700
539.000000	1943.000000	63.826267
540.000000	1942.000000	65.126833
541.000000	1941.000000	66.447200
542.000000	1940.000000	67.772233
543.000000	1939.000000	69.061500
544.000000	1938.000000	70.312900
545.000000	1937.000000	71.520500
546.000000	1936.000000	72.691200
547.000000	1935.000000	73.774233
548.000000	1934.000000	74.828833
549.000000	1933.000000	75.779733
550.000000	1932.000000	76.690167
551.000000	1931.000000	77.555267
552.000000	1930.000000	78.372767
553.000000	1929.000000	79.117533
554.000000	1928.000000	79.789367
555.000000	1927.000000	80.419267
556.000000	1926.000000	81.004000
557.000000	1925.000000	81.540767
558.000000	1924.000000	82.037733
559.000000	1923.000000	82.503767
560.000000	1922.000000	82.967600
561.000000	1921.000000	83.397833
562.000000	1920.000000	83.774400
563.000000	1919.000000	84.162100
564.000000	1918.000000	84.483467
565.000000	1917.000000	84.793500
566.000000	1916.000000	85.112367
567.000000	1915.000000	85.414567
568.000000	1914.000000	85.679167
569.000000	1913.000000	85.978267
570.000000	1912.000000	86.257700
571.000000	1911.000000	86.518233
572.000000	1910.000000	86.771433
573.000000	1909.000000	87.058900
574.000000	1908.000000	87.306800
575.000000	1907.000000	87.544100
576.000000	1906.000000	87.794467
577.000000	1905.000000	88.059767
578.000000	1904.000000	88.278400
579.000000	1903.000000	88.498633
580.000000	1902.000000	88.696300
581.000000	1901.000000	88.897667
582.000000	1900.000000	89.047800
583.000000	1899.000000	89.182267
584.000000	1898.000000	89.317033
585.000000	1897.000000	89.417133
586.000000	1896.000000	89.512400
587.000000	1895.000000	89.566200
588.000000	1894.000000	89.578000
589.000000	1893.000000	89.580833
590.000000	1892.000000	89.588433
591.000000	1891.000000	89.584067
592.000000	1890.000000	89.531500
593.000000	1889.000000	89.430900
594.000000	1888.000000	89.337767
595.000000	1887.000000	89.228900
596.000000	1886.000000	89.120400
597.000000	1885.000000	89.016033
598.000000	1884.000000	88.880133
599.000000	1883.000000	88.731033
600.000000	1882.000000	88.580200
601.000000	1881.000000	88.460467
602.000000	1880.000000	88.295500
603.000000	1879.000000	88.139200
604.000000	1878.000000	87.991667
605.000000	1877.000000	87.828733
606.000000	1876.000000	87.674167
607.000000	1875.000000	87.499067
608.000000	1874.000000	87.305267
609.000000	1873.000000	87.093367
610.000000	1872.000000	86.867767
611.000000	1871.000000	86.605067
612.000000	1870.000000	86.328933
613.000000	1869.000000	86.003500
614.000000	1868.000000	85.653933
615.000000	1867.000000	85.295167
616.000000	1866.000000	84.885767
617.000000	1865.000000	84.439200
618.000000	1864.000000	83.966700
619.000000	1863.000000	83.460433
620.000000	1862.000000	82.923733
621.000000	1861.000000	82.373800
622.000000	1860.000000	81.815800
623.000000	1859.000000	81.208733
624.000000	1858.000000	80.554800
625.000000	1857.000000	79.927733
626.000000	1856.000000	79.326533
627.000000	1855.000000	78.692367
628.000000	1854.000000	78.026933
629.000000	1853.000000	77.381833
630.000000	1852.000000	76.708967
631.000000	1851.000000	76.029033
632.000000	1850.000000	75.343767
633.000000	1849.000000	74.638267
634.000000	1848.000000	73.908767
635.000000	1847.000000	73.172667
636.000000	1846.000000	72.403967
637.000000	1845.000000	71.603233
638.000000	1844.000000	70.808200
639.000000	1843.000000	69.979567
640.000000	1842.000000	69.113500
641.000000	1841.000000	68.216300
642.000000	1840.000000	67.315000
643.000000	1839.000000	66.409867
644.000000	1838.000000	65.481800
645.000000	1837.000000	64.578133
646.000000	1836.000000	63.712000
647.000000	1835.000000	62.848467
648.000000	1834.000000	62.047933
649.000000	1833.000000	61.330333
650.000000	1832.000000	60.670700
651.000000	1831.000000	60.076467
652.000000	1830.000000	59.585467
653.000000	1829.000000	59.185467
654.000000	1828.000000	58.881700
655.000000	1827.000000	58.679833
656.000000	1826.000000	58.606833
657.000000	1825.000000	58.654167
658.000000	1824.000000	58.778967
659.000000	1823.000000	58.981500
660.000000	1822.000000	59.287967
661.000000	1821.000000	59.652333
662.000000	1820.000000	60.070967
663.000000	1819.000000	60.592100
664.000000	1818.000000	61.181667
665.000000	1817.000000	61.810533
666.000000	1816.000000	62.460200
667.000000	1815.000000	63.151367
668.000000	1814.000000	63.858767
669.000000	1813.000000	64.608933
670.000000	1812.000000	65.392967
671.000000	1811.000000	66.189833
672.000000	1810.000000	66.977267
673.000000	1809.000000	67.780633
674.000000	1808.000000	68.561967
675.000000	1807.000000	69.334200
676.000000	1806.000000	70.121467
677.000000	1805.000000	70.867000
678.000000	1804.000000	71.590300
679.000000	1803.000000	72.288300
680.000000	1802.000000	72.931800
681.000000	1801.000000	73.568600
682.000000	1800.000000	74.138133
683.000000	1799.000000	74.640533
684.000000	1798.000000	75.135633
685.000000	1797.000000	75.533333
686.000000	1796.000000	75.877633
687.000000	1795.000000	76.206467
688.000000	1794.000000	76.455400
689.000000	1793.000000	76.677567
690.000000	1792.000000	76.911800
691.000000	1791.000000	77.093300
692.000000	1790.000000	77.244967
693.000000	1789.000000	77.345233
694.000000	1788.000000	77.473367
695.000000	1787.000000	77.572133
696.000000	1786.000000	77.660967
697.000000	1785.000000	77.763033
698.000000	1784.000000	77.822900
699.000000	1783.000000	77.853000
700.000000	1782.000000	77.932467
701.000000	1781.000000	78.025167
702.000000	1780.000000	78.048333
703.000000	1779.000000	78.049400
704.000000	1778.000000	78.142400
705.000000	1777.000000	78.106767
706.000000	1776.000000	78.111900
707.000000	1775.000000	78.146167
708.000000	1774.000000	78.116333
709.000000	1773.000000	78.095467
710.000000	1772.000000	78.086933
711.000000	1771.000000	78.062467
712.000000	1770.000000	78.051700
713.000000	1769.000000	78.043967
714.000000	1768.000000	78.099433
715.000000	1767.000000	78.121800
716.000000	1766.000000	78.163100
717.000000	1765.000000	78.185633
718.000000	1764.000000	78.232700
719.000000	1763.000000	78.316467
720.000000	1762.000000	78.440933
721.000000	1761.000000	78.613433
722.000000	1760.000000	78.720200
723.000000	1759.000000	78.835800
724.000000	1758.000000	78.962033
725.000000	1757.000000	79.197533
726.000000	1756.000000	79.390733
727.000000	1755.000000	79.524167
728.000000	1754.000000	79.708133
729.000000	1753.000000	79.915000
730.000000	1752.000000	80.128033
731.000000	1751.000000	80.382633
732.000000	1750.000000	80.586333
733.000000	1749.000000	80.845700
734.000000	1748.000000	81.054067
735.000000	1747.000000	81.380200
736.000000	1746.000000	81.707600
737.000000	1745.000000	81.976200
738.000000	1744.000000	82.311833
739.000000	1743.000000	82.679300
740.000000	1742.000000	83.014500
741.000000	1741.000000	83.372233
742.000000	1740.000000	83.748867
743.000000	1739.000000	84.110833
744.000000	1738.000000	84.469833
745.000000	1737.000000	84.819933
746.000000	1736.000000	85.134333
747.000000	1735.000000	85.378000
748.000000	1734.000000	85.546967
749.000000	1733.000000	85.856500
750.000000	1732.000000	86.071833
751.000000	1731.000000	86.260700
752.000000	1730.000000	86.401067
753.000000	1729.000000	86.520500
754.000000	1728.000000	86.691833
755.000000	1727.000000	86.788667
756.000000	1726.000000	86.895033
757.000000	1725.000000	86.938300
758.000000	1724.000000	87.035867
759.000000	1723.000000	87.202600
760.000000	1722.000000	87.169233
761.000000	1721.000000	87.277000
762.000000	1720.000000	87.395000
763.000000	1719.000000	87.435533
764.000000	1718.000000	87.443100
765.000000	1717.000000	87.448133
766.000000	1716.000000	87.526300
767.000000	1715.000000	87.490000
768.000000	1714.000000	87.567900
769.000000	1713.000000	87.598433
770.000000	1712.000000	87.561233
771.000000	1711.000000	87.585433
772.000000	1710.000000	87.540000
773.000000	1709.000000	87.577000
774.000000	1708.000000	87.643633
775.000000	1707.000000	87.656500
776.000000	1706.000000	87.575533
777.000000	1705.000000	87.551233
778.000000	1704.000000	87.625200
779.000000	1703.000000	87.614267
780.000000	1702.000000	87.696867
781.000000	1701.000000	87.730600
782.000000	1700.000000	87.782433
783.000000	1699.000000	87.738300
784.000000	1698.000000	87.683967
785.000000	1697.000000	87.817333
786.000000	1696.000000	87.740733
787.000000	1695.000000	87.769667
788.000000	1694.000000	87.707767
789.000000	1693.000000	87.633667
790.000000	1692.000000	87.663067
791.000000	1691.000000	87.506167
792.000000	1690.000000	87.416000
793.000000	1689.000000	87.349633
794.000000	1688.000000	87.293533
795.000000	1687.000000	87.160433
796.000000	1686.000000	87.007700
797.000000	1685.000000	86.993633
798.000000	1684.000000	86.742900
799.000000	1683.000000	86.832100
800.000000	1682.000000	86.593967
801.000000	1681.000000	86.376000
802.000000	1680.000000	86.260033
803.000000	1679.000000	86.192133
804.000000	1678.000000	86.058533
805.000000	1677.000000	86.034700
806.000000	1676.000000	85.866233
807.000000	1675.000000	85.618133
808.000000	1674.000000	85.682500
809.000000	1673.000000	85.457067
810.000000	1672.000000	85.376967
811.000000	1671.000000	85.350467
812.000000	1670.000000	85.204000
813.000000	1669.000000	85.059600
814.000000	1668.000000	85.112767
815.000000	1667.000000	85.087000
816.000000	1666.000000	84.882967
817.000000	1665.000000	84.852167
818.000000	1664.000000	84.793267
819.000000	1663.000000	84.886400
820.000000	1662.000000	84.876133
821.000000	1661.000000	84.748367
822.000000	1660.000000	84.730300
823.000000	1659.000000	84.776767
824.000000	1658.000000	84.659600
825.000000	1657.000000	84.560433
826.000000	1656.000000	84.387333
827.000000	1655.000000	84.495033
828.000000	1654.000000	84.259000
829.000000	1653.000000	84.195000
830.000000	1652.000000	84.046500
831.000000	1651.000000	83.772533
832.000000	1650.000000	83.688633
833.000000	1649.000000	83.544767
834.000000	1648.000000	83.287433
835.000000	1647.000000	83.147967
836.000000	1646.000000	83.015433
837.000000	1645.000000	82.763700
838.000000	1644.000000	82.448933
839.000000	1643.000000	82.365567
840.000000	1642.000000	81.894967
841.000000	1641.000000	81.784533
842.000000	1640.000000	81.458733
843.000000	1639.000000	81.120500
844.000000	1638.000000	80.834300
845.000000	1637.000000	80.526167
846.000000	1636.000000	80.324400
847.000000	1635.000000	80.074633
848.000000	1634.000000	79.925500
849.000000	1633.000000	79.607000
850.000000	1632.000000	79.168567
851.000000	1631.000000	78.990300
852.000000	1630.000000	78.494733
853.000000	1629.000000	78.469800
854.000000	1628.000000	77.881467
855.000000	1627.000000	77.715400
856.000000	1626.000000	77.432000
857.000000	1625.000000	76.493067
858.000000	1624.000000	77.213489
859.000000	1623.000000	76.977024
860.000000	1622.000000	76.726126
861.000000	1621.000000	76.477287
862.000000	1620.000000	76.238201
863.000000	1619.000000	75.999056
864.000000	1618.000000	75.770796
865.000000	1617.000000	75.534257
866.000000	1616.000000	75.315253
867.000000	1615.000000	75.045890
868.000000	1614.000000	74.803826
869.000000	1613.000000	74.588262
870.000000	1612.000000	74.407781
871.000000	1611.000000	74.334403
872.000000	1610.000000	74.355463
873.000000	1609.000000	74.372823
874.000000	1608.000000	74.355782
875.000000	1607.000000	74.319360
876.000000	1606.000000	74.264341
877.000000	1605.000000	74.186962
878.000000	1604.000000	74.104019
879.000000	1603.000000	74.019994
880.000000	1602.000000	73.928051
881.000000	1601.000000	73.828808
882.000000	1600.000000	73.739812
883.000000	1599.000000	73.639589
884.000000	1598.000000	73.551406
885.000000	1597.000000	73.472148
886.000000	1596.000000	73.384733
887.000000	1595.000000	73.288578
888.000000	1594.000000	73.186159
889.000000	1593.000000	73.082771
890.000000	1592.000000	72.991798
891.000000	1591.000000	72.899773
892.000000	1590.000000	72.811676
893.000000	1589.000000	72.720890
894.000000	1588.000000	72.607366
895.000000	1587.000000	72.505691
896.000000	1586.000000	72.385143
897.000000	1585.000000	72.253315
898.000000	1584.000000	72.128317
899.000000	1583.000000	72.002074
900.000000	1582.000000	71.879733
901.000000	1581.000000	71.747975
902.000000	1580.000000	71.603981
903.000000	1579.000000	71.461879
904.000000	1578.000000	71.327424
905.000000	1577.000000	71.186901
906.000000	1576.000000	71.049900
907.000000	1575.000000	70.907130
908.000000	1574.000000	70.765796
909.000000	1573.000000	70.623429
910.000000	1572.000000	70.492461
911.000000	1571.000000	70.359574
912.000000	1570.000000	70.220207
913.000000	1569.000000	70.099611
914.000000	1568.000000	69.976038
915.000000	1567.000000	69.853117
916.000000	1566.000000	69.740455
917.000000	1565.000000	69.625843
918.000000	1564.000000	69.516651
919.000000	1563.000000	69.412572
920.000000	1562.000000	69.311248
921.000000	1561.000000	69.210797
922.000000	1560.000000	69.113385
923.000000	1559.000000	69.028390
924.000000	1558.000000	68.941500
925.000000	1557.000000	68.844682
926.000000	1556.000000	68.749596
927.000000	1555.000000	68.664905
928.000000	1554.000000	68.592970
929.000000	1553.000000	68.511415
930.000000	1552.000000	68.426325
931.000000	1551.000000	68.357144
932.000000	1550.000000	68.294079
933.000000	1549.000000	68.218880
934.000000	1548.000000	68.152762
935.000000	1547.000000	68.096439
936.000000	1546.000000	68.037301
937.000000	1545.000000	67.984702
938.000000	1544.000000	67.937707
939.000000	1543.000000	67.882928
940.000000	1542.000000	67.820657
941.000000	1541.000000	67.777958
942.000000	1540.000000	67.722730
943.000000	1539.000000	67.650918
944.000000	1538.000000	67.583535
945.000000	1537.000000	67.517064
946.000000	1536.000000	67.443622
947.000000	1535.000000	67.364794
948.000000	1534.000000	67.294458
949.000000	1533.000000	67.215157
950.000000	1532.000000	67.132178
951.000000	1531.000000	67.061508
952.000000	1530.000000	66.982243
953.000000	1529.000000	66.896494
954.000000	1528.000000	66.828401
955.000000	1527.000000	66.762338
956.000000	1526.000000	66.692261
957.000000	1525.000000	66.631161
958.000000	1524.000000	66.558952
959.000000	1523.000000	66.483543
960.000000	1522.000000	66.423263
961.000000	1521.000000	66.354807
962.000000	1520.000000	66.286978
963.000000	1519.000000	66.220858
964.000000	1518.000000	66.157038
965.000000	1517.000000	66.089426
966.000000	1516.000000	66.017473
967.000000	1515.000000	65.960152
968.000000	1514.000000	65.898876
969.000000	1513.000000	65.834975
970.000000	1512.000000	65.769683
971.000000	1511.000000	65.717321
972.000000	1510.000000	65.659062
973.000000	1509.000000	65.605791
974.000000	1508.000000	65.559206
975.000000	1507.000000	65.517602
976.000000	1506.000000	65.485979
977.000000	1505.000000	65.450537
978.000000	1504.000000	65.421328
979.000000	1503.000000	65.394905
980.000000	1502.000000	65.369433
981.000000	1501.000000	65.340767
982.000000	1500.000000	65.327929
983.000000	1499.000000	65.304490
984.000000	1498.000000	65.286708
985.000000	1497.000000	65.270507
986.000000	1496.000000	65.263700
987.000000	1495.000000	65.258285
988.000000	1494.000000	65.251571
989.000000	1493.000000	65.255500
990.000000	1492.000000	65.256754
991.000000	1491.000000	65.271379
992.000000	1490.000000	65.287816
993.000000	1489.000000	65.308175
994.000000	1488.000000	65.323584
995.000000	1487.000000	65.350596
996.000000	1486.000000	65.373679
997.000000	1485.000000	65.404082
998.000000	1484.000000	65.434458
999.000000	1483.000000	65.469571
1000.000000	1482.000000	65.509386
1001.000000	1481.000000	65.546824
1002.000000	1480.000000	65.594242
1003.000000	1479.000000	65.621814
1004.000000	1478.000000	65.662861
1005.000000	1477.000000	65.701517
1006.000000	1476.000000	65.744193
1007.000000	1475.000000	65.773149
1008.000000	1474.000000	65.791503
1009.000000	1473.000000	65.840970
1010.000000	1472.000000	65.878954
1011.000000	1471.000000	65.909672
1012.000000	1470.000000	65.944864
1013.000000	1469.000000	65.981856
1014.000000	1468.000000	66.020277
1015.000000	1467.000000	66.060259
1016.000000	1466.000000	66.103706
1017.000000	1465.000000	66.132206
1018.000000	1464.000000	66.184406
1019.000000	1463.000000	66.229074
1020.000000	1462.000000	66.277678
1021.000000	1461.000000	66.329402
1022.000000	1460.000000	66.373680
1023.000000	1459.000000	66.417187
1024.000000	1458.000000	66.458717
1025.000000	1457.000000	66.499782
1026.000000	1456.000000	66.545974
1027.000000	1455.000000	66.602792
1028.000000	1454.000000	66.604998
1029.000000	1453.000000	66.661830
1030.000000	1452.000000	66.713109
1031.000000	1451.000000	66.738190
1032.000000	1450.000000	66.767192
1033.000000	1449.000000	66.805374
1034.000000	1448.000000	66.839434
1035.000000	1447.000000	66.865236
1036.000000	1446.000000	66.897853
1037.000000	1445.000000	66.921472
1038.000000	1444.000000	66.953285
1039.000000	1443.000000	66.984380
1040.000000	1442.000000	67.016963
1041.000000	1441.000000	67.055287
1042.000000	1440.000000	67.097336
1043.000000	1439.000000	67.136400
1044.000000	1438.000000	67.173045
1045.000000	1437.000000	67.211210
1046.000000	1436.000000	67.253763
1047.000000	1435.000000	67.304575
1048.000000	1434.000000	67.344549
1049.000000	1433.000000	67.407921
1050.000000	1432.000000	67.460997
1051.000000	1431.000000	67.522395
1052.000000	1430.000000	67.580766
1053.000000	1429.000000	67.653663
1054.000000	1428.000000	67.717747
1055.000000	1427.000000	67.779293
1056.000000	1426.000000	67.855106
1057.000000	1425.000000	67.925423
1058.000000	1424.000000	67.993675
1059.000000	1423.000000	68.065261
1060.000000	1422.000000	68.137406
1061.000000	1421.000000	68.213861
1062.000000	1420.000000	68.277226
1063.000000	1419.000000	68.348182
1064.000000	1418.000000	68.407699
1065.000000	1417.000000	68.478964
1066.000000	1416.000000	68.545236
1067.000000	1415.000000	68.609298
1068.000000	1414.000000	68.657015
1069.000000	1413.000000	68.736864
1070.000000	1412.000000	68.794302
1071.000000	1411.000000	68.843385
1072.000000	1410.000000	68.907816
1073.000000	1409.000000	68.963724
1074.000000	1408.000000	69.012235
1075.000000	1407.000000	69.069572
1076.000000	1406.000000	69.122309
1077.000000	1405.000000	69.179266
1078.000000	1404.000000	69.222674
1079.000000	1403.000000	69.258708
1080.000000	1402.000000	69.303097
1081.000000	1401.000000	69.341970
1082.000000	1400.000000	69.382388
1083.000000	1399.000000	69.420566
1084.000000	1398.000000	69.443805
1085.000000	1397.000000	69.485029
1086.000000	1396.000000	69.505541
1087.000000	1395.000000	69.530309
1088.000000	1394.000000	69.550961
1089.000000	1393.000000	69.589374
1090.000000	1392.000000	69.607947
1091.000000	1391.000000	69.632112
1092.000000	1390.000000	69.645951
1093.000000	1389.000000	69.654244
1094.000000	1388.000000	69.669550
1095.000000	1387.000000	69.678709
1096.000000	1386.000000	69.684559
1097.000000	1385.000000	69.690667
1098.000000	1384.000000	69.700213
1099.000000	1383.000000	69.711718
1100.000000	1382.000000	69.702242
1101.000000	1381.000000	69.719362
1102.000000	1380.000000	69.713040
1103.000000	1379.000000	69.720063
1104.000000	1378.000000	69.722693
1105.000000	1377.000000	69.719558
1106.000000	1376.000000	69.716961
1107.000000	1375.000000	69.720235
1108.000000	1374.000000	69.731319
1109.000000	1373.000000	69.725722
1110.000000	1372.000000	69.728865
1111.000000	1371.000000	69.732603
1112.000000	1370.000000	69.735789
1113.000000	1369.000000	69.735122
1114.000000	1368.000000	69.739026
1115.000000	1367.000000	69.742994
1116.000000	1366.000000	69.745380
1117.000000	1365.000000	69.743852
1118.000000	1364.000000	69.722857
1119.000000	1363.000000	69.705439
1120.000000	1362.000000	69.675061
1121.000000	1361.000000	69.644492
1122.000000	1360.000000	69.596138
1123.000000	1359.000000	69.555303
1124.000000	1358.000000	69.475619
1125.000000	1357.000000	69.388906
1126.000000	1356.000000	69.277862
1127.000000	1355.000000	69.151129
1128.000000	1354.000000	69.002061
1129.000000	1353.000000	68.819140
1130.000000	1352.000000	68.596145
1131.000000	1351.000000	68.352648
1132.000000	1350.000000	68.108506
1133.000000	1349.000000	67.861861
1134.000000	1348.000000	67.594194
1135.000000	1347.000000	67.258007
1136.000000	1346.000000	66.925650
1137.000000	1345.000000	66.610986
1138.000000	1344.000000	66.326747
1139.000000	1343.000000	66.045333
1140.000000	1342.000000	65.782098
1141.000000	1341.000000	65.522172
1142.000000	1340.000000	65.279514
1143.000000	1339.000000	65.056521
1144.000000	1338.000000	64.876561
1145.000000	1337.000000	64.724981
1146.000000	1336.000000	64.572722
1147.000000	1335.000000	64.432106
1148.000000	1334.000000	64.331341
1149.000000	1333.000000	64.225901
1150.000000	1332.000000	64.108291
1151.000000	1331.000000	64.002380
1152.000000	1330.000000	63.873353
1153.000000	1329.000000	63.712186
1154.000000	1328.000000	63.542010
1155.000000	1327.000000	63.340387
1156.000000	1326.000000	63.128759
1157.000000	1325.000000	62.905155
1158.000000	1324.000000	62.673050
1159.000000	1323.000000	62.422445
1160.000000	1322.000000	62.178531
1161.000000	1321.000000	61.931344
1162.000000	1320.000000	61.672330
1163.000000	1319.000000	61.423115
1164.000000	1318.000000	61.178267
1165.000000	1317.000000	60.957023
1166.000000	1316.000000	60.730122
1167.000000	1315.000000	60.508024
1168.000000	1314.000000	60.297971
1169.000000	1313.000000	60.097499
1170.000000	1312.000000	59.896943
1171.000000	1311.000000	59.715027
1172.000000	1310.000000	59.532432
1173.000000	1309.000000	59.352756
1174.000000	1308.000000	59.161844
1175.000000	1307.000000	58.974628
1176.000000	1306.000000	58.769094
1177.000000	1305.000000	58.548278
1178.000000	1304.000000	58.311735
1179.000000	1303.000000	58.047608
1180.000000	1302.000000	57.785765
1181.000000	1301.000000	57.548425
1182.000000	1300.000000	57.336316
1183.000000	1299.000000	57.186064
1184.000000	1298.000000	57.114490
1185.000000	1297.000000	57.102202
1186.000000	1296.000000	57.149743
1187.000000	1295.000000	57.248549
1188.000000	1294.000000	57.393874
1189.000000	1293.000000	57.594366
1190.000000	1292.000000	57.811365
1191.000000	1291.000000	58.038049
1192.000000	1290.000000	58.240434
1193.000000	1289.000000	58.418525
1194.000000	1288.000000	58.572701
1195.000000	1287.000000	58.699418
1196.000000	1286.000000	58.799739
1197.000000	1285.000000	58.881710
1198.000000	1284.000000	58.947956
1199.000000	1283.000000	59.006072
1200.000000	1282.000000	59.046795
1201.000000	1281.000000	59.088439
1202.000000	1280.000000	59.144384
1203.000000	1279.000000	59.186481
1204.000000	1278.000000	59.241605
1205.000000	1277.000000	59.290851
1206.000000	1276.000000	59.345012
1207.000000	1275.000000	59.419117
1208.000000	1274.000000	59.506184
1209.000000	1273.000000	59.599177
1210.000000	1272.000000	59.680858
1211.000000	1271.000000	59.760923
1212.000000	1270.000000	59.840695
1213.000000	1269.000000	59.928262
1214.000000	1268.000000	60.020294
1215.000000	1267.000000	60.116930
1216.000000	1266.000000	60.207982
1217.000000	1265.000000	60.304627
1218.000000	1264.000000	60.411092
1219.000000	1263.000000	60.518575
1220.000000	1262.000000	60.624886
1221.000000	1261.000000	60.741894
1222.000000	1260.000000	60.866624
1223.000000	1259.000000	60.982275
1224.000000	1258.000000	61.093541
1225.000000	1257.000000	61.212574
1226.000000	1256.000000	61.329954
1227.000000	1255.000000	61.441220
1228.000000	1254.000000	61.552001
1229.000000	1253.000000	61.663136
1230.000000	1252.000000	61.768667
1231.000000	1251.000000	61.871414
1232.000000	1250.000000	61.976851
1233.000000	1249.000000	62.082927
1234.000000	1248.000000	62.185295
1235.000000	1247.000000	62.284571
1236.000000	1246.000000	62.384199
1237.000000	1245.000000	62.477945
1238.000000	1244.000000	62.571298
1239.000000	1243.000000	62.663878
1240.000000	1242.000000	62.753902
1241.000000	1241.000000	62.847652
1242.000000	1240.000000	62.934829
1243.000000	1239.000000	63.026275
1244.000000	1238.000000	63.125674
1245.000000	1237.000000	63.205180
1246.000000	1236.000000	63.292487
1247.000000	1235.000000	63.376757
1248.000000	1234.000000	63.447273
1249.000000	1233.000000	63.506989
1250.000000	1232.000000	63.583621
1251.000000	1231.000000	63.654310
1252.000000	1230.000000	63.701601
1253.000000	1229.000000	63.752793
1254.000000	1228.000000	63.805005
1255.000000	1227.000000	63.844321
1256.000000	1226.000000	63.886428
1257.000000	1225.000000	63.915575
1258.000000	1224.000000	63.944273
1259.000000	1223.000000	63.974824
1260.000000	1222.000000	63.995646
1261.000000	1221.000000	64.027513
1262.000000	1220.000000	64.054321
1263.000000	1219.000000	64.082437
1264.000000	1218.000000	64.103500
1265.000000	1217.000000	64.121945
1266.000000	1216.000000	64.136405
1267.000000	1215.000000	64.153653
1268.000000	1214.000000	64.165414
1269.000000	1213.000000	64.181264
1270.000000	1212.000000	64.191502
1271.000000	1211.000000	64.206664
1272.000000	1210.000000	64.216618
1273.000000	1209.000000	64.233982
1274.000000	1208.000000	64.251110
1275.000000	1207.000000	64.269964
1276.000000	1206.000000	64.287611
1277.000000	1205.000000	64.316564
1278.000000	1204.000000	64.345228
1279.000000	1203.000000	64.366855
1280.000000	1202.000000	64.396497
1281.000000	1201.000000	64.429872
1282.000000	1200.000000	64.454555
1283.000000	1199.000000	64.481326
1284.000000	1198.000000	64.503955
1285.000000	1197.000000	64.522986
1286.000000	1196.000000	64.535277
1287.000000	1195.000000	64.550116
1288.000000	1194.000000	64.553560
1289.000000	1193.000000	64.553712
1290.000000	1192.000000	64.550684
1291.000000	1191.000000	64.548877
1292.000000	1190.000000	64.539045
1293.000000	1189.000000	64.516504
1294.000000	1188.000000	64.493487
1295.000000	1187.000000	64.471863
1296.000000	1186.000000	64.441160
1297.000000	1185.000000	64.404306
1298.000000	1184.000000	64.372452
1299.000000	1183.000000	64.341152
1300.000000	1182.000000	64.302798
1301.000000	1181.000000	64.257390
1302.000000	1180.000000	64.206377
1303.000000	1179.000000	64.163436
1304.000000	1178.000000	64.097286
1305.000000	1177.000000	64.031137
1306.000000	1176.000000	63.963391
1307.000000	1175.000000	63.891544
1308.000000	1174.000000	63.822681
1309.000000	1173.000000	63.728772
1310.000000	1172.000000	63.640304
1311.000000	1171.000000	63.551290
1312.000000	1170.000000	63.457234
1313.000000	1169.000000	63.354467
1314.000000	1168.000000	63.244460
1315.000000	1167.000000	63.140706
1316.000000	1166.000000	63.018399
1317.000000	1165.000000	62.893087
1318.000000	1164.000000	62.771038
1319.000000	1163.000000	62.652580
1320.000000	1162.000000	62.531064
1321.000000	1161.000000	62.388084
1322.000000	1160.000000	62.245933
1323.000000	1159.000000	62.103742
1324.000000	1158.000000	61.960346
1325.000000	1157.000000	61.810463
1326.000000	1156.000000	61.656741
1327.000000	1155.000000	61.493830
1328.000000	1154.000000	61.324011
1329.000000	1153.000000	61.137113
1330.000000	1152.000000	60.969254
1331.000000	1151.000000	60.783176
1332.000000	1150.000000	60.584780
1333.000000	1149.000000	60.382135
1334.000000	1148.000000	60.194697
1335.000000	1147.000000	59.994721
1336.000000	1146.000000	59.773333
1337.000000	1145.000000	59.556054
1338.000000	1144.000000	59.340954
1339.000000	1143.000000	59.130984
1340.000000	1142.000000	58.897339
1341.000000	1141.000000	58.655975
1342.000000	1140.000000	58.425667
1343.000000	1139.000000	58.209263
1344.000000	1138.000000	57.958190
1345.000000	1137.000000	57.685484
1346.000000	1136.000000	57.447425
1347.000000	1135.000000	57.198772
1348.000000	1134.000000	56.922642
1349.000000	1133.000000	56.637493
1350.000000	1132.000000	56.356467
1351.000000	1131.000000	56.053401
1352.000000	1130.000000	55.723293
1353.000000	1129.000000	55.517528
1354.000000	1128.000000	55.314304
1355.000000	1127.000000	55.099812
1356.000000	1126.000000	54.924996
1357.000000	1125.000000	54.811820
1358.000000	1124.000000	54.721997
1359.000000	1123.000000	54.594367
1360.000000	1122.000000	54.588594
1361.000000	1121.000000	54.492489
1362.000000	1120.000000	54.338942
1363.000000	1119.000000	54.170530
1364.000000	1118.000000	54.042766
1365.000000	1117.000000	53.852060
1366.000000	1116.000000	53.698749
1367.000000	1115.000000	53.511619
1368.000000	1114.000000	53.304299
1369.000000	1113.000000	53.064231
1370.000000	1112.000000	52.846504
1371.000000	1111.000000	52.593160
1372.000000	1110.000000	52.353842
1373.000000	1109.000000	52.089069
1374.000000	1108.000000	51.893829
1375.000000	1107.000000	51.695455
1376.000000	1106.000000	51.511655
1377.000000	1105.000000	51.313717
1378.000000	1104.000000	51.136014
1379.000000	1103.000000	50.903597
1380.000000	1102.000000	50.670283
1381.000000	1101.000000	50.353487
1382.000000	1100.000000	49.962827
1383.000000	1099.000000	49.496877
1384.000000	1098.000000	49.046192
1385.000000	1097.000000	48.555245
1386.000000	1096.000000	48.119253
1387.000000	1095.000000	47.698625
1388.000000	1094.000000	47.228075
1389.000000	1093.000000	46.757078
1390.000000	1092.000000	46.407912
1391.000000	1091.000000	46.024751
1392.000000	1090.000000	45.645949
1393.000000	1089.000000	45.326884
1394.000000	1088.000000	45.029148
1395.000000	1087.000000	44.681803
1396.000000	1086.000000	44.250580
1397.000000	1085.000000	43.841041
1398.000000	1084.000000	43.528684
1399.000000	1083.000000	43.234734
1400.000000	1082.000000	42.847753
1401.000000	1081.000000	42.375979
1402.000000	1080.000000	41.956759
1403.000000	1079.000000	41.558945
1404.000000	1078.000000	41.191478
1405.000000	1077.000000	40.787086
1406.000000	1076.000000	40.398641
1407.000000	1075.000000	40.026244
1408.000000	1074.000000	39.640082
1409.000000	1073.000000	39.287013
1410.000000	1072.000000	38.874372
1411.000000	1071.000000	38.502147
1412.000000	1070.000000	38.210490
1413.000000	1069.000000	37.936763
1414.000000	1068.000000	37.615969
1415.000000	1067.000000	37.292793
1416.000000	1066.000000	36.985839
1417.000000	1065.000000	36.728493
1418.000000	1064.000000	36.516859
1419.000000	1063.000000	36.263959
1420.000000	1062.000000	35.993570
1421.000000	1061.000000	35.729739
1422.000000	1060.000000	35.517348
1423.000000	1059.000000	35.300281
1424.000000	1058.000000	35.094075
1425.000000	1057.000000	34.878938
1426.000000	1056.000000	34.674927
1427.000000	1055.000000	34.499050
1428.000000	1054.000000	34.312648
1429.000000	1053.000000	34.145356
1430.000000	1052.000000	33.988033
1431.000000	1051.000000	33.854813
1432.000000	1050.000000	33.716294
1433.000000	1049.000000	33.577065
1434.000000	1048.000000	33.441771
1435.000000	1047.000000	33.288971
1436.000000	1046.000000	33.172688
1437.000000	1045.000000	33.063380
1438.000000	1044.000000	32.935631
1439.000000	1043.000000	32.833387
1440.000000	1042.000000	32.721492
1441.000000	1041.000000	32.618427
1442.000000	1040.000000	32.500873
1443.000000	1039.000000	32.401037
1444.000000	1038.000000	32.325011
1445.000000	1037.000000	32.241375
1446.000000	1036.000000	32.144041
1447.000000	1035.000000	32.044720
1448.000000	1034.000000	31.946252
1449.000000	1033.000000	31.884848
1450.000000	1032.000000	31.817121
1451.000000	1031.000000	31.724848
1452.000000	1030.000000	31.640566
1453.000000	1029.000000	31.562533
1454.000000	1028.000000	31.484854
1455.000000	1027.000000	31.419698
1456.000000	1026.000000	31.353245
1457.000000	1025.000000	31.290887
1458.000000	1024.000000	31.221819
1459.000000	1023.000000	31.169138
1460.000000	1022.000000	31.124925
1461.000000	1021.000000	31.082453
1462.000000	1020.000000	31.031691
1463.000000	1019.000000	30.992009
1464.000000	1018.000000	30.952517
1465.000000	1017.000000	30.933212
1466.000000	1016.000000	30.908128
1467.000000	1015.000000	30.881468
1468.000000	1014.000000	30.852723
1469.000000	1013.000000	30.838031
1470.000000	1012.000000	30.825694
1471.000000	1011.000000	30.808042
1472.000000	1010.000000	30.788111
1473.000000	1009.000000	30.767319
1474.000000	1008.000000	30.749342
1475.000000	1007.000000	30.741765
1476.000000	1006.000000	30.747995
1477.000000	1005.000000	30.742788
1478.000000	1004.000000	30.748005
1479.000000	1003.000000	30.766805
1480.000000	1002.000000	30.788826
1481.000000	1001.000000	30.812095
1482.000000	1000.000000	30.832589
1483.000000	999.000000	30.856612
1484.000000	998.000000	30.892480
1485.000000	997.000000	30.929643
1486.000000	996.000000	30.960879
1487.000000	995.000000	30.996991
1488.000000	994.000000	31.034494
1489.000000	993.000000	31.067825
1490.000000	992.000000	31.105072
1491.000000	991.000000	31.144041
1492.000000	990.000000	31.189385
1493.000000	989.000000	31.235570
1494.000000	988.000000	31.281168
1495.000000	987.000000	31.331140
1496.000000	986.000000	31.382750
1497.000000	985.000000	31.439407
1498.000000	984.000000	31.497012
1499.000000	983.000000	31.558089
1500.000000	982.000000	31.628074
1501.000000	981.000000	31.691644
1502.000000	980.000000	31.764075
1503.000000	979.000000	31.832912
1504.000000	978.000000	31.912020
1505.000000	977.000000	32.000572
1506.000000	976.000000	32.079307
1507.000000	975.000000	32.156586
1508.000000	974.000000	32.236521
1509.000000	973.000000	32.311112
1510.000000	972.000000	32.381279
1511.000000	971.000000	32.456175
1512.000000	970.000000	32.537208
1513.000000	969.000000	32.618208
1514.000000	968.000000	32.698127
1515.000000	967.000000	32.771574
1516.000000	966.000000	32.837708
1517.000000	965.000000	32.907239
1518.000000	964.000000	32.972134
1519.000000	963.000000	33.033058
1520.000000	962.000000	33.097134
1521.000000	961.000000	33.160684
1522.000000	960.000000	33.222360
1523.000000	959.000000	33.280865
1524.000000	958.000000	33.344288
1525.000000	957.000000	33.413336
1526.000000	956.000000	33.476306
1527.000000	955.000000	33.535543
1528.000000	954.000000	33.590872
1529.000000	953.000000	33.643020
1530.000000	952.000000	33.690177
1531.000000	951.000000	33.738972
1532.000000	950.000000	33.785693
1533.000000	949.000000	33.826791
1534.000000	948.000000	33.869754
1535.000000	947.000000	33.908565
1536.000000	946.000000	33.951435
1537.000000	945.000000	33.995153
1538.000000	944.000000	34.030249
1539.000000	943.000000	34.071788
1540.000000	942.000000	34.118513
1541.000000	941.000000	34.157340
1542.000000	940.000000	34.197702
1543.000000	939.000000	34.243605
1544.000000	938.000000	34.295660
1545.000000	937.000000	34.354216
1546.000000	936.000000	34.414204
1547.000000	935.000000	34.468902
1548.000000	934.000000	34.530110
1549.000000	933.000000	34.591325
1550.000000	932.000000	34.650439
1551.000000	931.000000	34.712786
1552.000000	930.000000	34.761543
1553.000000	929.000000	34.810219
1554.000000	928.000000	34.859655
1555.000000	927.000000	34.900177
1556.000000	926.000000	34.935729
1557.000000	925.000000	34.963671
1558.000000	924.000000	34.998412
1559.000000	923.000000	35.021983
1560.000000	922.000000	35.031965
1561.000000	921.000000	35.046647
1562.000000	920.000000	35.068044
1563.000000	919.000000	35.077791
1564.000000	918.000000	35.081779
1565.000000	917.000000	35.086092
1566.000000	916.000000	35.084043
1567.000000	915.000000	35.084680
1568.000000	914.000000	35.094584
1569.000000	913.000000	35.102113
1570.000000	912.000000	35.109231
1571.000000	911.000000	35.122432
1572.000000	910.000000	35.141294
1573.000000	909.000000	35.157110
1574.000000	908.000000	35.181662
1575.000000	907.000000	35.206930
1576.000000	906.000000	35.238942
1577.000000	905.000000	35.277007
1578.000000	904.000000	35.313070
1579.000000	903.000000	35.359926
1580.000000	902.000000	35.409549
1581.000000	901.000000	35.440951
1582.000000	900.000000	35.497172
1583.000000	899.000000	35.555811
1584.000000	898.000000	35.597828
1585.000000	897.000000	35.652932
1586.000000	896.000000	35.715169
1587.000000	895.000000	35.770242
1588.000000	894.000000	35.825365
1589.000000	893.000000	35.879482
1590.000000	892.000000	35.936117
1591.000000	891.000000	35.993680
1592.000000	890.000000	36.052265
1593.000000	889.000000	36.123567
1594.000000	888.000000	36.174861
1595.000000	887.000000	36.241133
1596.000000	886.000000	36.315777
1597.000000	885.000000	36.376401
1598.000000	884.000000	36.451279
1599.000000	883.000000	36.531043
1600.000000	882.000000	36.606339
1601.000000	881.000000	36.691720
1602.000000	880.000000	36.760085
1603.000000	879.000000	36.830363
1604.000000	878.000000	36.909226
1605.000000	877.000000	36.988042
1606.000000	876.000000	37.058704
1607.000000	875.000000	37.131893
1608.000000	874.000000	37.202774
1609.000000	873.000000	37.278971
1610.000000	872.000000	37.343940
1611.000000	871.000000	37.399871
1612.000000	870.000000	37.470296
1613.000000	869.000000	37.545362
1614.000000	868.000000	37.615762
1615.000000	867.000000	37.674108
1616.000000	866.000000	37.729903
1617.000000	865.000000	37.801595
1618.000000	864.000000	37.866677
1619.000000	863.000000	37.921406
1620.000000	862.000000	37.989009
1621.000000	861.000000	38.048494
1622.000000	860.000000	38.114912
1623.000000	859.000000	38.187617
1624.000000	858.000000	38.256859
1625.000000	857.000000	38.328814
1626.000000	856.000000	38.403731
1627.000000	855.000000	38.478543
1628.000000	854.000000	38.541758
1629.000000	853.000000	38.606824
1630.000000	852.000000	38.691392
1631.000000	851.000000	38.743370
1632.000000	850.000000	38.805912
1633.000000	849.000000	38.872666
1634.000000	848.000000	38.910157
1635.000000	847.000000	38.978577
1636.000000	846.000000	39.030463
1637.000000	845.000000	39.081761
1638.000000	844.000000	39.122212
1639.000000	843.000000	39.154747
1640.000000	842.000000	39.200232
1641.000000	841.000000	39.243222
1642.000000	840.000000	39.278697
1643.000000	839.000000	39.317270
1644.000000	838.000000	39.351952
1645.000000	837.000000	39.383142
1646.000000	836.000000	39.421031
1647.000000	835.000000	39.444062
1648.000000	834.000000	39.474002
1649.000000	833.000000	39.487778
1650.000000	832.000000	39.506547
1651.000000	831.000000	39.522071
1652.000000	830.000000	39.518697
1653.000000	829.000000	39.517176
1654.000000	828.000000	39.501067
1655.000000	827.000000	39.487706
1656.000000	826.000000	39.462588
1657.000000	825.000000	39.420760
1658.000000	824.000000	39.379686
1659.000000	823.000000	39.311468
1660.000000	822.000000	39.252407
1661.000000	821.000000	39.182571
1662.000000	820.000000	39.096972
1663.000000	819.000000	39.019419
1664.000000	818.000000	38.912453
1665.000000	817.000000	38.813188
1666.000000	816.000000	38.695474
1667.000000	815.000000	38.573389
1668.000000	814.000000	38.445363
1669.000000	813.000000	38.292134
1670.000000	812.000000	38.113677
1671.000000	811.000000	37.925488
1672.000000	810.000000	37.712679
1673.000000	809.000000	37.483114
1674.000000	808.000000	37.237408
1675.000000	807.000000	36.951130
1676.000000	806.000000	36.648625
1677.000000	805.000000	36.311733
1678.000000	804.000000	35.962721
1679.000000	803.000000	35.618242
1680.000000	802.000000	35.291098
1681.000000	801.000000	35.020033
1682.000000	800.000000	34.770885
1683.000000	799.000000	34.585986
1684.000000	798.000000	34.444256
1685.000000	797.000000	34.332298
1686.000000	796.000000	34.248935
1687.000000	795.000000	34.180812
1688.000000	794.000000	34.104594
1689.000000	793.000000	34.040898
1690.000000	792.000000	33.970805
1691.000000	791.000000	33.905173
1692.000000	790.000000	33.863890
1693.000000	789.000000	33.827728
1694.000000	788.000000	33.836907
1695.000000	787.000000	33.863971
1696.000000	786.000000	33.904042
1697.000000	785.000000	33.975920
1698.000000	784.000000	34.051066
1699.000000	783.000000	34.131598
1700.000000	782.000000	34.200233
1701.000000	781.000000	34.257026
1702.000000	780.000000	34.303500
1703.000000	779.000000	34.328914
1704.000000	778.000000	34.336978
1705.000000	777.000000	34.326073
1706.000000	776.000000	34.313187
1707.000000	775.000000	34.286600
1708.000000	774.000000	34.241824
1709.000000	773.000000	34.175281
1710.000000	772.000000	34.103539
1711.000000	771.000000	34.005574
1712.000000	770.000000	33.888207
1713.000000	769.000000	33.754002
1714.000000	768.000000	33.623246
1715.000000	767.000000	33.483110
1716.000000	766.000000	33.344080
1717.000000	765.000000	33.209185
1718.000000	764.000000	33.072627
1719.000000	763.000000	32.955301
1720.000000	762.000000	32.847620
1721.000000	761.000000	32.753957
1722.000000	760.000000	32.682089
1723.000000	759.000000	32.616638
1724.000000	758.000000	32.569013
1725.000000	757.000000	32.526642
1726.000000	756.000000	32.471280
1727.000000	755.000000	32.416258
1728.000000	754.000000	32.378198
1729.000000	753.000000	32.341302
1730.000000	752.000000	32.321507
1731.000000	751.000000	32.323901
1732.000000	750.000000	32.358510
1733.000000	749.000000	32.418285
1734.000000	748.000000	32.512502
1735.000000	747.000000	32.628656
1736.000000	746.000000	32.770945
1737.000000	745.000000	32.934206
1738.000000	744.000000	33.095551
1739.000000	743.000000	33.263144
1740.000000	742.000000	33.427308
1741.000000	741.000000	33.569298
1742.000000	740.000000	33.694878
1743.000000	739.000000	33.809545
1744.000000	738.000000	33.905138
1745.000000	737.000000	33.983365
1746.000000	736.000000	34.048916
1747.000000	735.000000	34.099202
1748.000000	734.000000	34.122793
1749.000000	733.000000	34.137083
1750.000000	732.000000	34.146463
1751.000000	731.000000	34.137370
1752.000000	730.000000	34.119186
1753.000000	729.000000	34.084263
1754.000000	728.000000	34.045069
1755.000000	727.000000	34.000241
1756.000000	726.000000	33.951229
1757.000000	725.000000	33.893926
1758.000000	724.000000	33.834523
1759.000000	723.000000	33.796261
1760.000000	722.000000	33.769311
1761.000000	721.000000	33.743695
1762.000000	720.000000	33.734616
1763.000000	719.000000	33.746716
1764.000000	718.000000	33.785463
1765.000000	717.000000	33.839188
1766.000000	716.000000	33.903021
1767.000000	715.000000	33.984974
1768.000000	714.000000	34.077799
1769.000000	713.000000	34.170758
1770.000000	712.000000	34.253664
1771.000000	711.000000	34.337560
1772.000000	710.000000	34.429686
1773.000000	709.000000	34.504877
1774.000000	708.000000	34.576367
1775.000000	707.000000	34.651605
1776.000000	706.000000	34.721316
1777.000000	705.000000	34.780838
1778.000000	704.000000	34.839887
1779.000000	703.000000	34.895713
1780.000000	702.000000	34.941603
1781.000000	701.000000	34.988174
1782.000000	700.000000	35.030311
1783.000000	699.000000	35.077606
1784.000000	698.000000	35.131020
1785.000000	697.000000	35.171404
1786.000000	696.000000	35.203492
1787.000000	695.000000	35.227327
1788.000000	694.000000	35.248923
1789.000000	693.000000	35.278201
1790.000000	692.000000	35.312875
1791.000000	691.000000	35.353980
1792.000000	690.000000	35.393976
1793.000000	689.000000	35.428235
1794.000000	688.000000	35.466616
1795.000000	687.000000	35.506778
1796.000000	686.000000	35.540643
1797.000000	685.000000	35.576626
1798.000000	684.000000	35.609384
1799.000000	683.000000	35.653311
1800.000000	682.000000	35.710504
1801.000000	681.000000	35.757299
1802.000000	680.000000	35.790477
1803.000000	679.000000	35.816645
1804.000000	678.000000	35.843936
1805.000000	677.000000	35.894348
1806.000000	676.000000	35.942052
1807.000000	675.000000	35.966345
1808.000000	674.000000	35.998717
1809.000000	673.000000	36.032373
1810.000000	672.000000	36.067940
1811.000000	671.000000	36.106743
1812.000000	670.000000	36.130203
1813.000000	669.000000	36.142991
1814.000000	668.000000	36.162097
1815.000000	667.000000	36.181347
1816.000000	666.000000	36.188633
1817.000000	665.000000	36.196716
1818.000000	664.000000	36.230415
1819.000000	663.000000	36.276343
1820.000000	662.000000	36.307717
1821.000000	661.000000	36.327301
1822.000000	660.000000	36.310603
1823.000000	659.000000	36.291857
1824.000000	658.000000	36.320766
1825.000000	657.000000	36.370914
1826.000000	656.000000	36.412003
1827.000000	655.000000	36.467821
1828.000000	654.000000	36.533248
1829.000000	653.000000	36.579868
1830.000000	652.000000	36.615863
1831.000000	651.000000	36.640161
1832.000000	650.000000	36.666933
1833.000000	649.000000	36.707557
1834.000000	648.000000	36.773688
1835.000000	647.000000	36.831376
1836.000000	646.000000	36.869167
1837.000000	645.000000	36.892946
1838.000000	644.000000	36.918324
1839.000000	643.000000	36.949513
1840.000000	642.000000	36.983556
1841.000000	641.000000	37.008413
1842.000000	640.000000	36.959074
1843.000000	639.000000	36.932261
1844.000000	638.000000	36.945288
1845.000000	637.000000	36.937869
1846.000000	636.000000	36.991893
1847.000000	635.000000	37.032062
1848.000000	634.000000	37.015039
1849.000000	633.000000	36.984244
1850.000000	632.000000	36.939930
1851.000000	631.000000	36.891509
1852.000000	630.000000	36.853210
1853.000000	629.000000	36.848664
1854.000000	628.000000	36.791164
1855.000000	627.000000	36.729603
1856.000000	626.000000	36.659484
1857.000000	625.000000	36.580491
1858.000000	624.000000	36.475824
1859.000000	623.000000	36.372972
1860.000000	622.000000	36.240903
1861.000000	621.000000	36.079490
1862.000000	620.000000	35.913825
1863.000000	619.000000	35.765977
1864.000000	618.000000	35.615468
1865.000000	617.000000	35.444182
1866.000000	616.000000	35.290538
1867.000000	615.000000	35.102624
1868.000000	614.000000	34.882210
1869.000000	613.000000	34.590268
1870.000000	612.000000	34.325527
1871.000000	611.000000	34.002391
1872.000000	610.000000	33.651282
1873.000000	609.000000	33.264063
1874.000000	608.000000	32.865938
1875.000000	607.000000	32.465843
1876.000000	606.000000	32.047869
1877.000000	605.000000	31.608719
1878.000000	604.000000	31.150330
1879.000000	603.000000	30.688551
1880.000000	602.000000	30.228081
1881.000000	601.000000	29.705326
1882.000000	600.000000	29.202675
1883.000000	599.000000	28.669041
1884.000000	598.000000	28.103926
1885.000000	597.000000	27.562264
1886.000000	596.000000	27.047408
1887.000000	595.000000	26.544294
1888.000000	594.000000	26.038659
1889.000000	593.000000	25.531084
1890.000000	592.000000	25.048317
1891.000000	591.000000	24.536060
1892.000000	590.000000	24.004030
1893.000000	589.000000	23.552013
1894.000000	588.000000	23.122924
1895.000000	587.000000	22.727645
1896.000000	586.000000	22.355511
1897.000000	585.000000	21.951147
1898.000000	584.000000	21.542868
1899.000000	583.000000	21.127922
1900.000000	582.000000	20.705698
1901.000000	581.000000	20.347876
1902.000000	580.000000	20.002361
1903.000000	579.000000	19.672666
1904.000000	578.000000	19.337269
1905.000000	577.000000	18.988445
1906.000000	576.000000	18.657795
1907.000000	575.000000	18.360173
1908.000000	574.000000	18.099043
1909.000000	573.000000	17.866597
1910.000000	572.000000	17.647296
1911.000000	571.000000	17.415193
1912.000000	570.000000	17.176060
1913.000000	569.000000	16.935198
1914.000000	568.000000	16.698470
1915.000000	567.000000	16.494028
1916.000000	566.000000	16.319411
1917.000000	565.000000	16.151460
1918.000000	564.000000	15.982945
1919.000000	563.000000	15.842111
1920.000000	562.000000	15.683637
1921.000000	561.000000	15.521903
1922.000000	560.000000	15.367238
1923.000000	559.000000	15.256505
1924.000000	558.000000	15.147364
1925.000000	557.000000	15.042946
1926.000000	556.000000	14.960075
1927.000000	555.000000	14.857169
1928.000000	554.000000	14.785369
1929.000000	553.000000	14.710532
1930.000000	552.000000	14.646340
1931.000000	551.000000	14.584960
1932.000000	550.000000	14.553925
1933.000000	549.000000	14.510605
1934.000000	548.000000	14.486685
1935.000000	547.000000	14.464916
1936.000000	546.000000	14.453344
1937.000000	545.000000	14.456280
1938.000000	544.000000	14.458915
1939.000000	543.000000	14.473296
1940.000000	542.000000	14.482596
1941.000000	541.000000	14.504042
1942.000000	540.000000	14.523325
1943.000000	539.000000	14.557105
1944.000000	538.000000	14.599261
1945.000000	537.000000	14.633351
1946.000000	536.000000	14.667984
1947.000000	535.000000	14.734703
1948.000000	534.000000	14.787812
1949.000000	533.000000	14.835629
1950.000000	532.000000	14.895643
1951.000000	531.000000	14.971880
1952.000000	530.000000	15.021632
1953.000000	529.000000	15.099518
1954.000000	528.000000	15.168170
1955.000000	527.000000	15.238216
1956.000000	526.000000	15.310592
1957.000000	525.000000	15.395038
1958.000000	524.000000	15.465769
1959.000000	523.000000	15.544721
1960.000000	522.000000	15.611964
1961.000000	521.000000	15.696257
1962.000000	520.000000	15.782951
1963.000000	519.000000	15.850620
1964.000000	518.000000	15.930258
1965.000000	517.000000	16.011436
1966.000000	516.000000	16.082886
1967.000000	515.000000	16.168450
1968.000000	514.000000	16.252290
1969.000000	513.000000	16.335693
1970.000000	512.000000	16.427376
1971.000000	511.000000	16.509385
1972.000000	510.000000	16.595536
1973.000000	509.000000	16.698470
1974.000000	508.000000	16.777459
1975.000000	507.000000	16.859816
1976.000000	506.000000	16.948195
1977.000000	505.000000	17.041759
1978.000000	504.000000	17.132608
1979.000000	503.000000	17.238787
1980.000000	502.000000	17.328824
1981.000000	501.000000	17.415392
1982.000000	500.000000	17.509673
1983.000000	499.000000	17.594086
1984.000000	498.000000	17.694183
1985.000000	497.000000	17.784498
1986.000000	496.000000	17.872629
1987.000000	495.000000	17.958964
1988.000000	494.000000	18.055767
1989.000000	493.000000	18.151999
1990.000000	492.000000	18.226131
1991.000000	491.000000	18.305138
1992.000000	490.000000	18.388324
1993.000000	489.000000	18.463508
1994.000000	488.000000	18.543344
1995.000000	487.000000	18.609708
1996.000000	486.000000	18.679742
1997.000000	485.000000	18.758715
1998.000000	484.000000	18.821660
1999.000000	483.000000	18.878509
