PE UV       SUBTECH     SPECTRUM    ASCII       PEDS        4.00        
   -1
INBUCR0144-2.Sample.ASC
24/04/29
13:43:37.00
24/04/29
13:43:37.00
Vinicio Soto Monge
C. cupreomarginata
250,000000
1
Lambda 1050
1050L1511233
PerkinElmer UV WinLab 6.3.2.0749 / 2.02.05 Lambda 900 UV/VIS/NIR, Aug  7 2015 09:38:08

0
0
3350/servo 860,8/2
0
0
UV/VIS
1
1
1
DoubleDePol,CommonBeamDepol,RBeamAtt,SBeamAtt,60mm sphere, WB InGaAs Detector
0
0
0
0
Program
Program
3350/servo 860,8/2
3350/0,2 860,8/0,2
3350/0,2 860,8/0,2
0
15.00
 
 
 
0
 
860,8
319,2
860,8
Front
100
on
S:100 R:100
0
0
0
0
 
0
 
 
 
0
 
 
0
0
0
0
0
 
 
 
 
0
0


0
0
#HDR
-1
-1
#GR
nm
%R
1.0
0.0
2500,000000
-1,000000
2251
8
79,805300
5,674900
#DATA
2482.000000	15.622380
2481.000000	15.617420
2480.000000	15.651350
2479.000000	15.637034
2478.000000	15.645037
2477.000000	15.720337
2476.000000	15.641768
2475.000000	15.726086
2474.000000	15.805781
2473.000000	15.814236
2472.000000	15.794960
2471.000000	15.905767
2470.000000	15.920309
2469.000000	15.980728
2468.000000	16.000230
2467.000000	16.063017
2466.000000	16.166384
2465.000000	16.210347
2464.000000	16.301202
2463.000000	16.321718
2462.000000	16.353280
2461.000000	16.415278
2460.000000	16.498130
2459.000000	16.581771
2458.000000	16.663496
2457.000000	16.739472
2456.000000	16.870006
2455.000000	16.944516
2454.000000	17.026128
2453.000000	17.136034
2452.000000	17.277277
2451.000000	17.366779
2450.000000	17.454027
2449.000000	17.596848
2448.000000	17.684322
2447.000000	17.836499
2446.000000	17.961960
2445.000000	18.077390
2444.000000	18.214800
2443.000000	18.336767
2442.000000	18.473501
2441.000000	18.603697
2440.000000	18.754634
2439.000000	18.846053
2438.000000	18.969823
2437.000000	19.072965
2436.000000	19.200794
2435.000000	19.326481
2434.000000	19.460059
2433.000000	19.605021
2432.000000	19.702866
2431.000000	19.816040
2430.000000	19.915350
2429.000000	20.025030
2428.000000	20.118140
2427.000000	20.235485
2426.000000	20.339867
2425.000000	20.425988
2424.000000	20.527327
2423.000000	20.625735
2422.000000	20.704303
2421.000000	20.786817
2420.000000	20.877785
2419.000000	20.950717
2418.000000	21.036049
2417.000000	21.120704
2416.000000	21.186761
2415.000000	21.241770
2414.000000	21.309291
2413.000000	21.376362
2412.000000	21.437120
2411.000000	21.486718
2410.000000	21.520535
2409.000000	21.581744
2408.000000	21.619394
2407.000000	21.653549
2406.000000	21.709799
2405.000000	21.747899
2404.000000	21.753761
2403.000000	21.787803
2402.000000	21.833118
2401.000000	21.899964
2400.000000	21.999273
2399.000000	22.086070
2398.000000	22.198005
2397.000000	22.256509
2396.000000	22.273868
2395.000000	22.292918
2394.000000	22.300133
2393.000000	22.323692
2392.000000	22.344095
2391.000000	22.415224
2390.000000	22.444983
2389.000000	22.453437
2388.000000	22.478800
2387.000000	22.492214
2386.000000	22.501119
2385.000000	22.493003
2384.000000	22.512279
2383.000000	22.533471
2382.000000	22.519042
2381.000000	22.512504
2380.000000	22.528511
2379.000000	22.513631
2378.000000	22.523889
2377.000000	22.532907
2376.000000	22.518929
2375.000000	22.506981
2374.000000	22.494243
2373.000000	22.478236
2372.000000	22.476207
2371.000000	22.498977
2370.000000	22.482520
2369.000000	22.450957
2368.000000	22.467527
2367.000000	22.481618
2366.000000	22.501457
2365.000000	22.515660
2364.000000	22.498977
2363.000000	22.492778
2362.000000	22.493792
2361.000000	22.493341
2360.000000	22.496047
2359.000000	22.477898
2358.000000	22.480603
2357.000000	22.479363
2356.000000	22.453324
2355.000000	22.449379
2354.000000	22.438670
2353.000000	22.418605
2352.000000	22.428638
2351.000000	22.434950
2350.000000	22.402035
2349.000000	22.388734
2348.000000	22.380843
2347.000000	22.374305
2346.000000	22.378476
2345.000000	22.362582
2344.000000	22.360553
2343.000000	22.386366
2342.000000	22.387268
2341.000000	22.369232
2340.000000	22.373403
2339.000000	22.398991
2338.000000	22.415787
2337.000000	22.408460
2336.000000	22.405417
2335.000000	22.432019
2334.000000	22.467415
2333.000000	22.506530
2332.000000	22.518028
2331.000000	22.545194
2330.000000	22.576757
2329.000000	22.616097
2328.000000	22.649576
2327.000000	22.670656
2326.000000	22.710560
2325.000000	22.758918
2324.000000	22.783154
2323.000000	22.797695
2322.000000	22.809982
2321.000000	22.838163
2320.000000	22.843686
2319.000000	22.850337
2318.000000	22.831738
2317.000000	22.821142
2316.000000	22.807164
2315.000000	22.780899
2314.000000	22.735697
2313.000000	22.714054
2312.000000	22.687000
2311.000000	22.651042
2310.000000	22.603359
2309.000000	22.573150
2308.000000	22.547899
2307.000000	22.536740
2306.000000	22.493679
2305.000000	22.462455
2304.000000	22.447801
2303.000000	22.434048
2302.000000	22.425481
2301.000000	22.405642
2300.000000	22.419169
2299.000000	22.436303
2298.000000	22.441150
2297.000000	22.467415
2296.000000	22.452986
2295.000000	22.478011
2294.000000	22.494243
2293.000000	22.561201
2292.000000	22.591524
2291.000000	22.619254
2290.000000	22.681702
2289.000000	22.718225
2288.000000	22.727919
2287.000000	22.797357
2286.000000	22.850788
2285.000000	22.912561
2284.000000	22.952803
2283.000000	23.016943
2282.000000	23.085253
2281.000000	23.140601
2280.000000	23.207108
2279.000000	23.279476
2278.000000	23.321635
2277.000000	23.342376
2276.000000	23.395582
2275.000000	23.462201
2274.000000	23.522734
2273.000000	23.553846
2272.000000	23.601528
2271.000000	23.665781
2270.000000	23.713237
2269.000000	23.779519
2268.000000	23.849633
2267.000000	23.959877
2266.000000	24.046899
2265.000000	24.171121
2264.000000	24.264118
2263.000000	24.401303
2262.000000	24.549422
2261.000000	24.692243
2260.000000	24.873502
2259.000000	25.057918
2258.000000	25.251352
2257.000000	25.454142
2256.000000	25.652761
2255.000000	25.853861
2254.000000	26.086184
2253.000000	26.344434
2252.000000	26.534825
2251.000000	26.748211
2250.000000	26.953593
2249.000000	27.180055
2248.000000	27.366275
2247.000000	27.559821
2246.000000	27.715831
2245.000000	27.881535
2244.000000	28.070009
2243.000000	28.186114
2242.000000	28.303009
2241.000000	28.435572
2240.000000	28.521580
2239.000000	28.613788
2238.000000	28.666655
2237.000000	28.725497
2236.000000	28.767205
2235.000000	28.794371
2234.000000	28.839123
2233.000000	28.836417
2232.000000	28.824243
2231.000000	28.809025
2230.000000	28.790877
2229.000000	28.734177
2228.000000	28.690102
2227.000000	28.650423
2226.000000	28.587185
2225.000000	28.488552
2224.000000	28.425427
2223.000000	28.339531
2222.000000	28.270093
2221.000000	28.176533
2220.000000	28.049042
2219.000000	27.946802
2218.000000	27.871390
2217.000000	27.775124
2216.000000	27.649437
2215.000000	27.540320
2214.000000	27.456792
2213.000000	27.374391
2212.000000	27.288270
2211.000000	27.190313
2210.000000	27.095850
2209.000000	27.036220
2208.000000	26.973094
2207.000000	26.882352
2206.000000	26.818550
2205.000000	26.770981
2204.000000	26.688918
2203.000000	26.651043
2202.000000	26.594455
2201.000000	26.556918
2200.000000	26.514985
2199.000000	26.472601
2198.000000	26.424919
2197.000000	26.381971
2196.000000	26.358412
2195.000000	26.319410
2194.000000	26.278153
2193.000000	26.265189
2192.000000	26.254932
2191.000000	26.245575
2190.000000	26.211082
2189.000000	26.177603
2188.000000	26.174785
2187.000000	26.130372
2186.000000	26.097231
2185.000000	26.080548
2184.000000	26.052931
2183.000000	26.031175
2182.000000	26.045716
2181.000000	26.010208
2180.000000	25.983042
2179.000000	25.949450
2178.000000	25.950578
2177.000000	25.934571
2176.000000	25.950465
2175.000000	25.938854
2174.000000	25.943476
2173.000000	25.958806
2172.000000	25.960948
2171.000000	25.999500
2170.000000	26.032528
2169.000000	26.067810
2168.000000	26.109180
2167.000000	26.147731
2166.000000	26.208828
2165.000000	26.268233
2164.000000	26.326624
2163.000000	26.402938
2162.000000	26.477223
2161.000000	26.544631
2160.000000	26.644167
2159.000000	26.754072
2158.000000	26.865443
2157.000000	26.967458
2156.000000	27.080745
2155.000000	27.212632
2154.000000	27.348239
2153.000000	27.478097
2152.000000	27.641321
2151.000000	27.791919
2150.000000	27.927526
2149.000000	28.071925
2148.000000	28.220946
2147.000000	28.374476
2146.000000	28.532852
2145.000000	28.655158
2144.000000	28.804178
2143.000000	28.943956
2142.000000	29.074941
2141.000000	29.215056
2140.000000	29.357314
2139.000000	29.506560
2138.000000	29.629316
2137.000000	29.746549
2136.000000	29.873926
2135.000000	29.986650
2134.000000	30.126315
2133.000000	30.247380
2132.000000	30.331472
2131.000000	30.433149
2130.000000	30.539109
2129.000000	30.630979
2128.000000	30.698951
2127.000000	30.785636
2126.000000	30.860597
2125.000000	30.909632
2124.000000	30.969488
2123.000000	31.027541
2122.000000	31.083903
2121.000000	31.147592
2120.000000	31.184452
2119.000000	31.218946
2118.000000	31.241040
2117.000000	31.260428
2116.000000	31.291427
2115.000000	31.324793
2114.000000	31.351396
2113.000000	31.363570
2112.000000	31.385551
2111.000000	31.392991
2110.000000	31.392991
2109.000000	31.397387
2108.000000	31.391639
2107.000000	31.380817
2106.000000	31.385664
2105.000000	31.399980
2104.000000	31.394908
2103.000000	31.381268
2102.000000	31.387130
2101.000000	31.395697
2100.000000	31.397387
2099.000000	31.383861
2098.000000	31.397387
2097.000000	31.427372
2096.000000	31.433346
2095.000000	31.433121
2094.000000	31.457018
2093.000000	31.486214
2092.000000	31.518565
2091.000000	31.527358
2090.000000	31.549790
2089.000000	31.586087
2088.000000	31.597810
2087.000000	31.590032
2086.000000	31.588680
2085.000000	31.593865
2084.000000	31.591610
2083.000000	31.553961
2082.000000	31.502108
2081.000000	31.465022
2080.000000	31.418918
2079.000000	31.359738
2078.000000	31.275759
2077.000000	31.167093
2076.000000	31.067671
2075.000000	30.958441
2074.000000	30.841321
2073.000000	30.710787
2072.000000	30.575519
2071.000000	30.440025
2070.000000	30.290102
2069.000000	30.125751
2068.000000	29.962302
2067.000000	29.810914
2066.000000	29.627738
2065.000000	29.459441
2064.000000	29.291370
2063.000000	29.130626
2062.000000	28.984762
2061.000000	28.841941
2060.000000	28.702389
2059.000000	28.577942
2058.000000	28.481789
2057.000000	28.400177
2056.000000	28.351142
2055.000000	28.292525
2054.000000	28.270544
2053.000000	28.311012
2052.000000	28.369741
2051.000000	28.418212
2050.000000	28.533529
2049.000000	28.675561
2048.000000	28.815113
2047.000000	28.979013
2046.000000	29.176167
2045.000000	29.380986
2044.000000	29.618044
2043.000000	29.859498
2042.000000	30.064993
2041.000000	30.259216
2040.000000	30.479027
2039.000000	30.716874
2038.000000	30.928119
2037.000000	31.113211
2036.000000	31.307885
2035.000000	31.488355
2034.000000	31.679197
2033.000000	31.847268
2032.000000	32.027964
2031.000000	32.160865
2030.000000	32.300643
2029.000000	32.441660
2028.000000	32.566445
2027.000000	32.692921
2026.000000	32.794485
2025.000000	32.913972
2024.000000	33.012380
2023.000000	33.116537
2022.000000	33.210774
2021.000000	33.294866
2020.000000	33.357202
2019.000000	33.423596
2018.000000	33.490103
2017.000000	33.532487
2016.000000	33.584002
2015.000000	33.604743
2014.000000	33.657836
2013.000000	33.663021
2012.000000	33.680944
2011.000000	33.688159
2010.000000	33.688159
2009.000000	33.696500
2008.000000	33.673843
2007.000000	33.634728
2006.000000	33.618383
2005.000000	33.579155
2004.000000	33.537109
2003.000000	33.493147
2002.000000	33.444450
2001.000000	33.364416
2000.000000	33.262063
1999.000000	33.171997
1998.000000	33.105941
1997.000000	33.015875
1996.000000	32.905067
1995.000000	32.826273
1994.000000	32.704983
1993.000000	32.611309
1992.000000	32.482240
1991.000000	32.396345
1990.000000	32.265924
1989.000000	32.149142
1988.000000	32.006321
1987.000000	31.903742
1986.000000	31.779070
1985.000000	31.653158
1984.000000	31.524540
1983.000000	31.403136
1982.000000	31.257159
1981.000000	31.143421
1980.000000	31.004207
1979.000000	30.891709
1978.000000	30.755539
1977.000000	30.632557
1976.000000	30.519270
1975.000000	30.389074
1974.000000	30.272292
1973.000000	30.173321
1972.000000	30.043688
1971.000000	29.913380
1970.000000	29.836277
1969.000000	29.714310
1968.000000	29.593244
1967.000000	29.508476
1966.000000	29.394287
1965.000000	29.268713
1964.000000	29.160611
1963.000000	29.034586
1962.000000	28.919495
1961.000000	28.823116
1960.000000	28.729217
1959.000000	28.606799
1958.000000	28.475476
1957.000000	28.358807
1956.000000	28.229513
1955.000000	28.146774
1954.000000	28.014549
1953.000000	27.917155
1952.000000	27.791694
1951.000000	27.681225
1950.000000	27.583831
1949.000000	27.500641
1948.000000	27.414182
1947.000000	27.322200
1946.000000	27.225483
1945.000000	27.170023
1944.000000	27.110843
1943.000000	27.041179
1942.000000	27.028104
1941.000000	26.973207
1940.000000	26.929696
1939.000000	26.898697
1938.000000	26.912449
1937.000000	26.893060
1936.000000	26.895540
1935.000000	26.920791
1934.000000	26.941644
1933.000000	27.008490
1932.000000	27.083789
1931.000000	27.146689
1930.000000	27.239799
1929.000000	27.353537
1928.000000	27.474940
1927.000000	27.612463
1926.000000	27.758779
1925.000000	27.925835
1924.000000	28.105517
1923.000000	28.298838
1922.000000	28.535220
1921.000000	28.778139
1920.000000	29.051156
1919.000000	29.266571
1918.000000	29.581634
1917.000000	29.895457
1916.000000	30.203869
1915.000000	30.553989
1914.000000	30.960696
1913.000000	31.370108
1912.000000	31.811309
1911.000000	32.218580
1910.000000	32.661584
1909.000000	33.113606
1908.000000	33.618496
1907.000000	34.184594
1906.000000	34.840533
1905.000000	35.483397
1904.000000	36.100897
1903.000000	36.745564
1902.000000	37.439040
1901.000000	38.139844
1900.000000	38.923161
1899.000000	39.721132
1898.000000	40.479763
1897.000000	41.183835
1896.000000	41.865475
1895.000000	42.553766
1894.000000	43.251301
1893.000000	44.024134
1892.000000	44.852992
1891.000000	45.656825
1890.000000	46.361010
1889.000000	47.042199
1888.000000	47.716174
1887.000000	48.349682
1886.000000	48.964026
1885.000000	49.571269
1884.000000	50.179751
1883.000000	50.698055
1882.000000	51.165182
1881.000000	51.629040
1880.000000	52.032816
1879.000000	52.429604
1878.000000	52.827068
1877.000000	53.211005
1876.000000	53.574651
1875.000000	53.910681
1874.000000	54.255953
1873.000000	54.584769
1872.000000	54.863985
1871.000000	55.113894
1870.000000	55.324011
1869.000000	55.528491
1868.000000	55.658913
1867.000000	55.760702
1866.000000	55.840736
1865.000000	55.932493
1864.000000	56.019178
1863.000000	56.134381
1862.000000	56.269875
1861.000000	56.393195
1860.000000	56.522264
1859.000000	56.599029
1858.000000	56.677372
1857.000000	56.751093
1856.000000	56.771834
1855.000000	56.813655
1854.000000	56.874525
1853.000000	56.876103
1852.000000	56.886361
1851.000000	56.924913
1850.000000	56.966170
1849.000000	56.988376
1848.000000	57.015205
1847.000000	56.964028
1846.000000	56.892674
1845.000000	56.863817
1844.000000	56.823574
1843.000000	56.871933
1842.000000	56.891434
1841.000000	56.838116
1840.000000	56.794830
1839.000000	56.735199
1838.000000	56.686051
1837.000000	56.637242
1836.000000	56.568931
1835.000000	56.487883
1834.000000	56.403566
1833.000000	56.342131
1832.000000	56.310230
1831.000000	56.281373
1830.000000	56.242145
1829.000000	56.196492
1828.000000	56.128633
1827.000000	56.090645
1826.000000	56.070016
1825.000000	56.033719
1824.000000	56.016698
1823.000000	56.060435
1822.000000	56.116007
1821.000000	56.137200
1820.000000	56.111273
1819.000000	56.039355
1818.000000	56.019854
1817.000000	56.028647
1816.000000	56.020869
1815.000000	55.990659
1814.000000	55.970594
1813.000000	55.956165
1812.000000	55.930352
1811.000000	55.886389
1810.000000	55.833296
1809.000000	55.797225
1808.000000	55.758110
1807.000000	55.744357
1806.000000	55.714260
1805.000000	55.658575
1804.000000	55.636255
1803.000000	55.636368
1802.000000	55.622616
1801.000000	55.572905
1800.000000	55.524208
1799.000000	55.502678
1798.000000	55.468748
1797.000000	55.436734
1796.000000	55.412386
1795.000000	55.371918
1794.000000	55.349937
1793.000000	55.327392
1792.000000	55.315105
1791.000000	55.311498
1790.000000	55.299211
1789.000000	55.305524
1788.000000	55.304848
1787.000000	55.294590
1786.000000	55.309920
1785.000000	55.326265
1784.000000	55.307328
1783.000000	55.278808
1782.000000	55.257955
1781.000000	55.228534
1780.000000	55.204298
1779.000000	55.170255
1778.000000	55.114119
1777.000000	55.058772
1776.000000	54.998465
1775.000000	54.937481
1774.000000	54.892279
1773.000000	54.824194
1772.000000	54.743033
1771.000000	54.676638
1770.000000	54.614866
1769.000000	54.566169
1768.000000	54.500338
1767.000000	54.425490
1766.000000	54.392011
1765.000000	54.342976
1764.000000	54.334296
1763.000000	54.287291
1762.000000	54.258884
1761.000000	54.266099
1760.000000	54.258433
1759.000000	54.242990
1758.000000	54.229463
1757.000000	54.231718
1756.000000	54.247725
1755.000000	54.238594
1754.000000	54.225969
1753.000000	54.221573
1752.000000	54.173440
1751.000000	54.136466
1750.000000	54.102875
1749.000000	54.055193
1748.000000	53.992631
1747.000000	53.890729
1746.000000	53.795477
1745.000000	53.697520
1744.000000	53.598549
1743.000000	53.458771
1742.000000	53.362167
1741.000000	53.216528
1740.000000	53.082387
1739.000000	52.976765
1738.000000	52.863139
1737.000000	52.759659
1736.000000	52.666211
1735.000000	52.572988
1734.000000	52.482020
1733.000000	52.424306
1732.000000	52.334916
1731.000000	52.262660
1730.000000	52.196942
1729.000000	52.127392
1728.000000	52.062688
1727.000000	51.993025
1726.000000	51.965633
1725.000000	51.944554
1724.000000	51.954699
1723.000000	52.038002
1722.000000	52.181048
1721.000000	52.375496
1720.000000	52.628336
1719.000000	52.920516
1718.000000	53.248767
1717.000000	53.589531
1716.000000	53.894787
1715.000000	54.209962
1714.000000	54.504284
1713.000000	54.760392
1712.000000	55.010639
1711.000000	55.223461
1710.000000	55.411146
1709.000000	55.568396
1708.000000	55.728012
1707.000000	55.865084
1706.000000	55.980852
1705.000000	56.066296
1704.000000	56.114317
1703.000000	56.169664
1702.000000	56.208441
1701.000000	56.262436
1700.000000	56.271115
1699.000000	56.284980
1698.000000	56.273933
1697.000000	56.272355
1696.000000	56.225913
1695.000000	56.173384
1694.000000	56.075765
1693.000000	55.976005
1692.000000	55.860125
1691.000000	55.775356
1690.000000	55.712682
1689.000000	55.687094
1688.000000	55.739285
1687.000000	55.873651
1686.000000	56.070242
1685.000000	56.304143
1684.000000	56.587531
1683.000000	56.883092
1682.000000	57.200973
1681.000000	57.495069
1680.000000	57.811710
1679.000000	58.119446
1678.000000	58.369016
1677.000000	58.644175
1676.000000	58.894985
1675.000000	59.139145
1674.000000	59.358731
1673.000000	59.596127
1672.000000	59.854602
1671.000000	60.086362
1670.000000	60.335820
1669.000000	60.561831
1668.000000	60.791224
1667.000000	61.046205
1666.000000	61.221377
1665.000000	61.426760
1664.000000	61.613994
1663.000000	61.778120
1662.000000	61.938864
1661.000000	62.109415
1660.000000	62.225971
1659.000000	62.356280
1658.000000	62.448826
1657.000000	62.556139
1656.000000	62.635271
1655.000000	62.679797
1654.000000	62.721617
1653.000000	62.755660
1652.000000	62.778994
1651.000000	62.817545
1650.000000	62.821490
1649.000000	62.810444
1648.000000	62.813262
1647.000000	62.804807
1646.000000	62.790041
1645.000000	62.768398
1644.000000	62.754307
1643.000000	62.740668
1642.000000	62.726239
1641.000000	62.718574
1640.000000	62.690956
1639.000000	62.677542
1638.000000	62.645416
1637.000000	62.637187
1636.000000	62.604497
1635.000000	62.598523
1634.000000	62.565269
1633.000000	62.512289
1632.000000	62.456378
1631.000000	62.407794
1630.000000	62.361127
1629.000000	62.304314
1628.000000	62.251447
1627.000000	62.199143
1626.000000	62.135454
1625.000000	62.084616
1624.000000	62.020025
1623.000000	61.986433
1622.000000	61.941682
1621.000000	61.894451
1620.000000	61.843725
1619.000000	61.796606
1618.000000	61.744866
1617.000000	61.698424
1616.000000	61.647360
1615.000000	61.608245
1614.000000	61.574992
1613.000000	61.519982
1612.000000	61.451334
1611.000000	61.391365
1610.000000	61.317982
1609.000000	61.241555
1608.000000	61.161408
1607.000000	61.074836
1606.000000	60.980374
1605.000000	60.883093
1604.000000	60.800805
1603.000000	60.717164
1602.000000	60.602299
1601.000000	60.500058
1600.000000	60.400974
1599.000000	60.308766
1598.000000	60.238314
1597.000000	60.145993
1596.000000	60.052545
1595.000000	59.983784
1594.000000	59.906230
1593.000000	59.838708
1592.000000	59.778739
1591.000000	59.716065
1590.000000	59.659703
1589.000000	59.605145
1588.000000	59.544950
1587.000000	59.493999
1586.000000	59.429747
1585.000000	59.350840
1584.000000	59.284671
1583.000000	59.237440
1582.000000	59.191900
1581.000000	59.150192
1580.000000	59.107244
1579.000000	59.079514
1578.000000	59.054827
1577.000000	59.043330
1576.000000	59.037693
1575.000000	59.032170
1574.000000	59.031606
1573.000000	59.035664
1572.000000	59.044231
1571.000000	59.072863
1570.000000	59.099015
1569.000000	59.125731
1568.000000	59.148275
1567.000000	59.187729
1566.000000	59.234171
1565.000000	59.261788
1564.000000	59.286137
1563.000000	59.297973
1562.000000	59.303158
1561.000000	59.316008
1560.000000	59.313867
1559.000000	59.280275
1558.000000	59.237891
1557.000000	59.193816
1556.000000	59.145683
1555.000000	59.085826
1554.000000	59.014360
1553.000000	58.926773
1552.000000	58.823631
1551.000000	58.725336
1550.000000	58.619488
1549.000000	58.508117
1548.000000	58.406779
1547.000000	58.311527
1546.000000	58.222363
1545.000000	58.135791
1544.000000	58.068946
1543.000000	58.013937
1542.000000	57.955433
1541.000000	57.894562
1540.000000	57.847106
1539.000000	57.816107
1538.000000	57.762563
1537.000000	57.701579
1536.000000	57.662577
1535.000000	57.614782
1534.000000	57.557857
1533.000000	57.477034
1532.000000	57.414585
1531.000000	57.354390
1530.000000	57.277174
1529.000000	57.210104
1528.000000	57.135932
1527.000000	57.067959
1526.000000	57.002016
1525.000000	56.927393
1524.000000	56.834621
1523.000000	56.756842
1522.000000	56.682106
1521.000000	56.600719
1520.000000	56.521249
1519.000000	56.447979
1518.000000	56.368058
1517.000000	56.278330
1516.000000	56.179471
1515.000000	56.105750
1514.000000	56.011963
1513.000000	55.900818
1512.000000	55.827886
1511.000000	55.747175
1510.000000	55.647979
1509.000000	55.548331
1508.000000	55.474046
1507.000000	55.387925
1506.000000	55.312964
1505.000000	55.241835
1504.000000	55.177921
1503.000000	55.107243
1502.000000	55.053699
1501.000000	54.986178
1500.000000	54.942892
1499.000000	54.913922
1498.000000	54.899493
1497.000000	54.876610
1496.000000	54.873679
1495.000000	54.894533
1494.000000	54.911667
1493.000000	54.917078
1492.000000	54.958899
1491.000000	54.981218
1490.000000	55.030929
1489.000000	55.064859
1488.000000	55.102621
1487.000000	55.156841
1486.000000	55.191673
1485.000000	55.224250
1484.000000	55.261562
1483.000000	55.316684
1482.000000	55.358166
1481.000000	55.435156
1480.000000	55.473708
1479.000000	55.530859
1478.000000	55.586995
1477.000000	55.656997
1476.000000	55.739059
1475.000000	55.848176
1474.000000	55.935762
1473.000000	56.049951
1472.000000	56.162224
1471.000000	56.285882
1470.000000	56.367832
1469.000000	56.470636
1468.000000	56.603312
1467.000000	56.722010
1466.000000	56.849839
1465.000000	56.957152
1464.000000	57.102115
1463.000000	57.208751
1462.000000	57.344921
1461.000000	57.474441
1460.000000	57.601030
1459.000000	57.722433
1458.000000	57.861760
1457.000000	58.005708
1456.000000	58.142104
1455.000000	58.263958
1454.000000	58.396183
1453.000000	58.555011
1452.000000	58.702340
1451.000000	58.823406
1450.000000	58.915501
1449.000000	59.008273
1448.000000	59.143654
1447.000000	59.320179
1446.000000	59.459731
1445.000000	59.553968
1444.000000	59.649220
1443.000000	59.776936
1442.000000	59.913669
1441.000000	60.035298
1440.000000	60.206638
1439.000000	60.341569
1438.000000	60.518996
1437.000000	60.639497
1436.000000	60.785700
1435.000000	60.984657
1434.000000	61.182713
1433.000000	61.381670
1432.000000	61.568792
1431.000000	61.743401
1430.000000	61.959041
1429.000000	62.208724
1428.000000	62.432255
1427.000000	62.652067
1426.000000	62.954504
1425.000000	63.215122
1424.000000	63.539766
1423.000000	63.824506
1422.000000	64.080389
1421.000000	64.435469
1420.000000	64.825267
1419.000000	65.164115
1418.000000	65.485490
1417.000000	65.786800
1416.000000	66.217631
1415.000000	66.669089
1414.000000	67.109275
1413.000000	67.481376
1412.000000	67.848405
1411.000000	68.355774
1410.000000	68.880390
1409.000000	69.353717
1408.000000	69.815659
1407.000000	70.262947
1406.000000	70.730863
1405.000000	71.189085
1404.000000	71.658579
1403.000000	72.049279
1402.000000	72.527341
1401.000000	73.080138
1400.000000	73.505895
1399.000000	73.741262
1398.000000	74.042798
1397.000000	74.466752
1396.000000	74.992383
1395.000000	75.296737
1394.000000	75.545293
1393.000000	75.827102
1392.000000	76.183422
1391.000000	76.473685
1390.000000	76.766203
1389.000000	77.169867
1388.000000	77.521790
1387.000000	77.782407
1386.000000	78.102205
1385.000000	78.433387
1384.000000	78.662441
1383.000000	78.959807
1382.000000	79.197090
1381.000000	79.327399
1380.000000	79.406305
1379.000000	79.521283
1378.000000	79.593878
1377.000000	79.727004
1376.000000	79.835670
1375.000000	79.953353
1374.000000	80.081182
1373.000000	80.243955
1372.000000	80.412703
1371.000000	80.579308
1370.000000	80.681211
1369.000000	80.837446
1368.000000	80.972714
1367.000000	81.072249
1366.000000	81.173024
1365.000000	81.300402
1364.000000	81.394526
1363.000000	81.504432
1362.000000	81.642631
1361.000000	81.700684
1360.000000	81.647929
1359.000000	81.732923
1358.000000	81.807884
1357.000000	81.897049
1356.000000	82.044153
1355.000000	82.172771
1354.000000	82.268811
1353.000000	82.371954
1352.000000	82.581845
1351.000000	82.761752
1350.000000	82.966346
1349.000000	83.168797
1348.000000	83.380042
1347.000000	83.559385
1346.000000	83.698035
1345.000000	83.885044
1344.000000	84.064387
1343.000000	84.223441
1342.000000	84.384072
1341.000000	84.537714
1340.000000	84.676252
1339.000000	84.783677
1338.000000	84.904517
1337.000000	85.035953
1336.000000	85.133910
1335.000000	85.226456
1334.000000	85.341096
1333.000000	85.427781
1332.000000	85.500713
1331.000000	85.571954
1330.000000	85.647705
1329.000000	85.703503
1328.000000	85.764148
1327.000000	85.824794
1326.000000	85.875970
1325.000000	85.930754
1324.000000	85.975956
1323.000000	86.022511
1322.000000	86.056328
1321.000000	86.090822
1320.000000	86.124526
1319.000000	86.145042
1318.000000	86.170517
1317.000000	86.208392
1316.000000	86.253933
1315.000000	86.278845
1314.000000	86.302404
1313.000000	86.321229
1312.000000	86.340166
1311.000000	86.360682
1310.000000	86.385707
1309.000000	86.401037
1308.000000	86.402052
1307.000000	86.407688
1306.000000	86.414790
1305.000000	86.414226
1304.000000	86.421891
1303.000000	86.416931
1302.000000	86.394499
1301.000000	86.384241
1300.000000	86.383565
1299.000000	86.368122
1298.000000	86.351777
1297.000000	86.335883
1296.000000	86.325963
1295.000000	86.317396
1294.000000	86.283692
1293.000000	86.246831
1292.000000	86.225639
1291.000000	86.188553
1290.000000	86.166910
1289.000000	86.146282
1288.000000	86.096909
1287.000000	86.040885
1286.000000	86.009210
1285.000000	85.987003
1284.000000	85.942252
1283.000000	85.910464
1282.000000	85.877661
1281.000000	85.832797
1280.000000	85.799882
1279.000000	85.767755
1278.000000	85.737996
1277.000000	85.712408
1276.000000	85.695500
1275.000000	85.679606
1274.000000	85.661119
1273.000000	85.647479
1272.000000	85.639589
1271.000000	85.648945
1270.000000	85.647930
1269.000000	85.641505
1268.000000	85.643985
1267.000000	85.631585
1266.000000	85.625273
1265.000000	85.623920
1264.000000	85.626513
1263.000000	85.609717
1262.000000	85.590554
1261.000000	85.575900
1260.000000	85.575674
1259.000000	85.572969
1258.000000	85.561133
1257.000000	85.554482
1256.000000	85.535545
1255.000000	85.524385
1254.000000	85.510182
1253.000000	85.484819
1252.000000	85.443675
1251.000000	85.377281
1250.000000	85.336024
1249.000000	85.303785
1248.000000	85.256892
1247.000000	85.217776
1246.000000	85.151946
1245.000000	85.088595
1244.000000	85.030430
1243.000000	84.967417
1242.000000	84.897528
1241.000000	84.834967
1240.000000	84.764965
1239.000000	84.717734
1238.000000	84.672645
1237.000000	84.624962
1236.000000	84.591483
1235.000000	84.527569
1234.000000	84.478534
1233.000000	84.435925
1232.000000	84.390384
1231.000000	84.335826
1230.000000	84.279464
1229.000000	84.234037
1228.000000	84.203263
1227.000000	84.152425
1226.000000	84.100797
1225.000000	84.054242
1224.000000	84.012534
1223.000000	83.953693
1222.000000	83.914465
1221.000000	83.869488
1220.000000	83.819551
1219.000000	83.783254
1218.000000	83.727907
1217.000000	83.693526
1216.000000	83.643139
1215.000000	83.591173
1214.000000	83.529739
1213.000000	83.467741
1212.000000	83.402248
1211.000000	83.357610
1210.000000	83.289863
1209.000000	83.210956
1208.000000	83.152565
1207.000000	83.083353
1206.000000	83.014930
1205.000000	82.937263
1204.000000	82.876392
1203.000000	82.812816
1202.000000	82.748789
1201.000000	82.667515
1200.000000	82.589848
1199.000000	82.518156
1198.000000	82.436882
1197.000000	82.349634
1196.000000	82.264641
1195.000000	82.166120
1194.000000	82.080450
1193.000000	81.993991
1192.000000	81.912153
1191.000000	81.835614
1190.000000	81.756595
1189.000000	81.688961
1188.000000	81.655256
1187.000000	81.630119
1186.000000	81.618283
1185.000000	81.615352
1184.000000	81.606898
1183.000000	81.619297
1182.000000	81.668670
1181.000000	81.692793
1180.000000	81.735403
1179.000000	81.783648
1178.000000	81.817466
1177.000000	81.855904
1176.000000	81.912266
1175.000000	81.978886
1174.000000	82.010674
1173.000000	82.066360
1172.000000	82.136023
1171.000000	82.213915
1170.000000	82.282902
1169.000000	82.380521
1168.000000	82.481183
1167.000000	82.601459
1166.000000	82.697387
1165.000000	82.832543
1164.000000	82.949663
1163.000000	83.071855
1162.000000	83.191342
1161.000000	83.309139
1160.000000	83.429640
1159.000000	83.503136
1158.000000	83.640434
1157.000000	83.714831
1156.000000	83.782127
1155.000000	83.890793
1154.000000	83.970376
1153.000000	84.013662
1152.000000	84.072053
1151.000000	84.125709
1150.000000	84.162344
1149.000000	84.218255
1148.000000	84.260076
1147.000000	84.313394
1146.000000	84.313620
1145.000000	84.348677
1144.000000	84.378774
1143.000000	84.412704
1142.000000	84.462978
1141.000000	84.530613
1140.000000	84.575589
1139.000000	84.638377
1138.000000	84.730810
1137.000000	84.812647
1136.000000	84.898994
1135.000000	84.979028
1134.000000	85.036291
1133.000000	85.042153
1132.000000	85.080479
1131.000000	85.125681
1130.000000	85.195119
1129.000000	85.214507
1128.000000	85.247197
1127.000000	85.265797
1126.000000	85.279662
1125.000000	85.292512
1124.000000	85.327682
1123.000000	85.310435
1122.000000	85.267600
1121.000000	85.255426
1120.000000	85.224089
1119.000000	85.207293
1118.000000	85.185087
1117.000000	85.172462
1116.000000	85.127372
1115.000000	85.101220
1114.000000	85.076759
1113.000000	85.054440
1112.000000	85.034939
1111.000000	84.994696
1110.000000	84.964486
1109.000000	84.950396
1108.000000	84.938785
1107.000000	84.895838
1106.000000	84.864275
1105.000000	84.847141
1104.000000	84.811746
1103.000000	84.777478
1102.000000	84.755835
1101.000000	84.723370
1100.000000	84.705109
1099.000000	84.688313
1098.000000	84.660470
1097.000000	84.619101
1096.000000	84.587200
1095.000000	84.565106
1094.000000	84.546619
1093.000000	84.528020
1092.000000	84.498599
1091.000000	84.463655
1090.000000	84.434121
1089.000000	84.407857
1088.000000	84.385086
1087.000000	84.351607
1086.000000	84.324779
1085.000000	84.302685
1084.000000	84.277773
1083.000000	84.248014
1082.000000	84.212506
1081.000000	84.180606
1080.000000	84.160541
1079.000000	84.124018
1078.000000	84.089863
1077.000000	84.072278
1076.000000	84.047141
1075.000000	84.027639
1074.000000	83.990441
1073.000000	83.964401
1072.000000	83.943097
1071.000000	83.912774
1070.000000	83.882113
1069.000000	83.840744
1068.000000	83.813803
1067.000000	83.790469
1066.000000	83.752143
1065.000000	83.733769
1064.000000	83.703784
1063.000000	83.675716
1062.000000	83.653509
1061.000000	83.625667
1060.000000	83.588130
1059.000000	83.561076
1058.000000	83.521961
1057.000000	83.489609
1056.000000	83.443054
1055.000000	83.415888
1054.000000	83.399656
1053.000000	83.359301
1052.000000	83.314549
1051.000000	83.289525
1050.000000	83.275547
1049.000000	83.238123
1048.000000	83.203629
1047.000000	83.180633
1046.000000	83.145689
1045.000000	83.112210
1044.000000	83.088989
1043.000000	83.059455
1042.000000	83.018875
1041.000000	82.968826
1040.000000	82.941321
1039.000000	82.900177
1038.000000	82.853847
1037.000000	82.836713
1036.000000	82.812703
1035.000000	82.785988
1034.000000	82.745182
1033.000000	82.703249
1032.000000	82.684649
1031.000000	82.658948
1030.000000	82.630091
1029.000000	82.604615
1028.000000	82.578576
1027.000000	82.547352
1026.000000	82.520974
1025.000000	82.496288
1024.000000	82.472954
1023.000000	82.461118
1022.000000	82.463598
1021.000000	82.439137
1020.000000	82.408251
1019.000000	82.408814
1018.000000	82.393484
1017.000000	82.379844
1016.000000	82.370150
1015.000000	82.383677
1014.000000	82.404756
1013.000000	82.407687
1012.000000	82.398218
1011.000000	82.394498
1010.000000	82.412534
1009.000000	82.436206
1008.000000	82.461343
1007.000000	82.455933
1006.000000	82.463823
1005.000000	82.497528
1004.000000	82.519396
1003.000000	82.531683
1002.000000	82.558060
1001.000000	82.576998
1000.000000	82.594808
999.000000	82.616902
998.000000	82.630204
997.000000	82.653199
996.000000	82.675857
995.000000	82.684311
994.000000	82.686904
993.000000	82.718917
992.000000	82.739095
991.000000	82.727033
990.000000	82.735149
989.000000	82.731655
988.000000	82.754200
987.000000	82.764570
986.000000	82.786439
985.000000	82.793540
984.000000	82.793540
983.000000	82.794442
982.000000	82.817889
981.000000	82.800529
980.000000	82.817889
979.000000	82.836263
978.000000	82.842124
977.000000	82.831866
976.000000	82.810449
975.000000	82.830288
974.000000	82.829161
973.000000	82.800078
972.000000	82.784297
971.000000	82.791737
970.000000	82.802333
969.000000	82.768966
968.000000	82.752171
967.000000	82.744618
966.000000	82.730753
965.000000	82.762316
964.000000	82.744731
963.000000	82.738080
962.000000	82.731317
961.000000	82.772010
960.000000	82.784860
959.000000	82.808532
958.000000	82.790271
957.000000	82.808532
956.000000	82.845844
955.000000	82.860836
954.000000	82.881690
953.000000	82.937714
952.000000	82.939517
951.000000	82.954622
950.000000	83.006250
949.000000	83.009857
948.000000	83.044576
947.000000	83.109618
946.000000	83.125286
945.000000	83.170263
944.000000	83.197429
943.000000	83.242406
942.000000	83.293921
941.000000	83.325596
940.000000	83.374180
939.000000	83.467403
938.000000	83.489158
937.000000	83.541011
936.000000	83.603122
935.000000	83.660498
934.000000	83.768149
933.000000	83.815381
932.000000	83.848860
931.000000	83.887524
930.000000	83.984917
929.000000	83.998331
928.000000	84.039363
927.000000	84.049621
926.000000	84.123680
925.000000	84.142392
924.000000	84.157046
923.000000	84.164261
922.000000	84.164373
921.000000	84.201910
920.000000	84.233924
919.000000	84.248465
918.000000	84.350706
917.000000	84.346873
916.000000	84.306518
915.000000	84.303136
914.000000	84.300882
913.000000	84.320158
912.000000	84.309561
911.000000	84.302347
910.000000	84.302911
909.000000	84.307758
908.000000	84.277548
907.000000	84.243505
906.000000	84.211717
905.000000	84.177562
904.000000	84.169220
903.000000	84.151523
902.000000	84.141941
901.000000	84.057511
900.000000	84.017945
899.000000	83.903418
898.000000	83.866557
897.000000	83.850438
896.000000	83.781113
895.000000	83.692399
894.000000	83.544393
893.000000	83.476871
892.000000	83.396950
891.000000	83.265627
890.000000	83.075350
889.000000	82.951579
888.000000	82.770770
887.000000	82.630542
886.000000	82.514098
885.000000	82.357638
884.000000	82.114042
883.000000	81.947436
882.000000	81.654580
881.000000	81.433754
880.000000	81.075631
879.000000	80.752677
878.000000	80.527455
877.000000	80.051536
876.000000	79.598725
875.000000	79.143208
874.000000	78.775954
873.000000	78.185395
872.000000	77.653902
871.000000	77.400725
870.000000	77.338727
869.000000	77.373446
868.000000	77.419437
867.000000	77.424171
866.000000	77.437473
865.000000	77.462610
864.000000	77.479068
863.000000	77.485268
862.000000	77.512096
861.000000	77.476475
860.000000	77.476926
859.000000	77.463287
858.000000	79.170600
857.000000	79.032300
856.000000	79.302300
855.000000	79.177200
854.000000	79.714300
853.000000	79.210600
852.000000	79.805300
851.000000	79.225600
850.000000	78.819800
849.000000	78.965800
848.000000	79.290100
847.000000	79.491000
846.000000	79.303700
845.000000	79.198400
844.000000	78.976700
843.000000	79.087500
842.000000	79.071300
841.000000	78.876700
840.000000	78.854900
839.000000	78.718400
838.000000	78.787400
837.000000	78.618000
836.000000	78.502200
835.000000	78.592500
834.000000	78.392300
833.000000	78.491500
832.000000	78.457900
831.000000	78.118700
830.000000	78.075300
829.000000	78.186200
828.000000	78.015900
827.000000	78.028000
826.000000	77.875100
825.000000	77.955700
824.000000	77.894400
823.000000	77.793100
822.000000	77.568500
821.000000	77.412000
820.000000	77.288400
819.000000	77.221800
818.000000	77.152900
817.000000	77.014100
816.000000	76.944500
815.000000	76.735200
814.000000	76.408100
813.000000	76.430000
812.000000	76.478500
811.000000	76.264000
810.000000	76.050600
809.000000	76.152700
808.000000	76.061600
807.000000	75.920800
806.000000	75.801200
805.000000	75.588300
804.000000	75.371500
803.000000	75.261600
802.000000	75.080500
801.000000	74.906300
800.000000	74.771900
799.000000	74.658000
798.000000	74.542100
797.000000	74.345200
796.000000	74.132200
795.000000	73.922900
794.000000	73.850400
793.000000	73.742000
792.000000	73.519100
791.000000	73.397400
790.000000	73.287000
789.000000	73.265700
788.000000	73.060200
787.000000	72.833300
786.000000	72.669600
785.000000	72.470800
784.000000	72.304500
783.000000	72.181900
782.000000	72.012100
781.000000	71.939100
780.000000	71.734800
779.000000	71.505700
778.000000	71.290600
777.000000	71.153500
776.000000	71.082700
775.000000	70.892600
774.000000	70.757000
773.000000	70.549800
772.000000	70.317500
771.000000	70.127700
770.000000	70.055700
769.000000	69.869100
768.000000	69.657000
767.000000	69.448300
766.000000	69.268800
765.000000	69.123500
764.000000	68.847900
763.000000	68.643300
762.000000	68.533300
761.000000	68.337300
760.000000	68.118100
759.000000	67.987100
758.000000	67.847400
757.000000	67.634400
756.000000	67.466000
755.000000	67.292000
754.000000	67.125700
753.000000	67.002300
752.000000	66.854300
751.000000	66.679500
750.000000	66.520400
749.000000	66.311700
748.000000	66.129000
747.000000	65.973400
746.000000	65.784200
745.000000	65.603800
744.000000	65.406800
743.000000	65.158900
742.000000	64.997100
741.000000	64.785600
740.000000	64.554700
739.000000	64.436100
738.000000	64.249200
737.000000	64.073100
736.000000	63.859400
735.000000	63.643600
734.000000	63.497600
733.000000	63.322900
732.000000	63.124700
731.000000	62.977000
730.000000	62.836200
729.000000	62.624100
728.000000	62.454100
727.000000	62.287500
726.000000	62.136400
725.000000	62.009400
724.000000	61.816600
723.000000	61.647400
722.000000	61.471300
721.000000	61.163600
720.000000	60.959000
719.000000	60.730800
718.000000	60.438000
717.000000	60.137200
716.000000	59.824500
715.000000	59.557100
714.000000	59.259100
713.000000	58.911500
712.000000	58.583200
711.000000	58.264200
710.000000	57.934400
709.000000	57.541800
708.000000	57.234600
707.000000	56.893600
706.000000	56.554600
705.000000	56.291900
704.000000	56.014300
703.000000	55.662400
702.000000	55.367800
701.000000	55.211000
700.000000	54.947300
699.000000	54.679700
698.000000	54.461000
697.000000	54.255700
696.000000	53.982500
695.000000	53.736400
694.000000	53.532800
693.000000	53.288800
692.000000	53.018500
691.000000	52.723900
690.000000	52.444500
689.000000	52.087600
688.000000	51.790900
687.000000	51.421500
686.000000	51.031100
685.000000	50.632900
684.000000	50.232200
683.000000	49.856300
682.000000	49.447000
681.000000	49.033900
680.000000	48.714600
679.000000	48.403400
678.000000	48.097900
677.000000	47.818900
676.000000	47.557900
675.000000	47.377300
674.000000	47.222800
673.000000	47.112600
672.000000	47.033800
671.000000	46.966900
670.000000	46.866300
669.000000	46.842200
668.000000	46.807200
667.000000	46.743200
666.000000	46.711000
665.000000	46.683800
664.000000	46.673300
663.000000	46.627100
662.000000	46.520000
661.000000	46.409700
660.000000	46.258300
659.000000	46.052900
658.000000	45.819500
657.000000	45.627700
656.000000	45.390900
655.000000	45.111700
654.000000	44.782300
653.000000	44.561700
652.000000	44.291100
651.000000	44.037100
650.000000	43.825400
649.000000	43.610800
648.000000	43.463700
647.000000	43.314200
646.000000	43.211600
645.000000	43.185900
644.000000	43.108200
643.000000	43.083200
642.000000	43.098000
641.000000	43.126200
640.000000	43.104100
639.000000	43.170500
638.000000	43.207500
637.000000	43.172200
636.000000	43.202600
635.000000	43.183200
634.000000	43.083100
633.000000	42.982900
632.000000	42.841900
631.000000	42.643100
630.000000	42.424800
629.000000	42.131600
628.000000	41.846200
627.000000	41.560600
626.000000	41.238700
625.000000	40.943900
624.000000	40.704600
623.000000	40.425300
622.000000	40.294800
621.000000	40.145900
620.000000	40.115300
619.000000	40.158400
618.000000	40.293000
617.000000	40.419600
616.000000	40.654500
615.000000	40.974700
614.000000	41.353700
613.000000	41.738400
612.000000	42.190600
611.000000	42.656400
610.000000	43.158600
609.000000	43.623300
608.000000	44.112900
607.000000	44.622700
606.000000	45.093900
605.000000	45.451100
604.000000	45.987000
603.000000	46.407900
602.000000	46.798900
601.000000	47.197100
600.000000	47.570600
599.000000	47.910200
598.000000	48.275400
597.000000	48.594300
596.000000	48.947600
595.000000	49.297100
594.000000	49.662300
593.000000	50.013700
592.000000	50.406800
591.000000	50.815900
590.000000	51.254100
589.000000	51.654800
588.000000	52.064200
587.000000	52.508000
586.000000	52.939200
585.000000	53.410100
584.000000	53.855800
583.000000	54.319000
582.000000	54.740200
581.000000	55.180800
580.000000	55.571700
579.000000	55.942100
578.000000	56.272700
577.000000	56.609900
576.000000	56.835900
575.000000	57.093300
574.000000	57.227300
573.000000	57.396400
572.000000	57.518500
571.000000	57.572900
570.000000	57.661300
569.000000	57.674800
568.000000	57.672400
567.000000	57.722700
566.000000	57.684300
565.000000	57.700900
564.000000	57.731700
563.000000	57.710800
562.000000	57.778700
561.000000	57.835000
560.000000	57.865900
559.000000	57.814500
558.000000	57.881800
557.000000	57.899800
556.000000	57.949900
555.000000	57.939500
554.000000	57.899700
553.000000	57.895900
552.000000	57.814700
551.000000	57.657900
550.000000	57.519800
549.000000	57.369700
548.000000	57.134000
547.000000	56.942400
546.000000	56.658500
545.000000	56.367400
544.000000	56.030900
543.000000	55.655100
542.000000	55.263500
541.000000	54.830000
540.000000	54.357000
539.000000	53.908900
538.000000	53.423800
537.000000	52.887800
536.000000	52.356400
535.000000	51.798600
534.000000	51.260200
533.000000	50.678500
532.000000	50.080600
531.000000	49.477500
530.000000	48.885100
529.000000	48.269100
528.000000	47.652400
527.000000	47.023200
526.000000	46.396500
525.000000	45.746900
524.000000	45.075800
523.000000	44.422100
522.000000	43.745400
521.000000	43.048400
520.000000	42.346400
519.000000	41.639300
518.000000	40.913000
517.000000	40.211800
516.000000	39.481700
515.000000	38.729600
514.000000	37.967700
513.000000	37.232700
512.000000	36.515600
511.000000	35.776200
510.000000	35.047000
509.000000	34.294800
508.000000	33.550500
507.000000	32.829500
506.000000	32.139500
505.000000	31.441300
504.000000	30.721800
503.000000	30.031700
502.000000	29.368100
501.000000	28.726600
500.000000	28.083700
499.000000	27.465600
498.000000	26.831600
497.000000	26.242300
496.000000	25.645600
495.000000	25.079100
494.000000	24.525500
493.000000	23.989100
492.000000	23.495000
491.000000	23.008000
490.000000	22.524900
489.000000	22.109100
488.000000	21.703300
487.000000	21.313600
486.000000	20.951500
485.000000	20.619600
484.000000	20.308900
483.000000	20.025300
482.000000	19.783800
481.000000	19.555400
480.000000	19.336100
479.000000	19.140800
478.000000	18.950100
477.000000	18.753000
476.000000	18.582300
475.000000	18.407400
474.000000	18.243400
473.000000	18.075400
472.000000	17.928400
471.000000	17.760500
470.000000	17.595500
469.000000	17.433000
468.000000	17.270200
467.000000	17.112900
466.000000	16.947800
465.000000	16.775300
464.000000	16.596500
463.000000	16.431700
462.000000	16.270000
461.000000	16.079900
460.000000	15.893200
459.000000	15.721100
458.000000	15.547700
457.000000	15.356600
456.000000	15.164600
455.000000	14.975500
454.000000	14.782400
453.000000	14.575700
452.000000	14.358900
451.000000	14.140000
450.000000	13.932400
449.000000	13.728300
448.000000	13.515400
447.000000	13.295100
446.000000	13.071500
445.000000	12.861600
444.000000	12.631000
443.000000	12.389800
442.000000	12.174900
441.000000	11.960000
440.000000	11.732400
439.000000	11.529300
438.000000	11.327200
437.000000	11.098100
436.000000	10.896200
435.000000	10.700400
434.000000	10.503700
433.000000	10.302600
432.000000	10.100300
431.000000	9.926100
430.000000	9.755400
429.000000	9.601100
428.000000	9.458000
427.000000	9.294900
426.000000	9.131200
425.000000	8.973200
424.000000	8.815100
423.000000	8.660900
422.000000	8.520900
421.000000	8.397700
420.000000	8.262800
419.000000	8.120300
418.000000	8.002900
417.000000	7.876900
416.000000	7.764500
415.000000	7.658300
414.000000	7.543900
413.000000	7.431700
412.000000	7.330500
411.000000	7.239800
410.000000	7.143700
409.000000	7.042800
408.000000	6.978800
407.000000	6.886200
406.000000	6.811800
405.000000	6.737700
404.000000	6.671200
403.000000	6.605900
402.000000	6.555900
401.000000	6.517500
400.000000	6.466400
399.000000	6.436800
398.000000	6.381700
397.000000	6.345400
396.000000	6.307500
395.000000	6.272100
394.000000	6.260200
393.000000	6.244600
392.000000	6.219800
391.000000	6.203300
390.000000	6.166300
389.000000	6.135800
388.000000	6.130700
387.000000	6.137000
386.000000	6.131600
385.000000	6.121700
384.000000	6.103500
383.000000	6.107300
382.000000	6.116000
381.000000	6.103300
380.000000	6.078900
379.000000	6.068800
378.000000	6.068900
377.000000	6.071100
376.000000	5.895000
375.000000	5.674900
374.000000	5.758000
373.000000	5.676700
372.000000	5.995100
371.000000	5.964600
370.000000	5.866900
369.000000	6.021100
368.000000	6.199500
367.000000	6.043600
366.000000	6.064700
365.000000	6.138600
364.000000	6.042000
363.000000	6.032400
362.000000	6.222300
361.000000	6.016300
360.000000	6.020700
359.000000	6.139800
358.000000	6.045900
357.000000	6.215700
356.000000	6.089700
355.000000	6.075800
354.000000	6.196000
353.000000	6.127700
352.000000	6.332700
351.000000	6.141200
350.000000	6.084300
349.000000	6.160700
348.000000	6.171300
347.000000	6.167700
346.000000	6.173300
345.000000	6.337100
344.000000	6.161700
343.000000	6.297100
342.000000	6.195400
341.000000	6.148000
340.000000	6.472800
339.000000	6.271700
338.000000	6.390300
337.000000	6.506600
336.000000	6.487500
335.000000	6.392900
334.000000	5.865800
333.000000	6.070100
332.000000	6.450200
331.000000	6.577700
330.000000	6.434000
329.000000	6.339100
328.000000	6.657700
327.000000	6.824300
326.000000	6.771900
325.000000	6.795300
324.000000	6.593600
323.000000	7.462800
322.000000	7.095800
321.000000	7.487400
320.000000	6.741200
319.000000	7.742700
318.000000	8.261200
317.000000	7.219200
316.000000	6.302900
315.000000	6.270100
314.000000	6.221800
313.000000	6.180300
312.000000	6.211700
311.000000	6.228000
310.000000	6.206600
309.000000	6.172800
308.000000	6.287700
307.000000	6.255200
306.000000	6.322500
305.000000	6.342300
304.000000	6.304400
303.000000	6.251600
302.000000	6.254400
301.000000	6.238700
300.000000	6.252500
299.000000	6.300200
298.000000	6.255700
297.000000	6.269800
296.000000	6.278400
295.000000	6.268300
294.000000	6.339200
293.000000	6.342700
292.000000	6.229900
291.000000	6.265300
290.000000	6.308800
289.000000	6.367400
288.000000	6.273000
287.000000	6.342700
286.000000	6.350800
285.000000	6.356700
284.000000	6.360500
283.000000	6.358100
282.000000	6.338200
281.000000	6.397700
280.000000	6.367500
279.000000	6.395200
278.000000	6.392300
277.000000	6.404600
276.000000	6.406000
275.000000	6.416600
274.000000	6.495700
273.000000	6.457100
272.000000	6.508000
271.000000	6.470300
270.000000	6.541100
269.000000	6.521000
268.000000	6.637600
267.000000	6.591200
266.000000	6.615200
265.000000	6.614000
264.000000	6.671700
263.000000	6.741200
262.000000	6.741000
261.000000	6.757100
260.000000	6.820200
259.000000	6.864000
258.000000	6.910900
257.000000	6.932600
256.000000	6.958000
255.000000	6.967100
254.000000	7.017600
253.000000	7.007100
252.000000	6.997000
251.000000	7.060700
250.000000	7.070300
