PE UV       SUBTECH     SPECTRUM    ASCII       PEDS        4.00        
   -1
CICIMAUCR0215-1.Sample.ASC
24/06/13
12:50:09.00
24/06/13
12:50:09.00
Vinicio Soto Monge
C. cupreomarginata. Sex M. Ventral 
250,000000
1
Lambda 1050
1050L1511233
PerkinElmer UV WinLab 6.3.2.0749 / 2.02.05 Lambda 900 UV/VIS/NIR, Aug  7 2015 09:38:08

0
0
3350/servo 860,8/2
0
0
UV/VIS
1
1
1
DoubleDePol,CommonBeamDepol,RBeamAtt,SBeamAtt,60mm sphere, WB InGaAs Detector
0
0
0
0
Program
Program
3350/servo 860,8/2
3350/0,2 860,8/0,2
3350/0,2 860,8/0,2
0
15.00
 
 
 
0
 
860,8
319,2
860,8
Front
100
on
S:100 R:100
0
0
0
0
 
0
 
 
 
0
 
 
0
0
0
0
0
 
 
 
 
0
0


0
0
#HDR
-1
-1
#GR
nm
%R
1.0
0.0
2500,000000
-1,000000
2251
8
60,327600
4,064900
#DATA
2482.000000	7.937556
2481.000000	7.845951
2480.000000	7.878093
2479.000000	7.946280
2478.000000	7.874649
2477.000000	7.827699
2476.000000	7.876027
2475.000000	7.815531
2474.000000	7.919533
2473.000000	7.909317
2472.000000	7.867073
2471.000000	7.914827
2470.000000	7.859152
2469.000000	7.876256
2468.000000	7.842278
2467.000000	7.857545
2466.000000	7.880848
2465.000000	7.901166
2464.000000	7.936982
2463.000000	7.902888
2462.000000	7.931701
2461.000000	7.971993
2460.000000	7.990016
2459.000000	7.987031
2458.000000	8.012974
2457.000000	8.028930
2456.000000	8.049364
2455.000000	8.071174
2454.000000	8.117780
2453.000000	8.132703
2452.000000	8.195265
2451.000000	8.259663
2450.000000	8.240952
2449.000000	8.285033
2448.000000	8.325899
2447.000000	8.360451
2446.000000	8.396726
2445.000000	8.421750
2444.000000	8.454007
2443.000000	8.489248
2442.000000	8.548022
2441.000000	8.575113
2440.000000	8.602089
2439.000000	8.643874
2438.000000	8.674064
2437.000000	8.727328
2436.000000	8.745810
2435.000000	8.793334
2434.000000	8.821917
2433.000000	8.832822
2432.000000	8.895269
2431.000000	8.918113
2430.000000	8.966211
2429.000000	8.971606
2428.000000	8.984578
2427.000000	9.028543
2426.000000	9.060456
2425.000000	9.075264
2424.000000	9.102011
2423.000000	9.132545
2422.000000	9.160096
2421.000000	9.170083
2420.000000	9.189827
2419.000000	9.237007
2418.000000	9.257669
2417.000000	9.269837
2416.000000	9.300257
2415.000000	9.319198
2414.000000	9.331136
2413.000000	9.367870
2412.000000	9.385318
2411.000000	9.395305
2410.000000	9.429858
2409.000000	9.449832
2408.000000	9.450176
2407.000000	9.460852
2406.000000	9.490009
2405.000000	9.520314
2404.000000	9.532253
2403.000000	9.540403
2402.000000	9.553834
2401.000000	9.576104
2400.000000	9.616511
2399.000000	9.656803
2398.000000	9.660820
2397.000000	9.661050
2396.000000	9.692044
2395.000000	9.720857
2394.000000	9.741979
2393.000000	9.755639
2392.000000	9.770906
2391.000000	9.787322
2390.000000	9.799490
2389.000000	9.817742
2388.000000	9.840126
2387.000000	9.839323
2386.000000	9.853327
2385.000000	9.874334
2384.000000	9.874449
2383.000000	9.869169
2382.000000	9.885814
2381.000000	9.886847
2380.000000	9.876630
2379.000000	9.890635
2378.000000	9.890061
2377.000000	9.876745
2376.000000	9.872957
2375.000000	9.875138
2374.000000	9.867102
2373.000000	9.860330
2372.000000	9.845981
2371.000000	9.845522
2370.000000	9.845292
2369.000000	9.831861
2368.000000	9.822678
2367.000000	9.806951
2366.000000	9.781123
2365.000000	9.761149
2364.000000	9.758624
2363.000000	9.744963
2362.000000	9.711214
2361.000000	9.686419
2360.000000	9.674710
2359.000000	9.656343
2358.000000	9.625350
2357.000000	9.606753
2356.000000	9.588731
2355.000000	9.583106
2354.000000	9.572430
2353.000000	9.556015
2352.000000	9.546028
2351.000000	9.558540
2350.000000	9.567379
2349.000000	9.563247
2348.000000	9.572660
2347.000000	9.586320
2346.000000	9.599636
2345.000000	9.626497
2344.000000	9.632926
2343.000000	9.647734
2342.000000	9.673448
2341.000000	9.695373
2340.000000	9.710526
2339.000000	9.730844
2338.000000	9.733140
2337.000000	9.720283
2336.000000	9.723038
2335.000000	9.740716
2334.000000	9.734517
2333.000000	9.720972
2332.000000	9.729696
2331.000000	9.717872
2330.000000	9.694684
2329.000000	9.685156
2328.000000	9.654736
2327.000000	9.627416
2326.000000	9.599177
2325.000000	9.585631
2324.000000	9.543273
2323.000000	9.505736
2322.000000	9.485532
2321.000000	9.447077
2320.000000	9.401619
2319.000000	9.335843
2318.000000	9.300716
2317.000000	9.256751
2316.000000	9.202684
2315.000000	9.166524
2314.000000	9.109587
2313.000000	9.045074
2312.000000	8.985381
2311.000000	8.944056
2310.000000	8.914440
2309.000000	8.870015
2308.000000	8.834315
2307.000000	8.814226
2306.000000	8.808027
2305.000000	8.798958
2304.000000	8.794022
2303.000000	8.793104
2302.000000	8.809979
2301.000000	8.830067
2300.000000	8.840743
2299.000000	8.894236
2298.000000	8.920294
2297.000000	8.957372
2296.000000	8.999271
2295.000000	9.035661
2294.000000	9.068836
2293.000000	9.104536
2292.000000	9.122903
2291.000000	9.145861
2290.000000	9.169049
2289.000000	9.186842
2288.000000	9.216574
2287.000000	9.208194
2286.000000	9.199699
2285.000000	9.195796
2284.000000	9.187301
2283.000000	9.187646
2282.000000	9.204979
2281.000000	9.169623
2280.000000	9.126117
2279.000000	9.093631
2278.000000	9.086514
2277.000000	9.060111
2276.000000	9.062292
2275.000000	9.004207
2274.000000	9.011210
2273.000000	8.986529
2272.000000	8.971377
2271.000000	8.982167
2270.000000	8.968163
2269.000000	8.987677
2268.000000	9.023722
2267.000000	9.027625
2266.000000	9.087317
2265.000000	9.115671
2264.000000	9.170886
2263.000000	9.264786
2262.000000	9.329759
2261.000000	9.423200
2260.000000	9.518019
2259.000000	9.623398
2258.000000	9.747718
2257.000000	9.873531
2256.000000	9.972482
2255.000000	10.134913
2254.000000	10.253953
2253.000000	10.382521
2252.000000	10.514647
2251.000000	10.658597
2250.000000	10.784524
2249.000000	10.915847
2248.000000	11.020423
2247.000000	11.108009
2246.000000	11.223376
2245.000000	11.322786
2244.000000	11.411291
2243.000000	11.507487
2242.000000	11.586579
2241.000000	11.663605
2240.000000	11.718705
2239.000000	11.783104
2238.000000	11.840385
2237.000000	11.889631
2236.000000	11.952423
2235.000000	11.974004
2234.000000	12.006146
2233.000000	12.057343
2232.000000	12.071233
2231.000000	12.093732
2230.000000	12.116576
2229.000000	12.126219
2228.000000	12.121742
2227.000000	12.141486
2226.000000	12.140108
2225.000000	12.136320
2224.000000	12.131155
2223.000000	12.127481
2222.000000	12.115772
2221.000000	12.092814
2220.000000	12.079842
2219.000000	12.074332
2218.000000	12.041042
2217.000000	12.015329
2216.000000	11.996962
2215.000000	11.972856
2214.000000	11.947601
2213.000000	11.902258
2212.000000	11.910753
2211.000000	11.865984
2210.000000	11.849569
2209.000000	11.856915
2208.000000	11.835794
2207.000000	11.813639
2206.000000	11.768066
2205.000000	11.775527
2204.000000	11.757735
2203.000000	11.764393
2202.000000	11.758997
2201.000000	11.725937
2200.000000	11.705848
2199.000000	11.696206
2198.000000	11.681742
2197.000000	11.660850
2196.000000	11.671181
2195.000000	11.659817
2194.000000	11.650748
2193.000000	11.644894
2192.000000	11.634218
2191.000000	11.632152
2190.000000	11.638121
2189.000000	11.605175
2188.000000	11.595074
2187.000000	11.596451
2186.000000	11.595188
2185.000000	11.579118
2184.000000	11.571082
2183.000000	11.551108
2182.000000	11.537677
2181.000000	11.543417
2180.000000	11.514719
2179.000000	11.514145
2178.000000	11.529068
2177.000000	11.505880
2176.000000	11.489235
2175.000000	11.493827
2174.000000	11.498304
2173.000000	11.493023
2172.000000	11.488317
2171.000000	11.504043
2170.000000	11.505421
2169.000000	11.524017
2168.000000	11.526543
2167.000000	11.534578
2166.000000	11.527691
2165.000000	11.556274
2164.000000	11.573608
2163.000000	11.585661
2162.000000	11.593581
2161.000000	11.611948
2160.000000	11.634792
2159.000000	11.668770
2158.000000	11.671296
2157.000000	11.708489
2156.000000	11.721116
2155.000000	11.748896
2154.000000	11.773002
2153.000000	11.801471
2152.000000	11.844059
2151.000000	11.875512
2150.000000	11.899389
2149.000000	11.927054
2148.000000	11.956900
2147.000000	11.992715
2146.000000	11.999143
2145.000000	12.022561
2144.000000	12.067674
2143.000000	12.096832
2142.000000	12.137927
2141.000000	12.146192
2140.000000	12.179367
2139.000000	12.216445
2138.000000	12.236534
2137.000000	12.249161
2136.000000	12.255819
2135.000000	12.278548
2134.000000	12.305065
2133.000000	12.316659
2132.000000	12.314019
2131.000000	12.336863
2130.000000	12.340995
2129.000000	12.343062
2128.000000	12.365216
2127.000000	12.381517
2126.000000	12.383928
2125.000000	12.372563
2124.000000	12.373482
2123.000000	12.364183
2122.000000	12.369808
2121.000000	12.356148
2120.000000	12.352360
2119.000000	12.335256
2118.000000	12.327909
2117.000000	12.314363
2116.000000	12.300014
2115.000000	12.294390
2114.000000	12.288420
2113.000000	12.264888
2112.000000	12.249620
2111.000000	12.241126
2110.000000	12.218626
2109.000000	12.206573
2108.000000	12.184877
2107.000000	12.157672
2106.000000	12.141830
2105.000000	12.141371
2104.000000	12.125185
2103.000000	12.079268
2102.000000	12.062394
2101.000000	12.056999
2100.000000	12.043912
2099.000000	12.013722
2098.000000	11.994896
2097.000000	11.971593
2096.000000	11.949668
2095.000000	11.939222
2094.000000	11.915230
2093.000000	11.912475
2092.000000	11.910638
2091.000000	11.882284
2090.000000	11.868165
2089.000000	11.872527
2088.000000	11.852438
2087.000000	11.830628
2086.000000	11.808129
2085.000000	11.793550
2084.000000	11.791024
2083.000000	11.766229
2082.000000	11.745911
2081.000000	11.747174
2080.000000	11.730299
2079.000000	11.698502
2078.000000	11.643746
2077.000000	11.613326
2076.000000	11.592204
2075.000000	11.562128
2074.000000	11.545254
2073.000000	11.516900
2072.000000	11.478330
2071.000000	11.428165
2070.000000	11.392006
2069.000000	11.367211
2068.000000	11.319687
2067.000000	11.274114
2066.000000	11.234740
2065.000000	11.193530
2064.000000	11.161043
2063.000000	11.135674
2062.000000	11.095152
2061.000000	11.065880
2060.000000	11.047858
2059.000000	11.027195
2058.000000	10.995742
2057.000000	10.982885
2056.000000	10.982771
2055.000000	10.964174
2054.000000	10.954991
2053.000000	10.968422
2052.000000	10.987592
2051.000000	11.015831
2050.000000	11.031672
2049.000000	11.056927
2048.000000	11.107091
2047.000000	11.133034
2046.000000	11.166668
2045.000000	11.221424
2044.000000	11.264931
2043.000000	11.309470
2042.000000	11.369851
2041.000000	11.405092
2040.000000	11.442285
2039.000000	11.493253
2038.000000	11.539055
2037.000000	11.580380
2036.000000	11.625149
2035.000000	11.657636
2034.000000	11.695747
2033.000000	11.723986
2032.000000	11.751651
2031.000000	11.795272
2030.000000	11.836138
2029.000000	11.834072
2028.000000	11.838089
2027.000000	11.864836
2026.000000	11.894797
2025.000000	11.908802
2024.000000	11.915689
2023.000000	11.927283
2022.000000	11.934400
2021.000000	11.949553
2020.000000	11.945306
2019.000000	11.958048
2018.000000	11.956326
2017.000000	11.955293
2016.000000	11.958966
2015.000000	11.946109
2014.000000	11.926824
2013.000000	11.920166
2012.000000	11.915919
2011.000000	11.902832
2010.000000	11.893534
2009.000000	11.871379
2008.000000	11.854160
2007.000000	11.839008
2006.000000	11.793779
2005.000000	11.769788
2004.000000	11.742008
2003.000000	11.722953
2002.000000	11.698387
2001.000000	11.638580
2000.000000	11.615851
1999.000000	11.590826
1998.000000	11.533889
1997.000000	11.505880
1996.000000	11.464555
1995.000000	11.397631
1994.000000	11.370884
1993.000000	11.329788
1992.000000	11.281805
1991.000000	11.238299
1990.000000	11.181362
1989.000000	11.117422
1988.000000	11.079311
1987.000000	11.032935
1986.000000	10.995742
1985.000000	10.941101
1984.000000	10.891740
1983.000000	10.837903
1982.000000	10.776259
1981.000000	10.723569
1980.000000	10.687295
1979.000000	10.625651
1978.000000	10.581686
1977.000000	10.525782
1976.000000	10.474355
1975.000000	10.438769
1974.000000	10.399854
1973.000000	10.351642
1972.000000	10.314104
1971.000000	10.249476
1970.000000	10.214694
1969.000000	10.163497
1968.000000	10.131125
1967.000000	10.074877
1966.000000	10.052378
1965.000000	10.003591
1964.000000	9.952279
1963.000000	9.898900
1962.000000	9.889028
1961.000000	9.870317
1960.000000	9.801786
1959.000000	9.772399
1958.000000	9.714084
1957.000000	9.691355
1956.000000	9.650604
1955.000000	9.609508
1954.000000	9.589993
1953.000000	9.550390
1952.000000	9.528579
1951.000000	9.504588
1950.000000	9.475660
1949.000000	9.428825
1948.000000	9.413902
1947.000000	9.353062
1946.000000	9.353177
1945.000000	9.335843
1944.000000	9.313458
1943.000000	9.293370
1942.000000	9.268689
1941.000000	9.262490
1940.000000	9.245846
1939.000000	9.250667
1938.000000	9.242861
1937.000000	9.249289
1936.000000	9.235285
1935.000000	9.212556
1934.000000	9.213015
1933.000000	9.277758
1932.000000	9.312081
1931.000000	9.325971
1930.000000	9.345026
1929.000000	9.356620
1928.000000	9.396568
1927.000000	9.422856
1926.000000	9.478415
1925.000000	9.517904
1924.000000	9.577596
1923.000000	9.622824
1922.000000	9.664149
1921.000000	9.739338
1920.000000	9.821874
1919.000000	9.908428
1918.000000	9.978796
1917.000000	10.071433
1916.000000	10.147081
1915.000000	10.208725
1914.000000	10.318581
1913.000000	10.427405
1912.000000	10.565844
1911.000000	10.681555
1910.000000	10.787623
1909.000000	10.906434
1908.000000	10.983000
1907.000000	11.124539
1906.000000	11.292481
1905.000000	11.431839
1904.000000	11.635710
1903.000000	11.797338
1902.000000	11.966657
1901.000000	12.145389
1900.000000	12.326302
1899.000000	12.570121
1898.000000	12.785013
1897.000000	13.027225
1896.000000	13.254743
1895.000000	13.444381
1894.000000	13.658583
1893.000000	13.909290
1892.000000	14.168836
1891.000000	14.512295
1890.000000	14.840257
1889.000000	15.177747
1888.000000	15.505250
1887.000000	15.830342
1886.000000	16.185510
1885.000000	16.567540
1884.000000	17.016149
1883.000000	17.464069
1882.000000	17.908545
1881.000000	18.369667
1880.000000	18.807026
1879.000000	19.224297
1878.000000	19.676809
1877.000000	20.126910
1876.000000	20.558071
1875.000000	21.006794
1874.000000	21.407420
1873.000000	21.854307
1872.000000	22.304409
1871.000000	22.663020
1870.000000	23.045509
1869.000000	23.428457
1868.000000	23.778115
1867.000000	24.049714
1866.000000	24.285727
1865.000000	24.467903
1864.000000	24.657195
1863.000000	24.818364
1862.000000	24.948309
1861.000000	25.160446
1860.000000	25.331142
1859.000000	25.495180
1858.000000	25.646362
1857.000000	25.769649
1856.000000	25.863664
1855.000000	25.927718
1854.000000	26.002334
1853.000000	26.080163
1852.000000	26.106910
1851.000000	26.128605
1850.000000	26.148350
1849.000000	26.161321
1848.000000	26.207812
1847.000000	26.258895
1846.000000	26.262453
1845.000000	26.226294
1844.000000	26.193119
1843.000000	26.145824
1842.000000	26.145021
1841.000000	26.175785
1840.000000	26.179803
1839.000000	26.190249
1838.000000	26.166487
1837.000000	26.136411
1836.000000	26.115060
1835.000000	26.085099
1834.000000	26.031032
1833.000000	25.955843
1832.000000	25.899480
1831.000000	25.843461
1830.000000	25.792952
1829.000000	25.743017
1828.000000	25.692509
1827.000000	25.633505
1826.000000	25.565089
1825.000000	25.532603
1824.000000	25.468434
1823.000000	25.395770
1822.000000	25.374304
1821.000000	25.374189
1820.000000	25.369483
1819.000000	25.341359
1818.000000	25.294179
1817.000000	25.266284
1816.000000	25.232076
1815.000000	25.201312
1814.000000	25.180305
1813.000000	25.170777
1812.000000	25.148278
1811.000000	25.126008
1810.000000	25.108445
1809.000000	25.070448
1808.000000	25.015463
1807.000000	24.966905
1806.000000	24.936371
1805.000000	24.891602
1804.000000	24.831336
1803.000000	24.786911
1802.000000	24.745012
1801.000000	24.702194
1800.000000	24.648012
1799.000000	24.591993
1798.000000	24.548142
1797.000000	24.494764
1796.000000	24.442304
1795.000000	24.383989
1794.000000	24.339909
1793.000000	24.307537
1792.000000	24.259095
1791.000000	24.204339
1790.000000	24.161636
1789.000000	24.118015
1788.000000	24.058093
1787.000000	24.009651
1786.000000	23.950992
1785.000000	23.879132
1784.000000	23.823113
1783.000000	23.763077
1782.000000	23.707517
1781.000000	23.656434
1780.000000	23.581360
1779.000000	23.521324
1778.000000	23.475522
1777.000000	23.412500
1776.000000	23.328243
1775.000000	23.240197
1774.000000	23.159268
1773.000000	23.082357
1772.000000	22.992130
1771.000000	22.904773
1770.000000	22.794343
1769.000000	22.694588
1768.000000	22.609986
1767.000000	22.513790
1766.000000	22.424482
1765.000000	22.359050
1764.000000	22.295455
1763.000000	22.266068
1762.000000	22.258492
1761.000000	22.276629
1760.000000	22.293848
1759.000000	22.330926
1758.000000	22.380516
1757.000000	22.436535
1756.000000	22.502655
1755.000000	22.571301
1754.000000	22.612626
1753.000000	22.650623
1752.000000	22.673007
1751.000000	22.692063
1750.000000	22.692981
1749.000000	22.661643
1748.000000	22.632141
1747.000000	22.605968
1746.000000	22.564873
1745.000000	22.499671
1744.000000	22.422645
1743.000000	22.312444
1742.000000	22.172053
1741.000000	22.036024
1740.000000	21.877840
1739.000000	21.713572
1738.000000	21.540809
1737.000000	21.386528
1736.000000	21.232247
1735.000000	21.101269
1734.000000	21.001514
1733.000000	20.951120
1732.000000	20.927014
1731.000000	20.937689
1730.000000	21.006335
1729.000000	21.051908
1728.000000	21.104483
1727.000000	21.202630
1726.000000	21.273113
1725.000000	21.357945
1724.000000	21.421310
1723.000000	21.486168
1722.000000	21.532314
1721.000000	21.601305
1720.000000	21.648944
1719.000000	21.708636
1718.000000	21.764769
1717.000000	21.840647
1716.000000	21.920543
1715.000000	21.995961
1714.000000	22.077923
1713.000000	22.168380
1712.000000	22.247586
1711.000000	22.311755
1710.000000	22.376384
1709.000000	22.427237
1708.000000	22.437568
1707.000000	22.420349
1706.000000	22.406689
1705.000000	22.395554
1704.000000	22.348374
1703.000000	22.317839
1702.000000	22.239207
1701.000000	22.137041
1700.000000	22.033498
1699.000000	21.910900
1698.000000	21.782218
1697.000000	21.663981
1696.000000	21.563997
1695.000000	21.492711
1694.000000	21.506486
1693.000000	21.510274
1692.000000	21.570885
1691.000000	21.666277
1690.000000	21.787039
1689.000000	21.899191
1688.000000	22.015591
1687.000000	22.097667
1686.000000	22.181122
1685.000000	22.241617
1684.000000	22.333336
1683.000000	22.449277
1682.000000	22.641784
1681.000000	22.901903
1680.000000	23.226537
1679.000000	23.647710
1678.000000	24.102518
1677.000000	24.551242
1676.000000	24.992849
1675.000000	25.397836
1674.000000	25.763565
1673.000000	26.108976
1672.000000	26.391939
1671.000000	26.644712
1670.000000	26.852716
1669.000000	27.066460
1668.000000	27.258163
1667.000000	27.421628
1666.000000	27.548244
1665.000000	27.655575
1664.000000	27.767612
1663.000000	27.872533
1662.000000	27.948870
1661.000000	28.032324
1660.000000	28.093049
1659.000000	28.145394
1658.000000	28.191656
1657.000000	28.204283
1656.000000	28.254906
1655.000000	28.280505
1654.000000	28.249970
1653.000000	28.274192
1652.000000	28.274306
1651.000000	28.257317
1650.000000	28.219436
1649.000000	28.197740
1648.000000	28.146772
1647.000000	28.100970
1646.000000	28.056086
1645.000000	28.009021
1644.000000	27.953806
1643.000000	27.915121
1642.000000	27.849574
1641.000000	27.816399
1640.000000	27.759577
1639.000000	27.687258
1638.000000	27.650294
1637.000000	27.588077
1636.000000	27.510936
1635.000000	27.424727
1634.000000	27.380762
1633.000000	27.310738
1632.000000	27.236008
1631.000000	27.144404
1630.000000	27.088844
1629.000000	27.005964
1628.000000	26.919526
1627.000000	26.849732
1626.000000	26.769492
1625.000000	26.703830
1624.000000	26.592941
1623.000000	26.535430
1622.000000	26.446236
1621.000000	26.365422
1620.000000	26.255221
1619.000000	26.186231
1618.000000	26.131131
1617.000000	26.044692
1616.000000	25.959516
1615.000000	25.904301
1614.000000	25.835655
1613.000000	25.756104
1612.000000	25.683670
1611.000000	25.610432
1610.000000	25.553954
1609.000000	25.484964
1608.000000	25.393933
1607.000000	25.307150
1606.000000	25.232880
1605.000000	25.172958
1604.000000	25.101901
1603.000000	25.027286
1602.000000	24.945669
1601.000000	24.858656
1600.000000	24.774743
1599.000000	24.711263
1598.000000	24.626890
1597.000000	24.550783
1596.000000	24.479841
1595.000000	24.415098
1594.000000	24.348174
1593.000000	24.254159
1592.000000	24.180462
1591.000000	24.141547
1590.000000	24.076690
1589.000000	24.006437
1588.000000	23.965341
1587.000000	23.877869
1586.000000	23.824376
1585.000000	23.783969
1584.000000	23.718996
1583.000000	23.665044
1582.000000	23.608910
1581.000000	23.560009
1580.000000	23.528900
1579.000000	23.487345
1578.000000	23.433737
1577.000000	23.398725
1576.000000	23.382425
1575.000000	23.370027
1574.000000	23.328932
1573.000000	23.295527
1572.000000	23.264763
1571.000000	23.252135
1570.000000	23.238360
1569.000000	23.222978
1568.000000	23.217698
1567.000000	23.214139
1566.000000	23.185097
1565.000000	23.161564
1564.000000	23.164663
1563.000000	23.170633
1562.000000	23.158465
1561.000000	23.147330
1560.000000	23.107152
1559.000000	23.109793
1558.000000	23.094066
1557.000000	23.064220
1556.000000	23.025994
1555.000000	23.003839
1554.000000	22.971353
1553.000000	22.944032
1552.000000	22.893638
1551.000000	22.846918
1550.000000	22.812136
1549.000000	22.767481
1548.000000	22.724664
1547.000000	22.681961
1546.000000	22.642932
1545.000000	22.612626
1544.000000	22.574515
1543.000000	22.535027
1542.000000	22.510346
1541.000000	22.474416
1540.000000	22.435731
1539.000000	22.399572
1538.000000	22.365478
1537.000000	22.324956
1536.000000	22.288452
1535.000000	22.248734
1534.000000	22.223939
1533.000000	22.191108
1532.000000	22.136238
1531.000000	22.105818
1530.000000	22.066788
1529.000000	22.003997
1528.000000	21.955095
1527.000000	21.916640
1526.000000	21.871871
1525.000000	21.810571
1524.000000	21.755701
1523.000000	21.709669
1522.000000	21.656979
1521.000000	21.597746
1520.000000	21.547237
1519.000000	21.501665
1518.000000	21.443695
1517.000000	21.378263
1516.000000	21.314438
1515.000000	21.245678
1514.000000	21.182312
1513.000000	21.128934
1512.000000	21.063043
1511.000000	20.998070
1510.000000	20.931605
1509.000000	20.867781
1508.000000	20.810844
1507.000000	20.742313
1506.000000	20.672289
1505.000000	20.616959
1504.000000	20.549117
1503.000000	20.466696
1502.000000	20.407463
1501.000000	20.366138
1500.000000	20.298984
1499.000000	20.224484
1498.000000	20.180748
1497.000000	20.138504
1496.000000	20.086274
1495.000000	20.034732
1494.000000	19.987552
1493.000000	19.937962
1492.000000	19.898129
1491.000000	19.855885
1490.000000	19.820529
1489.000000	19.797226
1488.000000	19.760492
1487.000000	19.718823
1486.000000	19.686222
1485.000000	19.654883
1484.000000	19.629055
1483.000000	19.588189
1482.000000	19.557769
1481.000000	19.549733
1480.000000	19.536303
1479.000000	19.501865
1478.000000	19.475807
1477.000000	19.461573
1476.000000	19.452619
1475.000000	19.448601
1474.000000	19.429087
1473.000000	19.426446
1472.000000	19.445846
1471.000000	19.455030
1470.000000	19.445158
1469.000000	19.434023
1468.000000	19.427709
1467.000000	19.433563
1466.000000	19.438614
1465.000000	19.451356
1464.000000	19.455489
1463.000000	19.470067
1462.000000	19.515296
1461.000000	19.537680
1460.000000	19.564542
1459.000000	19.614362
1458.000000	19.629514
1457.000000	19.677268
1456.000000	19.714346
1455.000000	19.762444
1454.000000	19.816511
1453.000000	19.886994
1452.000000	19.965512
1451.000000	20.025434
1450.000000	20.098097
1449.000000	20.163644
1448.000000	20.215989
1447.000000	20.279354
1446.000000	20.372451
1445.000000	20.474157
1444.000000	20.548198
1443.000000	20.606857
1442.000000	20.699380
1441.000000	20.798446
1440.000000	20.882819
1439.000000	20.971553
1438.000000	21.087723
1437.000000	21.211010
1436.000000	21.311798
1435.000000	21.405239
1434.000000	21.517736
1433.000000	21.634939
1432.000000	21.779577
1431.000000	21.918706
1430.000000	22.051980
1429.000000	22.167576
1428.000000	22.313362
1427.000000	22.494275
1426.000000	22.659462
1425.000000	22.849903
1424.000000	23.022665
1423.000000	23.234802
1422.000000	23.454744
1421.000000	23.652876
1420.000000	23.878558
1419.000000	24.124099
1418.000000	24.366541
1417.000000	24.627464
1416.000000	24.854638
1415.000000	25.133125
1414.000000	25.464875
1413.000000	25.772863
1412.000000	26.054564
1411.000000	26.358305
1410.000000	26.728740
1409.000000	27.123053
1408.000000	27.535732
1407.000000	27.936587
1406.000000	28.359253
1405.000000	28.783067
1404.000000	29.214457
1403.000000	29.726776
1402.000000	30.141636
1401.000000	30.572567
1400.000000	31.120816
1399.000000	31.644269
1398.000000	32.019870
1397.000000	32.372972
1396.000000	32.798508
1395.000000	33.312548
1394.000000	33.813273
1393.000000	34.177165
1392.000000	34.631284
1391.000000	35.091487
1390.000000	35.567761
1389.000000	36.011779
1388.000000	36.569096
1387.000000	37.205850
1386.000000	37.821712
1385.000000	38.417600
1384.000000	39.040119
1383.000000	39.724856
1382.000000	40.395130
1381.000000	41.026259
1380.000000	41.552697
1379.000000	41.909013
1378.000000	42.254997
1377.000000	42.512018
1376.000000	42.773974
1375.000000	43.047984
1374.000000	43.315680
1373.000000	43.624472
1372.000000	43.954500
1371.000000	44.347664
1370.000000	44.770445
1369.000000	45.088535
1368.000000	45.441866
1367.000000	45.790721
1366.000000	46.045675
1365.000000	46.279622
1364.000000	46.539053
1363.000000	46.740743
1362.000000	47.004192
1361.000000	47.174544
1360.000000	47.390583
1359.000000	47.476907
1358.000000	47.598358
1357.000000	47.723367
1356.000000	47.891193
1355.000000	48.149017
1354.000000	48.516468
1353.000000	48.914224
1352.000000	49.262734
1351.000000	49.738549
1350.000000	50.243177
1349.000000	50.682602
1348.000000	51.076455
1347.000000	51.514159
1346.000000	51.923968
1345.000000	52.242862
1344.000000	52.631779
1343.000000	52.970187
1342.000000	53.302167
1341.000000	53.651825
1340.000000	54.014798
1339.000000	54.341268
1338.000000	54.691270
1337.000000	55.008672
1336.000000	55.322629
1335.000000	55.657020
1334.000000	55.962138
1333.000000	56.243150
1332.000000	56.531394
1331.000000	56.826640
1330.000000	57.100420
1329.000000	57.379136
1328.000000	57.656360
1327.000000	57.923023
1326.000000	58.151460
1325.000000	58.394705
1324.000000	58.614648
1323.000000	58.839067
1322.000000	59.048104
1321.000000	59.268506
1320.000000	59.449993
1319.000000	59.638597
1318.000000	59.836269
1317.000000	60.000537
1316.000000	60.195799
1315.000000	60.366955
1314.000000	60.515726
1313.000000	60.667597
1312.000000	60.807529
1311.000000	60.966975
1310.000000	61.092903
1309.000000	61.215272
1308.000000	61.311238
1307.000000	61.440265
1306.000000	61.526244
1305.000000	61.608551
1304.000000	61.708190
1303.000000	61.786594
1302.000000	61.848008
1301.000000	61.915506
1300.000000	61.969343
1299.000000	62.019622
1298.000000	62.058193
1297.000000	62.119607
1296.000000	62.150256
1295.000000	62.192959
1294.000000	62.220050
1293.000000	62.236006
1292.000000	62.254717
1291.000000	62.248748
1290.000000	62.256669
1289.000000	62.259654
1288.000000	62.260227
1287.000000	62.237728
1286.000000	62.211785
1285.000000	62.172641
1284.000000	62.153241
1283.000000	62.109275
1282.000000	62.069672
1281.000000	62.029724
1280.000000	61.991383
1279.000000	61.946040
1278.000000	61.904830
1277.000000	61.854780
1276.000000	61.811159
1275.000000	61.784527
1274.000000	61.758814
1273.000000	61.723802
1272.000000	61.682362
1271.000000	61.663077
1270.000000	61.630591
1269.000000	61.604762
1268.000000	61.579508
1267.000000	61.558960
1266.000000	61.520160
1265.000000	61.487789
1264.000000	61.455303
1263.000000	61.415010
1262.000000	61.363698
1261.000000	61.320881
1260.000000	61.290461
1259.000000	61.252235
1258.000000	61.195412
1257.000000	61.135720
1256.000000	61.092558
1255.000000	61.011285
1254.000000	60.937015
1253.000000	60.894886
1252.000000	60.827847
1251.000000	60.744852
1250.000000	60.648082
1249.000000	60.558085
1248.000000	60.478304
1247.000000	60.376253
1246.000000	60.275121
1245.000000	60.164232
1244.000000	60.038763
1243.000000	59.917083
1242.000000	59.799077
1241.000000	59.687039
1240.000000	59.564556
1239.000000	59.432889
1238.000000	59.311668
1237.000000	59.183674
1236.000000	59.050974
1235.000000	58.906565
1234.000000	58.754350
1233.000000	58.596740
1232.000000	58.449806
1231.000000	58.293688
1230.000000	58.132749
1229.000000	57.966874
1228.000000	57.780680
1227.000000	57.604474
1226.000000	57.429186
1225.000000	57.248043
1224.000000	57.073788
1223.000000	56.889546
1222.000000	56.711962
1221.000000	56.517734
1220.000000	56.308582
1219.000000	56.129735
1218.000000	55.948822
1217.000000	55.759185
1216.000000	55.607085
1215.000000	55.445342
1214.000000	55.272580
1213.000000	55.104753
1212.000000	54.947028
1211.000000	54.793551
1210.000000	54.652356
1209.000000	54.507258
1208.000000	54.362734
1207.000000	54.230149
1206.000000	54.118456
1205.000000	54.010207
1204.000000	53.903220
1203.000000	53.821832
1202.000000	53.763173
1201.000000	53.688903
1200.000000	53.624045
1199.000000	53.553677
1198.000000	53.455529
1197.000000	53.344066
1196.000000	53.192081
1195.000000	53.015759
1194.000000	52.785830
1193.000000	52.509639
1192.000000	52.201192
1191.000000	51.840170
1190.000000	51.441381
1189.000000	51.061303
1188.000000	50.719451
1187.000000	50.438439
1186.000000	50.251786
1185.000000	50.191176
1184.000000	50.232845
1183.000000	50.394129
1182.000000	50.673189
1181.000000	51.060843
1180.000000	51.482017
1179.000000	51.961964
1178.000000	52.422397
1177.000000	52.837372
1176.000000	53.210447
1175.000000	53.558383
1174.000000	53.861665
1173.000000	54.164258
1172.000000	54.471098
1171.000000	54.786778
1170.000000	55.106245
1169.000000	55.420432
1168.000000	55.746443
1167.000000	56.089443
1166.000000	56.412813
1165.000000	56.766030
1164.000000	57.120050
1163.000000	57.468904
1162.000000	57.849900
1161.000000	58.225042
1160.000000	58.582850
1159.000000	58.949153
1158.000000	59.298926
1157.000000	59.641811
1156.000000	59.962197
1155.000000	60.259280
1154.000000	60.524565
1153.000000	60.773780
1152.000000	60.960547
1151.000000	61.121716
1150.000000	61.268076
1149.000000	61.397906
1148.000000	61.520505
1147.000000	61.660781
1146.000000	61.825279
1145.000000	62.051420
1144.000000	62.299257
1143.000000	62.573496
1142.000000	62.913741
1141.000000	63.285095
1140.000000	63.667698
1139.000000	64.061092
1138.000000	64.459766
1137.000000	64.880251
1136.000000	65.333337
1135.000000	65.793999
1134.000000	66.267403
1133.000000	66.694431
1132.000000	67.050288
1131.000000	67.419576
1130.000000	67.745471
1129.000000	68.034748
1128.000000	68.292458
1127.000000	68.489556
1126.000000	68.639016
1125.000000	68.767698
1124.000000	68.884672
1123.000000	68.998661
1122.000000	69.082000
1121.000000	69.145595
1120.000000	69.176015
1119.000000	69.206550
1118.000000	69.223999
1117.000000	69.239381
1116.000000	69.251549
1115.000000	69.238577
1114.000000	69.239840
1113.000000	69.216652
1112.000000	69.205173
1111.000000	69.200351
1110.000000	69.180492
1109.000000	69.186921
1108.000000	69.143414
1107.000000	69.118963
1106.000000	69.117930
1105.000000	69.089577
1104.000000	69.062141
1103.000000	69.068340
1102.000000	69.040216
1101.000000	69.045955
1100.000000	68.990166
1099.000000	68.980983
1098.000000	68.953662
1097.000000	68.913944
1096.000000	68.861254
1095.000000	68.844609
1094.000000	68.805695
1093.000000	68.773897
1092.000000	68.686885
1091.000000	68.682063
1090.000000	68.622256
1089.000000	68.554070
1088.000000	68.499658
1087.000000	68.433767
1086.000000	68.394164
1085.000000	68.328732
1084.000000	68.266859
1083.000000	68.175599
1082.000000	68.133700
1081.000000	68.049327
1080.000000	67.986995
1079.000000	67.922252
1078.000000	67.836846
1077.000000	67.775432
1076.000000	67.706786
1075.000000	67.647898
1074.000000	67.549750
1073.000000	67.485466
1072.000000	67.411770
1071.000000	67.325216
1070.000000	67.245895
1069.000000	67.168065
1068.000000	67.081053
1067.000000	67.008963
1066.000000	66.916440
1065.000000	66.836659
1064.000000	66.764110
1063.000000	66.671473
1062.000000	66.579180
1061.000000	66.503187
1060.000000	66.401481
1059.000000	66.337886
1058.000000	66.220109
1057.000000	66.107842
1056.000000	66.017615
1055.000000	65.920615
1054.000000	65.826945
1053.000000	65.714678
1052.000000	65.615382
1051.000000	65.522859
1050.000000	65.442390
1049.000000	65.342980
1048.000000	65.237944
1047.000000	65.156901
1046.000000	65.068166
1045.000000	64.978973
1044.000000	64.895748
1043.000000	64.812868
1042.000000	64.717475
1041.000000	64.600731
1040.000000	64.525313
1039.000000	64.409258
1038.000000	64.315587
1037.000000	64.229492
1036.000000	64.133411
1035.000000	64.037789
1034.000000	63.934246
1033.000000	63.811648
1032.000000	63.722225
1031.000000	63.616501
1030.000000	63.485637
1029.000000	63.374748
1028.000000	63.269483
1027.000000	63.131502
1026.000000	63.023253
1025.000000	62.889405
1024.000000	62.767955
1023.000000	62.650751
1022.000000	62.539747
1021.000000	62.398897
1020.000000	62.256095
1019.000000	62.158292
1018.000000	62.017327
1017.000000	61.918949
1016.000000	61.795088
1015.000000	61.673753
1014.000000	61.584444
1013.000000	61.480557
1012.000000	61.378047
1011.000000	61.299300
1010.000000	61.208384
1009.000000	61.111040
1008.000000	61.035506
1007.000000	60.977421
1006.000000	60.909464
1005.000000	60.831750
1004.000000	60.755528
1003.000000	60.694114
1002.000000	60.625583
1001.000000	60.536848
1000.000000	60.460281
999.000000	60.373728
998.000000	60.296128
997.000000	60.243668
996.000000	60.170545
995.000000	60.089846
994.000000	60.013050
993.000000	59.926037
992.000000	59.859687
991.000000	59.797240
990.000000	59.718837
989.000000	59.653635
988.000000	59.612768
987.000000	59.549518
986.000000	59.484545
985.000000	59.424853
984.000000	59.352993
983.000000	59.303977
982.000000	59.252091
981.000000	59.199630
980.000000	59.138676
979.000000	59.075195
978.000000	59.000121
977.000000	58.952367
976.000000	58.882918
975.000000	58.827244
974.000000	58.791658
973.000000	58.735869
972.000000	58.660794
971.000000	58.610860
970.000000	58.561958
969.000000	58.495608
968.000000	58.438441
967.000000	58.384833
966.000000	58.345000
965.000000	58.312399
964.000000	58.262924
963.000000	58.209201
962.000000	58.155937
961.000000	58.116793
960.000000	58.087062
959.000000	58.050902
958.000000	58.013709
957.000000	57.959183
956.000000	57.937028
955.000000	57.905690
954.000000	57.854951
953.000000	57.820973
952.000000	57.781943
951.000000	57.741536
950.000000	57.706180
949.000000	57.650735
948.000000	57.599882
947.000000	57.572562
946.000000	57.521938
945.000000	57.460639
944.000000	57.395552
943.000000	57.339877
942.000000	57.285236
941.000000	57.203504
940.000000	57.126937
939.000000	57.085727
938.000000	57.024198
937.000000	56.938792
936.000000	56.868769
935.000000	56.789677
934.000000	56.750188
933.000000	56.689578
932.000000	56.608305
931.000000	56.527147
930.000000	56.447366
929.000000	56.395020
928.000000	56.328670
927.000000	56.255892
926.000000	56.207794
925.000000	56.142477
924.000000	56.045248
923.000000	55.976487
922.000000	55.908186
921.000000	55.826339
920.000000	55.754478
919.000000	55.681241
918.000000	55.636242
917.000000	55.546474
916.000000	55.452919
915.000000	55.355689
914.000000	55.269136
913.000000	55.192684
912.000000	55.113936
911.000000	55.033352
910.000000	54.966313
909.000000	54.886877
908.000000	54.829366
907.000000	54.780005
906.000000	54.737187
905.000000	54.680250
904.000000	54.639958
903.000000	54.615278
902.000000	54.593926
901.000000	54.552946
900.000000	54.494287
899.000000	54.458930
898.000000	54.464211
897.000000	54.454568
896.000000	54.424493
895.000000	54.402567
894.000000	54.344712
893.000000	54.315440
892.000000	54.271130
891.000000	54.215570
890.000000	54.178378
889.000000	54.142103
888.000000	54.081493
887.000000	54.012273
886.000000	53.943283
885.000000	53.873604
884.000000	53.798300
883.000000	53.696708
882.000000	53.603267
881.000000	53.472060
880.000000	53.378389
879.000000	53.260153
878.000000	53.073385
877.000000	52.948950
876.000000	52.760691
875.000000	52.532368
874.000000	52.284646
873.000000	52.020049
872.000000	51.784266
871.000000	51.682904
870.000000	51.673835
869.000000	51.726984
868.000000	51.735249
867.000000	51.743055
866.000000	51.771409
865.000000	51.772901
864.000000	51.775886
863.000000	51.795401
862.000000	51.809405
861.000000	51.801255
860.000000	51.806995
859.000000	51.810209
858.000000	51.779100
857.000000	50.798200
856.000000	52.423700
855.000000	52.115400
854.000000	51.818400
853.000000	52.375100
852.000000	52.350400
851.000000	52.391700
850.000000	52.243600
849.000000	52.197100
848.000000	52.154000
847.000000	52.287100
846.000000	52.176900
845.000000	52.386300
844.000000	52.348900
843.000000	52.468300
842.000000	52.552000
841.000000	52.481400
840.000000	52.468500
839.000000	52.182700
838.000000	52.147600
837.000000	52.291600
836.000000	52.300100
835.000000	52.316000
834.000000	52.098300
833.000000	52.073600
832.000000	52.216900
831.000000	52.075300
830.000000	52.024200
829.000000	51.876400
828.000000	51.863900
827.000000	51.815900
826.000000	51.683200
825.000000	51.797200
824.000000	51.616300
823.000000	51.644500
822.000000	51.554500
821.000000	51.446900
820.000000	51.394500
819.000000	51.517200
818.000000	51.155300
817.000000	51.143500
816.000000	51.045200
815.000000	51.046300
814.000000	50.902400
813.000000	50.840800
812.000000	50.802200
811.000000	50.674900
810.000000	50.431400
809.000000	50.409900
808.000000	50.412900
807.000000	50.352100
806.000000	50.149000
805.000000	50.068800
804.000000	49.880800
803.000000	49.678300
802.000000	49.875400
801.000000	49.539500
800.000000	49.501500
799.000000	49.337800
798.000000	49.145600
797.000000	49.095100
796.000000	49.000800
795.000000	48.752700
794.000000	48.686300
793.000000	48.553200
792.000000	48.442200
791.000000	48.214100
790.000000	48.101600
789.000000	47.949300
788.000000	47.853000
787.000000	47.637200
786.000000	47.528100
785.000000	47.397200
784.000000	47.195400
783.000000	47.050900
782.000000	46.875100
781.000000	46.655300
780.000000	46.553900
779.000000	46.359400
778.000000	46.229500
777.000000	46.108500
776.000000	45.980400
775.000000	45.665200
774.000000	45.513000
773.000000	45.481700
772.000000	45.314800
771.000000	44.973500
770.000000	44.814100
769.000000	44.762500
768.000000	44.579600
767.000000	44.381100
766.000000	44.094800
765.000000	43.992800
764.000000	43.924900
763.000000	43.659800
762.000000	43.407400
761.000000	43.215700
760.000000	42.988000
759.000000	42.766900
758.000000	42.604200
757.000000	42.384700
756.000000	42.178400
755.000000	41.978900
754.000000	41.779000
753.000000	41.498800
752.000000	41.343700
751.000000	41.081000
750.000000	40.808200
749.000000	40.611600
748.000000	40.339800
747.000000	40.081400
746.000000	39.890100
745.000000	39.710900
744.000000	39.357300
743.000000	39.153200
742.000000	38.907700
741.000000	38.669500
740.000000	38.438000
739.000000	38.220100
738.000000	37.929800
737.000000	37.708200
736.000000	37.481000
735.000000	37.245900
734.000000	36.972900
733.000000	36.701800
732.000000	36.490000
731.000000	36.322400
730.000000	36.025900
729.000000	35.781000
728.000000	35.522300
727.000000	35.267900
726.000000	35.044800
725.000000	34.781100
724.000000	34.501100
723.000000	34.255600
722.000000	33.980800
721.000000	33.718100
720.000000	33.428500
719.000000	33.171900
718.000000	32.928300
717.000000	32.711100
716.000000	32.440100
715.000000	32.207100
714.000000	31.924100
713.000000	31.704000
712.000000	31.492500
711.000000	31.272400
710.000000	31.023500
709.000000	30.771800
708.000000	30.517400
707.000000	30.294500
706.000000	30.091300
705.000000	29.845800
704.000000	29.611500
703.000000	29.367400
702.000000	29.150600
701.000000	28.952300
700.000000	28.691300
699.000000	28.480300
698.000000	28.254800
697.000000	28.094800
696.000000	27.890600
695.000000	27.696200
694.000000	27.454500
693.000000	27.229900
692.000000	27.009500
691.000000	26.816600
690.000000	26.628000
689.000000	26.424000
688.000000	26.218600
687.000000	26.019500
686.000000	25.815800
685.000000	25.626400
684.000000	25.453800
683.000000	25.259500
682.000000	25.048400
681.000000	24.866200
680.000000	24.716400
679.000000	24.529700
678.000000	24.342200
677.000000	24.176400
676.000000	23.990100
675.000000	23.816200
674.000000	23.653300
673.000000	23.492900
672.000000	23.347500
671.000000	23.210500
670.000000	23.044700
669.000000	22.905400
668.000000	22.768200
667.000000	22.634500
666.000000	22.507200
665.000000	22.388800
664.000000	22.265900
663.000000	22.153900
662.000000	22.050400
661.000000	21.914500
660.000000	21.802100
659.000000	21.695500
658.000000	21.582700
657.000000	21.516600
656.000000	21.433100
655.000000	21.333900
654.000000	21.254700
653.000000	21.177500
652.000000	21.099400
651.000000	21.016800
650.000000	20.942600
649.000000	20.880000
648.000000	20.849400
647.000000	20.797000
646.000000	20.752000
645.000000	20.715800
644.000000	20.705600
643.000000	20.680500
642.000000	20.635400
641.000000	20.632400
640.000000	20.648100
639.000000	20.649300
638.000000	20.643500
637.000000	20.662900
636.000000	20.708600
635.000000	20.752300
634.000000	20.778400
633.000000	20.823000
632.000000	20.877600
631.000000	20.943500
630.000000	21.004700
629.000000	21.063700
628.000000	21.141800
627.000000	21.213800
626.000000	21.302700
625.000000	21.406400
624.000000	21.515800
623.000000	21.616700
622.000000	21.716600
621.000000	21.826500
620.000000	21.954400
619.000000	22.071200
618.000000	22.179600
617.000000	22.315700
616.000000	22.450700
615.000000	22.579500
614.000000	22.714800
613.000000	22.865700
612.000000	23.014700
611.000000	23.148600
610.000000	23.299800
609.000000	23.457900
608.000000	23.605700
607.000000	23.761300
606.000000	23.888000
605.000000	24.029400
604.000000	24.172100
603.000000	24.321300
602.000000	24.467900
601.000000	24.612700
600.000000	24.745000
599.000000	24.876600
598.000000	25.002200
597.000000	25.114400
596.000000	25.220300
595.000000	25.326600
594.000000	25.436000
593.000000	25.542100
592.000000	25.638000
591.000000	25.743100
590.000000	25.805600
589.000000	25.879100
588.000000	25.966300
587.000000	26.017000
586.000000	26.094200
585.000000	26.163300
584.000000	26.212600
583.000000	26.268900
582.000000	26.301100
581.000000	26.336100
580.000000	26.392400
579.000000	26.419900
578.000000	26.436000
577.000000	26.457800
576.000000	26.472600
575.000000	26.487800
574.000000	26.492400
573.000000	26.489200
572.000000	26.469400
571.000000	26.473600
570.000000	26.455300
569.000000	26.427000
568.000000	26.421200
567.000000	26.397700
566.000000	26.370100
565.000000	26.338000
564.000000	26.272500
563.000000	26.229000
562.000000	26.192600
561.000000	26.107800
560.000000	26.055700
559.000000	25.916300
558.000000	25.816400
557.000000	25.740600
556.000000	25.643700
555.000000	25.555700
554.000000	25.450700
553.000000	25.328000
552.000000	25.221500
551.000000	25.099600
550.000000	24.960000
549.000000	24.850600
548.000000	24.709500
547.000000	24.572000
546.000000	24.429300
545.000000	24.244400
544.000000	24.077600
543.000000	23.905500
542.000000	23.719600
541.000000	23.528700
540.000000	23.331400
539.000000	23.130000
538.000000	22.935300
537.000000	22.715700
536.000000	22.499100
535.000000	22.254500
534.000000	22.010000
533.000000	21.762800
532.000000	21.520800
531.000000	21.250100
530.000000	20.966600
529.000000	20.709100
528.000000	20.417300
527.000000	20.157300
526.000000	19.867100
525.000000	19.585200
524.000000	19.272900
523.000000	18.961600
522.000000	18.667400
521.000000	18.345600
520.000000	18.049400
519.000000	17.736000
518.000000	17.431800
517.000000	17.123900
516.000000	16.824400
515.000000	16.513300
514.000000	16.223400
513.000000	15.948200
512.000000	15.658400
511.000000	15.383800
510.000000	15.097900
509.000000	14.836100
508.000000	14.589700
507.000000	14.338000
506.000000	14.101500
505.000000	13.864300
504.000000	13.638300
503.000000	13.435700
502.000000	13.224800
501.000000	12.999700
500.000000	12.816900
499.000000	12.621800
498.000000	12.467400
497.000000	12.301100
496.000000	12.153200
495.000000	12.019000
494.000000	11.870000
493.000000	11.723900
492.000000	11.593300
491.000000	11.478800
490.000000	11.385400
489.000000	11.275000
488.000000	11.170200
487.000000	11.088800
486.000000	10.996900
485.000000	10.929600
484.000000	10.833800
483.000000	10.757500
482.000000	10.681000
481.000000	10.596700
480.000000	10.517500
479.000000	10.441200
478.000000	10.349800
477.000000	10.270300
476.000000	10.210900
475.000000	10.131300
474.000000	10.063300
473.000000	9.994800
472.000000	9.919100
471.000000	9.852000
470.000000	9.778400
469.000000	9.709200
468.000000	9.658300
467.000000	9.583900
466.000000	9.533900
465.000000	9.460300
464.000000	9.421900
463.000000	9.370000
462.000000	9.316100
461.000000	9.268700
460.000000	9.201100
459.000000	9.149500
458.000000	9.101000
457.000000	9.032300
456.000000	8.962200
455.000000	8.921800
454.000000	8.856600
453.000000	8.804300
452.000000	8.728300
451.000000	8.667400
450.000000	8.597100
449.000000	8.518500
448.000000	8.446800
447.000000	8.379200
446.000000	8.317100
445.000000	8.222500
444.000000	8.141600
443.000000	8.073700
442.000000	7.998000
441.000000	7.902400
440.000000	7.810300
439.000000	7.733700
438.000000	7.645100
437.000000	7.563800
436.000000	7.475900
435.000000	7.386000
434.000000	7.309000
433.000000	7.229300
432.000000	7.153800
431.000000	7.057700
430.000000	6.993100
429.000000	6.889300
428.000000	6.811600
427.000000	6.742900
426.000000	6.660600
425.000000	6.608300
424.000000	6.532800
423.000000	6.450000
422.000000	6.377400
421.000000	6.312400
420.000000	6.247900
419.000000	6.154000
418.000000	6.098400
417.000000	6.023800
416.000000	5.958400
415.000000	5.886000
414.000000	5.835800
413.000000	5.775700
412.000000	5.702800
411.000000	5.649800
410.000000	5.589800
409.000000	5.532800
408.000000	5.482000
407.000000	5.423200
406.000000	5.380500
405.000000	5.328400
404.000000	5.278700
403.000000	5.214100
402.000000	5.162200
401.000000	5.123000
400.000000	5.070400
399.000000	5.014200
398.000000	4.995300
397.000000	4.961000
396.000000	4.921500
395.000000	4.884900
394.000000	4.841800
393.000000	4.802600
392.000000	4.777800
391.000000	4.745400
390.000000	4.719300
389.000000	4.694800
388.000000	4.673400
387.000000	4.638200
386.000000	4.633600
385.000000	4.611300
384.000000	4.583500
383.000000	4.565700
382.000000	4.537900
381.000000	4.544400
380.000000	4.527700
379.000000	4.487300
378.000000	4.487000
377.000000	4.485100
376.000000	4.350600
375.000000	4.217000
374.000000	4.346000
373.000000	4.341800
372.000000	4.296500
371.000000	4.246300
370.000000	4.316300
369.000000	4.326400
368.000000	4.277600
367.000000	4.339600
366.000000	4.314300
365.000000	4.275000
364.000000	4.326700
363.000000	4.244300
362.000000	4.246700
361.000000	4.233200
360.000000	4.174500
359.000000	4.221700
358.000000	4.243000
357.000000	4.229500
356.000000	4.212400
355.000000	4.263800
354.000000	4.233200
353.000000	4.252800
352.000000	4.271000
351.000000	4.251500
350.000000	4.263100
349.000000	4.213600
348.000000	4.193800
347.000000	4.206600
346.000000	4.239600
345.000000	4.197600
344.000000	4.169700
343.000000	4.229400
342.000000	4.275600
341.000000	4.232400
340.000000	4.187000
339.000000	4.178100
338.000000	4.221900
337.000000	4.295400
336.000000	4.252400
335.000000	4.160800
334.000000	4.136100
333.000000	4.167800
332.000000	4.218600
331.000000	4.302600
330.000000	4.340100
329.000000	4.286300
328.000000	4.339100
327.000000	4.327000
326.000000	4.172700
325.000000	4.131000
324.000000	4.064900
323.000000	4.216000
322.000000	4.290200
321.000000	4.128400
320.000000	4.268600
319.000000	4.451900
318.000000	4.320900
317.000000	4.273800
316.000000	4.290700
315.000000	4.273000
314.000000	4.318500
313.000000	4.317300
312.000000	4.299300
311.000000	4.309000
310.000000	4.328300
309.000000	4.323200
308.000000	4.314900
307.000000	4.336300
306.000000	4.345400
305.000000	4.347100
304.000000	4.336600
303.000000	4.338900
302.000000	4.342900
301.000000	4.342500
300.000000	4.355700
299.000000	4.353700
298.000000	4.344900
297.000000	4.342300
296.000000	4.336300
295.000000	4.325400
294.000000	4.321500
293.000000	4.347100
292.000000	4.356100
291.000000	4.349400
290.000000	4.349700
289.000000	4.370800
288.000000	4.388300
287.000000	4.389800
286.000000	4.405900
285.000000	4.411700
284.000000	4.429900
283.000000	4.423000
282.000000	4.416600
281.000000	4.406200
280.000000	4.421100
279.000000	4.449100
278.000000	4.435700
277.000000	4.437800
276.000000	4.448200
275.000000	4.484400
274.000000	4.465900
273.000000	4.476300
272.000000	4.512600
271.000000	4.496100
270.000000	4.498200
269.000000	4.504400
268.000000	4.520500
267.000000	4.568300
266.000000	4.582500
265.000000	4.574800
264.000000	4.604600
263.000000	4.638800
262.000000	4.662700
261.000000	4.711600
260.000000	4.703200
259.000000	4.725600
258.000000	4.732700
257.000000	4.752900
256.000000	4.738100
255.000000	4.766700
254.000000	4.779700
253.000000	4.796700
252.000000	4.794500
251.000000	4.834000
250.000000	4.827300
