PE UV       SUBTECH     SPECTRUM    ASCII       PEDS        4.00        
   -1
CICIMAUCR0009-3.Sample.ASC
24/04/17
14:06:27.00
24/04/17
14:06:27.00
Vinicio Soto Monge
C. kalinini
250,000000
1
Lambda 1050
1050L1511233
PerkinElmer UV WinLab 6.3.2.0749 / 2.02.05 Lambda 900 UV/VIS/NIR, Aug  7 2015 09:38:08

0
0
3350/servo 860,8/2
0
0
UV/VIS
1
1
1
DoubleDePol,CommonBeamDepol,RBeamAtt,SBeamAtt,60mm sphere, WB InGaAs Detector
0
0
0
0
Program
Program
3350/servo 860,8/2
3350/0,2 860,8/0,2
3350/0,2 860,8/0,2
0
15.00
 
 
 
0
 
860,8
319,2
860,8
Front
100
on
S:100 R:100
0
0
0
0
 
0
 
 
 
0
 
 
0
0
0
0
0
 
 
 
 
0
0


0
0
#HDR
-1
-1
#GR
nm
%R
1.0
0.0
2500,000000
-1,000000
2251
8
78,444600
4,431300
#DATA
250.000000	0.693185
251.000000	0.680990
252.000000	0.695025
253.000000	0.705364
254.000000	0.720715
255.000000	0.707444
256.000000	0.715893
257.000000	0.674115
258.000000	0.710342
259.000000	0.686376
260.000000	0.701376
261.000000	0.695674
262.000000	0.693724
263.000000	0.681229
264.000000	0.671416
265.000000	0.671214
266.000000	0.671969
267.000000	0.667300
268.000000	0.673182
269.000000	0.650911
270.000000	0.688070
271.000000	0.663333
272.000000	0.653604
273.000000	0.664167
274.000000	0.665819
275.000000	0.644712
276.000000	0.658837
277.000000	0.661240
278.000000	0.667911
279.000000	0.648322
280.000000	0.631315
281.000000	0.667261
282.000000	0.653098
283.000000	0.610879
284.000000	0.639072
285.000000	0.625601
286.000000	0.659978
287.000000	0.621407
288.000000	0.637318
289.000000	0.653819
290.000000	0.616993
291.000000	0.655249
292.000000	0.637563
293.000000	0.638747
294.000000	0.650859
295.000000	0.652208
296.000000	0.610819
297.000000	0.616196
298.000000	0.627620
299.000000	0.612135
300.000000	0.609874
301.000000	0.637912
302.000000	0.649141
303.000000	0.641095
304.000000	0.621762
305.000000	0.654792
306.000000	0.635291
307.000000	0.629318
308.000000	0.635947
309.000000	0.647211
310.000000	0.657228
311.000000	0.634615
312.000000	0.642380
313.000000	0.615493
314.000000	0.620781
315.000000	0.663581
316.000000	0.647721
317.000000	0.646072
318.000000	0.522192
319.000000	0.613565
320.000000	0.550871
321.000000	0.591471
322.000000	0.662184
323.000000	0.480595
324.000000	0.556993
325.000000	0.578675
326.000000	0.559885
327.000000	0.507677
328.000000	0.537877
329.000000	0.650105
330.000000	0.531881
331.000000	0.517164
332.000000	0.609347
333.000000	0.582983
334.000000	0.568998
335.000000	0.536158
336.000000	0.576438
337.000000	0.540160
338.000000	0.559681
339.000000	0.538731
340.000000	0.511744
341.000000	0.503529
342.000000	0.505610
343.000000	0.526092
344.000000	0.520962
345.000000	0.521271
346.000000	0.511788
347.000000	0.528584
348.000000	0.552317
349.000000	0.527320
350.000000	0.505008
351.000000	0.490021
352.000000	0.536148
353.000000	0.548948
354.000000	0.552452
355.000000	0.515713
356.000000	0.518302
357.000000	0.531449
358.000000	0.524490
359.000000	0.516491
360.000000	0.494734
361.000000	0.518432
362.000000	0.490825
363.000000	0.504303
364.000000	0.512435
365.000000	0.492584
366.000000	0.543361
367.000000	0.524506
368.000000	0.452426
369.000000	0.462547
370.000000	0.484618
371.000000	0.484268
372.000000	0.425599
373.000000	0.381233
374.000000	0.326149
375.000000	0.344194
376.000000	0.427293
377.000000	0.532938
378.000000	0.517572
379.000000	0.498294
380.000000	0.475981
381.000000	0.458843
382.000000	0.444268
383.000000	0.430137
384.000000	0.407806
385.000000	0.394064
386.000000	0.378369
387.000000	0.361937
388.000000	0.357165
389.000000	0.353615
390.000000	0.349800
391.000000	0.362446
392.000000	0.360442
393.000000	0.382413
394.000000	0.396818
395.000000	0.407065
396.000000	0.420204
397.000000	0.450212
398.000000	0.472963
399.000000	0.499169
400.000000	0.525104
401.000000	0.564730
402.000000	0.611102
403.000000	0.648949
404.000000	0.693688
405.000000	0.750102
406.000000	0.801722
407.000000	0.871704
408.000000	0.941006
409.000000	1.025541
410.000000	1.099450
411.000000	1.189117
412.000000	1.285272
413.000000	1.370184
414.000000	1.467627
415.000000	1.570211
416.000000	1.679160
417.000000	1.777442
418.000000	1.872038
419.000000	1.980856
420.000000	2.083397
421.000000	2.172091
422.000000	2.271324
423.000000	2.374005
424.000000	2.462758
425.000000	2.551898
426.000000	2.632505
427.000000	2.722273
428.000000	2.815585
429.000000	2.895893
430.000000	2.969564
431.000000	3.039990
432.000000	3.097304
433.000000	3.162828
434.000000	3.248512
435.000000	3.320314
436.000000	3.382503
437.000000	3.442334
438.000000	3.485654
439.000000	3.515369
440.000000	3.554783
441.000000	3.608472
442.000000	3.652238
443.000000	3.668252
444.000000	3.677156
445.000000	3.701879
446.000000	3.716906
447.000000	3.722523
448.000000	3.733223
449.000000	3.723505
450.000000	3.696082
451.000000	3.669850
452.000000	3.632460
453.000000	3.587576
454.000000	3.547048
455.000000	3.499372
456.000000	3.450532
457.000000	3.389664
458.000000	3.322524
459.000000	3.268748
460.000000	3.220618
461.000000	3.175507
462.000000	3.128689
463.000000	3.083723
464.000000	3.053540
465.000000	3.034439
466.000000	3.019101
467.000000	3.010466
468.000000	3.008459
469.000000	3.031171
470.000000	3.044280
471.000000	3.072222
472.000000	3.115632
473.000000	3.151971
474.000000	3.197591
475.000000	3.254781
476.000000	3.306854
477.000000	3.355726
478.000000	3.392781
479.000000	3.432427
480.000000	3.469767
481.000000	3.488378
482.000000	3.510404
483.000000	3.515723
484.000000	3.511084
485.000000	3.509341
486.000000	3.488630
487.000000	3.457427
488.000000	3.432465
489.000000	3.383154
490.000000	3.346453
491.000000	3.320893
492.000000	3.278220
493.000000	3.237905
494.000000	3.181931
495.000000	3.133607
496.000000	3.085270
497.000000	3.042334
498.000000	3.008267
499.000000	2.981509
500.000000	2.964623
501.000000	2.926751
502.000000	2.907592
503.000000	2.894957
504.000000	2.885387
505.000000	2.883551
506.000000	2.861020
507.000000	2.851901
508.000000	2.854482
509.000000	2.861018
510.000000	2.865980
511.000000	2.868437
512.000000	2.880719
513.000000	2.923488
514.000000	2.954210
515.000000	2.995465
516.000000	3.037075
517.000000	3.079091
518.000000	3.132934
519.000000	3.212423
520.000000	3.288013
521.000000	3.370105
522.000000	3.458994
523.000000	3.558696
524.000000	3.650334
525.000000	3.766152
526.000000	3.887435
527.000000	4.024606
528.000000	4.162670
529.000000	4.307908
530.000000	4.457341
531.000000	4.627843
532.000000	4.795528
533.000000	4.977642
534.000000	5.163669
535.000000	5.329469
536.000000	5.517408
537.000000	5.693189
538.000000	5.854601
539.000000	6.011423
540.000000	6.181824
541.000000	6.353022
542.000000	6.513408
543.000000	6.679223
544.000000	6.846563
545.000000	7.033171
546.000000	7.202717
547.000000	7.368787
548.000000	7.526563
549.000000	7.706517
550.000000	7.857746
551.000000	8.023723
552.000000	8.163135
553.000000	8.328647
554.000000	8.456798
555.000000	8.605329
556.000000	8.714639
557.000000	8.796776
558.000000	8.908176
559.000000	9.021129
560.000000	9.333940
561.000000	9.465142
562.000000	9.571071
563.000000	9.660782
564.000000	9.777391
565.000000	9.859301
566.000000	9.945306
567.000000	10.034888
568.000000	10.120207
569.000000	10.216235
570.000000	10.295760
571.000000	10.411069
572.000000	10.501495
573.000000	10.619661
574.000000	10.720647
575.000000	10.797304
576.000000	10.883798
577.000000	10.958626
578.000000	11.028870
579.000000	11.101923
580.000000	11.159985
581.000000	11.216422
582.000000	11.288302
583.000000	11.385165
584.000000	11.441880
585.000000	11.488013
586.000000	11.563228
587.000000	11.544690
588.000000	11.604738
589.000000	11.617485
590.000000	11.637410
591.000000	11.646898
592.000000	11.701461
593.000000	11.729869
594.000000	11.778967
595.000000	11.829921
596.000000	11.866355
597.000000	11.920231
598.000000	11.965713
599.000000	12.005969
600.000000	12.058429
601.000000	12.083384
602.000000	12.119237
603.000000	12.151867
604.000000	12.151958
605.000000	12.188220
606.000000	12.167853
607.000000	12.179701
608.000000	12.145976
609.000000	12.115638
610.000000	12.046560
611.000000	11.944822
612.000000	11.826638
613.000000	11.699274
614.000000	11.524228
615.000000	11.350117
616.000000	11.109642
617.000000	10.898776
618.000000	10.652147
619.000000	10.418457
620.000000	10.127086
621.000000	9.826734
622.000000	9.575009
623.000000	9.290524
624.000000	9.000609
625.000000	8.741514
626.000000	8.487792
627.000000	8.240826
628.000000	8.022277
629.000000	7.831714
630.000000	7.649215
631.000000	7.492852
632.000000	7.362672
633.000000	7.243668
634.000000	7.160824
635.000000	7.134680
636.000000	7.120040
637.000000	7.100945
638.000000	7.106598
639.000000	7.138493
640.000000	7.173796
641.000000	7.215262
642.000000	7.275790
643.000000	7.327396
644.000000	7.397470
645.000000	7.442420
646.000000	7.475575
647.000000	7.529218
648.000000	7.580222
649.000000	7.642843
650.000000	7.646837
651.000000	7.644362
652.000000	7.659627
653.000000	7.620297
654.000000	7.585052
655.000000	7.548427
656.000000	7.481142
657.000000	7.377945
658.000000	7.303912
659.000000	7.195893
660.000000	7.090589
661.000000	6.980073
662.000000	6.857969
663.000000	6.764212
664.000000	6.651029
665.000000	6.567077
666.000000	6.502462
667.000000	6.384875
668.000000	6.332619
669.000000	6.273741
670.000000	6.268433
671.000000	6.284023
672.000000	6.269103
673.000000	6.278436
674.000000	6.330689
675.000000	6.361200
676.000000	6.447462
677.000000	6.531367
678.000000	6.633036
679.000000	6.749377
680.000000	6.851047
681.000000	6.985431
682.000000	7.115618
683.000000	7.247330
684.000000	7.371629
685.000000	7.485224
686.000000	7.569476
687.000000	7.697500
688.000000	7.820459
689.000000	7.902033
690.000000	7.934023
691.000000	7.982220
692.000000	8.017887
693.000000	8.006151
694.000000	8.003881
695.000000	8.021206
696.000000	8.031040
697.000000	7.995004
698.000000	7.933184
699.000000	7.854881
700.000000	7.781541
701.000000	7.729569
702.000000	7.668790
703.000000	7.564171
704.000000	7.479652
705.000000	7.408388
706.000000	7.339186
707.000000	7.239452
708.000000	7.205017
709.000000	7.177700
710.000000	7.125929
711.000000	7.101218
712.000000	7.077924
713.000000	7.050843
714.000000	7.068636
715.000000	7.126198
716.000000	7.165145
717.000000	7.215083
718.000000	7.293506
719.000000	7.382460
720.000000	7.477029
721.000000	7.562881
722.000000	7.726143
723.000000	7.856362
724.000000	7.983852
725.000000	8.157326
726.000000	8.315427
727.000000	8.417201
728.000000	8.608035
729.000000	8.802405
730.000000	8.944430
731.000000	9.142989
732.000000	9.281030
733.000000	9.391519
734.000000	9.547580
735.000000	9.676096
736.000000	9.818854
737.000000	9.917659
738.000000	10.001014
739.000000	10.080582
740.000000	10.193357
741.000000	10.271996
742.000000	10.319551
743.000000	10.397857
744.000000	10.444861
745.000000	10.487670
746.000000	10.500814
747.000000	10.475672
748.000000	10.583937
749.000000	10.673360
750.000000	10.681026
751.000000	10.737206
752.000000	10.763654
753.000000	10.724542
754.000000	10.797735
755.000000	10.910143
756.000000	10.919779
757.000000	10.950781
758.000000	11.000665
759.000000	11.059900
760.000000	11.109285
761.000000	11.103094
762.000000	11.120987
763.000000	11.145324
764.000000	11.219251
765.000000	11.278352
766.000000	11.292168
767.000000	11.348736
768.000000	11.356886
769.000000	11.399510
770.000000	11.439257
771.000000	11.477394
772.000000	11.488965
773.000000	11.514922
774.000000	11.547916
775.000000	11.535800
776.000000	11.574226
777.000000	11.576343
778.000000	11.652599
779.000000	11.716754
780.000000	11.789520
781.000000	11.819094
782.000000	11.838410
783.000000	11.851798
784.000000	11.895496
785.000000	12.010274
786.000000	12.091217
787.000000	12.104094
788.000000	12.194382
789.000000	12.284145
790.000000	12.328263
791.000000	12.375052
792.000000	12.477240
793.000000	12.503968
794.000000	12.594877
795.000000	12.701294
796.000000	12.706156
797.000000	12.796167
798.000000	12.880559
799.000000	12.939040
800.000000	13.084183
801.000000	13.117306
802.000000	13.153819
803.000000	13.180705
804.000000	13.257821
805.000000	13.267643
806.000000	13.288168
807.000000	13.313994
808.000000	13.318123
809.000000	13.372177
810.000000	13.428447
811.000000	13.532895
812.000000	13.562722
813.000000	13.508939
814.000000	13.568127
815.000000	13.550312
816.000000	13.552139
817.000000	13.543919
818.000000	13.497104
819.000000	13.533652
820.000000	13.569348
821.000000	13.573975
822.000000	13.539319
823.000000	13.620484
824.000000	13.484858
825.000000	13.490092
826.000000	13.572833
827.000000	13.436370
828.000000	13.545184
829.000000	13.596801
830.000000	13.457787
831.000000	13.512068
832.000000	13.430747
833.000000	13.359862
834.000000	13.407899
835.000000	13.360737
836.000000	13.459658
837.000000	13.387709
838.000000	13.451271
839.000000	13.433556
840.000000	13.225873
841.000000	13.394539
842.000000	13.342575
843.000000	13.398719
844.000000	13.179359
845.000000	13.519851
846.000000	13.334830
847.000000	13.464654
848.000000	13.217942
849.000000	12.972237
850.000000	13.090085
851.000000	13.231981
852.000000	12.928145
853.000000	12.870600
854.000000	13.032270
855.000000	13.157271
856.000000	13.037505
857.000000	13.010377
858.000000	12.796465
859.000000	13.094887
860.000000	13.053733
861.000000	12.978804
862.000000	12.848393
863.000000	12.688754
864.000000	12.590318
865.000000	12.469173
866.000000	12.361214
867.000000	12.216008
868.000000	12.107641
869.000000	11.956789
870.000000	11.865694
871.000000	11.766588
872.000000	11.631454
873.000000	11.510225
874.000000	11.373915
875.000000	11.254445
876.000000	11.176642
877.000000	11.037982
878.000000	10.940733
879.000000	10.864484
880.000000	10.747675
881.000000	10.649316
882.000000	10.569247
883.000000	10.521860
884.000000	10.411952
885.000000	10.325731
886.000000	10.253726
887.000000	10.209774
888.000000	10.161052
889.000000	10.078400
890.000000	10.006304
891.000000	9.951709
892.000000	9.893205
893.000000	9.855042
894.000000	9.796130
895.000000	9.768716
896.000000	9.712036
897.000000	9.647940
898.000000	9.613584
899.000000	9.562324
900.000000	9.579462
901.000000	9.538805
902.000000	9.482280
903.000000	9.435575
904.000000	9.425116
905.000000	9.409319
906.000000	9.412321
907.000000	9.386092
908.000000	9.343070
909.000000	9.321053
910.000000	9.304488
911.000000	9.329770
912.000000	9.301684
913.000000	9.287623
914.000000	9.282269
915.000000	9.298054
916.000000	9.290324
917.000000	9.261512
918.000000	9.253617
919.000000	9.240493
920.000000	9.255380
921.000000	9.249924
922.000000	9.259862
923.000000	9.242833
924.000000	9.221450
925.000000	9.221059
926.000000	9.227930
927.000000	9.216925
928.000000	9.218895
929.000000	9.202501
930.000000	9.194461
931.000000	9.195857
932.000000	9.196698
933.000000	9.191234
934.000000	9.174012
935.000000	9.173273
936.000000	9.158488
937.000000	9.137117
938.000000	9.126673
939.000000	9.099496
940.000000	9.090305
941.000000	9.070882
942.000000	9.047881
943.000000	9.033785
944.000000	9.019081
945.000000	8.999643
946.000000	8.986640
947.000000	8.959153
948.000000	8.948188
949.000000	8.918856
950.000000	8.895227
951.000000	8.867814
952.000000	8.856269
953.000000	8.838130
954.000000	8.814220
955.000000	8.799562
956.000000	8.770624
957.000000	8.741146
958.000000	8.712559
959.000000	8.694578
960.000000	8.662339
961.000000	8.642276
962.000000	8.617064
963.000000	8.599058
964.000000	8.571384
965.000000	8.546366
966.000000	8.526937
967.000000	8.489179
968.000000	8.480073
969.000000	8.459962
970.000000	8.434650
971.000000	8.398028
972.000000	8.374588
973.000000	8.355587
974.000000	8.328842
975.000000	8.293268
976.000000	8.257649
977.000000	8.244280
978.000000	8.220979
979.000000	8.192049
980.000000	8.168336
981.000000	8.150044
982.000000	8.126734
983.000000	8.103784
984.000000	8.072537
985.000000	8.034504
986.000000	8.001600
987.000000	7.976856
988.000000	7.941207
989.000000	7.926529
990.000000	7.900327
991.000000	7.870475
992.000000	7.838690
993.000000	7.824941
994.000000	7.805607
995.000000	7.776650
996.000000	7.741290
997.000000	7.718879
998.000000	7.706648
999.000000	7.688004
1000.000000	7.668723
1001.000000	7.639672
1002.000000	7.626670
1003.000000	7.622957
1004.000000	7.604837
1005.000000	7.584067
1006.000000	7.566940
1007.000000	7.546247
1008.000000	7.536315
1009.000000	7.529224
1010.000000	7.509744
1011.000000	7.495527
1012.000000	7.491348
1013.000000	7.482236
1014.000000	7.483830
1015.000000	7.480911
1016.000000	7.468937
1017.000000	7.469202
1018.000000	7.480483
1019.000000	7.472144
1020.000000	7.475194
1021.000000	7.486703
1022.000000	7.492030
1023.000000	7.488735
1024.000000	7.497516
1025.000000	7.505368
1026.000000	7.494437
1027.000000	7.496423
1028.000000	7.498407
1029.000000	7.500137
1030.000000	7.512770
1031.000000	7.518242
1032.000000	7.512820
1033.000000	7.505524
1034.000000	7.519325
1035.000000	7.520248
1036.000000	7.515514
1037.000000	7.520824
1038.000000	7.521442
1039.000000	7.514448
1040.000000	7.501579
1041.000000	7.504592
1042.000000	7.521071
1043.000000	7.515980
1044.000000	7.500075
1045.000000	7.497315
1046.000000	7.498926
1047.000000	7.493171
1048.000000	7.490166
1049.000000	7.485932
1050.000000	7.482681
1051.000000	7.478118
1052.000000	7.476073
1053.000000	7.477006
1054.000000	7.487169
1055.000000	7.489287
1056.000000	7.480702
1057.000000	7.483765
1058.000000	7.493094
1059.000000	7.499084
1060.000000	7.500785
1061.000000	7.504856
1062.000000	7.512279
1063.000000	7.516736
1064.000000	7.515720
1065.000000	7.520650
1066.000000	7.520501
1067.000000	7.522192
1068.000000	7.519143
1069.000000	7.525249
1070.000000	7.528340
1071.000000	7.529236
1072.000000	7.548941
1073.000000	7.555451
1074.000000	7.556827
1075.000000	7.574548
1076.000000	7.584652
1077.000000	7.589195
1078.000000	7.603394
1079.000000	7.596232
1080.000000	7.611711
1081.000000	7.627142
1082.000000	7.630342
1083.000000	7.642413
1084.000000	7.642049
1085.000000	7.658292
1086.000000	7.667951
1087.000000	7.678016
1088.000000	7.682806
1089.000000	7.694583
1090.000000	7.702783
1091.000000	7.712063
1092.000000	7.725142
1093.000000	7.717781
1094.000000	7.736816
1095.000000	7.747710
1096.000000	7.750405
1097.000000	7.758678
1098.000000	7.762558
1099.000000	7.768637
1100.000000	7.768960
1101.000000	7.772493
1102.000000	7.768472
1103.000000	7.781372
1104.000000	7.786395
1105.000000	7.789844
1106.000000	7.787419
1107.000000	7.781773
1108.000000	7.774399
1109.000000	7.787818
1110.000000	7.774292
1111.000000	7.779666
1112.000000	7.781283
1113.000000	7.787358
1114.000000	7.773019
1115.000000	7.771484
1116.000000	7.775442
1117.000000	7.771471
1118.000000	7.766133
1119.000000	7.755877
1120.000000	7.751456
1121.000000	7.740163
1122.000000	7.733150
1123.000000	7.729845
1124.000000	7.721081
1125.000000	7.693556
1126.000000	7.673190
1127.000000	7.641539
1128.000000	7.619827
1129.000000	7.590168
1130.000000	7.560457
1131.000000	7.509802
1132.000000	7.462177
1133.000000	7.435815
1134.000000	7.370851
1135.000000	7.355854
1136.000000	7.312022
1137.000000	7.253151
1138.000000	7.224939
1139.000000	7.210482
1140.000000	7.186307
1141.000000	7.171086
1142.000000	7.176248
1143.000000	7.163315
1144.000000	7.172151
1145.000000	7.170057
1146.000000	7.181762
1147.000000	7.178602
1148.000000	7.182796
1149.000000	7.175767
1150.000000	7.172298
1151.000000	7.156087
1152.000000	7.142576
1153.000000	7.134116
1154.000000	7.132186
1155.000000	7.106959
1156.000000	7.099939
1157.000000	7.083797
1158.000000	7.071435
1159.000000	7.074357
1160.000000	7.072757
1161.000000	7.073656
1162.000000	7.068542
1163.000000	7.089433
1164.000000	7.100114
1165.000000	7.106229
1166.000000	7.127956
1167.000000	7.131296
1168.000000	7.172740
1169.000000	7.183065
1170.000000	7.214024
1171.000000	7.246391
1172.000000	7.271346
1173.000000	7.295221
1174.000000	7.319367
1175.000000	7.350098
1176.000000	7.385294
1177.000000	7.417234
1178.000000	7.458073
1179.000000	7.501044
1180.000000	7.557766
1181.000000	7.627928
1182.000000	7.684037
1183.000000	7.777320
1184.000000	7.835865
1185.000000	7.876805
1186.000000	7.890709
1187.000000	7.898411
1188.000000	7.948205
1189.000000	7.905493
1190.000000	7.850710
1191.000000	7.789591
1192.000000	7.729094
1193.000000	7.677971
1194.000000	7.627259
1195.000000	7.584576
1196.000000	7.570262
1197.000000	7.553346
1198.000000	7.536694
1199.000000	7.522900
1200.000000	7.525810
1201.000000	7.542634
1202.000000	7.566520
1203.000000	7.571927
1204.000000	7.583375
1205.000000	7.597037
1206.000000	7.599291
1207.000000	7.607680
1208.000000	7.601818
1209.000000	7.613097
1210.000000	7.617933
1211.000000	7.612119
1212.000000	7.607732
1213.000000	7.612769
1214.000000	7.581871
1215.000000	7.583832
1216.000000	7.567767
1217.000000	7.565679
1218.000000	7.554168
1219.000000	7.535001
1220.000000	7.520065
1221.000000	7.502823
1222.000000	7.489854
1223.000000	7.476584
1224.000000	7.461707
1225.000000	7.438315
1226.000000	7.409169
1227.000000	7.398416
1228.000000	7.385130
1229.000000	7.366412
1230.000000	7.357647
1231.000000	7.341692
1232.000000	7.328466
1233.000000	7.314450
1234.000000	7.298722
1235.000000	7.293196
1236.000000	7.289306
1237.000000	7.280482
1238.000000	7.267819
1239.000000	7.255110
1240.000000	7.263188
1241.000000	7.250204
1242.000000	7.243364
1243.000000	7.263066
1244.000000	7.260029
1245.000000	7.249063
1246.000000	7.253735
1247.000000	7.267819
1248.000000	7.261733
1249.000000	7.262837
1250.000000	7.279949
1251.000000	7.279221
1252.000000	7.267440
1253.000000	7.291122
1254.000000	7.287616
1255.000000	7.274387
1256.000000	7.277327
1257.000000	7.282767
1258.000000	7.270060
1259.000000	7.262556
1260.000000	7.263445
1261.000000	7.257661
1262.000000	7.262064
1263.000000	7.255243
1264.000000	7.246247
1265.000000	7.240233
1266.000000	7.235657
1267.000000	7.237119
1268.000000	7.236713
1269.000000	7.224550
1270.000000	7.216429
1271.000000	7.214197
1272.000000	7.211374
1273.000000	7.196551
1274.000000	7.189111
1275.000000	7.194457
1276.000000	7.191349
1277.000000	7.198015
1278.000000	7.196610
1279.000000	7.192289
1280.000000	7.192822
1281.000000	7.195155
1282.000000	7.202067
1283.000000	7.209127
1284.000000	7.213126
1285.000000	7.219391
1286.000000	7.219175
1287.000000	7.218165
1288.000000	7.223728
1289.000000	7.231836
1290.000000	7.239116
1291.000000	7.239779
1292.000000	7.233220
1293.000000	7.225098
1294.000000	7.224206
1295.000000	7.226108
1296.000000	7.230012
1297.000000	7.227605
1298.000000	7.227076
1299.000000	7.228763
1300.000000	7.224185
1301.000000	7.222075
1302.000000	7.219621
1303.000000	7.215432
1304.000000	7.206040
1305.000000	7.206907
1306.000000	7.203574
1307.000000	7.201125
1308.000000	7.202296
1309.000000	7.188478
1310.000000	7.177806
1311.000000	7.171130
1312.000000	7.161999
1313.000000	7.164358
1314.000000	7.161961
1315.000000	7.151790
1316.000000	7.138081
1317.000000	7.136575
1318.000000	7.140392
1319.000000	7.124745
1320.000000	7.116457
1321.000000	7.110935
1322.000000	7.102042
1323.000000	7.099819
1324.000000	7.090188
1325.000000	7.090419
1326.000000	7.090930
1327.000000	7.084420
1328.000000	7.080886
1329.000000	7.077514
1330.000000	7.071510
1331.000000	7.053983
1332.000000	7.046609
1333.000000	7.044824
1334.000000	7.037262
1335.000000	7.029304
1336.000000	7.026566
1337.000000	7.027099
1338.000000	7.021925
1339.000000	7.016315
1340.000000	7.001074
1341.000000	6.999163
1342.000000	6.987414
1343.000000	6.984653
1344.000000	6.978657
1345.000000	6.976889
1346.000000	6.993343
1347.000000	7.012078
1348.000000	7.014584
1349.000000	7.024214
1350.000000	7.037453
1351.000000	7.066530
1352.000000	7.112613
1353.000000	7.182250
1354.000000	7.259397
1355.000000	7.329187
1356.000000	7.381407
1357.000000	7.424797
1358.000000	7.444735
1359.000000	7.461395
1360.000000	7.472957
1361.000000	7.472344
1362.000000	7.468980
1363.000000	7.469259
1364.000000	7.490560
1365.000000	7.512962
1366.000000	7.526416
1367.000000	7.541892
1368.000000	7.560252
1369.000000	7.575797
1370.000000	7.614559
1371.000000	7.664008
1372.000000	7.707880
1373.000000	7.733949
1374.000000	7.774824
1375.000000	7.824475
1376.000000	7.849860
1377.000000	7.839872
1378.000000	7.858644
1379.000000	7.837769
1380.000000	7.829050
1381.000000	7.807425
1382.000000	7.782415
1383.000000	7.766007
1384.000000	7.790778
1385.000000	7.781105
1386.000000	7.805828
1387.000000	7.828098
1388.000000	7.804662
1389.000000	7.775594
1390.000000	7.789026
1391.000000	7.784972
1392.000000	7.755707
1393.000000	7.740852
1394.000000	7.726199
1395.000000	7.720396
1396.000000	7.650121
1397.000000	7.612156
1398.000000	7.625194
1399.000000	7.632204
1400.000000	7.616999
1401.000000	7.602563
1402.000000	7.573620
1403.000000	7.619710
1404.000000	7.600139
1405.000000	7.591731
1406.000000	7.581949
1407.000000	7.584035
1408.000000	7.581328
1409.000000	7.563827
1410.000000	7.502646
1411.000000	7.504483
1412.000000	7.490795
1413.000000	7.480287
1414.000000	7.436515
1415.000000	7.380657
1416.000000	7.364037
1417.000000	7.366394
1418.000000	7.355280
1419.000000	7.344907
1420.000000	7.315864
1421.000000	7.306057
1422.000000	7.296619
1423.000000	7.302186
1424.000000	7.281128
1425.000000	7.263714
1426.000000	7.277072
1427.000000	7.273367
1428.000000	7.279247
1429.000000	7.255727
1430.000000	7.262201
1431.000000	7.242889
1432.000000	7.255901
1433.000000	7.240282
1434.000000	7.239166
1435.000000	7.226256
1436.000000	7.220149
1437.000000	7.218753
1438.000000	7.215901
1439.000000	7.229729
1440.000000	7.205478
1441.000000	7.217997
1442.000000	7.218029
1443.000000	7.213430
1444.000000	7.238146
1445.000000	7.228294
1446.000000	7.232715
1447.000000	7.232808
1448.000000	7.228542
1449.000000	7.261121
1450.000000	7.255017
1451.000000	7.249022
1452.000000	7.254796
1453.000000	7.256608
1454.000000	7.246331
1455.000000	7.255632
1456.000000	7.252901
1457.000000	7.263417
1458.000000	7.264284
1459.000000	7.254501
1460.000000	7.266234
1461.000000	7.279143
1462.000000	7.262746
1463.000000	7.264623
1464.000000	7.272759
1465.000000	7.270745
1466.000000	7.269639
1467.000000	7.267158
1468.000000	7.261810
1469.000000	7.267149
1470.000000	7.263651
1471.000000	7.265306
1472.000000	7.255895
1473.000000	7.248431
1474.000000	7.266023
1475.000000	7.273065
1476.000000	7.276190
1477.000000	7.265904
1478.000000	7.272836
1479.000000	7.278938
1480.000000	7.285665
1481.000000	7.287842
1482.000000	7.284603
1483.000000	7.312453
1484.000000	7.308786
1485.000000	7.319580
1486.000000	7.324884
1487.000000	7.334423
1488.000000	7.342442
1489.000000	7.349294
1490.000000	7.360515
1491.000000	7.358198
1492.000000	7.359803
1493.000000	7.374332
1494.000000	7.373209
1495.000000	7.389116
1496.000000	7.380072
1497.000000	7.404158
1498.000000	7.425410
1499.000000	7.432778
1500.000000	7.434926
1501.000000	7.456248
1502.000000	7.463101
1503.000000	7.459736
1504.000000	7.485290
1505.000000	7.499559
1506.000000	7.516477
1507.000000	7.523547
1508.000000	7.539878
1509.000000	7.555115
1510.000000	7.567905
1511.000000	7.579367
1512.000000	7.584689
1513.000000	7.610090
1514.000000	7.614881
1515.000000	7.622124
1516.000000	7.630352
1517.000000	7.629031
1518.000000	7.634984
1519.000000	7.644766
1520.000000	7.649416
1521.000000	7.647809
1522.000000	7.653665
1523.000000	7.672379
1524.000000	7.673915
1525.000000	7.682443
1526.000000	7.688927
1527.000000	7.699322
1528.000000	7.707644
1529.000000	7.711863
1530.000000	7.719961
1531.000000	7.732909
1532.000000	7.737969
1533.000000	7.741952
1534.000000	7.749534
1535.000000	7.761272
1536.000000	7.766741
1537.000000	7.770509
1538.000000	7.767957
1539.000000	7.771180
1540.000000	7.783236
1541.000000	7.789278
1542.000000	7.798802
1543.000000	7.807424
1544.000000	7.812507
1545.000000	7.818690
1546.000000	7.831978
1547.000000	7.846759
1548.000000	7.864859
1549.000000	7.882370
1550.000000	7.882328
1551.000000	7.906107
1552.000000	7.930382
1553.000000	7.940823
1554.000000	7.948414
1555.000000	7.962879
1556.000000	7.980497
1557.000000	7.985831
1558.000000	7.981281
1559.000000	7.987263
1560.000000	7.995458
1561.000000	7.994397
1562.000000	8.004356
1563.000000	8.021907
1564.000000	8.029574
1565.000000	8.026674
1566.000000	8.023861
1567.000000	8.019548
1568.000000	8.015550
1569.000000	8.030228
1570.000000	8.037051
1571.000000	8.034955
1572.000000	8.044013
1573.000000	8.047504
1574.000000	8.049954
1575.000000	8.066788
1576.000000	8.070633
1577.000000	8.074069
1578.000000	8.078899
1579.000000	8.083653
1580.000000	8.100024
1581.000000	8.105731
1582.000000	8.113408
1583.000000	8.131134
1584.000000	8.144095
1585.000000	8.160073
1586.000000	8.174536
1587.000000	8.184986
1588.000000	8.202808
1589.000000	8.210967
1590.000000	8.215045
1591.000000	8.227124
1592.000000	8.242393
1593.000000	8.253966
1594.000000	8.261229
1595.000000	8.263751
1596.000000	8.269397
1597.000000	8.268425
1598.000000	8.287327
1599.000000	8.299252
1600.000000	8.316452
1601.000000	8.326587
1602.000000	8.336313
1603.000000	8.333902
1604.000000	8.340339
1605.000000	8.351120
1606.000000	8.360653
1607.000000	8.371497
1608.000000	8.379812
1609.000000	8.384420
1610.000000	8.390578
1611.000000	8.398447
1612.000000	8.400818
1613.000000	8.404896
1614.000000	8.399963
1615.000000	8.399534
1616.000000	8.405510
1617.000000	8.399753
1618.000000	8.406021
1619.000000	8.398801
1620.000000	8.389711
1621.000000	8.391711
1622.000000	8.392512
1623.000000	8.383763
1624.000000	8.382821
1625.000000	8.386913
1626.000000	8.379100
1627.000000	8.379257
1628.000000	8.377627
1629.000000	8.370933
1630.000000	8.372405
1631.000000	8.369651
1632.000000	8.368209
1633.000000	8.354457
1634.000000	8.349606
1635.000000	8.343613
1636.000000	8.338244
1637.000000	8.319431
1638.000000	8.308946
1639.000000	8.295664
1640.000000	8.291993
1641.000000	8.276853
1642.000000	8.268536
1643.000000	8.261023
1644.000000	8.258036
1645.000000	8.255150
1646.000000	8.249845
1647.000000	8.236243
1648.000000	8.236252
1649.000000	8.224371
1650.000000	8.218524
1651.000000	8.206865
1652.000000	8.187859
1653.000000	8.187135
1654.000000	8.169391
1655.000000	8.162139
1656.000000	8.136490
1657.000000	8.123498
1658.000000	8.106855
1659.000000	8.094882
1660.000000	8.086349
1661.000000	8.061341
1662.000000	8.041445
1663.000000	8.018896
1664.000000	7.999388
1665.000000	7.981756
1666.000000	7.967571
1667.000000	7.955283
1668.000000	7.932388
1669.000000	7.926618
1670.000000	7.905903
1671.000000	7.881360
1672.000000	7.877411
1673.000000	7.869991
1674.000000	7.864736
1675.000000	7.858667
1676.000000	7.846575
1677.000000	7.866733
1678.000000	7.880364
1679.000000	7.883613
1680.000000	7.871208
1681.000000	7.873860
1682.000000	7.855840
1683.000000	7.851873
1684.000000	7.824136
1685.000000	7.784979
1686.000000	7.771918
1687.000000	7.741163
1688.000000	7.741220
1689.000000	7.724565
1690.000000	7.720794
1691.000000	7.753014
1692.000000	7.761092
1693.000000	7.768667
1694.000000	7.779266
1695.000000	7.785120
1696.000000	7.802037
1697.000000	7.825219
1698.000000	7.821931
1699.000000	7.835705
1700.000000	7.841588
1701.000000	7.838753
1702.000000	7.859368
1703.000000	7.854809
1704.000000	7.856962
1705.000000	7.849794
1706.000000	7.853487
1707.000000	7.856370
1708.000000	7.840219
1709.000000	7.831599
1710.000000	7.819842
1711.000000	7.800988
1712.000000	7.788120
1713.000000	7.770185
1714.000000	7.750712
1715.000000	7.719883
1716.000000	7.698419
1717.000000	7.668640
1718.000000	7.618757
1719.000000	7.590127
1720.000000	7.565190
1721.000000	7.538532
1722.000000	7.511136
1723.000000	7.508165
1724.000000	7.498379
1725.000000	7.507892
1726.000000	7.505906
1727.000000	7.523759
1728.000000	7.515037
1729.000000	7.526462
1730.000000	7.535160
1731.000000	7.551137
1732.000000	7.558231
1733.000000	7.568881
1734.000000	7.595812
1735.000000	7.596026
1736.000000	7.612985
1737.000000	7.634754
1738.000000	7.638403
1739.000000	7.661857
1740.000000	7.654826
1741.000000	7.672104
1742.000000	7.691708
1743.000000	7.686760
1744.000000	7.686327
1745.000000	7.685794
1746.000000	7.686988
1747.000000	7.692607
1748.000000	7.692188
1749.000000	7.693252
1750.000000	7.699580
1751.000000	7.703747
1752.000000	7.704716
1753.000000	7.689210
1754.000000	7.690277
1755.000000	7.694042
1756.000000	7.690983
1757.000000	7.694365
1758.000000	7.701970
1759.000000	7.693148
1760.000000	7.695467
1761.000000	7.699077
1762.000000	7.707598
1763.000000	7.715198
1764.000000	7.727972
1765.000000	7.726681
1766.000000	7.737529
1767.000000	7.737567
1768.000000	7.744402
1769.000000	7.736447
1770.000000	7.741232
1771.000000	7.738549
1772.000000	7.738147
1773.000000	7.739258
1774.000000	7.727835
1775.000000	7.725496
1776.000000	7.716146
1777.000000	7.719910
1778.000000	7.723342
1779.000000	7.710128
1780.000000	7.719397
1781.000000	7.711467
1782.000000	7.709425
1783.000000	7.701391
1784.000000	7.694401
1785.000000	7.685062
1786.000000	7.675797
1787.000000	7.667456
1788.000000	7.655751
1789.000000	7.652653
1790.000000	7.641192
1791.000000	7.637261
1792.000000	7.640151
1793.000000	7.633419
1794.000000	7.623678
1795.000000	7.620533
1796.000000	7.622744
1797.000000	7.628851
1798.000000	7.625395
1799.000000	7.628218
1800.000000	7.629255
1801.000000	7.625720
1802.000000	7.612814
1803.000000	7.604679
1804.000000	7.608677
1805.000000	7.616824
1806.000000	7.611268
1807.000000	7.588135
1808.000000	7.586558
1809.000000	7.599871
1810.000000	7.611940
1811.000000	7.612571
1812.000000	7.601432
1813.000000	7.598544
1814.000000	7.598651
1815.000000	7.599196
1816.000000	7.604112
1817.000000	7.607489
1818.000000	7.620620
1819.000000	7.635954
1820.000000	7.630867
1821.000000	7.615104
1822.000000	7.583568
1823.000000	7.574512
1824.000000	7.586545
1825.000000	7.584369
1826.000000	7.582219
1827.000000	7.579924
1828.000000	7.583612
1829.000000	7.573173
1830.000000	7.558116
1831.000000	7.540746
1832.000000	7.527199
1833.000000	7.534175
1834.000000	7.551954
1835.000000	7.551196
1836.000000	7.535374
1837.000000	7.524215
1838.000000	7.515640
1839.000000	7.512123
1840.000000	7.502768
1841.000000	7.483858
1842.000000	7.457511
1843.000000	7.436431
1844.000000	7.452842
1845.000000	7.489070
1846.000000	7.508867
1847.000000	7.491678
1848.000000	7.444952
1849.000000	7.389875
1850.000000	7.375433
1851.000000	7.383405
1852.000000	7.369486
1853.000000	7.355490
1854.000000	7.340308
1855.000000	7.312049
1856.000000	7.283341
1857.000000	7.275525
1858.000000	7.262491
1859.000000	7.237420
1860.000000	7.202812
1861.000000	7.171627
1862.000000	7.143505
1863.000000	7.126251
1864.000000	7.126418
1865.000000	7.132679
1866.000000	7.133830
1867.000000	7.135369
1868.000000	7.131925
1869.000000	7.118705
1870.000000	7.098752
1871.000000	7.059391
1872.000000	7.026663
1873.000000	6.999718
1874.000000	6.965195
1875.000000	6.938275
1876.000000	6.907138
1877.000000	6.877997
1878.000000	6.861023
1879.000000	6.835598
1880.000000	6.825427
1881.000000	6.811368
1882.000000	6.792091
1883.000000	6.740362
1884.000000	6.683962
1885.000000	6.630165
1886.000000	6.571136
1887.000000	6.517787
1888.000000	6.463139
1889.000000	6.397920
1890.000000	6.325101
1891.000000	6.248917
1892.000000	6.141601
1893.000000	6.047581
1894.000000	5.971680
1895.000000	5.922213
1896.000000	5.878944
1897.000000	5.813194
1898.000000	5.721672
1899.000000	5.637909
1900.000000	5.538862
1901.000000	5.455814
1902.000000	5.386458
1903.000000	5.322137
1904.000000	5.245649
1905.000000	5.145755
1906.000000	5.048290
1907.000000	4.967948
1908.000000	4.914146
1909.000000	4.871260
1910.000000	4.837339
1911.000000	4.774406
1912.000000	4.719740
1913.000000	4.644626
1914.000000	4.570885
1915.000000	4.502310
1916.000000	4.466028
1917.000000	4.437506
1918.000000	4.398760
1919.000000	4.359151
1920.000000	4.312479
1921.000000	4.262784
1922.000000	4.217828
1923.000000	4.172346
1924.000000	4.162424
1925.000000	4.140741
1926.000000	4.102527
1927.000000	4.077505
1928.000000	4.050290
1929.000000	4.027210
1930.000000	4.002741
1931.000000	3.995259
1932.000000	3.970782
1933.000000	3.962218
1934.000000	3.953099
1935.000000	3.955933
1936.000000	3.947532
1937.000000	3.949303
1938.000000	3.956535
1939.000000	3.953343
1940.000000	3.950686
1941.000000	3.972036
1942.000000	3.982219
1943.000000	3.990214
1944.000000	3.996892
1945.000000	4.011637
1946.000000	4.010653
1947.000000	4.030689
1948.000000	4.052211
1949.000000	4.064032
1950.000000	4.079462
1951.000000	4.094724
1952.000000	4.123696
1953.000000	4.135517
1954.000000	4.171160
1955.000000	4.190511
1956.000000	4.209021
1957.000000	4.214903
1958.000000	4.249872
1959.000000	4.268513
1960.000000	4.287991
1961.000000	4.315574
1962.000000	4.314497
1963.000000	4.337040
1964.000000	4.368873
1965.000000	4.374899
1966.000000	4.388891
1967.000000	4.416157
1968.000000	4.448860
1969.000000	4.460209
1970.000000	4.474620
1971.000000	4.487921
1972.000000	4.536815
1973.000000	4.534906
1974.000000	4.547732
1975.000000	4.574899
1976.000000	4.611214
1977.000000	4.623206
1978.000000	4.642494
1979.000000	4.669058
1980.000000	4.684526
1981.000000	4.700838
1982.000000	4.723885
1983.000000	4.737411
1984.000000	4.761638
1985.000000	4.785727
1986.000000	4.795073
1987.000000	4.818193
1988.000000	4.848695
1989.000000	4.863490
1990.000000	4.879517
1991.000000	4.891214
1992.000000	4.929360
1993.000000	4.941205
1994.000000	4.963614
1995.000000	4.959827
1996.000000	4.981845
1997.000000	5.000161
1998.000000	5.014171
1999.000000	5.035760
2000.000000	5.033967
2001.000000	5.041575
2002.000000	5.057902
2003.000000	5.054890
2004.000000	5.080924
2005.000000	5.084777
2006.000000	5.089479
2007.000000	5.076775
2008.000000	5.099183
2009.000000	5.100558
2010.000000	5.094486
2011.000000	5.104357
2012.000000	5.111419
2013.000000	5.105239
2014.000000	5.102947
2015.000000	5.079286
2016.000000	5.087932
2017.000000	5.095158
2018.000000	5.072429
2019.000000	5.074163
2020.000000	5.060770
2021.000000	5.051130
2022.000000	5.050437
2023.000000	5.037921
2024.000000	5.029340
2025.000000	4.989052
2026.000000	4.977773
2027.000000	4.968798
2028.000000	4.946002
2029.000000	4.930178
2030.000000	4.900417
2031.000000	4.883481
2032.000000	4.869745
2033.000000	4.843938
2034.000000	4.811735
2035.000000	4.773872
2036.000000	4.738733
2037.000000	4.711132
2038.000000	4.681731
2039.000000	4.654637
2040.000000	4.620196
2041.000000	4.575728
2042.000000	4.539669
2043.000000	4.499937
2044.000000	4.464281
2045.000000	4.407628
2046.000000	4.375053
2047.000000	4.336669
2048.000000	4.296451
2049.000000	4.281913
2050.000000	4.259122
2051.000000	4.238525
2052.000000	4.221175
2053.000000	4.207072
2054.000000	4.212958
2055.000000	4.196323
2056.000000	4.181861
2057.000000	4.207823
2058.000000	4.218198
2059.000000	4.224291
2060.000000	4.236346
2061.000000	4.252120
2062.000000	4.275061
2063.000000	4.294962
2064.000000	4.323362
2065.000000	4.351622
2066.000000	4.384967
2067.000000	4.404053
2068.000000	4.419293
2069.000000	4.441546
2070.000000	4.468217
2071.000000	4.500500
2072.000000	4.516289
2073.000000	4.535063
2074.000000	4.561447
2075.000000	4.588386
2076.000000	4.603632
2077.000000	4.635971
2078.000000	4.639623
2079.000000	4.638040
2080.000000	4.656283
2081.000000	4.672940
2082.000000	4.696460
2083.000000	4.712273
2084.000000	4.715704
2085.000000	4.709332
2086.000000	4.716419
2087.000000	4.726309
2088.000000	4.720767
2089.000000	4.730104
2090.000000	4.743952
2091.000000	4.738897
2092.000000	4.731304
2093.000000	4.736081
2094.000000	4.731475
2095.000000	4.740953
2096.000000	4.751601
2097.000000	4.740376
2098.000000	4.740827
2099.000000	4.749179
2100.000000	4.753579
2101.000000	4.758516
2102.000000	4.758534
2103.000000	4.767898
2104.000000	4.766409
2105.000000	4.771519
2106.000000	4.781529
2107.000000	4.784688
2108.000000	4.792044
2109.000000	4.785259
2110.000000	4.788682
2111.000000	4.802604
2112.000000	4.802758
2113.000000	4.800039
2114.000000	4.799149
2115.000000	4.804472
2116.000000	4.809797
2117.000000	4.798004
2118.000000	4.803832
2119.000000	4.800528
2120.000000	4.790307
2121.000000	4.786656
2122.000000	4.789289
2123.000000	4.786015
2124.000000	4.769347
2125.000000	4.761506
2126.000000	4.751700
2127.000000	4.741441
2128.000000	4.730353
2129.000000	4.711762
2130.000000	4.699895
2131.000000	4.685157
2132.000000	4.670619
2133.000000	4.653680
2134.000000	4.630874
2135.000000	4.618390
2136.000000	4.590862
2137.000000	4.572957
2138.000000	4.547983
2139.000000	4.528658
2140.000000	4.499766
2141.000000	4.473767
2142.000000	4.445446
2143.000000	4.424090
2144.000000	4.400271
2145.000000	4.373339
2146.000000	4.349185
2147.000000	4.333339
2148.000000	4.302044
2149.000000	4.277602
2150.000000	4.254430
2151.000000	4.222541
2152.000000	4.208216
2153.000000	4.191268
2154.000000	4.159864
2155.000000	4.141289
2156.000000	4.119569
2157.000000	4.107616
2158.000000	4.079680
2159.000000	4.057279
2160.000000	4.045899
2161.000000	4.041323
2162.000000	4.023268
2163.000000	4.010025
2164.000000	4.001931
2165.000000	3.997345
2166.000000	3.992489
2167.000000	3.990482
2168.000000	3.984202
2169.000000	3.983286
2170.000000	3.963359
2171.000000	3.971004
2172.000000	3.979234
2173.000000	3.975460
2174.000000	3.969530
2175.000000	3.969659
2176.000000	3.955803
2177.000000	3.969872
2178.000000	3.988996
2179.000000	3.991825
2180.000000	3.996845
2181.000000	4.000665
2182.000000	4.003502
2183.000000	4.023499
2184.000000	4.014943
2185.000000	4.024340
2186.000000	4.030634
2187.000000	4.035940
2188.000000	4.035721
2189.000000	4.046518
2190.000000	4.047740
2191.000000	4.054695
2192.000000	4.065836
2193.000000	4.072397
2194.000000	4.072993
2195.000000	4.085199
2196.000000	4.082885
2197.000000	4.090232
2198.000000	4.104427
2199.000000	4.122735
2200.000000	4.139410
2201.000000	4.145570
2202.000000	4.140048
2203.000000	4.155998
2204.000000	4.168445
2205.000000	4.186156
2206.000000	4.186695
2207.000000	4.202399
2208.000000	4.219797
2209.000000	4.241395
2210.000000	4.246836
2211.000000	4.268429
2212.000000	4.285057
2213.000000	4.306411
2214.000000	4.332689
2215.000000	4.355543
2216.000000	4.360876
2217.000000	4.377546
2218.000000	4.413612
2219.000000	4.434182
2220.000000	4.479429
2221.000000	4.474579
2222.000000	4.496283
2223.000000	4.527242
2224.000000	4.539887
2225.000000	4.547091
2226.000000	4.564781
2227.000000	4.594662
2228.000000	4.595559
2229.000000	4.595138
2230.000000	4.612600
2231.000000	4.626527
2232.000000	4.608533
2233.000000	4.607524
2234.000000	4.595721
2235.000000	4.615222
2236.000000	4.594859
2237.000000	4.576654
2238.000000	4.582875
2239.000000	4.550658
2240.000000	4.531794
2241.000000	4.498709
2242.000000	4.478749
2243.000000	4.462593
2244.000000	4.398396
2245.000000	4.360390
2246.000000	4.332317
2247.000000	4.265550
2248.000000	4.217498
2249.000000	4.150422
2250.000000	4.093801
2251.000000	4.022293
2252.000000	3.955602
2253.000000	3.871563
2254.000000	3.781637
2255.000000	3.684240
2256.000000	3.584445
2257.000000	3.506354
2258.000000	3.413468
2259.000000	3.322302
2260.000000	3.216998
2261.000000	3.142031
2262.000000	3.058034
2263.000000	2.975179
2264.000000	2.913379
2265.000000	2.834439
2266.000000	2.801609
2267.000000	2.753201
2268.000000	2.740645
2269.000000	2.693284
2270.000000	2.685092
2271.000000	2.648662
2272.000000	2.661456
2273.000000	2.660544
2274.000000	2.667616
2275.000000	2.681991
2276.000000	2.686796
2277.000000	2.702805
2278.000000	2.725702
2279.000000	2.738653
2280.000000	2.765712
2281.000000	2.784480
2282.000000	2.794748
2283.000000	2.803340
2284.000000	2.830916
2285.000000	2.839870
2286.000000	2.843426
2287.000000	2.859483
2288.000000	2.844943
2289.000000	2.850568
2290.000000	2.836316
2291.000000	2.831008
2292.000000	2.809567
2293.000000	2.784220
2294.000000	2.756356
2295.000000	2.720609
2296.000000	2.688882
2297.000000	2.645591
2298.000000	2.609925
2299.000000	2.558878
2300.000000	2.538155
2301.000000	2.496558
2302.000000	2.448905
2303.000000	2.429563
2304.000000	2.409504
2305.000000	2.401379
2306.000000	2.404845
2307.000000	2.405692
2308.000000	2.406417
2309.000000	2.427743
2310.000000	2.474337
2311.000000	2.503930
2312.000000	2.545057
2313.000000	2.583509
2314.000000	2.625339
2315.000000	2.683733
2316.000000	2.737988
2317.000000	2.787350
2318.000000	2.844249
2319.000000	2.894741
2320.000000	2.933368
2321.000000	2.977563
2322.000000	3.013109
2323.000000	3.056743
2324.000000	3.099270
2325.000000	3.136440
2326.000000	3.164422
2327.000000	3.188647
2328.000000	3.215635
2329.000000	3.231558
2330.000000	3.246065
2331.000000	3.256909
2332.000000	3.277495
2333.000000	3.297194
2334.000000	3.304697
2335.000000	3.300978
2336.000000	3.302750
2337.000000	3.309409
2338.000000	3.309671
2339.000000	3.298445
2340.000000	3.285546
2341.000000	3.271752
2342.000000	3.267242
2343.000000	3.252722
2344.000000	3.235496
2345.000000	3.220581
2346.000000	3.208490
2347.000000	3.195368
2348.000000	3.183473
2349.000000	3.171602
2350.000000	3.161352
2351.000000	3.151921
2352.000000	3.150648
2353.000000	3.160947
2354.000000	3.161137
2355.000000	3.162198
2356.000000	3.181441
2357.000000	3.209443
2358.000000	3.229724
2359.000000	3.244445
2360.000000	3.269953
2361.000000	3.295933
2362.000000	3.314867
2363.000000	3.336689
2364.000000	3.365717
2365.000000	3.377438
2366.000000	3.396941
2367.000000	3.418441
2368.000000	3.437247
2369.000000	3.458559
2370.000000	3.476505
2371.000000	3.486177
2372.000000	3.491404
2373.000000	3.501647
2374.000000	3.516635
2375.000000	3.532983
2376.000000	3.546337
2377.000000	3.545767
2378.000000	3.547578
2379.000000	3.565251
2380.000000	3.561433
2381.000000	3.565883
2382.000000	3.583918
2383.000000	3.589465
2384.000000	3.591589
2385.000000	3.587743
2386.000000	3.584355
2387.000000	3.578952
2388.000000	3.575139
2389.000000	3.574765
2390.000000	3.567276
2391.000000	3.565202
2392.000000	3.567509
2393.000000	3.559387
2394.000000	3.543801
2395.000000	3.528758
2396.000000	3.534163
2397.000000	3.521158
2398.000000	3.503992
2399.000000	3.500839
2400.000000	3.493697
2401.000000	3.471264
2402.000000	3.460633
2403.000000	3.459572
2404.000000	3.454757
2405.000000	3.437299
2406.000000	3.428627
2407.000000	3.418133
2408.000000	3.395501
2409.000000	3.383408
2410.000000	3.373866
2411.000000	3.369432
2412.000000	3.359367
2413.000000	3.343284
2414.000000	3.314064
2415.000000	3.296803
2416.000000	3.287861
2417.000000	3.276840
2418.000000	3.260014
2419.000000	3.246554
2420.000000	3.222712
2421.000000	3.201775
2422.000000	3.169706
2423.000000	3.136089
2424.000000	3.112504
2425.000000	3.090884
2426.000000	3.071436
2427.000000	3.045071
2428.000000	3.020504
2429.000000	2.995721
2430.000000	2.976114
2431.000000	2.952869
2432.000000	2.926646
2433.000000	2.915620
2434.000000	2.885886
2435.000000	2.856105
2436.000000	2.817711
2437.000000	2.797003
2438.000000	2.772467
2439.000000	2.740452
2440.000000	2.704261
2441.000000	2.672562
2442.000000	2.644400
2443.000000	2.605706
2444.000000	2.564469
2445.000000	2.532157
2446.000000	2.510654
2447.000000	2.462954
2448.000000	2.429962
2449.000000	2.404834
2450.000000	2.368777
2451.000000	2.344493
2452.000000	2.297155
2453.000000	2.273985
2454.000000	2.247706
2455.000000	2.209912
2456.000000	2.173745
2457.000000	2.144779
2458.000000	2.112055
2459.000000	2.097452
2460.000000	2.053213
2461.000000	2.056242
2462.000000	2.026991
2463.000000	2.005431
2464.000000	2.002275
2465.000000	1.982468
2466.000000	1.956926
2467.000000	1.957559
2468.000000	1.941945
2469.000000	1.911438
2470.000000	1.953377
2471.000000	1.920319
2472.000000	1.944520
2473.000000	1.927088
2474.000000	1.927780
2475.000000	1.911922
2476.000000	1.915177
2477.000000	1.920314
2478.000000	1.883422
2479.000000	1.892668
2480.000000	1.901082
2481.000000	1.861175
2482.000000	1.883832
2483.000000	1.893729
2484.000000	1.866806
2485.000000	1.886114
2486.000000	1.882903
2487.000000	1.871311
2488.000000	1.907443
2489.000000	1.847271
2490.000000	1.849814
2491.000000	1.912400
2492.000000	1.901231
2493.000000	1.915794
2494.000000	1.830600
2495.000000	1.953948
2496.000000	1.963852
2497.000000	1.881245
2498.000000	1.929365
2499.000000	1.949006
2500.000000	1.879315
