PE UV       SUBTECH     SPECTRUM    ASCII       PEDS        4.00        
   -1
CICIMAUCR0014-5.Sample.ASC
24/04/23
11:16:56.00
24/04/23
11:16:56.00
Vinicio Soto Monge
C. cupreomarginata
250,000000
1
Lambda 1050
1050L1511233
PerkinElmer UV WinLab 6.3.2.0749 / 2.02.05 Lambda 900 UV/VIS/NIR, Aug  7 2015 09:38:08

0
0
3350/servo 860,8/2
0
0
UV/VIS
1
1
1
DoubleDePol,CommonBeamDepol,RBeamAtt,SBeamAtt,60mm sphere, WB InGaAs Detector
0
0
0
0
Program
Program
3350/servo 860,8/2
3350/0,2 860,8/0,2
3350/0,2 860,8/0,2
0
15.00
 
 
 
0
 
860,8
319,2
860,8
Front
100
on
S:100 R:100
0
0
0
0
 
0
 
 
 
0
 
 
0
0
0
0
0
 
 
 
 
0
0


0
0
#HDR
-1
-1
#GR
nm
%R
1.0
0.0
2500,000000
-1,000000
2251
8
75,082300
5,658100
#DATA
250.000000	1.256119
251.000000	1.250320
252.000000	1.254341
253.000000	1.224913
254.000000	1.231465
255.000000	1.213183
256.000000	1.193058
257.000000	1.196972
258.000000	1.183342
259.000000	1.169525
260.000000	1.172461
261.000000	1.180997
262.000000	1.162639
263.000000	1.150343
264.000000	1.136936
265.000000	1.139298
266.000000	1.138868
267.000000	1.130703
268.000000	1.116093
269.000000	1.124420
270.000000	1.120080
271.000000	1.113542
272.000000	1.083286
273.000000	1.095706
274.000000	1.111056
275.000000	1.071141
276.000000	1.073368
277.000000	1.088615
278.000000	1.072957
279.000000	1.100534
280.000000	1.065705
281.000000	1.075166
282.000000	1.075118
283.000000	1.065763
284.000000	1.065408
285.000000	1.059487
286.000000	1.084831
287.000000	1.055920
288.000000	1.064554
289.000000	1.033366
290.000000	1.054805
291.000000	1.052606
292.000000	1.070922
293.000000	1.045895
294.000000	1.038864
295.000000	1.037155
296.000000	1.036605
297.000000	1.006118
298.000000	1.043081
299.000000	1.013204
300.000000	1.021841
301.000000	1.009653
302.000000	1.015356
303.000000	1.017389
304.000000	1.029501
305.000000	1.006645
306.000000	1.005816
307.000000	1.004143
308.000000	1.005966
309.000000	1.004105
310.000000	0.986698
311.000000	0.985140
312.000000	0.988715
313.000000	0.967571
314.000000	0.978563
315.000000	0.978501
316.000000	0.984766
317.000000	0.945423
318.000000	0.937770
319.000000	0.865112
320.000000	0.918984
321.000000	0.984323
322.000000	0.827513
323.000000	0.864156
324.000000	0.909413
325.000000	0.847403
326.000000	0.881061
327.000000	0.912632
328.000000	0.860538
329.000000	0.870494
330.000000	0.885156
331.000000	0.916677
332.000000	0.898946
333.000000	0.868117
334.000000	0.866508
335.000000	0.888887
336.000000	0.862613
337.000000	0.852734
338.000000	0.876529
339.000000	0.827266
340.000000	0.830489
341.000000	0.863556
342.000000	0.832026
343.000000	0.811786
344.000000	0.860661
345.000000	0.852376
346.000000	0.854452
347.000000	0.851201
348.000000	0.833486
349.000000	0.847517
350.000000	0.838825
351.000000	0.850954
352.000000	0.821766
353.000000	0.816175
354.000000	0.839671
355.000000	0.821171
356.000000	0.812894
357.000000	0.828789
358.000000	0.848926
359.000000	0.861499
360.000000	0.846577
361.000000	0.827522
362.000000	0.806693
363.000000	0.799696
364.000000	0.796857
365.000000	0.807206
366.000000	0.798831
367.000000	0.771562
368.000000	0.778791
369.000000	0.772349
370.000000	0.767595
371.000000	0.776543
372.000000	0.764958
373.000000	0.738364
374.000000	0.747408
375.000000	0.736309
376.000000	0.688613
377.000000	0.751468
378.000000	0.745462
379.000000	0.735417
380.000000	0.719223
381.000000	0.704964
382.000000	0.696827
383.000000	0.683099
384.000000	0.662904
385.000000	0.648908
386.000000	0.637411
387.000000	0.624532
388.000000	0.610246
389.000000	0.592557
390.000000	0.580534
391.000000	0.570045
392.000000	0.562538
393.000000	0.556574
394.000000	0.547353
395.000000	0.548990
396.000000	0.550204
397.000000	0.557656
398.000000	0.566393
399.000000	0.577659
400.000000	0.587712
401.000000	0.604347
402.000000	0.625921
403.000000	0.650214
404.000000	0.678386
405.000000	0.704849
406.000000	0.731486
407.000000	0.773773
408.000000	0.820430
409.000000	0.857052
410.000000	0.904089
411.000000	0.953774
412.000000	1.002465
413.000000	1.061902
414.000000	1.120500
415.000000	1.181776
416.000000	1.245094
417.000000	1.309446
418.000000	1.378697
419.000000	1.448056
420.000000	1.519587
421.000000	1.598450
422.000000	1.674929
423.000000	1.751119
424.000000	1.830556
425.000000	1.909140
426.000000	1.992261
427.000000	2.075457
428.000000	2.162576
429.000000	2.249237
430.000000	2.332066
431.000000	2.417245
432.000000	2.504932
433.000000	2.592545
434.000000	2.682904
435.000000	2.770808
436.000000	2.853149
437.000000	2.942819
438.000000	3.030252
439.000000	3.114009
440.000000	3.193686
441.000000	3.273531
442.000000	3.353393
443.000000	3.428498
444.000000	3.504008
445.000000	3.577946
446.000000	3.651200
447.000000	3.727376
448.000000	3.800740
449.000000	3.866318
450.000000	3.932830
451.000000	3.995524
452.000000	4.047721
453.000000	4.104140
454.000000	4.162702
455.000000	4.210500
456.000000	4.254338
457.000000	4.299076
458.000000	4.341197
459.000000	4.381142
460.000000	4.411293
461.000000	4.435846
462.000000	4.464128
463.000000	4.486943
464.000000	4.497159
465.000000	4.509045
466.000000	4.515761
467.000000	4.519249
468.000000	4.527637
469.000000	4.526407
470.000000	4.514094
471.000000	4.504967
472.000000	4.497568
473.000000	4.478046
474.000000	4.458222
475.000000	4.435340
476.000000	4.417936
477.000000	4.397610
478.000000	4.370055
479.000000	4.346397
480.000000	4.321987
481.000000	4.283297
482.000000	4.246940
483.000000	4.218192
484.000000	4.199080
485.000000	4.186964
486.000000	4.180669
487.000000	4.188621
488.000000	4.199347
489.000000	4.213711
490.000000	4.236998
491.000000	4.270074
492.000000	4.308391
493.000000	4.355438
494.000000	4.408630
495.000000	4.466385
496.000000	4.533244
497.000000	4.603822
498.000000	4.673365
499.000000	4.747522
500.000000	4.825334
501.000000	4.906661
502.000000	4.991262
503.000000	5.078471
504.000000	5.175325
505.000000	5.265611
506.000000	5.364684
507.000000	5.460849
508.000000	5.546541
509.000000	5.647865
510.000000	5.745650
511.000000	5.846991
512.000000	5.952383
513.000000	6.062539
514.000000	6.183233
515.000000	6.314863
516.000000	6.444252
517.000000	6.560604
518.000000	6.692860
519.000000	6.833394
520.000000	6.968268
521.000000	7.121004
522.000000	7.283874
523.000000	7.444818
524.000000	7.619955
525.000000	7.800799
526.000000	7.988173
527.000000	8.186965
528.000000	8.382759
529.000000	8.611762
530.000000	8.840211
531.000000	9.093731
532.000000	9.367308
533.000000	9.648985
534.000000	9.928259
535.000000	10.212888
536.000000	10.517396
537.000000	10.822986
538.000000	11.122480
539.000000	11.429344
540.000000	11.741933
541.000000	12.058451
542.000000	12.353872
543.000000	12.652256
544.000000	12.965101
545.000000	13.251956
546.000000	13.534230
547.000000	13.801467
548.000000	14.056722
549.000000	14.297923
550.000000	14.535964
551.000000	14.747402
552.000000	14.944068
553.000000	15.121407
554.000000	15.289574
555.000000	15.430147
556.000000	15.575364
557.000000	15.712860
558.000000	15.829724
559.000000	15.969991
560.000000	16.304575
561.000000	16.422117
562.000000	16.529380
563.000000	16.641448
564.000000	16.740855
565.000000	16.835249
566.000000	16.938360
567.000000	17.026375
568.000000	17.114867
569.000000	17.212961
570.000000	17.280117
571.000000	17.343445
572.000000	17.391132
573.000000	17.449042
574.000000	17.499907
575.000000	17.530463
576.000000	17.570405
577.000000	17.598022
578.000000	17.621675
579.000000	17.660816
580.000000	17.696327
581.000000	17.718066
582.000000	17.749683
583.000000	17.792375
584.000000	17.828036
585.000000	17.853652
586.000000	17.883067
587.000000	17.886319
588.000000	17.886707
589.000000	17.888838
590.000000	17.874733
591.000000	17.873574
592.000000	17.851077
593.000000	17.820431
594.000000	17.795797
595.000000	17.739853
596.000000	17.690045
597.000000	17.641861
598.000000	17.607562
599.000000	17.550853
600.000000	17.481869
601.000000	17.413231
602.000000	17.349052
603.000000	17.270562
604.000000	17.188191
605.000000	17.101398
606.000000	17.026515
607.000000	16.933518
608.000000	16.843267
609.000000	16.741713
610.000000	16.627661
611.000000	16.516052
612.000000	16.391047
613.000000	16.252686
614.000000	16.116690
615.000000	15.975854
616.000000	15.816590
617.000000	15.671278
618.000000	15.492813
619.000000	15.301219
620.000000	15.120131
621.000000	14.922786
622.000000	14.736325
623.000000	14.531539
624.000000	14.296566
625.000000	14.082293
626.000000	13.881400
627.000000	13.656349
628.000000	13.432243
629.000000	13.196425
630.000000	12.966497
631.000000	12.709372
632.000000	12.449181
633.000000	12.197179
634.000000	11.930911
635.000000	11.680401
636.000000	11.392681
637.000000	11.132108
638.000000	10.859665
639.000000	10.594349
640.000000	10.330454
641.000000	10.067938
642.000000	9.825867
643.000000	9.594358
644.000000	9.382296
645.000000	9.182555
646.000000	9.014627
647.000000	8.881938
648.000000	8.762590
649.000000	8.665306
650.000000	8.603788
651.000000	8.561316
652.000000	8.549657
653.000000	8.537248
654.000000	8.538051
655.000000	8.556736
656.000000	8.592641
657.000000	8.643394
658.000000	8.677184
659.000000	8.735981
660.000000	8.792125
661.000000	8.844032
662.000000	8.908868
663.000000	8.938269
664.000000	8.991443
665.000000	9.031616
666.000000	9.082722
667.000000	9.134185
668.000000	9.166358
669.000000	9.211631
670.000000	9.254985
671.000000	9.313710
672.000000	9.356350
673.000000	9.389034
674.000000	9.439034
675.000000	9.476170
676.000000	9.507108
677.000000	9.564596
678.000000	9.594078
679.000000	9.633930
680.000000	9.644782
681.000000	9.672290
682.000000	9.678717
683.000000	9.688234
684.000000	9.689969
685.000000	9.686419
686.000000	9.670215
687.000000	9.648039
688.000000	9.626333
689.000000	9.617901
690.000000	9.600138
691.000000	9.562702
692.000000	9.515048
693.000000	9.490207
694.000000	9.470332
695.000000	9.450395
696.000000	9.430771
697.000000	9.422156
698.000000	9.420537
699.000000	9.416709
700.000000	9.404577
701.000000	9.408726
702.000000	9.430587
703.000000	9.447899
704.000000	9.452673
705.000000	9.449480
706.000000	9.481864
707.000000	9.492428
708.000000	9.493252
709.000000	9.531793
710.000000	9.536212
711.000000	9.559299
712.000000	9.571424
713.000000	9.589125
714.000000	9.617154
715.000000	9.644133
716.000000	9.678567
717.000000	9.709575
718.000000	9.731993
719.000000	9.763420
720.000000	9.789328
721.000000	9.838404
722.000000	9.896251
723.000000	9.936765
724.000000	9.990034
725.000000	10.014341
726.000000	10.047555
727.000000	10.120860
728.000000	10.185516
729.000000	10.215528
730.000000	10.239391
731.000000	10.297677
732.000000	10.364227
733.000000	10.431160
734.000000	10.457463
735.000000	10.496894
736.000000	10.535884
737.000000	10.553721
738.000000	10.604660
739.000000	10.666114
740.000000	10.693007
741.000000	10.706118
742.000000	10.737780
743.000000	10.760252
744.000000	10.783302
745.000000	10.790855
746.000000	10.816469
747.000000	10.839702
748.000000	10.833504
749.000000	10.866147
750.000000	10.906938
751.000000	10.924776
752.000000	10.947572
753.000000	10.955910
754.000000	10.970971
755.000000	11.001811
756.000000	11.029300
757.000000	11.059754
758.000000	11.076418
759.000000	11.101949
760.000000	11.120859
761.000000	11.121093
762.000000	11.145123
763.000000	11.179899
764.000000	11.194614
765.000000	11.195323
766.000000	11.207479
767.000000	11.207963
768.000000	11.210413
769.000000	11.235441
770.000000	11.226615
771.000000	11.246090
772.000000	11.257918
773.000000	11.283120
774.000000	11.299126
775.000000	11.300602
776.000000	11.322436
777.000000	11.328032
778.000000	11.317722
779.000000	11.333042
780.000000	11.336911
781.000000	11.315966
782.000000	11.335741
783.000000	11.344377
784.000000	11.352381
785.000000	11.359594
786.000000	11.358083
787.000000	11.360466
788.000000	11.410888
789.000000	11.412315
790.000000	11.411280
791.000000	11.416268
792.000000	11.421622
793.000000	11.412724
794.000000	11.421092
795.000000	11.463568
796.000000	11.410071
797.000000	11.396957
798.000000	11.453474
799.000000	11.483423
800.000000	11.467465
801.000000	11.467870
802.000000	11.477750
803.000000	11.491621
804.000000	11.500446
805.000000	11.478414
806.000000	11.490198
807.000000	11.544551
808.000000	11.497945
809.000000	11.506827
810.000000	11.543456
811.000000	11.582133
812.000000	11.562568
813.000000	11.605556
814.000000	11.622909
815.000000	11.628034
816.000000	11.669941
817.000000	11.677406
818.000000	11.673331
819.000000	11.689201
820.000000	11.772765
821.000000	11.751038
822.000000	11.761805
823.000000	11.760688
824.000000	11.790127
825.000000	11.817537
826.000000	11.832235
827.000000	11.877588
828.000000	11.873342
829.000000	11.901377
830.000000	11.933659
831.000000	11.907212
832.000000	11.912835
833.000000	11.899580
834.000000	11.945709
835.000000	12.011675
836.000000	12.043994
837.000000	12.070530
838.000000	12.078709
839.000000	12.102468
840.000000	12.061120
841.000000	12.037664
842.000000	12.093036
843.000000	12.149319
844.000000	12.212825
845.000000	12.137030
846.000000	12.218204
847.000000	12.198873
848.000000	12.192036
849.000000	12.185268
850.000000	12.234405
851.000000	12.366535
852.000000	12.416003
853.000000	12.283433
854.000000	12.404357
855.000000	12.140501
856.000000	12.302560
857.000000	12.214562
858.000000	12.691988
859.000000	11.944316
860.000000	12.149103
861.000000	12.372607
862.000000	12.622544
863.000000	12.884596
864.000000	13.108342
865.000000	13.351467
866.000000	13.586560
867.000000	13.824036
868.000000	14.046932
869.000000	14.259367
870.000000	14.462265
871.000000	14.670497
872.000000	14.838515
873.000000	14.988548
874.000000	15.192628
875.000000	15.358681
876.000000	15.526463
877.000000	15.677415
878.000000	15.831963
879.000000	15.960266
880.000000	16.081740
881.000000	16.239753
882.000000	16.349407
883.000000	16.468636
884.000000	16.580582
885.000000	16.682074
886.000000	16.755169
887.000000	16.878077
888.000000	16.958030
889.000000	17.015949
890.000000	17.071834
891.000000	17.142530
892.000000	17.229722
893.000000	17.296689
894.000000	17.347182
895.000000	17.390256
896.000000	17.425435
897.000000	17.463563
898.000000	17.501206
899.000000	17.536000
900.000000	17.569142
901.000000	17.609847
902.000000	17.641849
903.000000	17.657003
904.000000	17.677977
905.000000	17.687500
906.000000	17.719799
907.000000	17.716845
908.000000	17.747272
909.000000	17.780525
910.000000	17.786483
911.000000	17.796261
912.000000	17.820240
913.000000	17.836718
914.000000	17.859346
915.000000	17.884240
916.000000	17.901878
917.000000	17.906027
918.000000	17.903678
919.000000	17.903913
920.000000	17.936340
921.000000	17.935787
922.000000	17.943792
923.000000	17.952463
924.000000	17.937351
925.000000	17.948227
926.000000	17.946302
927.000000	17.926359
928.000000	17.923232
929.000000	17.912980
930.000000	17.888853
931.000000	17.871611
932.000000	17.873983
933.000000	17.850038
934.000000	17.829062
935.000000	17.826007
936.000000	17.830364
937.000000	17.833903
938.000000	17.788096
939.000000	17.768960
940.000000	17.738949
941.000000	17.714814
942.000000	17.684359
943.000000	17.660632
944.000000	17.640928
945.000000	17.619604
946.000000	17.584953
947.000000	17.565110
948.000000	17.525437
949.000000	17.495150
950.000000	17.471514
951.000000	17.425714
952.000000	17.373375
953.000000	17.346499
954.000000	17.290470
955.000000	17.240657
956.000000	17.209523
957.000000	17.169161
958.000000	17.113771
959.000000	17.040812
960.000000	16.994358
961.000000	16.940412
962.000000	16.884661
963.000000	16.817590
964.000000	16.746585
965.000000	16.695421
966.000000	16.644836
967.000000	16.599422
968.000000	16.539332
969.000000	16.483061
970.000000	16.416041
971.000000	16.353124
972.000000	16.301805
973.000000	16.254699
974.000000	16.208901
975.000000	16.149296
976.000000	16.081619
977.000000	16.029277
978.000000	15.978367
979.000000	15.933462
980.000000	15.878415
981.000000	15.829293
982.000000	15.772442
983.000000	15.720599
984.000000	15.661143
985.000000	15.599145
986.000000	15.542691
987.000000	15.484060
988.000000	15.432279
989.000000	15.384334
990.000000	15.321781
991.000000	15.279049
992.000000	15.229747
993.000000	15.195272
994.000000	15.151958
995.000000	15.098892
996.000000	15.055566
997.000000	15.007913
998.000000	14.958723
999.000000	14.913825
1000.000000	14.875763
1001.000000	14.834575
1002.000000	14.796063
1003.000000	14.746161
1004.000000	14.702193
1005.000000	14.665057
1006.000000	14.625655
1007.000000	14.585657
1008.000000	14.540001
1009.000000	14.493654
1010.000000	14.449459
1011.000000	14.413287
1012.000000	14.372629
1013.000000	14.331361
1014.000000	14.301583
1015.000000	14.268412
1016.000000	14.231705
1017.000000	14.200636
1018.000000	14.182358
1019.000000	14.165922
1020.000000	14.144354
1021.000000	14.115313
1022.000000	14.086853
1023.000000	14.064553
1024.000000	14.045594
1025.000000	14.031950
1026.000000	14.023596
1027.000000	14.005002
1028.000000	13.985296
1029.000000	13.969688
1030.000000	13.950778
1031.000000	13.936051
1032.000000	13.924335
1033.000000	13.914679
1034.000000	13.897203
1035.000000	13.876264
1036.000000	13.863993
1037.000000	13.854526
1038.000000	13.835870
1039.000000	13.817156
1040.000000	13.810703
1041.000000	13.797114
1042.000000	13.776449
1043.000000	13.755693
1044.000000	13.745723
1045.000000	13.725654
1046.000000	13.702959
1047.000000	13.693872
1048.000000	13.687129
1049.000000	13.680077
1050.000000	13.662863
1051.000000	13.654025
1052.000000	13.649763
1053.000000	13.641888
1054.000000	13.636722
1055.000000	13.631137
1056.000000	13.629879
1057.000000	13.625436
1058.000000	13.623006
1059.000000	13.621304
1060.000000	13.613347
1061.000000	13.613875
1062.000000	13.618098
1063.000000	13.618030
1064.000000	13.608719
1065.000000	13.599167
1066.000000	13.592837
1067.000000	13.591700
1068.000000	13.593226
1069.000000	13.587069
1070.000000	13.587729
1071.000000	13.593819
1072.000000	13.583926
1073.000000	13.571618
1074.000000	13.569984
1075.000000	13.571543
1076.000000	13.571284
1077.000000	13.573386
1078.000000	13.575059
1079.000000	13.571680
1080.000000	13.575798
1081.000000	13.569750
1082.000000	13.568056
1083.000000	13.573919
1084.000000	13.577424
1085.000000	13.574819
1086.000000	13.577891
1087.000000	13.585497
1088.000000	13.580890
1089.000000	13.581439
1090.000000	13.592792
1091.000000	13.589098
1092.000000	13.598189
1093.000000	13.613030
1094.000000	13.622102
1095.000000	13.634132
1096.000000	13.625418
1097.000000	13.634586
1098.000000	13.630598
1099.000000	13.619982
1100.000000	13.616750
1101.000000	13.622158
1102.000000	13.616828
1103.000000	13.622429
1104.000000	13.624831
1105.000000	13.623268
1106.000000	13.620664
1107.000000	13.626350
1108.000000	13.617029
1109.000000	13.606031
1110.000000	13.613904
1111.000000	13.620786
1112.000000	13.617858
1113.000000	13.609524
1114.000000	13.602921
1115.000000	13.597960
1116.000000	13.597401
1117.000000	13.611037
1118.000000	13.596077
1119.000000	13.590977
1120.000000	13.572259
1121.000000	13.567212
1122.000000	13.560628
1123.000000	13.563053
1124.000000	13.544873
1125.000000	13.516290
1126.000000	13.497410
1127.000000	13.460133
1128.000000	13.425954
1129.000000	13.393743
1130.000000	13.359970
1131.000000	13.271334
1132.000000	13.167458
1133.000000	13.048907
1134.000000	12.967320
1135.000000	12.912328
1136.000000	12.821558
1137.000000	12.684865
1138.000000	12.550380
1139.000000	12.429420
1140.000000	12.323462
1141.000000	12.207085
1142.000000	12.096412
1143.000000	11.973380
1144.000000	11.868149
1145.000000	11.793135
1146.000000	11.748585
1147.000000	11.712437
1148.000000	11.694371
1149.000000	11.683981
1150.000000	11.677147
1151.000000	11.681265
1152.000000	11.692400
1153.000000	11.687656
1154.000000	11.669120
1155.000000	11.633700
1156.000000	11.584262
1157.000000	11.518014
1158.000000	11.460702
1159.000000	11.378089
1160.000000	11.276692
1161.000000	11.181245
1162.000000	11.091428
1163.000000	10.981557
1164.000000	10.885521
1165.000000	10.778757
1166.000000	10.678596
1167.000000	10.575730
1168.000000	10.482192
1169.000000	10.402529
1170.000000	10.307752
1171.000000	10.216670
1172.000000	10.116576
1173.000000	10.036998
1174.000000	9.954546
1175.000000	9.881475
1176.000000	9.802592
1177.000000	9.719002
1178.000000	9.622704
1179.000000	9.514078
1180.000000	9.397645
1181.000000	9.287090
1182.000000	9.163483
1183.000000	9.058514
1184.000000	8.967930
1185.000000	8.903037
1186.000000	8.875789
1187.000000	8.856271
1188.000000	8.853926
1189.000000	8.893570
1190.000000	8.960961
1191.000000	9.042540
1192.000000	9.143921
1193.000000	9.238666
1194.000000	9.314159
1195.000000	9.391723
1196.000000	9.442773
1197.000000	9.496862
1198.000000	9.521670
1199.000000	9.544265
1200.000000	9.573289
1201.000000	9.585959
1202.000000	9.593316
1203.000000	9.596347
1204.000000	9.592738
1205.000000	9.603854
1206.000000	9.627976
1207.000000	9.629152
1208.000000	9.647495
1209.000000	9.660359
1210.000000	9.685694
1211.000000	9.705506
1212.000000	9.729207
1213.000000	9.764531
1214.000000	9.789910
1215.000000	9.815440
1216.000000	9.846103
1217.000000	9.877532
1218.000000	9.906982
1219.000000	9.941584
1220.000000	9.983181
1221.000000	10.014214
1222.000000	10.056059
1223.000000	10.107315
1224.000000	10.148435
1225.000000	10.191046
1226.000000	10.240487
1227.000000	10.290314
1228.000000	10.340620
1229.000000	10.382346
1230.000000	10.429871
1231.000000	10.478406
1232.000000	10.528223
1233.000000	10.572748
1234.000000	10.619369
1235.000000	10.662557
1236.000000	10.710466
1237.000000	10.760421
1238.000000	10.811239
1239.000000	10.854348
1240.000000	10.909360
1241.000000	10.964655
1242.000000	11.013072
1243.000000	11.052098
1244.000000	11.087609
1245.000000	11.125920
1246.000000	11.168863
1247.000000	11.207572
1248.000000	11.245562
1249.000000	11.284193
1250.000000	11.311530
1251.000000	11.340420
1252.000000	11.359771
1253.000000	11.398481
1254.000000	11.420736
1255.000000	11.426111
1256.000000	11.438133
1257.000000	11.461585
1258.000000	11.482575
1259.000000	11.492631
1260.000000	11.513240
1261.000000	11.530714
1262.000000	11.543401
1263.000000	11.562607
1264.000000	11.571989
1265.000000	11.589241
1266.000000	11.604272
1267.000000	11.616307
1268.000000	11.629792
1269.000000	11.635167
1270.000000	11.650186
1271.000000	11.668846
1272.000000	11.671019
1273.000000	11.680687
1274.000000	11.702789
1275.000000	11.720947
1276.000000	11.731640
1277.000000	11.746493
1278.000000	11.761971
1279.000000	11.780732
1280.000000	11.797978
1281.000000	11.812248
1282.000000	11.832880
1283.000000	11.852380
1284.000000	11.874560
1285.000000	11.894318
1286.000000	11.911689
1287.000000	11.934498
1288.000000	11.953873
1289.000000	11.971681
1290.000000	11.980261
1291.000000	11.989328
1292.000000	11.999516
1293.000000	12.000293
1294.000000	12.006036
1295.000000	12.007624
1296.000000	12.011720
1297.000000	12.016753
1298.000000	12.012195
1299.000000	12.005251
1300.000000	12.000577
1301.000000	12.000300
1302.000000	11.994914
1303.000000	11.986656
1304.000000	11.981357
1305.000000	11.970680
1306.000000	11.959471
1307.000000	11.948003
1308.000000	11.930566
1309.000000	11.911842
1310.000000	11.892565
1311.000000	11.875602
1312.000000	11.853383
1313.000000	11.824696
1314.000000	11.796488
1315.000000	11.774269
1316.000000	11.751065
1317.000000	11.726494
1318.000000	11.702399
1319.000000	11.679101
1320.000000	11.642065
1321.000000	11.606126
1322.000000	11.575592
1323.000000	11.545236
1324.000000	11.511147
1325.000000	11.469960
1326.000000	11.425838
1327.000000	11.400735
1328.000000	11.365297
1329.000000	11.320139
1330.000000	11.280032
1331.000000	11.230586
1332.000000	11.185841
1333.000000	11.135385
1334.000000	11.082117
1335.000000	11.036265
1336.000000	10.984235
1337.000000	10.926813
1338.000000	10.869759
1339.000000	10.811651
1340.000000	10.757169
1341.000000	10.695837
1342.000000	10.625962
1343.000000	10.551231
1344.000000	10.475576
1345.000000	10.393048
1346.000000	10.287943
1347.000000	10.218446
1348.000000	10.149635
1349.000000	10.063148
1350.000000	9.954493
1351.000000	9.822028
1352.000000	9.694585
1353.000000	9.549287
1354.000000	9.433480
1355.000000	9.345041
1356.000000	9.274952
1357.000000	9.186022
1358.000000	9.120126
1359.000000	9.067592
1360.000000	8.978855
1361.000000	9.005782
1362.000000	9.077033
1363.000000	9.048809
1364.000000	8.984418
1365.000000	8.969683
1366.000000	8.923577
1367.000000	8.857617
1368.000000	8.830472
1369.000000	8.801865
1370.000000	8.715206
1371.000000	8.666639
1372.000000	8.635871
1373.000000	8.560337
1374.000000	8.484365
1375.000000	8.437458
1376.000000	8.397678
1377.000000	8.357915
1378.000000	8.325980
1379.000000	8.278624
1380.000000	8.252282
1381.000000	8.232880
1382.000000	8.250779
1383.000000	8.259948
1384.000000	8.214695
1385.000000	8.153993
1386.000000	8.093871
1387.000000	8.045602
1388.000000	8.038957
1389.000000	8.019031
1390.000000	7.969761
1391.000000	7.926524
1392.000000	7.924573
1393.000000	7.907491
1394.000000	7.872626
1395.000000	7.884016
1396.000000	7.927307
1397.000000	7.894527
1398.000000	7.827269
1399.000000	7.775749
1400.000000	7.793862
1401.000000	7.829454
1402.000000	7.753465
1403.000000	7.684538
1404.000000	7.642666
1405.000000	7.631100
1406.000000	7.594317
1407.000000	7.560326
1408.000000	7.532316
1409.000000	7.508477
1410.000000	7.489843
1411.000000	7.461096
1412.000000	7.421507
1413.000000	7.407342
1414.000000	7.412441
1415.000000	7.408431
1416.000000	7.372031
1417.000000	7.339736
1418.000000	7.336395
1419.000000	7.324974
1420.000000	7.316353
1421.000000	7.282365
1422.000000	7.249975
1423.000000	7.223776
1424.000000	7.224823
1425.000000	7.201072
1426.000000	7.178551
1427.000000	7.166100
1428.000000	7.153486
1429.000000	7.136149
1430.000000	7.108974
1431.000000	7.094999
1432.000000	7.091085
1433.000000	7.082649
1434.000000	7.072003
1435.000000	7.060726
1436.000000	7.052368
1437.000000	7.041607
1438.000000	7.036118
1439.000000	7.026046
1440.000000	7.008163
1441.000000	7.000908
1442.000000	6.988877
1443.000000	6.976173
1444.000000	6.962101
1445.000000	6.950206
1446.000000	6.937779
1447.000000	6.923387
1448.000000	6.901393
1449.000000	6.894988
1450.000000	6.878700
1451.000000	6.871489
1452.000000	6.858903
1453.000000	6.840004
1454.000000	6.823285
1455.000000	6.812648
1456.000000	6.791628
1457.000000	6.784621
1458.000000	6.769755
1459.000000	6.764213
1460.000000	6.754736
1461.000000	6.740235
1462.000000	6.714983
1463.000000	6.711336
1464.000000	6.695098
1465.000000	6.687281
1466.000000	6.679444
1467.000000	6.673007
1468.000000	6.660360
1469.000000	6.647585
1470.000000	6.634510
1471.000000	6.630553
1472.000000	6.618525
1473.000000	6.609963
1474.000000	6.595396
1475.000000	6.583206
1476.000000	6.582993
1477.000000	6.574324
1478.000000	6.561532
1479.000000	6.547542
1480.000000	6.526108
1481.000000	6.522307
1482.000000	6.510489
1483.000000	6.493127
1484.000000	6.480105
1485.000000	6.473323
1486.000000	6.450967
1487.000000	6.454364
1488.000000	6.441885
1489.000000	6.435950
1490.000000	6.423411
1491.000000	6.413305
1492.000000	6.399908
1493.000000	6.382053
1494.000000	6.378405
1495.000000	6.373698
1496.000000	6.378063
1497.000000	6.368647
1498.000000	6.356523
1499.000000	6.346951
1500.000000	6.341356
1501.000000	6.332227
1502.000000	6.325847
1503.000000	6.322416
1504.000000	6.325981
1505.000000	6.318052
1506.000000	6.307610
1507.000000	6.301348
1508.000000	6.309875
1509.000000	6.307560
1510.000000	6.302999
1511.000000	6.297844
1512.000000	6.290997
1513.000000	6.283940
1514.000000	6.281922
1515.000000	6.284426
1516.000000	6.280192
1517.000000	6.282552
1518.000000	6.283116
1519.000000	6.284411
1520.000000	6.280847
1521.000000	6.278090
1522.000000	6.283298
1523.000000	6.276000
1524.000000	6.273510
1525.000000	6.280685
1526.000000	6.283632
1527.000000	6.278228
1528.000000	6.276240
1529.000000	6.272728
1530.000000	6.273304
1531.000000	6.273744
1532.000000	6.269155
1533.000000	6.265417
1534.000000	6.263272
1535.000000	6.265121
1536.000000	6.261273
1537.000000	6.256609
1538.000000	6.255007
1539.000000	6.256283
1540.000000	6.246480
1541.000000	6.242440
1542.000000	6.249043
1543.000000	6.250343
1544.000000	6.246588
1545.000000	6.244626
1546.000000	6.242729
1547.000000	6.249694
1548.000000	6.247780
1549.000000	6.247761
1550.000000	6.254171
1551.000000	6.263339
1552.000000	6.265176
1553.000000	6.260272
1554.000000	6.262999
1555.000000	6.267750
1556.000000	6.267986
1557.000000	6.270462
1558.000000	6.272893
1559.000000	6.265019
1560.000000	6.262042
1561.000000	6.265248
1562.000000	6.263546
1563.000000	6.260887
1564.000000	6.253945
1565.000000	6.250502
1566.000000	6.251553
1567.000000	6.243415
1568.000000	6.235843
1569.000000	6.239809
1570.000000	6.241222
1571.000000	6.232214
1572.000000	6.226677
1573.000000	6.227446
1574.000000	6.222524
1575.000000	6.223376
1576.000000	6.217922
1577.000000	6.217676
1578.000000	6.223747
1579.000000	6.224277
1580.000000	6.227590
1581.000000	6.229363
1582.000000	6.228659
1583.000000	6.229292
1584.000000	6.241794
1585.000000	6.246077
1586.000000	6.245343
1587.000000	6.250826
1588.000000	6.254747
1589.000000	6.265214
1590.000000	6.271260
1591.000000	6.275645
1592.000000	6.278566
1593.000000	6.280223
1594.000000	6.287207
1595.000000	6.293477
1596.000000	6.303702
1597.000000	6.307285
1598.000000	6.316055
1599.000000	6.332170
1600.000000	6.341862
1601.000000	6.348622
1602.000000	6.355581
1603.000000	6.370484
1604.000000	6.385793
1605.000000	6.389732
1606.000000	6.390404
1607.000000	6.395875
1608.000000	6.409047
1609.000000	6.421045
1610.000000	6.437288
1611.000000	6.443328
1612.000000	6.447685
1613.000000	6.462659
1614.000000	6.466890
1615.000000	6.474600
1616.000000	6.486041
1617.000000	6.490096
1618.000000	6.492380
1619.000000	6.501447
1620.000000	6.509373
1621.000000	6.519800
1622.000000	6.528921
1623.000000	6.537068
1624.000000	6.543844
1625.000000	6.557993
1626.000000	6.562158
1627.000000	6.574754
1628.000000	6.587513
1629.000000	6.598193
1630.000000	6.603679
1631.000000	6.606768
1632.000000	6.622824
1633.000000	6.634277
1634.000000	6.643583
1635.000000	6.648825
1636.000000	6.659605
1637.000000	6.666854
1638.000000	6.672815
1639.000000	6.681265
1640.000000	6.684983
1641.000000	6.683608
1642.000000	6.687567
1643.000000	6.701325
1644.000000	6.701370
1645.000000	6.707032
1646.000000	6.719857
1647.000000	6.725750
1648.000000	6.721625
1649.000000	6.730738
1650.000000	6.741200
1651.000000	6.758087
1652.000000	6.749364
1653.000000	6.747514
1654.000000	6.760859
1655.000000	6.751761
1656.000000	6.755353
1657.000000	6.756843
1658.000000	6.751796
1659.000000	6.753389
1660.000000	6.759436
1661.000000	6.753200
1662.000000	6.746742
1663.000000	6.749794
1664.000000	6.742402
1665.000000	6.734377
1666.000000	6.720967
1667.000000	6.720658
1668.000000	6.714298
1669.000000	6.696197
1670.000000	6.678394
1671.000000	6.661513
1672.000000	6.630267
1673.000000	6.592290
1674.000000	6.562429
1675.000000	6.539569
1676.000000	6.500507
1677.000000	6.457511
1678.000000	6.415792
1679.000000	6.371033
1680.000000	6.311980
1681.000000	6.266175
1682.000000	6.225591
1683.000000	6.189655
1684.000000	6.163578
1685.000000	6.141517
1686.000000	6.130359
1687.000000	6.127343
1688.000000	6.113449
1689.000000	6.101098
1690.000000	6.078938
1691.000000	6.070188
1692.000000	6.047365
1693.000000	6.035775
1694.000000	6.032928
1695.000000	6.024990
1696.000000	6.030091
1697.000000	6.022332
1698.000000	6.033373
1699.000000	6.051816
1700.000000	6.061732
1701.000000	6.082238
1702.000000	6.094588
1703.000000	6.098988
1704.000000	6.117437
1705.000000	6.112159
1706.000000	6.117595
1707.000000	6.119695
1708.000000	6.121195
1709.000000	6.117370
1710.000000	6.111276
1711.000000	6.112738
1712.000000	6.106174
1713.000000	6.102369
1714.000000	6.094342
1715.000000	6.081685
1716.000000	6.072169
1717.000000	6.064360
1718.000000	6.042836
1719.000000	6.037465
1720.000000	6.021229
1721.000000	6.013325
1722.000000	6.001230
1723.000000	5.991955
1724.000000	5.981589
1725.000000	5.977920
1726.000000	5.970254
1727.000000	5.963749
1728.000000	5.955612
1729.000000	5.945963
1730.000000	5.928668
1731.000000	5.914457
1732.000000	5.904865
1733.000000	5.892101
1734.000000	5.894562
1735.000000	5.900141
1736.000000	5.899396
1737.000000	5.897765
1738.000000	5.910990
1739.000000	5.928845
1740.000000	5.946442
1741.000000	5.947432
1742.000000	5.973119
1743.000000	5.990399
1744.000000	6.005703
1745.000000	6.026308
1746.000000	6.036263
1747.000000	6.037974
1748.000000	6.057249
1749.000000	6.067782
1750.000000	6.075879
1751.000000	6.085716
1752.000000	6.090464
1753.000000	6.091746
1754.000000	6.098892
1755.000000	6.096662
1756.000000	6.094322
1757.000000	6.088352
1758.000000	6.090056
1759.000000	6.094951
1760.000000	6.083722
1761.000000	6.077882
1762.000000	6.079423
1763.000000	6.079166
1764.000000	6.083101
1765.000000	6.086274
1766.000000	6.090575
1767.000000	6.104368
1768.000000	6.113271
1769.000000	6.113186
1770.000000	6.128954
1771.000000	6.139233
1772.000000	6.156645
1773.000000	6.172405
1774.000000	6.177791
1775.000000	6.193475
1776.000000	6.199757
1777.000000	6.213265
1778.000000	6.226498
1779.000000	6.232887
1780.000000	6.231239
1781.000000	6.246460
1782.000000	6.251936
1783.000000	6.259848
1784.000000	6.269179
1785.000000	6.278963
1786.000000	6.280311
1787.000000	6.289206
1788.000000	6.286178
1789.000000	6.299309
1790.000000	6.309092
1791.000000	6.308467
1792.000000	6.311969
1793.000000	6.321898
1794.000000	6.330662
1795.000000	6.341136
1796.000000	6.341288
1797.000000	6.344224
1798.000000	6.346018
1799.000000	6.345125
1800.000000	6.350652
1801.000000	6.362726
1802.000000	6.373732
1803.000000	6.377492
1804.000000	6.378484
1805.000000	6.388118
1806.000000	6.404066
1807.000000	6.409318
1808.000000	6.408678
1809.000000	6.397715
1810.000000	6.395713
1811.000000	6.412711
1812.000000	6.425641
1813.000000	6.431305
1814.000000	6.431693
1815.000000	6.436892
1816.000000	6.438990
1817.000000	6.431296
1818.000000	6.413757
1819.000000	6.408926
1820.000000	6.424822
1821.000000	6.451548
1822.000000	6.467967
1823.000000	6.456896
1824.000000	6.437925
1825.000000	6.435588
1826.000000	6.444919
1827.000000	6.456050
1828.000000	6.464127
1829.000000	6.468255
1830.000000	6.482864
1831.000000	6.510593
1832.000000	6.527266
1833.000000	6.515638
1834.000000	6.495697
1835.000000	6.490835
1836.000000	6.503805
1837.000000	6.524594
1838.000000	6.530638
1839.000000	6.534710
1840.000000	6.549106
1841.000000	6.569443
1842.000000	6.614145
1843.000000	6.619668
1844.000000	6.582514
1845.000000	6.542989
1846.000000	6.523294
1847.000000	6.556417
1848.000000	6.619423
1849.000000	6.660882
1850.000000	6.652651
1851.000000	6.622148
1852.000000	6.603664
1853.000000	6.613120
1854.000000	6.630780
1855.000000	6.642974
1856.000000	6.651757
1857.000000	6.643799
1858.000000	6.630690
1859.000000	6.649973
1860.000000	6.673237
1861.000000	6.687241
1862.000000	6.687237
1863.000000	6.671729
1864.000000	6.652451
1865.000000	6.631270
1866.000000	6.609418
1867.000000	6.612963
1868.000000	6.608659
1869.000000	6.586234
1870.000000	6.589414
1871.000000	6.602995
1872.000000	6.603804
1873.000000	6.614562
1874.000000	6.610403
1875.000000	6.597902
1876.000000	6.590766
1877.000000	6.582489
1878.000000	6.563771
1879.000000	6.540810
1880.000000	6.519926
1881.000000	6.494742
1882.000000	6.467003
1883.000000	6.440252
1884.000000	6.414223
1885.000000	6.376238
1886.000000	6.340877
1887.000000	6.312794
1888.000000	6.285552
1889.000000	6.246076
1890.000000	6.215523
1891.000000	6.180264
1892.000000	6.122816
1893.000000	6.073112
1894.000000	6.025273
1895.000000	5.979181
1896.000000	5.941648
1897.000000	5.900713
1898.000000	5.834907
1899.000000	5.771965
1900.000000	5.690538
1901.000000	5.623590
1902.000000	5.554615
1903.000000	5.495041
1904.000000	5.444534
1905.000000	5.368677
1906.000000	5.277229
1907.000000	5.200351
1908.000000	5.146984
1909.000000	5.094670
1910.000000	5.055737
1911.000000	5.005062
1912.000000	4.954942
1913.000000	4.891682
1914.000000	4.810834
1915.000000	4.746518
1916.000000	4.698963
1917.000000	4.666475
1918.000000	4.621736
1919.000000	4.578683
1920.000000	4.541294
1921.000000	4.486204
1922.000000	4.429271
1923.000000	4.385379
1924.000000	4.359520
1925.000000	4.331122
1926.000000	4.301063
1927.000000	4.272976
1928.000000	4.232043
1929.000000	4.211111
1930.000000	4.201341
1931.000000	4.179886
1932.000000	4.164379
1933.000000	4.147513
1934.000000	4.134105
1935.000000	4.121881
1936.000000	4.122714
1937.000000	4.121799
1938.000000	4.110951
1939.000000	4.108899
1940.000000	4.117259
1941.000000	4.116989
1942.000000	4.122965
1943.000000	4.135362
1944.000000	4.154025
1945.000000	4.159427
1946.000000	4.165579
1947.000000	4.170838
1948.000000	4.191591
1949.000000	4.204857
1950.000000	4.211936
1951.000000	4.230633
1952.000000	4.256770
1953.000000	4.263587
1954.000000	4.282255
1955.000000	4.301345
1956.000000	4.320651
1957.000000	4.342384
1958.000000	4.351765
1959.000000	4.366183
1960.000000	4.383540
1961.000000	4.419603
1962.000000	4.424846
1963.000000	4.442911
1964.000000	4.468737
1965.000000	4.464950
1966.000000	4.485047
1967.000000	4.499091
1968.000000	4.502824
1969.000000	4.528453
1970.000000	4.543304
1971.000000	4.559357
1972.000000	4.574730
1973.000000	4.599219
1974.000000	4.608928
1975.000000	4.625802
1976.000000	4.639042
1977.000000	4.649481
1978.000000	4.671887
1979.000000	4.681992
1980.000000	4.695600
1981.000000	4.716816
1982.000000	4.742191
1983.000000	4.762094
1984.000000	4.772584
1985.000000	4.788248
1986.000000	4.795261
1987.000000	4.820493
1988.000000	4.833782
1989.000000	4.845318
1990.000000	4.853291
1991.000000	4.869457
1992.000000	4.880128
1993.000000	4.887896
1994.000000	4.899507
1995.000000	4.910950
1996.000000	4.914908
1997.000000	4.925389
1998.000000	4.941073
1999.000000	4.938666
2000.000000	4.942931
2001.000000	4.945933
2002.000000	4.948586
2003.000000	4.952474
2004.000000	4.958038
2005.000000	4.957696
2006.000000	4.948460
2007.000000	4.954200
2008.000000	4.957559
2009.000000	4.944816
2010.000000	4.945917
2011.000000	4.934285
2012.000000	4.929910
2013.000000	4.927570
2014.000000	4.916546
2015.000000	4.890611
2016.000000	4.879782
2017.000000	4.869394
2018.000000	4.868640
2019.000000	4.851439
2020.000000	4.832606
2021.000000	4.820251
2022.000000	4.811102
2023.000000	4.800714
2024.000000	4.776490
2025.000000	4.743526
2026.000000	4.732332
2027.000000	4.715464
2028.000000	4.687179
2029.000000	4.662241
2030.000000	4.637592
2031.000000	4.615259
2032.000000	4.604121
2033.000000	4.580987
2034.000000	4.547622
2035.000000	4.517288
2036.000000	4.483100
2037.000000	4.453316
2038.000000	4.427035
2039.000000	4.399144
2040.000000	4.366168
2041.000000	4.331860
2042.000000	4.302509
2043.000000	4.260740
2044.000000	4.224833
2045.000000	4.190535
2046.000000	4.170567
2047.000000	4.142772
2048.000000	4.106901
2049.000000	4.068999
2050.000000	4.055898
2051.000000	4.035541
2052.000000	4.010192
2053.000000	4.001675
2054.000000	3.983099
2055.000000	3.966606
2056.000000	3.959238
2057.000000	3.958992
2058.000000	3.960282
2059.000000	3.959932
2060.000000	3.963307
2061.000000	3.969230
2062.000000	3.980131
2063.000000	3.989813
2064.000000	3.995126
2065.000000	4.000576
2066.000000	4.012232
2067.000000	4.021389
2068.000000	4.034779
2069.000000	4.048104
2070.000000	4.057076
2071.000000	4.074467
2072.000000	4.084045
2073.000000	4.088310
2074.000000	4.104273
2075.000000	4.118017
2076.000000	4.125361
2077.000000	4.131957
2078.000000	4.143015
2079.000000	4.152877
2080.000000	4.157507
2081.000000	4.168857
2082.000000	4.174248
2083.000000	4.175069
2084.000000	4.185040
2085.000000	4.186166
2086.000000	4.186575
2087.000000	4.199295
2088.000000	4.195897
2089.000000	4.194115
2090.000000	4.197863
2091.000000	4.204923
2092.000000	4.204512
2093.000000	4.207366
2094.000000	4.211502
2095.000000	4.205870
2096.000000	4.208197
2097.000000	4.210178
2098.000000	4.213638
2099.000000	4.220363
2100.000000	4.218537
2101.000000	4.217847
2102.000000	4.226237
2103.000000	4.231974
2104.000000	4.239398
2105.000000	4.243674
2106.000000	4.247637
2107.000000	4.252384
2108.000000	4.250891
2109.000000	4.250853
2110.000000	4.256698
2111.000000	4.251261
2112.000000	4.245224
2113.000000	4.251604
2114.000000	4.260718
2115.000000	4.266851
2116.000000	4.267045
2117.000000	4.262936
2118.000000	4.259027
2119.000000	4.253520
2120.000000	4.254226
2121.000000	4.250010
2122.000000	4.243935
2123.000000	4.245420
2124.000000	4.243536
2125.000000	4.227485
2126.000000	4.219242
2127.000000	4.212312
2128.000000	4.200479
2129.000000	4.196161
2130.000000	4.191701
2131.000000	4.178716
2132.000000	4.166056
2133.000000	4.156587
2134.000000	4.154839
2135.000000	4.136788
2136.000000	4.128547
2137.000000	4.116108
2138.000000	4.096154
2139.000000	4.078822
2140.000000	4.073080
2141.000000	4.063111
2142.000000	4.048994
2143.000000	4.035192
2144.000000	4.021968
2145.000000	4.010300
2146.000000	3.990700
2147.000000	3.983123
2148.000000	3.969881
2149.000000	3.950686
2150.000000	3.932956
2151.000000	3.914230
2152.000000	3.890385
2153.000000	3.875043
2154.000000	3.859587
2155.000000	3.841324
2156.000000	3.839712
2157.000000	3.832760
2158.000000	3.815443
2159.000000	3.801369
2160.000000	3.794161
2161.000000	3.788103
2162.000000	3.779484
2163.000000	3.766645
2164.000000	3.754897
2165.000000	3.752231
2166.000000	3.751142
2167.000000	3.742452
2168.000000	3.732545
2169.000000	3.732516
2170.000000	3.741652
2171.000000	3.734603
2172.000000	3.727483
2173.000000	3.723437
2174.000000	3.725047
2175.000000	3.727702
2176.000000	3.738661
2177.000000	3.743708
2178.000000	3.736838
2179.000000	3.735872
2180.000000	3.744333
2181.000000	3.749079
2182.000000	3.752050
2183.000000	3.749569
2184.000000	3.754736
2185.000000	3.757228
2186.000000	3.762116
2187.000000	3.770509
2188.000000	3.773654
2189.000000	3.782486
2190.000000	3.778717
2191.000000	3.782413
2192.000000	3.783151
2193.000000	3.789621
2194.000000	3.787979
2195.000000	3.794865
2196.000000	3.798773
2197.000000	3.796699
2198.000000	3.805636
2199.000000	3.809754
2200.000000	3.826241
2201.000000	3.820502
2202.000000	3.819828
2203.000000	3.816824
2204.000000	3.825072
2205.000000	3.840046
2206.000000	3.846979
2207.000000	3.856857
2208.000000	3.861524
2209.000000	3.866860
2210.000000	3.886497
2211.000000	3.892727
2212.000000	3.905044
2213.000000	3.909863
2214.000000	3.919988
2215.000000	3.922380
2216.000000	3.939949
2217.000000	3.948685
2218.000000	3.956177
2219.000000	3.982115
2220.000000	3.983067
2221.000000	3.991454
2222.000000	4.005561
2223.000000	4.028371
2224.000000	4.037686
2225.000000	4.037532
2226.000000	4.049320
2227.000000	4.053656
2228.000000	4.055316
2229.000000	4.056977
2230.000000	4.068439
2231.000000	4.070120
2232.000000	4.063901
2233.000000	4.073870
2234.000000	4.066425
2235.000000	4.043545
2236.000000	4.045898
2237.000000	4.034878
2238.000000	4.029004
2239.000000	4.032417
2240.000000	3.994130
2241.000000	3.984408
2242.000000	3.958743
2243.000000	3.945497
2244.000000	3.928393
2245.000000	3.901282
2246.000000	3.868738
2247.000000	3.841251
2248.000000	3.814777
2249.000000	3.767498
2250.000000	3.714451
2251.000000	3.686812
2252.000000	3.658012
2253.000000	3.587387
2254.000000	3.538466
2255.000000	3.497521
2256.000000	3.448725
2257.000000	3.385598
2258.000000	3.328987
2259.000000	3.254855
2260.000000	3.215605
2261.000000	3.170590
2262.000000	3.099049
2263.000000	3.059070
2264.000000	3.007296
2265.000000	2.983841
2266.000000	2.942474
2267.000000	2.899177
2268.000000	2.871087
2269.000000	2.858268
2270.000000	2.837644
2271.000000	2.818947
2272.000000	2.817952
2273.000000	2.814624
2274.000000	2.809787
2275.000000	2.811531
2276.000000	2.822868
2277.000000	2.827388
2278.000000	2.834330
2279.000000	2.836985
2280.000000	2.851840
2281.000000	2.863628
2282.000000	2.873625
2283.000000	2.871724
2284.000000	2.886970
2285.000000	2.893740
2286.000000	2.911434
2287.000000	2.910479
2288.000000	2.921978
2289.000000	2.924216
2290.000000	2.934457
2291.000000	2.921321
2292.000000	2.916522
2293.000000	2.896615
2294.000000	2.884981
2295.000000	2.869969
2296.000000	2.855530
2297.000000	2.837715
2298.000000	2.818558
2299.000000	2.807661
2300.000000	2.783386
2301.000000	2.757004
2302.000000	2.733999
2303.000000	2.728242
2304.000000	2.712975
2305.000000	2.688523
2306.000000	2.675473
2307.000000	2.681476
2308.000000	2.683968
2309.000000	2.682924
2310.000000	2.698700
2311.000000	2.715248
2312.000000	2.728643
2313.000000	2.755601
2314.000000	2.767239
2315.000000	2.795640
2316.000000	2.818456
2317.000000	2.843225
2318.000000	2.863673
2319.000000	2.896482
2320.000000	2.926368
2321.000000	2.939384
2322.000000	2.956141
2323.000000	2.981992
2324.000000	3.002576
2325.000000	3.016962
2326.000000	3.037715
2327.000000	3.064246
2328.000000	3.080745
2329.000000	3.080571
2330.000000	3.091614
2331.000000	3.101568
2332.000000	3.117098
2333.000000	3.125063
2334.000000	3.124703
2335.000000	3.133494
2336.000000	3.142737
2337.000000	3.150635
2338.000000	3.157614
2339.000000	3.162856
2340.000000	3.151970
2341.000000	3.159169
2342.000000	3.174987
2343.000000	3.174020
2344.000000	3.169858
2345.000000	3.163130
2346.000000	3.153179
2347.000000	3.146141
2348.000000	3.147864
2349.000000	3.152004
2350.000000	3.152514
2351.000000	3.145037
2352.000000	3.136825
2353.000000	3.145729
2354.000000	3.156375
2355.000000	3.161790
2356.000000	3.169580
2357.000000	3.186849
2358.000000	3.196820
2359.000000	3.204117
2360.000000	3.215415
2361.000000	3.236837
2362.000000	3.259541
2363.000000	3.268547
2364.000000	3.276554
2365.000000	3.302772
2366.000000	3.327654
2367.000000	3.338277
2368.000000	3.355055
2369.000000	3.369646
2370.000000	3.376385
2371.000000	3.397898
2372.000000	3.416003
2373.000000	3.424590
2374.000000	3.433816
2375.000000	3.436818
2376.000000	3.445306
2377.000000	3.457256
2378.000000	3.469834
2379.000000	3.485360
2380.000000	3.496785
2381.000000	3.499129
2382.000000	3.502077
2383.000000	3.517271
2384.000000	3.523166
2385.000000	3.541380
2386.000000	3.549653
2387.000000	3.548420
2388.000000	3.552163
2389.000000	3.548880
2390.000000	3.549399
2391.000000	3.548759
2392.000000	3.548365
2393.000000	3.556830
2394.000000	3.565568
2395.000000	3.570356
2396.000000	3.572399
2397.000000	3.569734
2398.000000	3.568309
2399.000000	3.560963
2400.000000	3.564926
2401.000000	3.568780
2402.000000	3.567002
2403.000000	3.565326
2404.000000	3.558697
2405.000000	3.562945
2406.000000	3.565517
2407.000000	3.558239
2408.000000	3.551385
2409.000000	3.557837
2410.000000	3.550688
2411.000000	3.538345
2412.000000	3.544192
2413.000000	3.538834
2414.000000	3.542882
2415.000000	3.530932
2416.000000	3.520235
2417.000000	3.518138
2418.000000	3.507730
2419.000000	3.505144
2420.000000	3.501503
2421.000000	3.492005
2422.000000	3.480523
2423.000000	3.464784
2424.000000	3.452619
2425.000000	3.456980
2426.000000	3.461841
2427.000000	3.471244
2428.000000	3.508251
2429.000000	3.513424
2430.000000	3.505645
2431.000000	3.490859
2432.000000	3.470329
2433.000000	3.451778
2434.000000	3.427589
2435.000000	3.402054
2436.000000	3.388070
2437.000000	3.365853
2438.000000	3.342171
2439.000000	3.318748
2440.000000	3.293937
2441.000000	3.273319
2442.000000	3.254912
2443.000000	3.223317
2444.000000	3.202806
2445.000000	3.177751
2446.000000	3.152277
2447.000000	3.132301
2448.000000	3.103364
2449.000000	3.075622
2450.000000	3.044512
2451.000000	3.019046
2452.000000	2.992621
2453.000000	2.969439
2454.000000	2.924450
2455.000000	2.901385
2456.000000	2.883229
2457.000000	2.843454
2458.000000	2.831010
2459.000000	2.807186
2460.000000	2.766952
2461.000000	2.753771
2462.000000	2.718449
2463.000000	2.704084
2464.000000	2.705957
2465.000000	2.681908
2466.000000	2.660049
2467.000000	2.640925
2468.000000	2.635168
2469.000000	2.623564
2470.000000	2.610452
2471.000000	2.606811
2472.000000	2.601118
2473.000000	2.584191
2474.000000	2.573235
2475.000000	2.561466
2476.000000	2.571538
2477.000000	2.563641
2478.000000	2.556827
2479.000000	2.549468
2480.000000	2.572099
2481.000000	2.530419
2482.000000	2.552220
2483.000000	2.515767
2484.000000	2.519366
2485.000000	2.529715
2486.000000	2.550516
2487.000000	2.503375
2488.000000	2.537212
2489.000000	2.542794
2490.000000	2.530155
2491.000000	2.528300
2492.000000	2.526770
2493.000000	2.553813
2494.000000	2.544664
2495.000000	2.511089
2496.000000	2.544380
2497.000000	2.549070
2498.000000	2.588699
2499.000000	2.577437
2500.000000	2.533480
