PE UV       SUBTECH     SPECTRUM    ASCII       PEDS        4.00        
   -1
CICIMAUCR0012-3.Sample.ASC
24/04/12
09:39:08.00
24/04/12
09:39:08.00
Vinicio Soto Monge
C. cupreomarginata
250,000000
1
Lambda 1050
1050L1511233
PerkinElmer UV WinLab 6.3.2.0749 / 2.02.05 Lambda 900 UV/VIS/NIR, Aug  7 2015 09:38:08

0
0
3350/servo 860,8/2
0
0
UV/VIS
1
1
1
DoubleDePol,CommonBeamDepol,RBeamAtt,SBeamAtt,60mm sphere, WB InGaAs Detector
0
0
0
0
Program
Program
3350/servo 860,8/2
3350/0,2 860,8/0,2
3350/0,2 860,8/0,2
0
15.00
 
 
 
0
 
860,8
319,2
860,8
Front
100
on
S:100 R:100
0
0
0
0
 
0
 
 
 
0
 
 
0
0
0
0
0
 
 
 
 
0
0


0
0
#HDR
-1
-1
#GR
nm
%R
1.0
0.0
2500,000000
-1,000000
2251
8
59,329800
5,000400
#DATA
250.000000	1.163150
251.000000	1.185616
252.000000	1.165300
253.000000	1.156820
254.000000	1.180834
255.000000	1.140042
256.000000	1.145999
257.000000	1.167210
258.000000	1.168030
259.000000	1.151970
260.000000	1.144833
261.000000	1.157189
262.000000	1.131050
263.000000	1.147170
264.000000	1.109774
265.000000	1.100781
266.000000	1.105441
267.000000	1.092743
268.000000	1.102627
269.000000	1.123075
270.000000	1.105767
271.000000	1.120787
272.000000	1.084996
273.000000	1.085087
274.000000	1.072247
275.000000	1.080016
276.000000	1.054473
277.000000	1.083107
278.000000	1.063924
279.000000	1.064487
280.000000	1.052490
281.000000	1.062844
282.000000	1.049763
283.000000	1.053451
284.000000	1.064418
285.000000	1.065029
286.000000	1.024982
287.000000	1.066041
288.000000	1.069466
289.000000	1.041626
290.000000	1.041839
291.000000	1.062613
292.000000	1.059932
293.000000	1.036630
294.000000	1.039903
295.000000	1.031338
296.000000	0.995610
297.000000	0.997170
298.000000	1.011694
299.000000	1.001587
300.000000	1.026765
301.000000	1.024267
302.000000	1.006840
303.000000	0.975251
304.000000	1.012950
305.000000	1.014724
306.000000	0.973214
307.000000	0.998581
308.000000	1.038457
309.000000	1.012263
310.000000	0.995923
311.000000	1.016839
312.000000	0.991962
313.000000	0.997939
314.000000	1.006996
315.000000	1.002925
316.000000	1.079471
317.000000	1.298608
318.000000	1.103984
319.000000	1.098592
320.000000	1.223470
321.000000	1.233857
322.000000	1.154077
323.000000	1.168833
324.000000	1.079734
325.000000	1.134933
326.000000	1.134538
327.000000	1.059298
328.000000	1.030583
329.000000	1.061124
330.000000	1.118661
331.000000	1.045012
332.000000	1.025139
333.000000	1.083458
334.000000	1.018600
335.000000	0.971887
336.000000	1.019254
337.000000	0.992030
338.000000	0.929656
339.000000	1.018959
340.000000	1.010723
341.000000	0.991619
342.000000	0.986720
343.000000	0.990263
344.000000	0.985487
345.000000	0.958151
346.000000	0.950411
347.000000	0.980463
348.000000	1.007891
349.000000	0.940062
350.000000	0.969907
351.000000	0.953192
352.000000	0.973688
353.000000	0.968641
354.000000	1.009074
355.000000	0.985767
356.000000	0.999958
357.000000	0.983457
358.000000	0.960855
359.000000	0.942501
360.000000	0.931524
361.000000	0.952025
362.000000	0.963666
363.000000	0.944884
364.000000	0.940938
365.000000	0.951154
366.000000	0.992224
367.000000	1.012108
368.000000	0.924365
369.000000	0.858388
370.000000	0.910129
371.000000	0.919700
372.000000	0.873106
373.000000	0.870990
374.000000	0.877924
375.000000	0.899114
376.000000	0.972510
377.000000	1.016516
378.000000	1.018290
379.000000	1.033435
380.000000	1.045422
381.000000	1.046500
382.000000	1.054725
383.000000	1.072990
384.000000	1.075656
385.000000	1.091189
386.000000	1.114566
387.000000	1.133812
388.000000	1.150168
389.000000	1.174837
390.000000	1.199968
391.000000	1.238328
392.000000	1.263079
393.000000	1.294537
394.000000	1.334711
395.000000	1.373778
396.000000	1.411744
397.000000	1.456919
398.000000	1.511278
399.000000	1.569679
400.000000	1.622526
401.000000	1.678806
402.000000	1.733291
403.000000	1.790698
404.000000	1.852956
405.000000	1.909049
406.000000	1.969766
407.000000	2.041202
408.000000	2.112165
409.000000	2.173008
410.000000	2.239383
411.000000	2.296830
412.000000	2.353626
413.000000	2.428010
414.000000	2.502912
415.000000	2.569810
416.000000	2.630617
417.000000	2.693446
418.000000	2.747577
419.000000	2.813040
420.000000	2.874062
421.000000	2.930905
422.000000	2.986760
423.000000	3.045408
424.000000	3.105931
425.000000	3.158290
426.000000	3.201894
427.000000	3.251022
428.000000	3.303585
429.000000	3.354222
430.000000	3.402711
431.000000	3.438846
432.000000	3.479359
433.000000	3.522979
434.000000	3.557181
435.000000	3.594966
436.000000	3.636192
437.000000	3.669544
438.000000	3.708030
439.000000	3.738355
440.000000	3.761692
441.000000	3.772548
442.000000	3.790795
443.000000	3.791088
444.000000	3.795469
445.000000	3.806745
446.000000	3.810878
447.000000	3.809767
448.000000	3.796382
449.000000	3.785107
450.000000	3.789084
451.000000	3.790216
452.000000	3.768759
453.000000	3.753818
454.000000	3.748778
455.000000	3.741451
456.000000	3.744660
457.000000	3.745409
458.000000	3.749519
459.000000	3.749673
460.000000	3.761683
461.000000	3.775961
462.000000	3.797356
463.000000	3.814296
464.000000	3.839888
465.000000	3.880093
466.000000	3.903697
467.000000	3.940749
468.000000	3.975679
469.000000	4.019210
470.000000	4.063244
471.000000	4.125530
472.000000	4.186495
473.000000	4.253158
474.000000	4.326785
475.000000	4.403832
476.000000	4.483474
477.000000	4.549954
478.000000	4.633786
479.000000	4.714793
480.000000	4.783570
481.000000	4.837994
482.000000	4.875609
483.000000	4.939395
484.000000	5.010511
485.000000	5.063081
486.000000	5.140534
487.000000	5.201575
488.000000	5.274702
489.000000	5.343864
490.000000	5.436466
491.000000	5.500568
492.000000	5.578354
493.000000	5.675319
494.000000	5.770680
495.000000	5.861696
496.000000	5.977755
497.000000	6.101148
498.000000	6.218001
499.000000	6.339311
500.000000	6.474339
501.000000	6.621017
502.000000	6.770895
503.000000	6.936720
504.000000	7.107274
505.000000	7.272580
506.000000	7.477886
507.000000	7.654495
508.000000	7.862271
509.000000	8.062809
510.000000	8.278471
511.000000	8.509277
512.000000	8.731460
513.000000	8.941417
514.000000	9.157507
515.000000	9.368489
516.000000	9.610802
517.000000	9.841819
518.000000	10.086883
519.000000	10.313118
520.000000	10.544272
521.000000	10.748941
522.000000	10.979921
523.000000	11.195040
524.000000	11.412090
525.000000	11.650672
526.000000	11.904375
527.000000	12.128046
528.000000	12.356636
529.000000	12.583964
530.000000	12.805910
531.000000	13.029140
532.000000	13.223542
533.000000	13.406011
534.000000	13.606412
535.000000	13.795512
536.000000	13.967264
537.000000	14.140539
538.000000	14.285689
539.000000	14.411151
540.000000	14.565782
541.000000	14.711495
542.000000	14.836852
543.000000	14.965761
544.000000	15.093858
545.000000	15.219150
546.000000	15.308673
547.000000	15.376216
548.000000	15.473235
549.000000	15.555119
550.000000	15.606001
551.000000	15.629474
552.000000	15.682255
553.000000	15.711042
554.000000	15.729094
555.000000	15.736231
556.000000	15.744408
557.000000	15.773297
558.000000	15.791982
559.000000	15.826052
560.000000	15.831057
561.000000	15.815709
562.000000	15.808401
563.000000	15.824141
564.000000	15.824862
565.000000	15.827817
566.000000	15.810355
567.000000	15.826195
568.000000	15.835229
569.000000	15.810508
570.000000	15.783704
571.000000	15.735643
572.000000	15.693808
573.000000	15.649548
574.000000	15.588366
575.000000	15.514017
576.000000	15.421646
577.000000	15.354082
578.000000	15.239348
579.000000	15.155496
580.000000	15.042761
581.000000	14.948169
582.000000	14.847234
583.000000	14.727975
584.000000	14.619380
585.000000	14.525256
586.000000	14.441976
587.000000	14.326875
588.000000	14.214277
589.000000	14.102011
590.000000	14.002054
591.000000	13.881655
592.000000	13.771685
593.000000	13.632894
594.000000	13.479868
595.000000	13.330078
596.000000	13.153290
597.000000	12.984059
598.000000	12.820789
599.000000	12.626018
600.000000	12.426669
601.000000	12.211105
602.000000	12.003773
603.000000	11.793915
604.000000	11.591325
605.000000	11.374853
606.000000	11.166555
607.000000	10.975022
608.000000	10.773160
609.000000	10.590847
610.000000	10.426112
611.000000	10.253662
612.000000	10.098588
613.000000	9.959368
614.000000	9.808030
615.000000	9.679037
616.000000	9.565569
617.000000	9.438280
618.000000	9.341293
619.000000	9.223615
620.000000	9.127392
621.000000	9.011686
622.000000	8.910605
623.000000	8.837367
624.000000	8.798181
625.000000	8.762842
626.000000	8.739670
627.000000	8.718177
628.000000	8.722710
629.000000	8.736281
630.000000	8.769074
631.000000	8.839503
632.000000	8.883594
633.000000	8.943932
634.000000	9.017631
635.000000	9.088851
636.000000	9.166276
637.000000	9.256129
638.000000	9.358441
639.000000	9.429721
640.000000	9.515142
641.000000	9.631220
642.000000	9.711123
643.000000	9.791299
644.000000	9.863984
645.000000	9.926787
646.000000	10.002769
647.000000	10.090411
648.000000	10.150013
649.000000	10.211148
650.000000	10.284352
651.000000	10.360301
652.000000	10.431892
653.000000	10.491788
654.000000	10.534881
655.000000	10.602327
656.000000	10.644810
657.000000	10.682406
658.000000	10.721829
659.000000	10.772702
660.000000	10.825352
661.000000	10.883884
662.000000	10.901855
663.000000	10.921953
664.000000	10.940339
665.000000	10.966825
666.000000	10.970149
667.000000	10.974136
668.000000	10.987467
669.000000	11.005970
670.000000	11.001167
671.000000	11.002777
672.000000	11.008950
673.000000	11.019577
674.000000	11.015321
675.000000	11.023800
676.000000	11.027958
677.000000	11.033470
678.000000	11.044777
679.000000	11.067060
680.000000	11.086630
681.000000	11.095832
682.000000	11.087572
683.000000	11.085554
684.000000	11.080331
685.000000	11.120887
686.000000	11.132908
687.000000	11.157238
688.000000	11.161286
689.000000	11.183205
690.000000	11.211696
691.000000	11.246242
692.000000	11.264794
693.000000	11.262492
694.000000	11.259178
695.000000	11.265378
696.000000	11.277268
697.000000	11.292916
698.000000	11.303168
699.000000	11.346665
700.000000	11.341218
701.000000	11.366060
702.000000	11.408068
703.000000	11.402282
704.000000	11.410936
705.000000	11.428336
706.000000	11.431697
707.000000	11.435222
708.000000	11.439918
709.000000	11.456488
710.000000	11.459212
711.000000	11.454401
712.000000	11.454984
713.000000	11.449309
714.000000	11.458743
715.000000	11.439470
716.000000	11.399603
717.000000	11.403035
718.000000	11.419981
719.000000	11.425423
720.000000	11.408394
721.000000	11.398270
722.000000	11.392293
723.000000	11.368453
724.000000	11.391471
725.000000	11.419932
726.000000	11.458024
727.000000	11.424467
728.000000	11.398598
729.000000	11.422038
730.000000	11.408102
731.000000	11.395683
732.000000	11.435993
733.000000	11.470671
734.000000	11.475026
735.000000	11.413633
736.000000	11.411971
737.000000	11.428998
738.000000	11.397851
739.000000	11.377676
740.000000	11.368978
741.000000	11.357323
742.000000	11.348187
743.000000	11.338765
744.000000	11.328898
745.000000	11.308570
746.000000	11.289671
747.000000	11.271024
748.000000	11.274425
749.000000	11.236068
750.000000	11.243637
751.000000	11.231693
752.000000	11.204232
753.000000	11.202007
754.000000	11.132502
755.000000	11.162234
756.000000	11.119728
757.000000	11.087595
758.000000	11.110353
759.000000	11.080892
760.000000	11.079132
761.000000	11.049850
762.000000	11.045752
763.000000	11.044361
764.000000	11.038068
765.000000	11.009683
766.000000	11.037338
767.000000	11.054495
768.000000	11.016573
769.000000	11.016139
770.000000	10.970425
771.000000	11.022355
772.000000	11.070180
773.000000	11.020285
774.000000	11.083738
775.000000	11.083007
776.000000	11.058177
777.000000	11.082428
778.000000	11.093528
779.000000	11.098713
780.000000	11.041590
781.000000	11.114467
782.000000	11.151541
783.000000	11.133477
784.000000	11.241578
785.000000	11.238159
786.000000	11.250103
787.000000	11.296236
788.000000	11.233847
789.000000	11.300664
790.000000	11.332515
791.000000	11.344021
792.000000	11.349247
793.000000	11.370009
794.000000	11.440375
795.000000	11.403885
796.000000	11.320058
797.000000	11.346143
798.000000	11.316714
799.000000	11.314909
800.000000	11.397792
801.000000	11.424638
802.000000	11.400148
803.000000	11.359711
804.000000	11.458341
805.000000	11.454058
806.000000	11.424803
807.000000	11.415593
808.000000	11.419782
809.000000	11.360664
810.000000	11.318772
811.000000	11.320082
812.000000	11.381091
813.000000	11.432989
814.000000	11.455691
815.000000	11.439965
816.000000	11.330872
817.000000	11.356007
818.000000	11.379460
819.000000	11.315158
820.000000	11.303492
821.000000	11.248983
822.000000	11.208802
823.000000	11.247925
824.000000	11.210179
825.000000	11.302165
826.000000	11.243603
827.000000	11.245275
828.000000	11.096681
829.000000	11.180545
830.000000	11.081642
831.000000	11.061749
832.000000	11.064701
833.000000	11.081384
834.000000	10.998642
835.000000	10.966722
836.000000	11.010780
837.000000	10.836267
838.000000	10.809333
839.000000	10.726221
840.000000	10.709006
841.000000	10.632197
842.000000	10.636703
843.000000	10.579012
844.000000	10.625151
845.000000	10.472415
846.000000	10.501039
847.000000	10.270192
848.000000	10.292043
849.000000	10.236110
850.000000	10.160699
851.000000	10.134079
852.000000	10.028228
853.000000	9.931376
854.000000	10.168410
855.000000	9.947368
856.000000	9.771416
857.000000	9.720543
858.000000	9.810720
859.000000	10.174116
860.000000	10.673478
861.000000	10.264242
862.000000	9.839861
863.000000	10.369313
864.000000	10.778964
865.000000	10.536407
866.000000	10.610380
867.000000	10.830127
868.000000	10.388404
869.000000	10.689536
870.000000	10.714448
871.000000	10.619648
872.000000	10.927796
873.000000	10.409830
874.000000	10.853911
875.000000	10.456545
876.000000	10.225235
877.000000	10.586209
878.000000	11.032997
879.000000	10.871317
880.000000	10.836382
881.000000	11.013422
882.000000	10.831515
883.000000	10.988502
884.000000	11.045292
885.000000	10.991082
886.000000	10.999301
887.000000	10.866683
888.000000	10.856867
889.000000	10.795506
890.000000	10.917728
891.000000	10.947155
892.000000	10.849528
893.000000	10.851442
894.000000	10.777700
895.000000	10.816744
896.000000	10.993833
897.000000	10.906285
898.000000	10.878949
899.000000	10.726680
900.000000	10.829412
901.000000	10.938705
902.000000	10.876838
903.000000	10.899318
904.000000	10.884869
905.000000	10.881980
906.000000	10.908830
907.000000	10.901251
908.000000	10.978430
909.000000	10.838837
910.000000	10.764844
911.000000	10.754957
912.000000	10.831108
913.000000	10.818618
914.000000	10.720675
915.000000	10.816997
916.000000	10.858306
917.000000	10.790576
918.000000	10.764308
919.000000	10.715400
920.000000	10.725903
921.000000	10.823969
922.000000	10.814436
923.000000	10.726401
924.000000	10.789452
925.000000	10.825108
926.000000	10.791683
927.000000	10.824969
928.000000	10.811122
929.000000	10.815635
930.000000	10.827885
931.000000	10.776882
932.000000	10.719423
933.000000	10.766835
934.000000	10.744212
935.000000	10.705670
936.000000	10.732703
937.000000	10.709415
938.000000	10.768304
939.000000	10.816770
940.000000	10.826038
941.000000	10.770410
942.000000	10.758649
943.000000	10.809252
944.000000	10.832864
945.000000	10.804500
946.000000	10.763353
947.000000	10.753222
948.000000	10.792388
949.000000	10.816824
950.000000	10.801570
951.000000	10.771331
952.000000	10.747455
953.000000	10.762169
954.000000	10.793328
955.000000	10.777714
956.000000	10.770511
957.000000	10.783993
958.000000	10.803202
959.000000	10.812213
960.000000	10.768926
961.000000	10.783056
962.000000	10.815153
963.000000	10.799059
964.000000	10.807258
965.000000	10.834897
966.000000	10.836618
967.000000	10.793090
968.000000	10.824831
969.000000	10.862617
970.000000	10.847183
971.000000	10.840533
972.000000	10.856284
973.000000	10.818319
974.000000	10.832177
975.000000	10.845340
976.000000	10.834498
977.000000	10.804489
978.000000	10.818117
979.000000	10.869712
980.000000	10.838820
981.000000	10.831642
982.000000	10.850399
983.000000	10.882825
984.000000	10.899051
985.000000	10.897046
986.000000	10.906471
987.000000	10.937187
988.000000	10.899808
989.000000	10.915315
990.000000	10.893231
991.000000	10.910394
992.000000	10.921280
993.000000	10.920723
994.000000	10.894597
995.000000	10.925882
996.000000	10.923576
997.000000	10.946194
998.000000	10.947021
999.000000	10.937724
1000.000000	10.958008
1001.000000	10.968070
1002.000000	10.996366
1003.000000	11.014365
1004.000000	10.967054
1005.000000	10.994860
1006.000000	10.964508
1007.000000	11.005526
1008.000000	11.018911
1009.000000	11.012213
1010.000000	10.998342
1011.000000	10.985718
1012.000000	10.987132
1013.000000	10.991553
1014.000000	10.999159
1015.000000	10.976876
1016.000000	10.955198
1017.000000	10.987076
1018.000000	11.026932
1019.000000	11.049531
1020.000000	11.058265
1021.000000	11.078749
1022.000000	11.095784
1023.000000	11.076691
1024.000000	11.058004
1025.000000	11.088198
1026.000000	11.101618
1027.000000	11.119868
1028.000000	11.135517
1029.000000	11.149072
1030.000000	11.171705
1031.000000	11.150382
1032.000000	11.164588
1033.000000	11.168468
1034.000000	11.170337
1035.000000	11.168576
1036.000000	11.171165
1037.000000	11.182697
1038.000000	11.187285
1039.000000	11.202494
1040.000000	11.186687
1041.000000	11.213652
1042.000000	11.233577
1043.000000	11.217700
1044.000000	11.200501
1045.000000	11.202839
1046.000000	11.194330
1047.000000	11.215784
1048.000000	11.232316
1049.000000	11.234443
1050.000000	11.241421
1051.000000	11.215745
1052.000000	11.262540
1053.000000	11.273386
1054.000000	11.263268
1055.000000	11.259608
1056.000000	11.303753
1057.000000	11.298072
1058.000000	11.301752
1059.000000	11.302534
1060.000000	11.293647
1061.000000	11.337834
1062.000000	11.323486
1063.000000	11.321225
1064.000000	11.367737
1065.000000	11.354466
1066.000000	11.343069
1067.000000	11.341531
1068.000000	11.331955
1069.000000	11.365142
1070.000000	11.361976
1071.000000	11.399267
1072.000000	11.389426
1073.000000	11.397921
1074.000000	11.382244
1075.000000	11.364806
1076.000000	11.424804
1077.000000	11.390545
1078.000000	11.382089
1079.000000	11.366593
1080.000000	11.376383
1081.000000	11.368544
1082.000000	11.404154
1083.000000	11.400323
1084.000000	11.442075
1085.000000	11.407580
1086.000000	11.436672
1087.000000	11.427455
1088.000000	11.409486
1089.000000	11.418888
1090.000000	11.459224
1091.000000	11.448415
1092.000000	11.442201
1093.000000	11.481860
1094.000000	11.478981
1095.000000	11.480822
1096.000000	11.478553
1097.000000	11.452552
1098.000000	11.457410
1099.000000	11.477824
1100.000000	11.486150
1101.000000	11.470699
1102.000000	11.469008
1103.000000	11.481387
1104.000000	11.487491
1105.000000	11.481084
1106.000000	11.473570
1107.000000	11.456574
1108.000000	11.440634
1109.000000	11.435451
1110.000000	11.456873
1111.000000	11.446561
1112.000000	11.460228
1113.000000	11.434503
1114.000000	11.435222
1115.000000	11.432427
1116.000000	11.427049
1117.000000	11.421859
1118.000000	11.431166
1119.000000	11.432275
1120.000000	11.419624
1121.000000	11.414432
1122.000000	11.395257
1123.000000	11.393292
1124.000000	11.387423
1125.000000	11.371554
1126.000000	11.391501
1127.000000	11.366005
1128.000000	11.340991
1129.000000	11.348455
1130.000000	11.337641
1131.000000	11.320658
1132.000000	11.286145
1133.000000	11.257273
1134.000000	11.246954
1135.000000	11.241199
1136.000000	11.237580
1137.000000	11.181613
1138.000000	11.132480
1139.000000	11.082625
1140.000000	11.030044
1141.000000	10.996230
1142.000000	10.959804
1143.000000	10.907089
1144.000000	10.858894
1145.000000	10.836070
1146.000000	10.804733
1147.000000	10.798884
1148.000000	10.769119
1149.000000	10.732583
1150.000000	10.750690
1151.000000	10.741959
1152.000000	10.754129
1153.000000	10.763522
1154.000000	10.751548
1155.000000	10.739747
1156.000000	10.732361
1157.000000	10.721653
1158.000000	10.697939
1159.000000	10.665782
1160.000000	10.612231
1161.000000	10.595470
1162.000000	10.525562
1163.000000	10.483251
1164.000000	10.439093
1165.000000	10.377562
1166.000000	10.321484
1167.000000	10.271691
1168.000000	10.226109
1169.000000	10.191547
1170.000000	10.113665
1171.000000	10.064358
1172.000000	10.015187
1173.000000	9.963545
1174.000000	9.928121
1175.000000	9.879485
1176.000000	9.837349
1177.000000	9.800684
1178.000000	9.753158
1179.000000	9.718231
1180.000000	9.650691
1181.000000	9.588619
1182.000000	9.506394
1183.000000	9.432505
1184.000000	9.354945
1185.000000	9.291134
1186.000000	9.261418
1187.000000	9.248084
1188.000000	9.245431
1189.000000	9.270541
1190.000000	9.319105
1191.000000	9.383598
1192.000000	9.448540
1193.000000	9.534521
1194.000000	9.607366
1195.000000	9.668363
1196.000000	9.717331
1197.000000	9.773488
1198.000000	9.810508
1199.000000	9.852574
1200.000000	9.880308
1201.000000	9.898859
1202.000000	9.899992
1203.000000	9.902069
1204.000000	9.916450
1205.000000	9.911899
1206.000000	9.916666
1207.000000	9.930404
1208.000000	9.945471
1209.000000	9.952690
1210.000000	9.958343
1211.000000	9.961474
1212.000000	9.975576
1213.000000	9.994793
1214.000000	10.025039
1215.000000	10.046690
1216.000000	10.053353
1217.000000	10.073201
1218.000000	10.080581
1219.000000	10.096725
1220.000000	10.105309
1221.000000	10.122755
1222.000000	10.129309
1223.000000	10.133582
1224.000000	10.153509
1225.000000	10.171496
1226.000000	10.182601
1227.000000	10.204246
1228.000000	10.226792
1229.000000	10.234138
1230.000000	10.250229
1231.000000	10.267775
1232.000000	10.299959
1233.000000	10.314991
1234.000000	10.324472
1235.000000	10.351106
1236.000000	10.368481
1237.000000	10.389588
1238.000000	10.396694
1239.000000	10.412833
1240.000000	10.438228
1241.000000	10.466690
1242.000000	10.483205
1243.000000	10.491748
1244.000000	10.501361
1245.000000	10.514019
1246.000000	10.528788
1247.000000	10.547900
1248.000000	10.568026
1249.000000	10.577566
1250.000000	10.599032
1251.000000	10.595047
1252.000000	10.601259
1253.000000	10.608216
1254.000000	10.618283
1255.000000	10.613732
1256.000000	10.615751
1257.000000	10.621327
1258.000000	10.625875
1259.000000	10.634760
1260.000000	10.639333
1261.000000	10.632997
1262.000000	10.618996
1263.000000	10.630288
1264.000000	10.632073
1265.000000	10.633344
1266.000000	10.623581
1267.000000	10.627491
1268.000000	10.625928
1269.000000	10.619982
1270.000000	10.617428
1271.000000	10.615045
1272.000000	10.612085
1273.000000	10.605350
1274.000000	10.616443
1275.000000	10.620214
1276.000000	10.601038
1277.000000	10.577311
1278.000000	10.570506
1279.000000	10.574938
1280.000000	10.567600
1281.000000	10.566558
1282.000000	10.582670
1283.000000	10.596625
1284.000000	10.611018
1285.000000	10.619746
1286.000000	10.610690
1287.000000	10.606472
1288.000000	10.609850
1289.000000	10.632327
1290.000000	10.657640
1291.000000	10.660491
1292.000000	10.661308
1293.000000	10.673562
1294.000000	10.681502
1295.000000	10.672471
1296.000000	10.683573
1297.000000	10.692052
1298.000000	10.707865
1299.000000	10.722660
1300.000000	10.706710
1301.000000	10.703186
1302.000000	10.707266
1303.000000	10.707505
1304.000000	10.720132
1305.000000	10.718646
1306.000000	10.693216
1307.000000	10.695094
1308.000000	10.690589
1309.000000	10.685409
1310.000000	10.700620
1311.000000	10.702286
1312.000000	10.698532
1313.000000	10.691477
1314.000000	10.671040
1315.000000	10.672323
1316.000000	10.664626
1317.000000	10.661172
1318.000000	10.658079
1319.000000	10.640403
1320.000000	10.640310
1321.000000	10.630129
1322.000000	10.622702
1323.000000	10.600167
1324.000000	10.607382
1325.000000	10.586787
1326.000000	10.572082
1327.000000	10.570220
1328.000000	10.536668
1329.000000	10.540194
1330.000000	10.526550
1331.000000	10.527050
1332.000000	10.503336
1333.000000	10.487582
1334.000000	10.448600
1335.000000	10.439650
1336.000000	10.400373
1337.000000	10.366181
1338.000000	10.353667
1339.000000	10.344177
1340.000000	10.317479
1341.000000	10.281997
1342.000000	10.258846
1343.000000	10.214400
1344.000000	10.189281
1345.000000	10.144077
1346.000000	10.100758
1347.000000	10.043470
1348.000000	10.024893
1349.000000	9.973580
1350.000000	9.885619
1351.000000	9.831697
1352.000000	9.758858
1353.000000	9.623537
1354.000000	9.550000
1355.000000	9.482324
1356.000000	9.391009
1357.000000	9.320859
1358.000000	9.259337
1359.000000	9.203216
1360.000000	9.186997
1361.000000	9.140059
1362.000000	9.178442
1363.000000	9.197496
1364.000000	9.115511
1365.000000	9.134766
1366.000000	9.100141
1367.000000	9.031027
1368.000000	9.023319
1369.000000	9.016999
1370.000000	8.940596
1371.000000	8.897074
1372.000000	8.832197
1373.000000	8.764657
1374.000000	8.689135
1375.000000	8.617853
1376.000000	8.606057
1377.000000	8.551262
1378.000000	8.529944
1379.000000	8.505353
1380.000000	8.469012
1381.000000	8.483082
1382.000000	8.451149
1383.000000	8.441989
1384.000000	8.407072
1385.000000	8.322958
1386.000000	8.262945
1387.000000	8.150117
1388.000000	8.118583
1389.000000	8.112817
1390.000000	8.044377
1391.000000	7.976612
1392.000000	7.930695
1393.000000	7.925932
1394.000000	7.892540
1395.000000	7.864957
1396.000000	7.922392
1397.000000	7.895258
1398.000000	7.800610
1399.000000	7.746302
1400.000000	7.726253
1401.000000	7.730234
1402.000000	7.677241
1403.000000	7.558887
1404.000000	7.446280
1405.000000	7.402563
1406.000000	7.326978
1407.000000	7.244847
1408.000000	7.181280
1409.000000	7.102510
1410.000000	7.043475
1411.000000	6.973690
1412.000000	6.887161
1413.000000	6.826274
1414.000000	6.779327
1415.000000	6.792841
1416.000000	6.732767
1417.000000	6.652400
1418.000000	6.598273
1419.000000	6.570081
1420.000000	6.533806
1421.000000	6.489374
1422.000000	6.412134
1423.000000	6.348167
1424.000000	6.318348
1425.000000	6.245758
1426.000000	6.207903
1427.000000	6.170703
1428.000000	6.121495
1429.000000	6.068675
1430.000000	6.033401
1431.000000	5.989625
1432.000000	5.955608
1433.000000	5.945127
1434.000000	5.910769
1435.000000	5.882039
1436.000000	5.855533
1437.000000	5.807236
1438.000000	5.791876
1439.000000	5.765878
1440.000000	5.733692
1441.000000	5.715208
1442.000000	5.671782
1443.000000	5.636439
1444.000000	5.607392
1445.000000	5.560978
1446.000000	5.555820
1447.000000	5.541588
1448.000000	5.489533
1449.000000	5.431627
1450.000000	5.388158
1451.000000	5.397674
1452.000000	5.383200
1453.000000	5.346599
1454.000000	5.310095
1455.000000	5.273581
1456.000000	5.263426
1457.000000	5.247121
1458.000000	5.214308
1459.000000	5.187165
1460.000000	5.167583
1461.000000	5.164505
1462.000000	5.142300
1463.000000	5.126571
1464.000000	5.110193
1465.000000	5.091180
1466.000000	5.074711
1467.000000	5.096611
1468.000000	5.126463
1469.000000	5.145276
1470.000000	5.147589
1471.000000	5.153706
1472.000000	5.152536
1473.000000	5.151712
1474.000000	5.146787
1475.000000	5.132762
1476.000000	5.117529
1477.000000	5.117135
1478.000000	5.103165
1479.000000	5.083263
1480.000000	5.077927
1481.000000	5.082912
1482.000000	5.073080
1483.000000	5.060873
1484.000000	5.049810
1485.000000	5.029270
1486.000000	5.030773
1487.000000	5.035795
1488.000000	5.015510
1489.000000	5.007076
1490.000000	5.015733
1491.000000	4.998631
1492.000000	4.999776
1493.000000	5.002724
1494.000000	4.991074
1495.000000	4.981717
1496.000000	4.984532
1497.000000	4.984398
1498.000000	4.985458
1499.000000	4.992826
1500.000000	4.996470
1501.000000	4.986736
1502.000000	4.996451
1503.000000	4.991993
1504.000000	5.005572
1505.000000	5.014613
1506.000000	5.006782
1507.000000	5.011507
1508.000000	5.029989
1509.000000	5.028875
1510.000000	5.041748
1511.000000	5.052876
1512.000000	5.049130
1513.000000	5.060695
1514.000000	5.066929
1515.000000	5.075554
1516.000000	5.084143
1517.000000	5.092282
1518.000000	5.096467
1519.000000	5.097366
1520.000000	5.097656
1521.000000	5.095357
1522.000000	5.101400
1523.000000	5.108410
1524.000000	5.110124
1525.000000	5.110830
1526.000000	5.128922
1527.000000	5.134266
1528.000000	5.128308
1529.000000	5.118877
1530.000000	5.129298
1531.000000	5.131581
1532.000000	5.137697
1533.000000	5.119306
1534.000000	5.147937
1535.000000	5.148010
1536.000000	5.126649
1537.000000	5.144665
1538.000000	5.145517
1539.000000	5.156211
1540.000000	5.142815
1541.000000	5.150360
1542.000000	5.139213
1543.000000	5.147313
1544.000000	5.156610
1545.000000	5.173994
1546.000000	5.172295
1547.000000	5.161072
1548.000000	5.173162
1549.000000	5.155195
1550.000000	5.173162
1551.000000	5.160704
1552.000000	5.169484
1553.000000	5.187877
1554.000000	5.199603
1555.000000	5.193086
1556.000000	5.168718
1557.000000	5.166483
1558.000000	5.176264
1559.000000	5.168507
1560.000000	5.170682
1561.000000	5.163251
1562.000000	5.157079
1563.000000	5.161146
1564.000000	5.162830
1565.000000	5.151062
1566.000000	5.138505
1567.000000	5.134758
1568.000000	5.149675
1569.000000	5.121895
1570.000000	5.134149
1571.000000	5.127788
1572.000000	5.123087
1573.000000	5.128304
1574.000000	5.134107
1575.000000	5.126714
1576.000000	5.128845
1577.000000	5.131107
1578.000000	5.141549
1579.000000	5.153759
1580.000000	5.157994
1581.000000	5.159876
1582.000000	5.158286
1583.000000	5.178606
1584.000000	5.178826
1585.000000	5.210867
1586.000000	5.219360
1587.000000	5.228311
1588.000000	5.208868
1589.000000	5.213319
1590.000000	5.246249
1591.000000	5.241927
1592.000000	5.236437
1593.000000	5.272395
1594.000000	5.264834
1595.000000	5.308881
1596.000000	5.324222
1597.000000	5.354181
1598.000000	5.366873
1599.000000	5.351103
1600.000000	5.388556
1601.000000	5.373360
1602.000000	5.395182
1603.000000	5.424328
1604.000000	5.452726
1605.000000	5.448920
1606.000000	5.465957
1607.000000	5.511058
1608.000000	5.503772
1609.000000	5.518359
1610.000000	5.523034
1611.000000	5.577943
1612.000000	5.586916
1613.000000	5.578711
1614.000000	5.600537
1615.000000	5.612283
1616.000000	5.645702
1617.000000	5.664395
1618.000000	5.637936
1619.000000	5.687488
1620.000000	5.675587
1621.000000	5.710610
1622.000000	5.721205
1623.000000	5.741206
1624.000000	5.765109
1625.000000	5.781912
1626.000000	5.818558
1627.000000	5.821932
1628.000000	5.846210
1629.000000	5.865013
1630.000000	5.861221
1631.000000	5.857306
1632.000000	5.893669
1633.000000	5.944871
1634.000000	5.941484
1635.000000	5.978307
1636.000000	6.008992
1637.000000	6.010554
1638.000000	5.995680
1639.000000	6.018998
1640.000000	6.045988
1641.000000	6.053406
1642.000000	6.067600
1643.000000	6.084247
1644.000000	6.119438
1645.000000	6.121082
1646.000000	6.125587
1647.000000	6.142611
1648.000000	6.146690
1649.000000	6.148485
1650.000000	6.159652
1651.000000	6.164054
1652.000000	6.167339
1653.000000	6.171137
1654.000000	6.174509
1655.000000	6.185686
1656.000000	6.194563
1657.000000	6.183509
1658.000000	6.166056
1659.000000	6.163695
1660.000000	6.158746
1661.000000	6.153585
1662.000000	6.159311
1663.000000	6.125288
1664.000000	6.105373
1665.000000	6.084317
1666.000000	6.064225
1667.000000	6.042152
1668.000000	6.036615
1669.000000	5.986749
1670.000000	5.942108
1671.000000	5.891420
1672.000000	5.854784
1673.000000	5.772839
1674.000000	5.698607
1675.000000	5.629068
1676.000000	5.556181
1677.000000	5.451657
1678.000000	5.318612
1679.000000	5.207562
1680.000000	5.063587
1681.000000	4.924611
1682.000000	4.818593
1683.000000	4.732291
1684.000000	4.696897
1685.000000	4.657793
1686.000000	4.627074
1687.000000	4.600664
1688.000000	4.621834
1689.000000	4.607315
1690.000000	4.584117
1691.000000	4.532137
1692.000000	4.491383
1693.000000	4.450050
1694.000000	4.444642
1695.000000	4.429532
1696.000000	4.436781
1697.000000	4.474784
1698.000000	4.475148
1699.000000	4.521646
1700.000000	4.560625
1701.000000	4.580957
1702.000000	4.637176
1703.000000	4.642867
1704.000000	4.659196
1705.000000	4.677872
1706.000000	4.699810
1707.000000	4.714474
1708.000000	4.715080
1709.000000	4.723439
1710.000000	4.714592
1711.000000	4.711559
1712.000000	4.684994
1713.000000	4.637108
1714.000000	4.618801
1715.000000	4.639256
1716.000000	4.640517
1717.000000	4.594545
1718.000000	4.559494
1719.000000	4.553915
1720.000000	4.550546
1721.000000	4.566784
1722.000000	4.558514
1723.000000	4.514385
1724.000000	4.480735
1725.000000	4.477018
1726.000000	4.482007
1727.000000	4.451462
1728.000000	4.428922
1729.000000	4.407944
1730.000000	4.363047
1731.000000	4.352520
1732.000000	4.346152
1733.000000	4.333865
1734.000000	4.297232
1735.000000	4.302709
1736.000000	4.345027
1737.000000	4.382328
1738.000000	4.410906
1739.000000	4.431047
1740.000000	4.489863
1741.000000	4.553592
1742.000000	4.591617
1743.000000	4.646707
1744.000000	4.696511
1745.000000	4.729618
1746.000000	4.759047
1747.000000	4.785100
1748.000000	4.812010
1749.000000	4.844837
1750.000000	4.866738
1751.000000	4.878799
1752.000000	4.885624
1753.000000	4.891986
1754.000000	4.909159
1755.000000	4.892567
1756.000000	4.893247
1757.000000	4.887135
1758.000000	4.868403
1759.000000	4.859285
1760.000000	4.838020
1761.000000	4.831533
1762.000000	4.817495
1763.000000	4.813470
1764.000000	4.821253
1765.000000	4.837678
1766.000000	4.852140
1767.000000	4.889607
1768.000000	4.913400
1769.000000	4.939736
1770.000000	4.996827
1771.000000	5.039313
1772.000000	5.018487
1773.000000	5.042293
1774.000000	5.089666
1775.000000	5.135988
1776.000000	5.190028
1777.000000	5.221878
1778.000000	5.232734
1779.000000	5.292684
1780.000000	5.283958
1781.000000	5.311634
1782.000000	5.346686
1783.000000	5.331245
1784.000000	5.377730
1785.000000	5.409040
1786.000000	5.408057
1787.000000	5.427608
1788.000000	5.450618
1789.000000	5.479061
1790.000000	5.487018
1791.000000	5.501827
1792.000000	5.495713
1793.000000	5.512566
1794.000000	5.557663
1795.000000	5.560402
1796.000000	5.554967
1797.000000	5.576911
1798.000000	5.564664
1799.000000	5.580940
1800.000000	5.570482
1801.000000	5.577843
1802.000000	5.600652
1803.000000	5.634692
1804.000000	5.623071
1805.000000	5.611839
1806.000000	5.610238
1807.000000	5.660063
1808.000000	5.675086
1809.000000	5.666977
1810.000000	5.667186
1811.000000	5.683591
1812.000000	5.669921
1813.000000	5.720665
1814.000000	5.714253
1815.000000	5.682020
1816.000000	5.735855
1817.000000	5.711423
1818.000000	5.724719
1819.000000	5.693275
1820.000000	5.666178
1821.000000	5.696166
1822.000000	5.715982
1823.000000	5.730490
1824.000000	5.709849
1825.000000	5.699541
1826.000000	5.671829
1827.000000	5.726756
1828.000000	5.731706
1829.000000	5.757433
1830.000000	5.729385
1831.000000	5.803015
1832.000000	5.836542
1833.000000	5.836728
1834.000000	5.835687
1835.000000	5.843591
1836.000000	5.861886
1837.000000	5.875314
1838.000000	5.913192
1839.000000	5.902854
1840.000000	5.953056
1841.000000	5.962176
1842.000000	5.973556
1843.000000	6.004545
1844.000000	5.983068
1845.000000	5.999175
1846.000000	5.889582
1847.000000	5.920934
1848.000000	5.961350
1849.000000	6.096641
1850.000000	6.061112
1851.000000	6.080427
1852.000000	6.080882
1853.000000	6.036551
1854.000000	6.099991
1855.000000	6.152130
1856.000000	6.126188
1857.000000	6.165739
1858.000000	6.166137
1859.000000	6.122596
1860.000000	6.136995
1861.000000	6.179975
1862.000000	6.193301
1863.000000	6.159244
1864.000000	6.111882
1865.000000	6.146516
1866.000000	6.117877
1867.000000	6.068152
1868.000000	6.118530
1869.000000	5.983823
1870.000000	5.969660
1871.000000	5.890211
1872.000000	5.913165
1873.000000	5.878196
1874.000000	5.892672
1875.000000	5.821272
1876.000000	5.711081
1877.000000	5.669983
1878.000000	5.617558
1879.000000	5.484468
1880.000000	5.370624
1881.000000	5.263419
1882.000000	5.180352
1883.000000	4.979215
1884.000000	4.979952
1885.000000	4.868583
1886.000000	4.667032
1887.000000	4.670098
1888.000000	4.522509
1889.000000	4.427911
1890.000000	4.389937
1891.000000	4.424676
1892.000000	4.233674
1893.000000	4.197985
1894.000000	4.127112
1895.000000	4.152623
1896.000000	4.087448
1897.000000	4.009590
1898.000000	3.906161
1899.000000	3.766100
1900.000000	3.763156
1901.000000	3.689526
1902.000000	3.711052
1903.000000	3.624588
1904.000000	3.564495
1905.000000	3.407669
1906.000000	3.430830
1907.000000	3.475912
1908.000000	3.368608
1909.000000	3.331908
1910.000000	3.252191
1911.000000	3.217369
1912.000000	3.123912
1913.000000	3.029387
1914.000000	3.049318
1915.000000	3.079328
1916.000000	2.994729
1917.000000	2.960404
1918.000000	2.875945
1919.000000	2.855847
1920.000000	2.723616
1921.000000	2.727064
1922.000000	2.787136
1923.000000	2.781676
1924.000000	2.729711
1925.000000	2.686888
1926.000000	2.645551
1927.000000	2.560646
1928.000000	2.613841
1929.000000	2.523181
1930.000000	2.491193
1931.000000	2.441801
1932.000000	2.464775
1933.000000	2.504215
1934.000000	2.473592
1935.000000	2.460406
1936.000000	2.469503
1937.000000	2.400800
1938.000000	2.394411
1939.000000	2.356234
1940.000000	2.366895
1941.000000	2.401807
1942.000000	2.446227
1943.000000	2.408477
1944.000000	2.408680
1945.000000	2.453823
1946.000000	2.374133
1947.000000	2.387051
1948.000000	2.433023
1949.000000	2.453728
1950.000000	2.411429
1951.000000	2.424051
1952.000000	2.447703
1953.000000	2.473635
1954.000000	2.458435
1955.000000	2.464942
1956.000000	2.496663
1957.000000	2.490064
1958.000000	2.543166
1959.000000	2.550175
1960.000000	2.554563
1961.000000	2.546387
1962.000000	2.541864
1963.000000	2.585484
1964.000000	2.593321
1965.000000	2.618288
1966.000000	2.622616
1967.000000	2.635960
1968.000000	2.606290
1969.000000	2.610053
1970.000000	2.663819
1971.000000	2.697148
1972.000000	2.683876
1973.000000	2.692798
1974.000000	2.713021
1975.000000	2.717556
1976.000000	2.707727
1977.000000	2.745036
1978.000000	2.789863
1979.000000	2.751434
1980.000000	2.755255
1981.000000	2.814252
1982.000000	2.841070
1983.000000	2.862085
1984.000000	2.820620
1985.000000	2.809610
1986.000000	2.884715
1987.000000	2.889048
1988.000000	2.876359
1989.000000	2.855921
1990.000000	2.897350
1991.000000	2.974182
1992.000000	3.019663
1993.000000	2.978727
1994.000000	2.977932
1995.000000	2.994619
1996.000000	2.971838
1997.000000	2.978876
1998.000000	3.004749
1999.000000	3.041067
2000.000000	3.034539
2001.000000	3.007265
2002.000000	3.041335
2003.000000	3.034096
2004.000000	2.993236
2005.000000	3.057418
2006.000000	3.028845
2007.000000	2.988481
2008.000000	3.030149
2009.000000	3.016472
2010.000000	2.975457
2011.000000	2.985850
2012.000000	2.953245
2013.000000	2.987368
2014.000000	3.040190
2015.000000	2.934448
2016.000000	2.876771
2017.000000	2.836613
2018.000000	2.889103
2019.000000	2.893093
2020.000000	2.890551
2021.000000	2.861105
2022.000000	2.812391
2023.000000	2.842621
2024.000000	2.856242
2025.000000	2.802888
2026.000000	2.758861
2027.000000	2.721164
2028.000000	2.673636
2029.000000	2.696157
2030.000000	2.696345
2031.000000	2.677860
2032.000000	2.670691
2033.000000	2.666703
2034.000000	2.648457
2035.000000	2.607509
2036.000000	2.526503
2037.000000	2.553002
2038.000000	2.514770
2039.000000	2.474283
2040.000000	2.465899
2041.000000	2.411797
2042.000000	2.491640
2043.000000	2.500809
2044.000000	2.325505
2045.000000	2.298599
2046.000000	2.488357
2047.000000	2.405046
2048.000000	2.346485
2049.000000	2.301689
2050.000000	2.153270
2051.000000	2.225169
2052.000000	2.373305
2053.000000	2.118700
2054.000000	2.111070
2055.000000	2.173388
2056.000000	2.222197
2057.000000	2.269834
2058.000000	2.242409
2059.000000	2.102746
2060.000000	2.150210
2061.000000	2.154377
2062.000000	2.144629
2063.000000	2.137362
2064.000000	2.184250
2065.000000	2.181750
2066.000000	2.126153
2067.000000	2.164246
2068.000000	2.154144
2069.000000	2.217302
2070.000000	2.310915
2071.000000	2.173803
2072.000000	2.265966
2073.000000	2.280038
2074.000000	2.162204
2075.000000	2.263368
2076.000000	2.406403
2077.000000	2.392836
2078.000000	2.323696
2079.000000	2.273426
2080.000000	2.276935
2081.000000	2.462968
2082.000000	2.417242
2083.000000	2.343679
2084.000000	2.351933
2085.000000	2.315679
2086.000000	2.541434
2087.000000	2.435448
2088.000000	2.319336
2089.000000	2.379395
2090.000000	2.301536
2091.000000	2.441311
2092.000000	2.512219
2093.000000	2.268619
2094.000000	2.695046
2095.000000	2.379191
2096.000000	2.510759
2097.000000	2.640458
2098.000000	2.484807
2099.000000	2.550903
2100.000000	2.644246
2101.000000	2.403089
2102.000000	2.425872
2103.000000	2.399283
2104.000000	2.323480
2105.000000	2.414398
2106.000000	2.426134
2107.000000	2.410101
2108.000000	2.363348
2109.000000	2.569004
2110.000000	2.434905
2111.000000	2.447009
2112.000000	2.415983
2113.000000	2.343220
2114.000000	2.524974
2115.000000	2.583418
2116.000000	2.480250
2117.000000	2.632903
2118.000000	2.777891
2119.000000	2.515485
2120.000000	2.794610
2121.000000	2.658604
2122.000000	2.417799
2123.000000	2.592652
2124.000000	2.343821
2125.000000	2.627577
2126.000000	2.581461
2127.000000	2.556745
2128.000000	2.500418
2129.000000	2.339971
2130.000000	2.485452
2131.000000	2.390855
2132.000000	2.320353
2133.000000	2.533645
2134.000000	2.637480
2135.000000	2.627699
2136.000000	2.584555
2137.000000	2.544658
2138.000000	2.270179
2139.000000	2.144317
2140.000000	2.319853
2141.000000	2.664140
2142.000000	2.427837
2143.000000	2.140121
2144.000000	2.333693
2145.000000	2.415094
2146.000000	2.365909
2147.000000	2.115676
2148.000000	2.548202
2149.000000	2.213466
2150.000000	2.218416
2151.000000	2.391785
2152.000000	2.320874
2153.000000	2.275301
2154.000000	2.000662
2155.000000	2.160560
2156.000000	2.274125
2157.000000	2.370786
2158.000000	2.302848
2159.000000	2.538975
2160.000000	2.074018
2161.000000	2.068240
2162.000000	2.331693
2163.000000	2.130331
2164.000000	2.259686
2165.000000	2.247910
2166.000000	1.806152
2167.000000	1.966800
2168.000000	1.870810
2169.000000	1.855445
2170.000000	1.943441
2171.000000	2.221995
2172.000000	1.977792
2173.000000	2.303311
2174.000000	2.088132
2175.000000	2.136217
2176.000000	2.315685
2177.000000	2.281069
2178.000000	2.498104
2179.000000	2.428817
2180.000000	2.087843
2181.000000	1.972772
2182.000000	2.128476
2183.000000	2.141804
2184.000000	2.218963
2185.000000	2.343300
2186.000000	2.340108
2187.000000	2.238914
2188.000000	2.290026
2189.000000	2.301309
2190.000000	2.356265
2191.000000	2.135426
2192.000000	2.333741
2193.000000	2.277028
2194.000000	2.137900
2195.000000	2.034477
2196.000000	2.433799
2197.000000	2.337497
2198.000000	2.099604
2199.000000	2.106982
2200.000000	2.293694
2201.000000	2.149327
2202.000000	2.204208
2203.000000	2.099764
2204.000000	2.098364
2205.000000	2.415891
2206.000000	2.307385
2207.000000	2.049021
2208.000000	2.205980
2209.000000	2.414833
2210.000000	2.550752
2211.000000	2.231110
2212.000000	2.218757
2213.000000	2.571379
2214.000000	2.425647
2215.000000	2.331055
2216.000000	2.361832
2217.000000	2.332742
2218.000000	2.435560
2219.000000	2.405723
2220.000000	2.418598
2221.000000	2.240833
2222.000000	2.397796
2223.000000	2.449148
2224.000000	2.338162
2225.000000	2.631708
2226.000000	2.580606
2227.000000	2.391856
2228.000000	2.559543
2229.000000	2.458700
2230.000000	2.236028
2231.000000	2.307220
2232.000000	2.146190
2233.000000	2.277026
2234.000000	2.378951
2235.000000	2.448573
2236.000000	2.313216
2237.000000	2.111394
2238.000000	2.206001
2239.000000	2.381685
2240.000000	2.415519
2241.000000	2.330807
2242.000000	2.180008
2243.000000	1.977115
2244.000000	2.093624
2245.000000	2.252735
2246.000000	2.272391
2247.000000	2.371392
2248.000000	2.079577
2249.000000	1.930502
2250.000000	1.942888
2251.000000	1.771311
2252.000000	1.866279
2253.000000	1.923036
2254.000000	1.912692
2255.000000	1.734357
2256.000000	1.765390
2257.000000	1.831085
2258.000000	1.628687
2259.000000	1.588554
2260.000000	1.542063
2261.000000	1.400725
2262.000000	1.338258
2263.000000	1.413523
2264.000000	1.387453
2265.000000	1.326617
2266.000000	1.446184
2267.000000	1.380118
2268.000000	1.208298
2269.000000	1.378628
2270.000000	1.404616
2271.000000	1.165389
2272.000000	1.142013
2273.000000	1.181886
2274.000000	1.239086
2275.000000	1.135170
2276.000000	1.277161
2277.000000	1.517106
2278.000000	1.335412
2279.000000	1.303461
2280.000000	1.386344
2281.000000	1.371819
2282.000000	1.452939
2283.000000	1.434555
2284.000000	1.506436
2285.000000	1.625097
2286.000000	1.593449
2287.000000	1.577225
2288.000000	1.624246
2289.000000	1.506699
2290.000000	1.319646
2291.000000	1.398218
2292.000000	1.654906
2293.000000	1.737212
2294.000000	1.384846
2295.000000	1.442643
2296.000000	1.620522
2297.000000	1.624376
2298.000000	1.633737
2299.000000	1.527740
2300.000000	1.445436
2301.000000	1.197278
2302.000000	1.059371
2303.000000	1.407895
2304.000000	1.437880
2305.000000	1.415107
2306.000000	1.350669
2307.000000	1.454858
2308.000000	1.585493
2309.000000	1.192672
2310.000000	1.083154
2311.000000	1.429992
2312.000000	1.582176
2313.000000	1.718295
2314.000000	1.967282
2315.000000	1.907080
2316.000000	1.680451
2317.000000	1.605258
2318.000000	1.910934
2319.000000	1.993143
2320.000000	1.873413
2321.000000	1.810518
2322.000000	1.784269
2323.000000	1.836829
2324.000000	1.638783
2325.000000	1.817685
2326.000000	1.839435
2327.000000	1.882021
2328.000000	2.092079
2329.000000	2.377413
2330.000000	1.836456
2331.000000	1.713628
2332.000000	1.502882
2333.000000	1.330656
2334.000000	1.945755
2335.000000	2.308942
2336.000000	2.145763
2337.000000	2.154239
2338.000000	1.645139
2339.000000	1.929736
2340.000000	1.672138
2341.000000	1.837101
2342.000000	1.839749
2343.000000	2.039014
2344.000000	2.033309
2345.000000	2.082134
2346.000000	2.654298
2347.000000	1.627998
2348.000000	1.930041
2349.000000	2.015818
2350.000000	1.985370
2351.000000	2.311067
2352.000000	2.300014
2353.000000	1.973365
2354.000000	1.817035
2355.000000	2.033418
2356.000000	1.755735
2357.000000	1.541050
2358.000000	1.896315
2359.000000	2.402421
2360.000000	2.759887
2361.000000	2.068025
2362.000000	1.727175
2363.000000	2.214157
2364.000000	1.364517
2365.000000	2.197060
2366.000000	2.129325
2367.000000	2.105785
2368.000000	2.185057
2369.000000	2.187278
2370.000000	2.037461
2371.000000	1.987932
2372.000000	2.191073
2373.000000	2.290764
2374.000000	2.355614
2375.000000	2.673599
2376.000000	2.210156
2377.000000	2.004404
2378.000000	2.131145
2379.000000	2.299329
2380.000000	2.249279
2381.000000	2.685273
2382.000000	2.456018
2383.000000	2.213082
2384.000000	2.035442
2385.000000	2.281439
2386.000000	2.547842
2387.000000	2.715704
2388.000000	2.309422
2389.000000	2.029621
2390.000000	2.143818
2391.000000	2.063133
2392.000000	2.138695
2393.000000	2.748145
2394.000000	2.495648
2395.000000	2.703258
2396.000000	2.393701
2397.000000	2.251144
2398.000000	2.580013
2399.000000	2.197860
2400.000000	1.972446
2401.000000	nan
2402.000000	nan
2403.000000	nan
2404.000000	nan
2405.000000	nan
2406.000000	nan
2407.000000	nan
2408.000000	nan
2409.000000	nan
2410.000000	nan
2411.000000	nan
2412.000000	nan
2413.000000	nan
2414.000000	nan
2415.000000	nan
2416.000000	nan
2417.000000	nan
2418.000000	nan
2419.000000	nan
2420.000000	nan
2421.000000	nan
2422.000000	nan
2423.000000	nan
2424.000000	nan
2425.000000	nan
2426.000000	nan
2427.000000	nan
2428.000000	nan
2429.000000	nan
2430.000000	nan
2431.000000	nan
2432.000000	nan
2433.000000	nan
2434.000000	nan
2435.000000	nan
2436.000000	nan
2437.000000	nan
2438.000000	nan
2439.000000	nan
2440.000000	nan
2441.000000	nan
2442.000000	nan
2443.000000	nan
2444.000000	nan
2445.000000	nan
2446.000000	nan
2447.000000	nan
2448.000000	nan
2449.000000	nan
2450.000000	nan
2451.000000	nan
2452.000000	nan
2453.000000	nan
2454.000000	nan
2455.000000	nan
2456.000000	nan
2457.000000	nan
2458.000000	nan
2459.000000	nan
2460.000000	nan
2461.000000	nan
2462.000000	nan
2463.000000	nan
2464.000000	nan
2465.000000	nan
2466.000000	nan
2467.000000	nan
2468.000000	nan
2469.000000	nan
2470.000000	nan
2471.000000	nan
2472.000000	nan
2473.000000	nan
2474.000000	nan
2475.000000	nan
2476.000000	nan
2477.000000	nan
2478.000000	nan
2479.000000	nan
2480.000000	nan
2481.000000	nan
2482.000000	nan
2483.000000	nan
2484.000000	nan
2485.000000	nan
2486.000000	nan
2487.000000	nan
2488.000000	nan
2489.000000	nan
2490.000000	nan
2491.000000	nan
2492.000000	nan
2493.000000	nan
2494.000000	nan
2495.000000	nan
2496.000000	nan
2497.000000	nan
2498.000000	nan
2499.000000	nan
2500.000000	nan
