PE UV       SUBTECH     SPECTRUM    ASCII       PEDS        4.00        
   -1
CICIMAUCR0097-3.Sample.ASC
24/04/18
13:31:23.00
24/04/18
13:31:23.00
Vinicio Soto Monge
C. kalinini
250,000000
1
Lambda 1050
1050L1511233
PerkinElmer UV WinLab 6.3.2.0749 / 2.02.05 Lambda 900 UV/VIS/NIR, Aug  7 2015 09:38:08

0
0
3350/servo 860,8/2
0
0
UV/VIS
1
1
1
DoubleDePol,CommonBeamDepol,RBeamAtt,SBeamAtt,60mm sphere, WB InGaAs Detector
0
0
0
0
Program
Program
3350/servo 860,8/2
3350/0,2 860,8/0,2
3350/0,2 860,8/0,2
0
15.00
 
 
 
0
 
860,8
319,2
860,8
Front
100
on
S:100 R:100
0
0
0
0
 
0
 
 
 
0
 
 
0
0
0
0
0
 
 
 
 
0
0


0
0
#HDR
-1
-1
#GR
nm
%R
1.0
0.0
2500,000000
-1,000000
2251
8
97,988000
5,671400
#DATA
250.000000	0.283512
251.000000	0.284824
252.000000	0.260226
253.000000	0.253807
254.000000	0.240235
255.000000	0.263585
256.000000	0.269091
257.000000	0.272987
258.000000	0.281743
259.000000	0.271034
260.000000	0.249311
261.000000	0.233153
262.000000	0.247735
263.000000	0.270124
264.000000	0.248956
265.000000	0.222563
266.000000	0.258397
267.000000	0.254485
268.000000	0.248425
269.000000	0.219650
270.000000	0.235352
271.000000	0.243653
272.000000	0.222025
273.000000	0.246440
274.000000	0.231512
275.000000	0.234655
276.000000	0.200944
277.000000	0.234322
278.000000	0.236436
279.000000	0.226504
280.000000	0.255133
281.000000	0.213456
282.000000	0.213416
283.000000	0.214763
284.000000	0.227562
285.000000	0.233922
286.000000	0.236493
287.000000	0.229180
288.000000	0.234761
289.000000	0.238471
290.000000	0.254850
291.000000	0.212240
292.000000	0.226222
293.000000	0.237263
294.000000	0.183163
295.000000	0.205364
296.000000	0.193964
297.000000	0.249858
298.000000	0.204706
299.000000	0.228632
300.000000	0.221780
301.000000	0.240150
302.000000	0.207647
303.000000	0.218387
304.000000	0.216083
305.000000	0.241369
306.000000	0.214076
307.000000	0.246745
308.000000	0.220657
309.000000	0.202042
310.000000	0.205651
311.000000	0.218342
312.000000	0.214624
313.000000	0.233135
314.000000	0.233639
315.000000	0.234567
316.000000	0.214929
317.000000	0.373080
318.000000	0.271787
319.000000	0.180716
320.000000	0.265992
321.000000	0.296914
322.000000	0.338519
323.000000	0.322535
324.000000	0.340689
325.000000	0.209462
326.000000	0.210799
327.000000	0.274150
328.000000	0.286610
329.000000	0.269305
330.000000	0.265000
331.000000	0.260744
332.000000	0.190173
333.000000	0.215807
334.000000	0.200104
335.000000	0.163817
336.000000	0.286414
337.000000	0.306364
338.000000	0.175503
339.000000	0.315400
340.000000	0.653982
341.000000	0.210029
342.000000	0.236855
343.000000	0.220754
344.000000	0.200446
345.000000	0.252213
346.000000	0.263060
347.000000	0.231583
348.000000	0.235763
349.000000	0.204593
350.000000	0.212628
351.000000	0.192142
352.000000	0.205430
353.000000	0.211618
354.000000	0.256542
355.000000	0.200891
356.000000	0.217530
357.000000	0.184236
358.000000	0.184701
359.000000	0.193263
360.000000	0.209816
361.000000	0.227207
362.000000	0.221924
363.000000	0.220433
364.000000	0.223142
365.000000	0.225260
366.000000	0.258049
367.000000	0.254525
368.000000	0.229237
369.000000	0.205446
370.000000	0.251714
371.000000	0.261873
372.000000	0.259811
373.000000	0.295288
374.000000	0.299626
375.000000	0.269095
376.000000	0.228108
377.000000	0.283262
378.000000	0.285660
379.000000	0.300099
380.000000	0.305792
381.000000	0.302787
382.000000	0.311789
383.000000	0.318994
384.000000	0.321568
385.000000	0.322168
386.000000	0.325971
387.000000	0.353005
388.000000	0.367380
389.000000	0.370037
390.000000	0.383883
391.000000	0.391539
392.000000	0.397731
393.000000	0.422306
394.000000	0.436005
395.000000	0.454597
396.000000	0.482395
397.000000	0.499552
398.000000	0.523180
399.000000	0.554409
400.000000	0.576530
401.000000	0.609269
402.000000	0.639972
403.000000	0.664638
404.000000	0.692480
405.000000	0.736899
406.000000	0.772126
407.000000	0.805204
408.000000	0.850631
409.000000	0.887009
410.000000	0.925972
411.000000	0.974585
412.000000	1.016309
413.000000	1.067044
414.000000	1.112240
415.000000	1.153452
416.000000	1.196368
417.000000	1.235929
418.000000	1.281966
419.000000	1.331836
420.000000	1.377719
421.000000	1.413683
422.000000	1.452523
423.000000	1.494981
424.000000	1.527373
425.000000	1.555010
426.000000	1.589072
427.000000	1.620213
428.000000	1.635836
429.000000	1.652710
430.000000	1.670105
431.000000	1.680358
432.000000	1.679222
433.000000	1.670623
434.000000	1.671481
435.000000	1.672657
436.000000	1.668142
437.000000	1.644855
438.000000	1.624615
439.000000	1.612283
440.000000	1.594972
441.000000	1.573621
442.000000	1.544302
443.000000	1.510769
444.000000	1.490275
445.000000	1.468939
446.000000	1.432297
447.000000	1.410188
448.000000	1.387424
449.000000	1.361430
450.000000	1.331104
451.000000	1.292598
452.000000	1.250356
453.000000	1.217203
454.000000	1.185417
455.000000	1.155084
456.000000	1.127385
457.000000	1.092367
458.000000	1.058120
459.000000	1.027986
460.000000	0.996365
461.000000	0.956683
462.000000	0.919760
463.000000	0.895861
464.000000	0.869158
465.000000	0.825604
466.000000	0.798086
467.000000	0.762646
468.000000	0.723456
469.000000	0.682758
470.000000	0.636915
471.000000	0.602555
472.000000	0.568224
473.000000	0.529700
474.000000	0.476668
475.000000	0.423388
476.000000	0.381804
477.000000	0.338889
478.000000	0.298177
479.000000	0.251273
480.000000	0.190441
481.000000	0.135817
482.000000	0.141551
483.000000	0.178639
484.000000	0.211707
485.000000	0.241346
486.000000	0.269582
487.000000	0.296720
488.000000	0.325775
489.000000	0.359424
490.000000	0.381937
491.000000	0.395245
492.000000	0.407169
493.000000	0.418524
494.000000	0.417563
495.000000	0.432858
496.000000	0.447057
497.000000	0.484426
498.000000	0.509487
499.000000	0.564431
500.000000	0.645416
501.000000	0.740291
502.000000	0.831820
503.000000	0.954606
504.000000	1.068851
505.000000	1.194240
506.000000	1.313089
507.000000	1.434488
508.000000	1.560068
509.000000	1.669423
510.000000	1.779068
511.000000	1.879265
512.000000	1.966725
513.000000	2.036626
514.000000	2.114237
515.000000	2.164436
516.000000	2.216559
517.000000	2.245973
518.000000	2.260449
519.000000	2.273855
520.000000	2.282801
521.000000	2.285506
522.000000	2.272596
523.000000	2.279448
524.000000	2.273579
525.000000	2.259585
526.000000	2.246960
527.000000	2.230402
528.000000	2.215216
529.000000	2.218224
530.000000	2.236842
531.000000	2.243042
532.000000	2.246884
533.000000	2.242805
534.000000	2.241465
535.000000	2.253733
536.000000	2.256219
537.000000	2.264974
538.000000	2.275776
539.000000	2.276459
540.000000	2.279154
541.000000	2.283506
542.000000	2.280594
543.000000	2.270951
544.000000	2.267538
545.000000	2.259834
546.000000	2.269433
547.000000	2.262840
548.000000	2.274949
549.000000	2.254827
550.000000	2.257067
551.000000	2.275828
552.000000	2.300890
553.000000	2.306805
554.000000	2.312838
555.000000	2.300012
556.000000	2.316081
557.000000	2.323882
558.000000	2.341083
559.000000	2.383774
560.000000	2.412849
561.000000	2.441344
562.000000	2.468162
563.000000	2.498650
564.000000	2.527419
565.000000	2.568170
566.000000	2.573340
567.000000	2.611113
568.000000	2.618460
569.000000	2.660521
570.000000	2.636046
571.000000	2.671433
572.000000	2.695675
573.000000	2.689048
574.000000	2.720833
575.000000	2.715061
576.000000	2.708699
577.000000	2.719436
578.000000	2.709068
579.000000	2.714186
580.000000	2.699313
581.000000	2.715765
582.000000	2.710640
583.000000	2.702724
584.000000	2.702195
585.000000	2.730913
586.000000	2.763034
587.000000	2.748216
588.000000	2.769978
589.000000	2.792035
590.000000	2.818654
591.000000	2.811477
592.000000	2.807061
593.000000	2.843943
594.000000	2.881570
595.000000	2.869361
596.000000	2.900364
597.000000	2.925508
598.000000	2.962238
599.000000	2.958956
600.000000	2.914896
601.000000	2.941258
602.000000	2.917374
603.000000	2.923556
604.000000	2.881536
605.000000	2.871152
606.000000	2.839667
607.000000	2.828621
608.000000	2.802864
609.000000	2.746872
610.000000	2.679728
611.000000	2.660208
612.000000	2.640021
613.000000	2.577471
614.000000	2.600360
615.000000	2.560259
616.000000	2.572251
617.000000	2.549280
618.000000	2.542380
619.000000	2.530184
620.000000	2.526274
621.000000	2.569484
622.000000	2.554019
623.000000	2.584579
624.000000	2.587695
625.000000	2.591977
626.000000	2.579702
627.000000	2.551437
628.000000	2.481760
629.000000	2.435843
630.000000	2.398031
631.000000	2.347476
632.000000	2.263354
633.000000	2.222877
634.000000	2.154361
635.000000	2.089282
636.000000	2.013621
637.000000	2.023032
638.000000	1.999916
639.000000	2.019944
640.000000	2.013760
641.000000	2.014201
642.000000	2.048483
643.000000	2.090153
644.000000	2.131732
645.000000	2.176733
646.000000	2.226090
647.000000	2.288381
648.000000	2.312758
649.000000	2.339954
650.000000	2.380811
651.000000	2.416907
652.000000	2.441507
653.000000	2.458899
654.000000	2.441406
655.000000	2.465846
656.000000	2.438978
657.000000	2.402415
658.000000	2.391042
659.000000	2.371080
660.000000	2.329521
661.000000	2.318741
662.000000	2.249254
663.000000	2.219674
664.000000	2.198955
665.000000	2.161554
666.000000	2.112201
667.000000	2.070185
668.000000	2.074607
669.000000	2.083619
670.000000	2.050227
671.000000	2.042430
672.000000	2.039636
673.000000	2.088915
674.000000	2.126330
675.000000	2.152272
676.000000	2.188457
677.000000	2.208577
678.000000	2.275543
679.000000	2.336095
680.000000	2.399849
681.000000	2.446578
682.000000	2.484371
683.000000	2.545355
684.000000	2.586374
685.000000	2.638887
686.000000	2.706748
687.000000	2.756504
688.000000	2.849169
689.000000	2.941953
690.000000	2.971923
691.000000	3.059774
692.000000	3.071206
693.000000	3.077797
694.000000	3.143598
695.000000	3.137246
696.000000	3.209433
697.000000	3.232367
698.000000	3.247812
699.000000	3.288672
700.000000	3.357317
701.000000	3.396726
702.000000	3.429312
703.000000	3.483946
704.000000	3.550166
705.000000	3.601687
706.000000	3.634137
707.000000	3.719692
708.000000	3.791299
709.000000	3.863107
710.000000	3.931259
711.000000	4.053783
712.000000	4.097224
713.000000	4.118827
714.000000	4.185231
715.000000	4.256714
716.000000	4.334617
717.000000	4.349755
718.000000	4.370557
719.000000	4.338204
720.000000	4.326780
721.000000	4.334527
722.000000	4.282752
723.000000	4.253585
724.000000	4.223103
725.000000	4.191766
726.000000	4.148781
727.000000	4.112403
728.000000	4.045003
729.000000	3.993337
730.000000	3.976125
731.000000	3.954025
732.000000	3.907660
733.000000	3.825042
734.000000	3.775413
735.000000	3.722691
736.000000	3.675371
737.000000	3.639701
738.000000	3.610829
739.000000	3.560893
740.000000	3.485798
741.000000	3.460534
742.000000	3.422333
743.000000	3.389454
744.000000	3.385710
745.000000	3.301638
746.000000	3.265083
747.000000	3.316450
748.000000	3.278970
749.000000	3.197992
750.000000	3.197690
751.000000	3.166381
752.000000	3.151930
753.000000	3.145185
754.000000	3.121784
755.000000	3.089677
756.000000	3.074216
757.000000	3.100519
758.000000	3.101852
759.000000	3.083432
760.000000	3.070622
761.000000	3.086770
762.000000	3.138890
763.000000	3.143683
764.000000	3.192413
765.000000	3.175407
766.000000	3.177268
767.000000	3.202780
768.000000	3.187766
769.000000	3.189528
770.000000	3.194465
771.000000	3.236286
772.000000	3.302260
773.000000	3.318267
774.000000	3.359883
775.000000	3.400063
776.000000	3.377594
777.000000	3.401877
778.000000	3.419623
779.000000	3.425466
780.000000	3.406999
781.000000	3.402053
782.000000	3.447371
783.000000	3.487205
784.000000	3.558008
785.000000	3.588339
786.000000	3.481606
787.000000	3.424072
788.000000	3.435315
789.000000	3.410479
790.000000	3.462971
791.000000	3.487481
792.000000	3.496492
793.000000	3.575391
794.000000	3.537921
795.000000	3.469323
796.000000	3.507950
797.000000	3.513436
798.000000	3.478107
799.000000	3.511736
800.000000	3.472788
801.000000	3.510700
802.000000	3.443656
803.000000	3.458401
804.000000	3.437890
805.000000	3.474398
806.000000	3.469339
807.000000	3.515137
808.000000	3.414720
809.000000	3.404995
810.000000	3.421001
811.000000	3.381442
812.000000	3.367927
813.000000	3.418092
814.000000	3.423546
815.000000	3.403838
816.000000	3.392580
817.000000	3.397023
818.000000	3.299335
819.000000	3.352943
820.000000	3.364888
821.000000	3.281906
822.000000	3.162732
823.000000	3.186575
824.000000	3.091267
825.000000	3.004305
826.000000	3.052457
827.000000	3.033179
828.000000	2.973222
829.000000	2.929863
830.000000	2.941135
831.000000	2.832056
832.000000	2.939927
833.000000	2.772102
834.000000	2.834863
835.000000	2.905682
836.000000	2.801402
837.000000	2.672585
838.000000	2.705087
839.000000	2.762148
840.000000	2.634565
841.000000	2.655899
842.000000	2.710485
843.000000	2.605033
844.000000	2.534831
845.000000	2.623546
846.000000	2.442872
847.000000	2.596688
848.000000	2.541653
849.000000	2.724244
850.000000	2.580635
851.000000	2.652268
852.000000	2.871106
853.000000	2.579502
854.000000	2.819632
855.000000	2.864569
856.000000	2.656469
857.000000	2.603141
858.000000	2.972425
859.000000	2.447452
860.000000	2.556980
861.000000	2.782223
862.000000	3.049850
863.000000	3.235055
864.000000	3.512875
865.000000	3.723536
866.000000	3.988066
867.000000	4.214035
868.000000	4.473684
869.000000	4.686053
870.000000	4.928512
871.000000	5.145031
872.000000	5.391714
873.000000	5.565764
874.000000	5.762096
875.000000	5.994834
876.000000	6.192751
877.000000	6.394207
878.000000	6.578977
879.000000	6.717440
880.000000	6.908148
881.000000	7.057315
882.000000	7.235976
883.000000	7.422927
884.000000	7.583842
885.000000	7.782933
886.000000	7.960867
887.000000	8.109986
888.000000	8.249560
889.000000	8.430696
890.000000	8.597729
891.000000	8.761739
892.000000	8.902220
893.000000	9.097608
894.000000	9.255200
895.000000	9.402570
896.000000	9.543779
897.000000	9.673254
898.000000	9.801079
899.000000	9.952273
900.000000	10.087939
901.000000	10.207926
902.000000	10.298591
903.000000	10.420825
904.000000	10.531236
905.000000	10.671770
906.000000	10.808787
907.000000	10.916085
908.000000	10.949334
909.000000	11.062473
910.000000	11.172820
911.000000	11.255945
912.000000	11.346219
913.000000	11.408152
914.000000	11.500399
915.000000	11.579668
916.000000	11.652853
917.000000	11.759406
918.000000	11.844329
919.000000	11.884931
920.000000	11.969190
921.000000	12.016565
922.000000	12.081843
923.000000	12.154755
924.000000	12.227973
925.000000	12.253094
926.000000	12.313521
927.000000	12.374151
928.000000	12.425470
929.000000	12.481447
930.000000	12.508344
931.000000	12.558185
932.000000	12.565098
933.000000	12.624465
934.000000	12.669059
935.000000	12.694377
936.000000	12.708217
937.000000	12.751995
938.000000	12.806714
939.000000	12.851351
940.000000	12.918626
941.000000	12.961291
942.000000	12.998058
943.000000	13.053174
944.000000	13.076579
945.000000	13.129870
946.000000	13.162924
947.000000	13.184924
948.000000	13.212553
949.000000	13.258796
950.000000	13.295932
951.000000	13.319292
952.000000	13.327419
953.000000	13.354608
954.000000	13.368004
955.000000	13.403865
956.000000	13.421974
957.000000	13.426229
958.000000	13.427491
959.000000	13.437710
960.000000	13.467715
961.000000	13.472362
962.000000	13.473430
963.000000	13.476195
964.000000	13.482038
965.000000	13.490929
966.000000	13.483408
967.000000	13.514658
968.000000	13.534280
969.000000	13.544506
970.000000	13.546534
971.000000	13.563299
972.000000	13.568928
973.000000	13.584158
974.000000	13.611385
975.000000	13.620717
976.000000	13.631659
977.000000	13.653377
978.000000	13.680968
979.000000	13.685300
980.000000	13.704974
981.000000	13.721190
982.000000	13.733834
983.000000	13.755743
984.000000	13.780758
985.000000	13.785550
986.000000	13.801787
987.000000	13.829905
988.000000	13.855846
989.000000	13.876342
990.000000	13.895658
991.000000	13.916838
992.000000	13.935678
993.000000	13.951497
994.000000	13.978555
995.000000	14.014755
996.000000	14.047625
997.000000	14.066106
998.000000	14.086538
999.000000	14.112011
1000.000000	14.134190
1001.000000	14.155772
1002.000000	14.164321
1003.000000	14.196002
1004.000000	14.223890
1005.000000	14.225416
1006.000000	14.234173
1007.000000	14.257479
1008.000000	14.282325
1009.000000	14.299106
1010.000000	14.305447
1011.000000	14.322439
1012.000000	14.342397
1013.000000	14.363923
1014.000000	14.380384
1015.000000	14.388767
1016.000000	14.409869
1017.000000	14.424790
1018.000000	14.441846
1019.000000	14.466818
1020.000000	14.493911
1021.000000	14.512631
1022.000000	14.526181
1023.000000	14.542282
1024.000000	14.552440
1025.000000	14.574408
1026.000000	14.600842
1027.000000	14.609636
1028.000000	14.626974
1029.000000	14.647858
1030.000000	14.667815
1031.000000	14.689272
1032.000000	14.703500
1033.000000	14.718935
1034.000000	14.726599
1035.000000	14.744193
1036.000000	14.774133
1037.000000	14.799009
1038.000000	14.808507
1039.000000	14.819066
1040.000000	14.838978
1041.000000	14.853906
1042.000000	14.871086
1043.000000	14.885885
1044.000000	14.907506
1045.000000	14.921321
1046.000000	14.927617
1047.000000	14.942245
1048.000000	14.959973
1049.000000	14.981422
1050.000000	15.000150
1051.000000	15.008498
1052.000000	15.016419
1053.000000	15.023511
1054.000000	15.029600
1055.000000	15.043301
1056.000000	15.062332
1057.000000	15.073124
1058.000000	15.080770
1059.000000	15.092081
1060.000000	15.085457
1061.000000	15.080433
1062.000000	15.093443
1063.000000	15.106144
1064.000000	15.111885
1065.000000	15.113970
1066.000000	15.120097
1067.000000	15.118534
1068.000000	15.120518
1069.000000	15.113734
1070.000000	15.115557
1071.000000	15.111099
1072.000000	15.106090
1073.000000	15.102713
1074.000000	15.098141
1075.000000	15.099068
1076.000000	15.103884
1077.000000	15.102543
1078.000000	15.088350
1079.000000	15.087832
1080.000000	15.088742
1081.000000	15.091381
1082.000000	15.073762
1083.000000	15.066897
1084.000000	15.061223
1085.000000	15.054961
1086.000000	15.050497
1087.000000	15.035112
1088.000000	15.019668
1089.000000	15.013920
1090.000000	15.013496
1091.000000	14.999356
1092.000000	14.984239
1093.000000	14.991345
1094.000000	14.977911
1095.000000	14.971673
1096.000000	14.954755
1097.000000	14.938560
1098.000000	14.932293
1099.000000	14.918881
1100.000000	14.915558
1101.000000	14.906741
1102.000000	14.897368
1103.000000	14.885192
1104.000000	14.874920
1105.000000	14.867077
1106.000000	14.848793
1107.000000	14.836048
1108.000000	14.828488
1109.000000	14.814558
1110.000000	14.812107
1111.000000	14.803235
1112.000000	14.801232
1113.000000	14.788656
1114.000000	14.775136
1115.000000	14.773953
1116.000000	14.776991
1117.000000	14.779494
1118.000000	14.764837
1119.000000	14.752194
1120.000000	14.762176
1121.000000	14.777925
1122.000000	14.775311
1123.000000	14.789678
1124.000000	14.796145
1125.000000	14.799099
1126.000000	14.801233
1127.000000	14.819259
1128.000000	14.833827
1129.000000	14.860617
1130.000000	14.886417
1131.000000	14.908644
1132.000000	14.956552
1133.000000	15.012036
1134.000000	15.075345
1135.000000	15.112755
1136.000000	15.166567
1137.000000	15.212470
1138.000000	15.271944
1139.000000	15.327548
1140.000000	15.396566
1141.000000	15.456537
1142.000000	15.508058
1143.000000	15.575890
1144.000000	15.619706
1145.000000	15.679062
1146.000000	15.703440
1147.000000	15.698700
1148.000000	15.686782
1149.000000	15.659528
1150.000000	15.642050
1151.000000	15.625247
1152.000000	15.600383
1153.000000	15.567864
1154.000000	15.557108
1155.000000	15.571939
1156.000000	15.588675
1157.000000	15.626177
1158.000000	15.665331
1159.000000	15.701963
1160.000000	15.745492
1161.000000	15.807267
1162.000000	15.869777
1163.000000	15.928610
1164.000000	15.988594
1165.000000	16.048336
1166.000000	16.098211
1167.000000	16.171927
1168.000000	16.234974
1169.000000	16.319209
1170.000000	16.384633
1171.000000	16.468212
1172.000000	16.552216
1173.000000	16.618341
1174.000000	16.716631
1175.000000	16.780473
1176.000000	16.881248
1177.000000	16.973234
1178.000000	17.097279
1179.000000	17.229432
1180.000000	17.391560
1181.000000	17.579412
1182.000000	17.762710
1183.000000	17.912745
1184.000000	18.034892
1185.000000	18.114552
1186.000000	18.151802
1187.000000	18.121107
1188.000000	18.082532
1189.000000	17.982635
1190.000000	17.840877
1191.000000	17.699128
1192.000000	17.550605
1193.000000	17.420551
1194.000000	17.311612
1195.000000	17.241293
1196.000000	17.183870
1197.000000	17.156621
1198.000000	17.134809
1199.000000	17.148943
1200.000000	17.166561
1201.000000	17.176303
1202.000000	17.181364
1203.000000	17.208968
1204.000000	17.228796
1205.000000	17.243810
1206.000000	17.257423
1207.000000	17.245233
1208.000000	17.253205
1209.000000	17.246080
1210.000000	17.234282
1211.000000	17.212590
1212.000000	17.186016
1213.000000	17.163244
1214.000000	17.120357
1215.000000	17.092913
1216.000000	17.061089
1217.000000	17.017022
1218.000000	16.963373
1219.000000	16.914045
1220.000000	16.870700
1221.000000	16.815661
1222.000000	16.758919
1223.000000	16.704081
1224.000000	16.642413
1225.000000	16.588699
1226.000000	16.518220
1227.000000	16.460348
1228.000000	16.390751
1229.000000	16.331115
1230.000000	16.281189
1231.000000	16.222728
1232.000000	16.171869
1233.000000	16.106790
1234.000000	16.054007
1235.000000	15.999890
1236.000000	15.953929
1237.000000	15.920804
1238.000000	15.879978
1239.000000	15.829982
1240.000000	15.782705
1241.000000	15.748458
1242.000000	15.723701
1243.000000	15.690316
1244.000000	15.666575
1245.000000	15.646590
1246.000000	15.621375
1247.000000	15.591685
1248.000000	15.587998
1249.000000	15.580202
1250.000000	15.555258
1251.000000	15.537593
1252.000000	15.541504
1253.000000	15.533285
1254.000000	15.500887
1255.000000	15.496548
1256.000000	15.491131
1257.000000	15.476578
1258.000000	15.465963
1259.000000	15.451316
1260.000000	15.432634
1261.000000	15.420380
1262.000000	15.416114
1263.000000	15.406262
1264.000000	15.382443
1265.000000	15.368831
1266.000000	15.357066
1267.000000	15.337453
1268.000000	15.322622
1269.000000	15.305874
1270.000000	15.292003
1271.000000	15.283263
1272.000000	15.265996
1273.000000	15.240912
1274.000000	15.221540
1275.000000	15.201493
1276.000000	15.188802
1277.000000	15.171555
1278.000000	15.145916
1279.000000	15.130264
1280.000000	15.112176
1281.000000	15.089205
1282.000000	15.070802
1283.000000	15.053705
1284.000000	15.045720
1285.000000	15.033436
1286.000000	15.016065
1287.000000	15.003056
1288.000000	14.985333
1289.000000	14.967543
1290.000000	14.951855
1291.000000	14.946565
1292.000000	14.937496
1293.000000	14.928851
1294.000000	14.928876
1295.000000	14.928385
1296.000000	14.921289
1297.000000	14.911811
1298.000000	14.909558
1299.000000	14.910583
1300.000000	14.908501
1301.000000	14.892738
1302.000000	14.879628
1303.000000	14.880856
1304.000000	14.888177
1305.000000	14.886747
1306.000000	14.889181
1307.000000	14.893081
1308.000000	14.902480
1309.000000	14.912900
1310.000000	14.920505
1311.000000	14.929476
1312.000000	14.937651
1313.000000	14.951632
1314.000000	14.969882
1315.000000	14.978103
1316.000000	14.987089
1317.000000	15.008873
1318.000000	15.029369
1319.000000	15.043390
1320.000000	15.050530
1321.000000	15.075317
1322.000000	15.108701
1323.000000	15.128993
1324.000000	15.152583
1325.000000	15.178052
1326.000000	15.205993
1327.000000	15.229738
1328.000000	15.261324
1329.000000	15.286700
1330.000000	15.323150
1331.000000	15.355056
1332.000000	15.391323
1333.000000	15.430388
1334.000000	15.473543
1335.000000	15.505883
1336.000000	15.540227
1337.000000	15.585684
1338.000000	15.638615
1339.000000	15.686441
1340.000000	15.735945
1341.000000	15.785875
1342.000000	15.838651
1343.000000	15.910298
1344.000000	15.968497
1345.000000	16.034152
1346.000000	16.108087
1347.000000	16.189008
1348.000000	16.269740
1349.000000	16.376784
1350.000000	16.501991
1351.000000	16.649884
1352.000000	16.806896
1353.000000	16.984955
1354.000000	17.189050
1355.000000	17.344430
1356.000000	17.459753
1357.000000	17.542253
1358.000000	17.583571
1359.000000	17.603061
1360.000000	17.628071
1361.000000	17.649077
1362.000000	17.666758
1363.000000	17.659417
1364.000000	17.708637
1365.000000	17.741065
1366.000000	17.775139
1367.000000	17.851197
1368.000000	17.940034
1369.000000	17.995494
1370.000000	18.105662
1371.000000	18.228099
1372.000000	18.320901
1373.000000	18.419101
1374.000000	18.497433
1375.000000	18.571358
1376.000000	18.608209
1377.000000	18.630987
1378.000000	18.615847
1379.000000	18.620603
1380.000000	18.607723
1381.000000	18.636355
1382.000000	18.682735
1383.000000	18.722364
1384.000000	18.798606
1385.000000	18.851813
1386.000000	18.903559
1387.000000	18.941381
1388.000000	18.978557
1389.000000	18.913035
1390.000000	18.894131
1391.000000	18.876824
1392.000000	18.829968
1393.000000	18.742327
1394.000000	18.718036
1395.000000	18.701778
1396.000000	18.578999
1397.000000	18.468529
1398.000000	18.433682
1399.000000	18.473002
1400.000000	18.486458
1401.000000	18.429873
1402.000000	18.383714
1403.000000	18.430793
1404.000000	18.426545
1405.000000	18.436628
1406.000000	18.433148
1407.000000	18.446862
1408.000000	18.444879
1409.000000	18.431051
1410.000000	18.357572
1411.000000	18.297687
1412.000000	18.224884
1413.000000	18.212094
1414.000000	18.150421
1415.000000	18.052132
1416.000000	17.998442
1417.000000	17.949541
1418.000000	17.959215
1419.000000	17.936483
1420.000000	17.890559
1421.000000	17.871273
1422.000000	17.865630
1423.000000	17.878667
1424.000000	17.849387
1425.000000	17.833206
1426.000000	17.834611
1427.000000	17.826509
1428.000000	17.839230
1429.000000	17.820665
1430.000000	17.808779
1431.000000	17.820155
1432.000000	17.798749
1433.000000	17.795467
1434.000000	17.784968
1435.000000	17.761470
1436.000000	17.751508
1437.000000	17.744354
1438.000000	17.757853
1439.000000	17.746297
1440.000000	17.762149
1441.000000	17.760419
1442.000000	17.776533
1443.000000	17.776847
1444.000000	17.786945
1445.000000	17.819114
1446.000000	17.853547
1447.000000	17.837760
1448.000000	17.830433
1449.000000	17.862245
1450.000000	17.895257
1451.000000	17.867323
1452.000000	17.882288
1453.000000	17.870709
1454.000000	17.874242
1455.000000	17.875188
1456.000000	17.867679
1457.000000	17.854104
1458.000000	17.840149
1459.000000	17.841650
1460.000000	17.831659
1461.000000	17.801669
1462.000000	17.791646
1463.000000	17.779361
1464.000000	17.766972
1465.000000	17.733671
1466.000000	17.718617
1467.000000	17.703648
1468.000000	17.677957
1469.000000	17.647064
1470.000000	17.638047
1471.000000	17.623515
1472.000000	17.600991
1473.000000	17.577220
1474.000000	17.551885
1475.000000	17.538075
1476.000000	17.532828
1477.000000	17.523482
1478.000000	17.511849
1479.000000	17.517476
1480.000000	17.524182
1481.000000	17.526721
1482.000000	17.519301
1483.000000	17.515946
1484.000000	17.521430
1485.000000	17.510915
1486.000000	17.513824
1487.000000	17.511472
1488.000000	17.517723
1489.000000	17.499343
1490.000000	17.497745
1491.000000	17.495108
1492.000000	17.498616
1493.000000	17.500528
1494.000000	17.496946
1495.000000	17.511829
1496.000000	17.521611
1497.000000	17.529360
1498.000000	17.535122
1499.000000	17.558791
1500.000000	17.577997
1501.000000	17.594884
1502.000000	17.618704
1503.000000	17.650422
1504.000000	17.671825
1505.000000	17.690861
1506.000000	17.721379
1507.000000	17.753092
1508.000000	17.780847
1509.000000	17.797521
1510.000000	17.819091
1511.000000	17.850294
1512.000000	17.882711
1513.000000	17.911390
1514.000000	17.943030
1515.000000	17.973490
1516.000000	17.995435
1517.000000	18.024164
1518.000000	18.048600
1519.000000	18.074524
1520.000000	18.104334
1521.000000	18.122742
1522.000000	18.140741
1523.000000	18.169991
1524.000000	18.189823
1525.000000	18.209371
1526.000000	18.230276
1527.000000	18.251625
1528.000000	18.283058
1529.000000	18.304700
1530.000000	18.318777
1531.000000	18.335109
1532.000000	18.364185
1533.000000	18.392055
1534.000000	18.404079
1535.000000	18.420672
1536.000000	18.436947
1537.000000	18.454217
1538.000000	18.473728
1539.000000	18.490983
1540.000000	18.504655
1541.000000	18.521424
1542.000000	18.536632
1543.000000	18.561108
1544.000000	18.582715
1545.000000	18.613518
1546.000000	18.654961
1547.000000	18.683213
1548.000000	18.712835
1549.000000	18.752591
1550.000000	18.801119
1551.000000	18.845744
1552.000000	18.881132
1553.000000	18.911120
1554.000000	18.941909
1555.000000	18.981368
1556.000000	19.019283
1557.000000	19.047305
1558.000000	19.069111
1559.000000	19.088633
1560.000000	19.104577
1561.000000	19.114649
1562.000000	19.127626
1563.000000	19.136546
1564.000000	19.143301
1565.000000	19.150187
1566.000000	19.151721
1567.000000	19.158314
1568.000000	19.158182
1569.000000	19.154364
1570.000000	19.155784
1571.000000	19.154047
1572.000000	19.151120
1573.000000	19.164693
1574.000000	19.182067
1575.000000	19.190217
1576.000000	19.195076
1577.000000	19.198004
1578.000000	19.206474
1579.000000	19.218598
1580.000000	19.228632
1581.000000	19.244287
1582.000000	19.257466
1583.000000	19.273485
1584.000000	19.292216
1585.000000	19.308614
1586.000000	19.315016
1587.000000	19.329566
1588.000000	19.347557
1589.000000	19.358425
1590.000000	19.372317
1591.000000	19.378323
1592.000000	19.384781
1593.000000	19.395768
1594.000000	19.404987
1595.000000	19.407469
1596.000000	19.412428
1597.000000	19.432117
1598.000000	19.443207
1599.000000	19.453809
1600.000000	19.464201
1601.000000	19.469733
1602.000000	19.476838
1603.000000	19.475765
1604.000000	19.486689
1605.000000	19.493397
1606.000000	19.500617
1607.000000	19.511374
1608.000000	19.505816
1609.000000	19.501287
1610.000000	19.490366
1611.000000	19.481760
1612.000000	19.478722
1613.000000	19.460396
1614.000000	19.447869
1615.000000	19.425074
1616.000000	19.396262
1617.000000	19.372219
1618.000000	19.340896
1619.000000	19.318376
1620.000000	19.283480
1621.000000	19.251359
1622.000000	19.235722
1623.000000	19.212349
1624.000000	19.185126
1625.000000	19.155396
1626.000000	19.130220
1627.000000	19.108628
1628.000000	19.080031
1629.000000	19.071355
1630.000000	19.052622
1631.000000	19.057708
1632.000000	19.047162
1633.000000	19.023577
1634.000000	19.001994
1635.000000	18.966128
1636.000000	18.949080
1637.000000	18.905614
1638.000000	18.879029
1639.000000	18.843798
1640.000000	18.814074
1641.000000	18.775759
1642.000000	18.744278
1643.000000	18.714077
1644.000000	18.687774
1645.000000	18.677496
1646.000000	18.650398
1647.000000	18.623109
1648.000000	18.596940
1649.000000	18.574218
1650.000000	18.559874
1651.000000	18.540422
1652.000000	18.511580
1653.000000	18.478969
1654.000000	18.463142
1655.000000	18.446519
1656.000000	18.419045
1657.000000	18.388679
1658.000000	18.370837
1659.000000	18.334872
1660.000000	18.309589
1661.000000	18.292087
1662.000000	18.267178
1663.000000	18.229780
1664.000000	18.207295
1665.000000	18.176633
1666.000000	18.155008
1667.000000	18.134918
1668.000000	18.131152
1669.000000	18.125591
1670.000000	18.111114
1671.000000	18.123069
1672.000000	18.153040
1673.000000	18.200567
1674.000000	18.271359
1675.000000	18.374591
1676.000000	18.504371
1677.000000	18.675060
1678.000000	18.847979
1679.000000	19.032096
1680.000000	19.222735
1681.000000	19.356007
1682.000000	19.453195
1683.000000	19.477410
1684.000000	19.425520
1685.000000	19.328497
1686.000000	19.234170
1687.000000	19.153512
1688.000000	19.114875
1689.000000	19.145860
1690.000000	19.214171
1691.000000	19.322349
1692.000000	19.449215
1693.000000	19.562042
1694.000000	19.658455
1695.000000	19.713031
1696.000000	19.726175
1697.000000	19.719584
1698.000000	19.675533
1699.000000	19.614111
1700.000000	19.543097
1701.000000	19.463379
1702.000000	19.398148
1703.000000	19.356640
1704.000000	19.308749
1705.000000	19.275803
1706.000000	19.229096
1707.000000	19.176488
1708.000000	19.121271
1709.000000	19.066134
1710.000000	19.018273
1711.000000	18.944835
1712.000000	18.893203
1713.000000	18.801813
1714.000000	18.741183
1715.000000	18.681501
1716.000000	18.577947
1717.000000	18.492629
1718.000000	18.377021
1719.000000	18.267216
1720.000000	18.162733
1721.000000	18.080805
1722.000000	18.021550
1723.000000	17.986993
1724.000000	17.990896
1725.000000	18.024491
1726.000000	18.071552
1727.000000	18.153367
1728.000000	18.226423
1729.000000	18.301923
1730.000000	18.386942
1731.000000	18.466093
1732.000000	18.540712
1733.000000	18.573338
1734.000000	18.593905
1735.000000	18.594162
1736.000000	18.561410
1737.000000	18.512800
1738.000000	18.451930
1739.000000	18.368013
1740.000000	18.278170
1741.000000	18.195363
1742.000000	18.109742
1743.000000	18.043264
1744.000000	17.972739
1745.000000	17.922618
1746.000000	17.887531
1747.000000	17.863958
1748.000000	17.842310
1749.000000	17.823055
1750.000000	17.802366
1751.000000	17.791690
1752.000000	17.780562
1753.000000	17.771278
1754.000000	17.773974
1755.000000	17.781882
1756.000000	17.807436
1757.000000	17.839373
1758.000000	17.875355
1759.000000	17.913144
1760.000000	17.950505
1761.000000	17.973706
1762.000000	17.997840
1763.000000	18.009039
1764.000000	18.007062
1765.000000	17.995468
1766.000000	17.956928
1767.000000	17.927753
1768.000000	17.876048
1769.000000	17.820933
1770.000000	17.764605
1771.000000	17.714637
1772.000000	17.657688
1773.000000	17.593546
1774.000000	17.539746
1775.000000	17.484968
1776.000000	17.441609
1777.000000	17.401034
1778.000000	17.354807
1779.000000	17.316380
1780.000000	17.280022
1781.000000	17.241036
1782.000000	17.188674
1783.000000	17.152744
1784.000000	17.116803
1785.000000	17.050297
1786.000000	16.994923
1787.000000	16.958047
1788.000000	16.917244
1789.000000	16.871875
1790.000000	16.837846
1791.000000	16.806218
1792.000000	16.775201
1793.000000	16.757470
1794.000000	16.743218
1795.000000	16.711889
1796.000000	16.702198
1797.000000	16.683151
1798.000000	16.680407
1799.000000	16.669390
1800.000000	16.652820
1801.000000	16.644418
1802.000000	16.611779
1803.000000	16.591263
1804.000000	16.583081
1805.000000	16.566686
1806.000000	16.549073
1807.000000	16.547310
1808.000000	16.533502
1809.000000	16.523329
1810.000000	16.533043
1811.000000	16.536137
1812.000000	16.525115
1813.000000	16.519228
1814.000000	16.520549
1815.000000	16.532830
1816.000000	16.538286
1817.000000	16.533730
1818.000000	16.549584
1819.000000	16.575526
1820.000000	16.569922
1821.000000	16.512457
1822.000000	16.448098
1823.000000	16.435847
1824.000000	16.453485
1825.000000	16.452390
1826.000000	16.433688
1827.000000	16.394037
1828.000000	16.366557
1829.000000	16.350301
1830.000000	16.302343
1831.000000	16.247251
1832.000000	16.229967
1833.000000	16.234435
1834.000000	16.249321
1835.000000	16.264314
1836.000000	16.245394
1837.000000	16.200965
1838.000000	16.169071
1839.000000	16.175936
1840.000000	16.182712
1841.000000	16.155632
1842.000000	16.099085
1843.000000	16.065830
1844.000000	16.078871
1845.000000	16.118761
1846.000000	16.133977
1847.000000	16.093241
1848.000000	15.982964
1849.000000	15.885549
1850.000000	15.839645
1851.000000	15.819829
1852.000000	15.781972
1853.000000	15.741778
1854.000000	15.690856
1855.000000	15.628347
1856.000000	15.581265
1857.000000	15.544444
1858.000000	15.507914
1859.000000	15.451968
1860.000000	15.383781
1861.000000	15.312760
1862.000000	15.277375
1863.000000	15.255768
1864.000000	15.254581
1865.000000	15.265870
1866.000000	15.271608
1867.000000	15.292751
1868.000000	15.286973
1869.000000	15.267069
1870.000000	15.225445
1871.000000	15.191623
1872.000000	15.179092
1873.000000	15.154912
1874.000000	15.133001
1875.000000	15.141729
1876.000000	15.146202
1877.000000	15.165801
1878.000000	15.200155
1879.000000	15.228160
1880.000000	15.263685
1881.000000	15.308587
1882.000000	15.326303
1883.000000	15.320809
1884.000000	15.275153
1885.000000	15.171546
1886.000000	15.047950
1887.000000	14.930791
1888.000000	14.806746
1889.000000	14.631160
1890.000000	14.454254
1891.000000	14.247941
1892.000000	14.007520
1893.000000	13.774276
1894.000000	13.573074
1895.000000	13.389179
1896.000000	13.244789
1897.000000	13.075749
1898.000000	12.879585
1899.000000	12.651261
1900.000000	12.397070
1901.000000	12.181018
1902.000000	12.014624
1903.000000	11.842505
1904.000000	11.684757
1905.000000	11.497272
1906.000000	11.279020
1907.000000	11.093259
1908.000000	10.945670
1909.000000	10.849085
1910.000000	10.772315
1911.000000	10.669795
1912.000000	10.563645
1913.000000	10.409291
1914.000000	10.269463
1915.000000	10.169669
1916.000000	10.088811
1917.000000	10.026440
1918.000000	9.977903
1919.000000	9.912014
1920.000000	9.825247
1921.000000	9.752593
1922.000000	9.654323
1923.000000	9.603986
1924.000000	9.579630
1925.000000	9.548372
1926.000000	9.512790
1927.000000	9.473420
1928.000000	9.441139
1929.000000	9.389997
1930.000000	9.375507
1931.000000	9.368643
1932.000000	9.354697
1933.000000	9.346207
1934.000000	9.333530
1935.000000	9.351742
1936.000000	9.347932
1937.000000	9.352752
1938.000000	9.355446
1939.000000	9.354508
1940.000000	9.367778
1941.000000	9.370284
1942.000000	9.390571
1943.000000	9.423824
1944.000000	9.435056
1945.000000	9.458891
1946.000000	9.490800
1947.000000	9.507158
1948.000000	9.531816
1949.000000	9.566226
1950.000000	9.601089
1951.000000	9.639988
1952.000000	9.665370
1953.000000	9.705165
1954.000000	9.739801
1955.000000	9.764780
1956.000000	9.797421
1957.000000	9.838570
1958.000000	9.872567
1959.000000	9.911860
1960.000000	9.937380
1961.000000	9.974325
1962.000000	10.006774
1963.000000	10.032828
1964.000000	10.074416
1965.000000	10.103914
1966.000000	10.126162
1967.000000	10.142202
1968.000000	10.184355
1969.000000	10.212814
1970.000000	10.247658
1971.000000	10.281719
1972.000000	10.298753
1973.000000	10.327542
1974.000000	10.349166
1975.000000	10.391530
1976.000000	10.416129
1977.000000	10.464043
1978.000000	10.486759
1979.000000	10.526015
1980.000000	10.543703
1981.000000	10.581751
1982.000000	10.615808
1983.000000	10.652401
1984.000000	10.671750
1985.000000	10.707405
1986.000000	10.743986
1987.000000	10.772775
1988.000000	10.798360
1989.000000	10.828459
1990.000000	10.866429
1991.000000	10.901242
1992.000000	10.931379
1993.000000	10.974153
1994.000000	10.992607
1995.000000	11.028482
1996.000000	11.050166
1997.000000	11.081468
1998.000000	11.116301
1999.000000	11.150328
2000.000000	11.170125
2001.000000	11.207481
2002.000000	11.236048
2003.000000	11.271208
2004.000000	11.282939
2005.000000	11.300417
2006.000000	11.317627
2007.000000	11.346822
2008.000000	11.373559
2009.000000	11.376322
2010.000000	11.396864
2011.000000	11.406055
2012.000000	11.412230
2013.000000	11.431951
2014.000000	11.448986
2015.000000	11.452812
2016.000000	11.454768
2017.000000	11.454988
2018.000000	11.464516
2019.000000	11.472734
2020.000000	11.460900
2021.000000	11.462200
2022.000000	11.450770
2023.000000	11.442678
2024.000000	11.436519
2025.000000	11.426680
2026.000000	11.424811
2027.000000	11.406125
2028.000000	11.381500
2029.000000	11.366580
2030.000000	11.340334
2031.000000	11.320998
2032.000000	11.293535
2033.000000	11.253045
2034.000000	11.232832
2035.000000	11.189513
2036.000000	11.153090
2037.000000	11.124967
2038.000000	11.070075
2039.000000	11.025397
2040.000000	10.978750
2041.000000	10.937785
2042.000000	10.885200
2043.000000	10.847705
2044.000000	10.798033
2045.000000	10.742902
2046.000000	10.689611
2047.000000	10.658746
2048.000000	10.617704
2049.000000	10.588950
2050.000000	10.570109
2051.000000	10.550176
2052.000000	10.539826
2053.000000	10.538410
2054.000000	10.558222
2055.000000	10.575383
2056.000000	10.593245
2057.000000	10.630605
2058.000000	10.667775
2059.000000	10.723654
2060.000000	10.778365
2061.000000	10.841549
2062.000000	10.896063
2063.000000	10.954216
2064.000000	11.028189
2065.000000	11.097417
2066.000000	11.157866
2067.000000	11.230083
2068.000000	11.297271
2069.000000	11.357496
2070.000000	11.414448
2071.000000	11.477454
2072.000000	11.534465
2073.000000	11.589734
2074.000000	11.640334
2075.000000	11.686956
2076.000000	11.730722
2077.000000	11.761588
2078.000000	11.783003
2079.000000	11.813993
2080.000000	11.845527
2081.000000	11.865860
2082.000000	11.874787
2083.000000	11.876963
2084.000000	11.877135
2085.000000	11.881968
2086.000000	11.879983
2087.000000	11.879073
2088.000000	11.874288
2089.000000	11.861458
2090.000000	11.848899
2091.000000	11.848116
2092.000000	11.830541
2093.000000	11.795245
2094.000000	11.776376
2095.000000	11.765711
2096.000000	11.754955
2097.000000	11.747239
2098.000000	11.717854
2099.000000	11.696570
2100.000000	11.694907
2101.000000	11.685838
2102.000000	11.671773
2103.000000	11.651937
2104.000000	11.642010
2105.000000	11.623382
2106.000000	11.611233
2107.000000	11.601677
2108.000000	11.584863
2109.000000	11.573489
2110.000000	11.554133
2111.000000	11.540894
2112.000000	11.522501
2113.000000	11.496198
2114.000000	11.480050
2115.000000	11.456139
2116.000000	11.428486
2117.000000	11.407719
2118.000000	11.383194
2119.000000	11.357544
2120.000000	11.326530
2121.000000	11.294186
2122.000000	11.252053
2123.000000	11.213172
2124.000000	11.181685
2125.000000	11.145865
2126.000000	11.112011
2127.000000	11.074893
2128.000000	11.032698
2129.000000	10.985412
2130.000000	10.922522
2131.000000	10.888255
2132.000000	10.845463
2133.000000	10.797832
2134.000000	10.743048
2135.000000	10.696650
2136.000000	10.649247
2137.000000	10.588779
2138.000000	10.526020
2139.000000	10.456622
2140.000000	10.396033
2141.000000	10.338564
2142.000000	10.278662
2143.000000	10.218905
2144.000000	10.171107
2145.000000	10.112655
2146.000000	10.047353
2147.000000	9.987007
2148.000000	9.928682
2149.000000	9.877740
2150.000000	9.817814
2151.000000	9.756242
2152.000000	9.700711
2153.000000	9.649751
2154.000000	9.595870
2155.000000	9.540471
2156.000000	9.492407
2157.000000	9.432667
2158.000000	9.386411
2159.000000	9.350929
2160.000000	9.317810
2161.000000	9.275875
2162.000000	9.245406
2163.000000	9.225968
2164.000000	9.188631
2165.000000	9.170638
2166.000000	9.154095
2167.000000	9.142788
2168.000000	9.133590
2169.000000	9.109617
2170.000000	9.092860
2171.000000	9.084232
2172.000000	9.092660
2173.000000	9.092352
2174.000000	9.086319
2175.000000	9.093634
2176.000000	9.095148
2177.000000	9.084644
2178.000000	9.101048
2179.000000	9.112848
2180.000000	9.108828
2181.000000	9.134017
2182.000000	9.139754
2183.000000	9.140702
2184.000000	9.150333
2185.000000	9.165052
2186.000000	9.162516
2187.000000	9.164650
2188.000000	9.170844
2189.000000	9.175893
2190.000000	9.176124
2191.000000	9.197600
2192.000000	9.207237
2193.000000	9.223803
2194.000000	9.236041
2195.000000	9.249042
2196.000000	9.261220
2197.000000	9.268654
2198.000000	9.286970
2199.000000	9.299789
2200.000000	9.324693
2201.000000	9.347944
2202.000000	9.358679
2203.000000	9.379989
2204.000000	9.408190
2205.000000	9.438214
2206.000000	9.458098
2207.000000	9.491040
2208.000000	9.507256
2209.000000	9.537422
2210.000000	9.584366
2211.000000	9.615406
2212.000000	9.657534
2213.000000	9.709572
2214.000000	9.746992
2215.000000	9.807143
2216.000000	9.846939
2217.000000	9.887055
2218.000000	9.943612
2219.000000	10.002744
2220.000000	10.043737
2221.000000	10.101583
2222.000000	10.155398
2223.000000	10.185672
2224.000000	10.232476
2225.000000	10.287279
2226.000000	10.337499
2227.000000	10.379348
2228.000000	10.422686
2229.000000	10.466463
2230.000000	10.509234
2231.000000	10.534355
2232.000000	10.573764
2233.000000	10.602871
2234.000000	10.629552
2235.000000	10.676830
2236.000000	10.675003
2237.000000	10.685140
2238.000000	10.705524
2239.000000	10.718426
2240.000000	10.727909
2241.000000	10.719061
2242.000000	10.712817
2243.000000	10.699274
2244.000000	10.688807
2245.000000	10.649921
2246.000000	10.649430
2247.000000	10.619812
2248.000000	10.599173
2249.000000	10.568366
2250.000000	10.512680
2251.000000	10.491048
2252.000000	10.440730
2253.000000	10.407157
2254.000000	10.378436
2255.000000	10.333057
2256.000000	10.293395
2257.000000	10.260453
2258.000000	10.227876
2259.000000	10.192135
2260.000000	10.161277
2261.000000	10.128953
2262.000000	10.103064
2263.000000	10.069312
2264.000000	10.048987
2265.000000	10.013015
2266.000000	9.990088
2267.000000	9.962092
2268.000000	9.945672
2269.000000	9.926542
2270.000000	9.902981
2271.000000	9.893571
2272.000000	9.882564
2273.000000	9.856437
2274.000000	9.836069
2275.000000	9.819652
2276.000000	9.798031
2277.000000	9.767641
2278.000000	9.746862
2279.000000	9.722507
2280.000000	9.689099
2281.000000	9.660636
2282.000000	9.635624
2283.000000	9.604408
2284.000000	9.575277
2285.000000	9.564404
2286.000000	9.538292
2287.000000	9.508061
2288.000000	9.470776
2289.000000	9.456737
2290.000000	9.431245
2291.000000	9.417290
2292.000000	9.426482
2293.000000	9.414598
2294.000000	9.415203
2295.000000	9.425855
2296.000000	9.421511
2297.000000	9.420655
2298.000000	9.441026
2299.000000	9.456357
2300.000000	9.464575
2301.000000	9.499118
2302.000000	9.517775
2303.000000	9.542710
2304.000000	9.553136
2305.000000	9.568068
2306.000000	9.578951
2307.000000	9.596473
2308.000000	9.612403
2309.000000	9.622432
2310.000000	9.632131
2311.000000	9.642166
2312.000000	9.651819
2313.000000	9.654880
2314.000000	9.650940
2315.000000	9.650920
2316.000000	9.630003
2317.000000	9.626894
2318.000000	9.619393
2319.000000	9.602078
2320.000000	9.570538
2321.000000	9.563830
2322.000000	9.543485
2323.000000	9.514374
2324.000000	9.487964
2325.000000	9.444162
2326.000000	9.419336
2327.000000	9.396540
2328.000000	9.368153
2329.000000	9.332125
2330.000000	9.291953
2331.000000	9.272163
2332.000000	9.260679
2333.000000	9.243720
2334.000000	9.215632
2335.000000	9.197447
2336.000000	9.190733
2337.000000	9.191350
2338.000000	9.187348
2339.000000	9.174159
2340.000000	9.176451
2341.000000	9.201659
2342.000000	9.218905
2343.000000	9.231483
2344.000000	9.235912
2345.000000	9.243876
2346.000000	9.252276
2347.000000	9.280732
2348.000000	9.297969
2349.000000	9.308573
2350.000000	9.316100
2351.000000	9.325618
2352.000000	9.336066
2353.000000	9.343941
2354.000000	9.346997
2355.000000	9.350557
2356.000000	9.347044
2357.000000	9.337852
2358.000000	9.333731
2359.000000	9.325677
2360.000000	9.320649
2361.000000	9.305859
2362.000000	9.288988
2363.000000	9.275802
2364.000000	9.257015
2365.000000	9.240876
2366.000000	9.229150
2367.000000	9.215648
2368.000000	9.201642
2369.000000	9.175553
2370.000000	9.167081
2371.000000	9.171583
2372.000000	9.179570
2373.000000	9.180905
2374.000000	9.178274
2375.000000	9.177680
2376.000000	9.182924
2377.000000	9.188316
2378.000000	9.197216
2379.000000	9.185127
2380.000000	9.168156
2381.000000	9.181234
2382.000000	9.190571
2383.000000	9.188382
2384.000000	9.176102
2385.000000	9.176206
2386.000000	9.179195
2387.000000	9.173851
2388.000000	9.169045
2389.000000	9.161679
2390.000000	9.162017
2391.000000	9.153873
2392.000000	9.147991
2393.000000	9.142332
2394.000000	9.129951
2395.000000	9.122308
2396.000000	9.113539
2397.000000	9.103597
2398.000000	9.084933
2399.000000	9.074247
2400.000000	9.063290
2401.000000	9.049634
2402.000000	9.021073
2403.000000	9.006367
2404.000000	8.990574
2405.000000	8.970419
2406.000000	8.941323
2407.000000	8.906175
2408.000000	8.883591
2409.000000	8.854138
2410.000000	8.827640
2411.000000	8.800919
2412.000000	8.765790
2413.000000	8.730028
2414.000000	8.685130
2415.000000	8.645439
2416.000000	8.613590
2417.000000	8.575501
2418.000000	8.520465
2419.000000	8.476995
2420.000000	8.431100
2421.000000	8.384658
2422.000000	8.306157
2423.000000	8.242709
2424.000000	8.185931
2425.000000	8.127135
2426.000000	8.082371
2427.000000	8.039661
2428.000000	8.004980
2429.000000	7.956004
2430.000000	7.908669
2431.000000	7.868443
2432.000000	7.826962
2433.000000	7.779977
2434.000000	7.736144
2435.000000	7.693890
2436.000000	7.644981
2437.000000	7.593673
2438.000000	7.553284
2439.000000	7.510620
2440.000000	7.451156
2441.000000	7.406102
2442.000000	7.358188
2443.000000	7.305863
2444.000000	7.261737
2445.000000	7.211800
2446.000000	7.166129
2447.000000	7.126376
2448.000000	7.086969
2449.000000	7.031638
2450.000000	6.992924
2451.000000	6.961692
2452.000000	6.910813
2453.000000	6.873724
2454.000000	6.851633
2455.000000	6.795497
2456.000000	6.756778
2457.000000	6.722227
2458.000000	6.690115
2459.000000	6.671904
2460.000000	6.633908
2461.000000	6.612118
2462.000000	6.573752
2463.000000	6.546079
2464.000000	6.505451
2465.000000	6.487077
2466.000000	6.457995
2467.000000	6.430502
2468.000000	6.444734
2469.000000	6.378601
2470.000000	6.359966
2471.000000	6.364550
2472.000000	6.318712
2473.000000	6.309341
2474.000000	6.283679
2475.000000	6.255433
2476.000000	6.254923
2477.000000	6.256199
2478.000000	6.242320
2479.000000	6.234158
2480.000000	6.201590
2481.000000	6.213607
2482.000000	6.204012
2483.000000	6.202485
2484.000000	6.175352
2485.000000	6.186038
2486.000000	6.137162
2487.000000	6.151474
2488.000000	6.168510
2489.000000	6.163990
2490.000000	6.111991
2491.000000	6.151477
2492.000000	6.158654
2493.000000	6.148607
2494.000000	6.082141
2495.000000	6.215205
2496.000000	6.147632
2497.000000	6.217556
2498.000000	6.084989
2499.000000	6.146144
2500.000000	6.043051
