PE UV       SUBTECH     SPECTRUM    ASCII       PEDS        4.00        
   -1
CICIMAUCR0006-3.Sample.ASC
24/04/12
11:24:13.00
24/04/12
11:24:13.00
Vinicio Soto Monge
C. kalinini
250,000000
1
Lambda 1050
1050L1511233
PerkinElmer UV WinLab 6.3.2.0749 / 2.02.05 Lambda 900 UV/VIS/NIR, Aug  7 2015 09:38:08

0
0
3350/servo 860,8/2
0
0
UV/VIS
1
1
1
DoubleDePol,CommonBeamDepol,RBeamAtt,SBeamAtt,60mm sphere, WB InGaAs Detector
0
0
0
0
Program
Program
3350/servo 860,8/2
3350/0,2 860,8/0,2
3350/0,2 860,8/0,2
0
15.00
 
 
 
0
 
860,8
319,2
860,8
Front
100
on
S:100 R:100
0
0
0
0
 
0
 
 
 
0
 
 
0
0
0
0
0
 
 
 
 
0
0


0
0
#HDR
-1
-1
#GR
nm
%R
1.0
0.0
2500,000000
-1,000000
2251
8
53,231800
3,109100
#DATA
250.000000	1.565980
251.000000	1.572065
252.000000	1.646849
253.000000	1.603327
254.000000	1.591375
255.000000	1.554560
256.000000	1.555564
257.000000	1.561384
258.000000	1.573422
259.000000	1.571638
260.000000	1.592487
261.000000	1.530378
262.000000	1.492895
263.000000	1.522471
264.000000	1.504349
265.000000	1.496914
266.000000	1.508403
267.000000	1.530571
268.000000	1.512030
269.000000	1.491300
270.000000	1.509531
271.000000	1.512208
272.000000	1.505429
273.000000	1.457656
274.000000	1.505104
275.000000	1.497677
276.000000	1.487798
277.000000	1.483348
278.000000	1.477501
279.000000	1.443153
280.000000	1.492225
281.000000	1.469561
282.000000	1.462082
283.000000	1.462755
284.000000	1.447773
285.000000	1.459646
286.000000	1.460054
287.000000	1.451854
288.000000	1.474408
289.000000	1.454848
290.000000	1.494994
291.000000	1.468598
292.000000	1.473950
293.000000	1.451871
294.000000	1.437901
295.000000	1.432884
296.000000	1.427328
297.000000	1.425733
298.000000	1.443352
299.000000	1.458937
300.000000	1.418465
301.000000	1.427592
302.000000	1.434486
303.000000	1.456554
304.000000	1.451060
305.000000	1.377156
306.000000	1.410229
307.000000	1.436407
308.000000	1.410469
309.000000	1.423452
310.000000	1.421542
311.000000	1.441015
312.000000	1.425978
313.000000	1.397447
314.000000	1.391616
315.000000	1.389752
316.000000	1.388539
317.000000	1.287699
318.000000	1.296903
319.000000	1.170012
320.000000	1.203949
321.000000	1.298728
322.000000	1.336478
323.000000	1.392532
324.000000	1.252987
325.000000	1.226144
326.000000	1.266687
327.000000	1.346340
328.000000	1.262425
329.000000	1.333059
330.000000	1.305765
331.000000	1.388739
332.000000	1.374360
333.000000	1.499030
334.000000	1.447274
335.000000	1.453998
336.000000	1.377270
337.000000	1.323785
338.000000	1.437696
339.000000	1.438973
340.000000	1.439342
341.000000	1.445855
342.000000	1.471200
343.000000	1.423539
344.000000	1.458274
345.000000	1.405407
346.000000	1.432162
347.000000	1.498162
348.000000	1.484694
349.000000	1.429243
350.000000	1.446288
351.000000	1.440690
352.000000	1.411623
353.000000	1.480085
354.000000	1.449371
355.000000	1.493867
356.000000	1.486889
357.000000	1.539944
358.000000	1.548052
359.000000	1.508965
360.000000	1.474963
361.000000	1.493943
362.000000	1.537029
363.000000	1.551252
364.000000	1.553149
365.000000	1.534664
366.000000	1.542287
367.000000	1.537729
368.000000	1.603534
369.000000	1.603755
370.000000	1.620949
371.000000	1.634981
372.000000	1.624562
373.000000	1.630489
374.000000	1.699057
375.000000	1.685498
376.000000	1.616995
377.000000	1.720045
378.000000	1.742724
379.000000	1.765625
380.000000	1.794673
381.000000	1.824832
382.000000	1.862832
383.000000	1.891756
384.000000	1.933718
385.000000	1.982837
386.000000	2.041619
387.000000	2.086683
388.000000	2.146957
389.000000	2.202049
390.000000	2.275890
391.000000	2.345996
392.000000	2.424988
393.000000	2.522805
394.000000	2.618064
395.000000	2.714839
396.000000	2.817909
397.000000	2.927503
398.000000	3.043640
399.000000	3.155278
400.000000	3.282634
401.000000	3.425794
402.000000	3.556813
403.000000	3.698777
404.000000	3.856923
405.000000	3.988791
406.000000	4.135707
407.000000	4.299016
408.000000	4.453262
409.000000	4.609047
410.000000	4.766242
411.000000	4.924008
412.000000	5.085488
413.000000	5.237835
414.000000	5.390551
415.000000	5.542108
416.000000	5.688839
417.000000	5.830129
418.000000	5.972021
419.000000	6.104522
420.000000	6.228246
421.000000	6.354086
422.000000	6.481148
423.000000	6.599674
424.000000	6.707871
425.000000	6.823218
426.000000	6.930650
427.000000	7.032245
428.000000	7.128461
429.000000	7.222734
430.000000	7.322268
431.000000	7.414280
432.000000	7.486188
433.000000	7.563827
434.000000	7.647089
435.000000	7.721494
436.000000	7.791790
437.000000	7.854946
438.000000	7.903564
439.000000	7.958978
440.000000	8.002971
441.000000	8.022486
442.000000	8.053695
443.000000	8.086829
444.000000	8.089408
445.000000	8.087403
446.000000	8.089455
447.000000	8.073735
448.000000	8.055706
449.000000	8.034447
450.000000	7.992566
451.000000	7.942131
452.000000	7.880948
453.000000	7.821897
454.000000	7.749604
455.000000	7.666714
456.000000	7.581920
457.000000	7.488807
458.000000	7.383746
459.000000	7.274408
460.000000	7.185390
461.000000	7.090109
462.000000	6.994047
463.000000	6.903672
464.000000	6.814673
465.000000	6.730199
466.000000	6.669253
467.000000	6.619183
468.000000	6.584717
469.000000	6.573099
470.000000	6.582740
471.000000	6.603477
472.000000	6.651018
473.000000	6.734256
474.000000	6.838380
475.000000	6.960471
476.000000	7.102951
477.000000	7.273547
478.000000	7.459630
479.000000	7.678703
480.000000	7.901522
481.000000	8.090637
482.000000	8.272020
483.000000	8.488979
484.000000	8.754511
485.000000	9.039922
486.000000	9.321918
487.000000	9.607540
488.000000	9.888643
489.000000	10.153804
490.000000	10.425119
491.000000	10.696103
492.000000	10.956665
493.000000	11.207730
494.000000	11.448355
495.000000	11.699857
496.000000	11.941313
497.000000	12.198711
498.000000	12.427430
499.000000	12.638794
500.000000	12.856701
501.000000	13.081377
502.000000	13.289688
503.000000	13.503904
504.000000	13.742073
505.000000	13.970890
506.000000	14.186374
507.000000	14.403128
508.000000	14.628194
509.000000	14.841239
510.000000	15.077149
511.000000	15.344768
512.000000	15.592913
513.000000	15.848254
514.000000	16.088555
515.000000	16.334248
516.000000	16.568037
517.000000	16.798603
518.000000	17.017832
519.000000	17.232820
520.000000	17.475229
521.000000	17.691453
522.000000	17.908784
523.000000	18.122736
524.000000	18.341534
525.000000	18.553552
526.000000	18.746596
527.000000	18.937274
528.000000	19.139390
529.000000	19.352144
530.000000	19.557633
531.000000	19.733876
532.000000	19.913793
533.000000	20.089976
534.000000	20.255159
535.000000	20.408898
536.000000	20.558997
537.000000	20.705878
538.000000	20.786482
539.000000	20.867236
540.000000	21.014449
541.000000	21.105070
542.000000	21.188446
543.000000	21.316268
544.000000	21.391173
545.000000	21.462689
546.000000	21.588301
547.000000	21.693114
548.000000	21.739936
549.000000	21.901964
550.000000	22.002496
551.000000	22.063049
552.000000	22.126300
553.000000	22.179595
554.000000	22.227646
555.000000	22.246841
556.000000	22.308411
557.000000	22.351165
558.000000	22.354983
559.000000	22.396345
560.000000	22.372422
561.000000	22.375257
562.000000	22.384261
563.000000	22.404110
564.000000	22.377320
565.000000	22.351855
566.000000	22.327481
567.000000	22.270088
568.000000	22.245610
569.000000	22.179874
570.000000	22.135459
571.000000	22.066933
572.000000	22.004574
573.000000	21.943648
574.000000	21.837578
575.000000	21.726745
576.000000	21.619882
577.000000	21.456731
578.000000	21.251845
579.000000	21.073684
580.000000	20.887625
581.000000	20.679575
582.000000	20.465032
583.000000	20.250413
584.000000	20.025020
585.000000	19.808165
586.000000	19.589339
587.000000	19.375986
588.000000	19.126271
589.000000	18.940284
590.000000	18.704617
591.000000	18.501979
592.000000	18.309524
593.000000	18.115176
594.000000	17.939884
595.000000	17.744458
596.000000	17.575788
597.000000	17.413996
598.000000	17.230180
599.000000	17.030762
600.000000	16.867139
601.000000	16.655851
602.000000	16.464918
603.000000	16.283861
604.000000	16.088639
605.000000	15.909966
606.000000	15.763048
607.000000	15.597116
608.000000	15.482870
609.000000	15.356357
610.000000	15.239823
611.000000	15.195195
612.000000	15.142448
613.000000	15.120360
614.000000	15.139763
615.000000	15.161459
616.000000	15.200767
617.000000	15.277730
618.000000	15.346200
619.000000	15.408125
620.000000	15.487913
621.000000	15.574611
622.000000	15.688266
623.000000	15.777568
624.000000	15.902900
625.000000	15.984767
626.000000	16.088668
627.000000	16.157515
628.000000	16.231391
629.000000	16.308173
630.000000	16.374322
631.000000	16.428283
632.000000	16.485749
633.000000	16.534924
634.000000	16.590851
635.000000	16.602698
636.000000	16.631332
637.000000	16.665715
638.000000	16.695581
639.000000	16.743188
640.000000	16.736292
641.000000	16.764902
642.000000	16.778550
643.000000	16.785222
644.000000	16.832261
645.000000	16.863497
646.000000	16.902842
647.000000	16.941739
648.000000	16.996514
649.000000	17.046913
650.000000	17.101394
651.000000	17.180765
652.000000	17.264946
653.000000	17.380447
654.000000	17.514185
655.000000	17.631621
656.000000	17.788080
657.000000	17.872558
658.000000	17.992355
659.000000	18.105212
660.000000	18.221435
661.000000	18.345487
662.000000	18.426508
663.000000	18.514629
664.000000	18.594091
665.000000	18.677117
666.000000	18.732290
667.000000	18.766264
668.000000	18.840126
669.000000	18.860502
670.000000	18.884338
671.000000	18.905509
672.000000	18.935010
673.000000	18.970402
674.000000	18.992408
675.000000	19.014995
676.000000	19.037123
677.000000	19.049364
678.000000	19.103818
679.000000	19.174508
680.000000	19.223521
681.000000	19.309989
682.000000	19.396381
683.000000	19.490198
684.000000	19.616676
685.000000	19.767716
686.000000	19.886615
687.000000	20.029344
688.000000	20.209399
689.000000	20.391218
690.000000	20.549379
691.000000	20.703477
692.000000	20.832347
693.000000	20.998494
694.000000	21.177856
695.000000	21.364637
696.000000	21.497091
697.000000	21.650756
698.000000	21.779064
699.000000	21.875583
700.000000	21.961854
701.000000	22.072340
702.000000	22.193932
703.000000	22.269500
704.000000	22.363266
705.000000	22.448473
706.000000	22.471470
707.000000	22.536472
708.000000	22.631833
709.000000	22.733188
710.000000	22.830652
711.000000	22.843895
712.000000	22.943025
713.000000	23.048614
714.000000	23.121526
715.000000	23.198576
716.000000	23.311043
717.000000	23.453795
718.000000	23.539411
719.000000	23.621194
720.000000	23.746797
721.000000	23.903919
722.000000	24.035173
723.000000	24.179077
724.000000	24.336022
725.000000	24.494756
726.000000	24.659439
727.000000	24.840436
728.000000	25.018036
729.000000	25.182002
730.000000	25.349674
731.000000	25.530455
732.000000	25.685541
733.000000	25.821533
734.000000	25.971308
735.000000	26.146011
736.000000	26.259480
737.000000	26.354897
738.000000	26.488707
739.000000	26.585792
740.000000	26.688795
741.000000	26.821835
742.000000	26.933913
743.000000	27.008009
744.000000	27.113729
745.000000	27.230457
746.000000	27.299174
747.000000	27.357300
748.000000	27.438252
749.000000	27.562079
750.000000	27.648405
751.000000	27.649087
752.000000	27.700357
753.000000	27.776083
754.000000	27.805271
755.000000	27.868479
756.000000	27.895027
757.000000	27.909801
758.000000	27.928360
759.000000	27.965915
760.000000	28.021879
761.000000	28.085230
762.000000	28.099087
763.000000	28.047459
764.000000	28.009774
765.000000	28.018945
766.000000	28.006149
767.000000	28.029679
768.000000	28.009029
769.000000	27.957046
770.000000	27.992490
771.000000	28.012582
772.000000	28.055722
773.000000	28.011678
774.000000	27.963519
775.000000	27.977346
776.000000	28.019063
777.000000	28.055724
778.000000	28.068565
779.000000	28.078988
780.000000	28.104344
781.000000	28.172503
782.000000	28.202545
783.000000	28.216092
784.000000	28.240289
785.000000	28.203663
786.000000	28.169507
787.000000	28.152902
788.000000	28.125710
789.000000	28.083079
790.000000	28.070232
791.000000	28.047836
792.000000	28.097912
793.000000	28.070367
794.000000	28.026136
795.000000	28.098346
796.000000	28.015384
797.000000	27.968941
798.000000	27.936843
799.000000	27.842498
800.000000	27.882406
801.000000	27.865440
802.000000	27.807479
803.000000	27.803912
804.000000	27.779235
805.000000	27.623489
806.000000	27.509741
807.000000	27.423050
808.000000	27.387812
809.000000	27.253796
810.000000	27.187247
811.000000	27.041227
812.000000	26.922233
813.000000	26.792499
814.000000	26.657774
815.000000	26.509465
816.000000	26.399230
817.000000	26.313683
818.000000	26.074444
819.000000	25.947799
820.000000	25.839562
821.000000	25.682466
822.000000	25.454432
823.000000	25.374527
824.000000	25.264800
825.000000	25.085787
826.000000	24.891167
827.000000	24.642796
828.000000	24.600875
829.000000	24.499962
830.000000	24.323489
831.000000	24.197660
832.000000	23.924712
833.000000	23.716713
834.000000	23.659478
835.000000	23.393695
836.000000	23.151897
837.000000	23.064847
838.000000	22.951904
839.000000	22.725067
840.000000	22.481977
841.000000	22.372463
842.000000	22.223321
843.000000	22.057731
844.000000	21.807858
845.000000	21.633843
846.000000	21.544494
847.000000	21.177857
848.000000	21.287756
849.000000	21.036783
850.000000	20.947400
851.000000	20.471020
852.000000	20.229069
853.000000	20.146133
854.000000	20.277235
855.000000	19.835739
856.000000	20.089285
857.000000	19.608841
858.000000	19.844618
859.000000	18.482910
860.000000	18.568852
861.000000	18.634171
862.000000	18.684489
863.000000	18.790892
864.000000	18.876499
865.000000	19.022965
866.000000	19.136511
867.000000	19.279757
868.000000	19.366364
869.000000	19.467607
870.000000	19.622874
871.000000	19.790615
872.000000	19.873204
873.000000	20.040823
874.000000	20.144078
875.000000	20.282019
876.000000	20.369061
877.000000	20.494610
878.000000	20.590432
879.000000	20.642357
880.000000	20.747615
881.000000	20.819825
882.000000	20.973662
883.000000	21.069799
884.000000	21.139798
885.000000	21.182725
886.000000	21.262768
887.000000	21.304135
888.000000	21.378392
889.000000	21.435513
890.000000	21.481242
891.000000	21.561277
892.000000	21.638262
893.000000	21.667059
894.000000	21.733187
895.000000	21.788869
896.000000	21.854788
897.000000	21.863483
898.000000	21.918246
899.000000	21.952360
900.000000	21.986148
901.000000	22.042028
902.000000	22.063261
903.000000	22.101572
904.000000	22.129889
905.000000	22.179634
906.000000	22.215201
907.000000	22.254210
908.000000	22.298748
909.000000	22.333858
910.000000	22.354373
911.000000	22.424509
912.000000	22.437381
913.000000	22.438845
914.000000	22.396207
915.000000	22.472357
916.000000	22.509900
917.000000	22.528142
918.000000	22.515706
919.000000	22.526782
920.000000	22.546240
921.000000	22.562803
922.000000	22.588912
923.000000	22.529104
924.000000	22.562034
925.000000	22.550432
926.000000	22.567160
927.000000	22.589998
928.000000	22.548106
929.000000	22.548165
930.000000	22.537055
931.000000	22.521967
932.000000	22.478116
933.000000	22.446892
934.000000	22.444230
935.000000	22.429939
936.000000	22.407327
937.000000	22.381074
938.000000	22.352173
939.000000	22.341971
940.000000	22.347070
941.000000	22.327665
942.000000	22.296806
943.000000	22.300764
944.000000	22.280394
945.000000	22.235225
946.000000	22.220542
947.000000	22.215322
948.000000	22.178095
949.000000	22.157450
950.000000	22.146138
951.000000	22.122695
952.000000	22.116457
953.000000	22.098846
954.000000	22.061330
955.000000	22.035080
956.000000	22.013096
957.000000	21.987175
958.000000	21.957186
959.000000	21.928409
960.000000	21.899230
961.000000	21.846823
962.000000	21.804502
963.000000	21.779346
964.000000	21.750229
965.000000	21.716544
966.000000	21.686784
967.000000	21.665439
968.000000	21.641835
969.000000	21.618034
970.000000	21.583420
971.000000	21.537637
972.000000	21.492171
973.000000	21.461829
974.000000	21.422284
975.000000	21.375308
976.000000	21.336070
977.000000	21.312642
978.000000	21.261988
979.000000	21.228373
980.000000	21.204642
981.000000	21.170905
982.000000	21.133238
983.000000	21.102069
984.000000	21.070877
985.000000	21.035175
986.000000	21.000441
987.000000	20.959621
988.000000	20.922582
989.000000	20.886456
990.000000	20.854757
991.000000	20.815758
992.000000	20.795357
993.000000	20.768392
994.000000	20.729991
995.000000	20.688748
996.000000	20.655200
997.000000	20.632332
998.000000	20.618205
999.000000	20.584435
1000.000000	20.556884
1001.000000	20.535210
1002.000000	20.508383
1003.000000	20.470874
1004.000000	20.428558
1005.000000	20.394490
1006.000000	20.369990
1007.000000	20.345117
1008.000000	20.325050
1009.000000	20.286387
1010.000000	20.252665
1011.000000	20.242255
1012.000000	20.220491
1013.000000	20.190054
1014.000000	20.166953
1015.000000	20.153812
1016.000000	20.146115
1017.000000	20.131806
1018.000000	20.113874
1019.000000	20.116359
1020.000000	20.133294
1021.000000	20.134238
1022.000000	20.131415
1023.000000	20.135111
1024.000000	20.131041
1025.000000	20.121302
1026.000000	20.124684
1027.000000	20.133932
1028.000000	20.129232
1029.000000	20.123121
1030.000000	20.121601
1031.000000	20.116962
1032.000000	20.123012
1033.000000	20.131445
1034.000000	20.126344
1035.000000	20.126525
1036.000000	20.135123
1037.000000	20.130450
1038.000000	20.112429
1039.000000	20.099230
1040.000000	20.099858
1041.000000	20.102227
1042.000000	20.096527
1043.000000	20.095053
1044.000000	20.089488
1045.000000	20.075662
1046.000000	20.072712
1047.000000	20.087420
1048.000000	20.087568
1049.000000	20.082356
1050.000000	20.085587
1051.000000	20.094096
1052.000000	20.111132
1053.000000	20.112895
1054.000000	20.116699
1055.000000	20.135257
1056.000000	20.141626
1057.000000	20.147508
1058.000000	20.162003
1059.000000	20.176773
1060.000000	20.187329
1061.000000	20.197440
1062.000000	20.209716
1063.000000	20.228831
1064.000000	20.251187
1065.000000	20.256395
1066.000000	20.260493
1067.000000	20.270163
1068.000000	20.297228
1069.000000	20.321581
1070.000000	20.321416
1071.000000	20.339680
1072.000000	20.352896
1073.000000	20.355748
1074.000000	20.371241
1075.000000	20.386504
1076.000000	20.402960
1077.000000	20.412856
1078.000000	20.423090
1079.000000	20.438547
1080.000000	20.447960
1081.000000	20.451265
1082.000000	20.478131
1083.000000	20.488669
1084.000000	20.501563
1085.000000	20.520760
1086.000000	20.541570
1087.000000	20.545097
1088.000000	20.562753
1089.000000	20.592889
1090.000000	20.607637
1091.000000	20.614807
1092.000000	20.622200
1093.000000	20.642773
1094.000000	20.659087
1095.000000	20.656750
1096.000000	20.671121
1097.000000	20.675529
1098.000000	20.687321
1099.000000	20.702349
1100.000000	20.713611
1101.000000	20.712966
1102.000000	20.716113
1103.000000	20.729069
1104.000000	20.748327
1105.000000	20.741408
1106.000000	20.748017
1107.000000	20.750322
1108.000000	20.761242
1109.000000	20.765426
1110.000000	20.771891
1111.000000	20.775157
1112.000000	20.780971
1113.000000	20.792527
1114.000000	20.791232
1115.000000	20.788835
1116.000000	20.791018
1117.000000	20.791804
1118.000000	20.790556
1119.000000	20.791154
1120.000000	20.779238
1121.000000	20.757553
1122.000000	20.752401
1123.000000	20.731057
1124.000000	20.712446
1125.000000	20.680522
1126.000000	20.659565
1127.000000	20.617492
1128.000000	20.558053
1129.000000	20.503634
1130.000000	20.426680
1131.000000	20.336998
1132.000000	20.229919
1133.000000	20.120906
1134.000000	20.022291
1135.000000	19.903486
1136.000000	19.776412
1137.000000	19.649474
1138.000000	19.499218
1139.000000	19.379873
1140.000000	19.261396
1141.000000	19.144090
1142.000000	19.028180
1143.000000	18.911325
1144.000000	18.816639
1145.000000	18.735514
1146.000000	18.673456
1147.000000	18.639753
1148.000000	18.631642
1149.000000	18.618040
1150.000000	18.605609
1151.000000	18.618009
1152.000000	18.607061
1153.000000	18.583886
1154.000000	18.565321
1155.000000	18.520971
1156.000000	18.448595
1157.000000	18.368975
1158.000000	18.261235
1159.000000	18.148220
1160.000000	18.029483
1161.000000	17.914827
1162.000000	17.793723
1163.000000	17.675976
1164.000000	17.537983
1165.000000	17.429797
1166.000000	17.285716
1167.000000	17.178748
1168.000000	17.066351
1169.000000	16.954880
1170.000000	16.847615
1171.000000	16.730168
1172.000000	16.628137
1173.000000	16.516631
1174.000000	16.425976
1175.000000	16.340132
1176.000000	16.236301
1177.000000	16.144757
1178.000000	16.027433
1179.000000	15.886130
1180.000000	15.728307
1181.000000	15.569186
1182.000000	15.404673
1183.000000	15.257554
1184.000000	15.155782
1185.000000	15.081527
1186.000000	15.062911
1187.000000	15.064564
1188.000000	15.125970
1189.000000	15.210750
1190.000000	15.326376
1191.000000	15.460661
1192.000000	15.614744
1193.000000	15.740578
1194.000000	15.863596
1195.000000	15.961592
1196.000000	16.018387
1197.000000	16.088370
1198.000000	16.128221
1199.000000	16.146396
1200.000000	16.173530
1201.000000	16.178985
1202.000000	16.181197
1203.000000	16.189369
1204.000000	16.204254
1205.000000	16.194780
1206.000000	16.202703
1207.000000	16.228237
1208.000000	16.240581
1209.000000	16.266423
1210.000000	16.286718
1211.000000	16.321241
1212.000000	16.346809
1213.000000	16.380612
1214.000000	16.417658
1215.000000	16.454968
1216.000000	16.500984
1217.000000	16.529731
1218.000000	16.568098
1219.000000	16.615093
1220.000000	16.668934
1221.000000	16.722972
1222.000000	16.772492
1223.000000	16.835442
1224.000000	16.883436
1225.000000	16.947703
1226.000000	17.012438
1227.000000	17.076452
1228.000000	17.136731
1229.000000	17.186224
1230.000000	17.243497
1231.000000	17.308359
1232.000000	17.355632
1233.000000	17.413849
1234.000000	17.475093
1235.000000	17.533639
1236.000000	17.588457
1237.000000	17.646106
1238.000000	17.698132
1239.000000	17.742142
1240.000000	17.797261
1241.000000	17.862587
1242.000000	17.911038
1243.000000	17.965262
1244.000000	18.003298
1245.000000	18.029342
1246.000000	18.084430
1247.000000	18.126699
1248.000000	18.159962
1249.000000	18.198634
1250.000000	18.226464
1251.000000	18.254637
1252.000000	18.297243
1253.000000	18.317141
1254.000000	18.348977
1255.000000	18.381673
1256.000000	18.398487
1257.000000	18.422784
1258.000000	18.449363
1259.000000	18.459021
1260.000000	18.463431
1261.000000	18.488590
1262.000000	18.514832
1263.000000	18.530739
1264.000000	18.540877
1265.000000	18.561719
1266.000000	18.576944
1267.000000	18.589987
1268.000000	18.610768
1269.000000	18.632113
1270.000000	18.645221
1271.000000	18.657259
1272.000000	18.677193
1273.000000	18.684607
1274.000000	18.706272
1275.000000	18.720769
1276.000000	18.739647
1277.000000	18.764649
1278.000000	18.785516
1279.000000	18.806288
1280.000000	18.833336
1281.000000	18.854646
1282.000000	18.880947
1283.000000	18.908496
1284.000000	18.929729
1285.000000	18.951943
1286.000000	18.964163
1287.000000	18.983120
1288.000000	19.004720
1289.000000	19.014436
1290.000000	19.033871
1291.000000	19.048367
1292.000000	19.046326
1293.000000	19.058594
1294.000000	19.075778
1295.000000	19.069213
1296.000000	19.063430
1297.000000	19.075997
1298.000000	19.073460
1299.000000	19.069840
1300.000000	19.075249
1301.000000	19.073636
1302.000000	19.067476
1303.000000	19.066176
1304.000000	19.060364
1305.000000	19.046001
1306.000000	19.033539
1307.000000	19.020223
1308.000000	19.012003
1309.000000	18.996807
1310.000000	18.976275
1311.000000	18.949433
1312.000000	18.921590
1313.000000	18.900913
1314.000000	18.879643
1315.000000	18.861158
1316.000000	18.834445
1317.000000	18.791334
1318.000000	18.752860
1319.000000	18.722036
1320.000000	18.705134
1321.000000	18.673862
1322.000000	18.629350
1323.000000	18.590966
1324.000000	18.564833
1325.000000	18.517642
1326.000000	18.471789
1327.000000	18.422738
1328.000000	18.379591
1329.000000	18.335643
1330.000000	18.279469
1331.000000	18.229539
1332.000000	18.170266
1333.000000	18.097119
1334.000000	18.031964
1335.000000	17.961211
1336.000000	17.882108
1337.000000	17.821646
1338.000000	17.739760
1339.000000	17.657926
1340.000000	17.571614
1341.000000	17.493128
1342.000000	17.402574
1343.000000	17.300274
1344.000000	17.210223
1345.000000	17.088668
1346.000000	16.979092
1347.000000	16.879042
1348.000000	16.743245
1349.000000	16.606883
1350.000000	16.464088
1351.000000	16.285380
1352.000000	16.098019
1353.000000	15.918068
1354.000000	15.755040
1355.000000	15.593280
1356.000000	15.471805
1357.000000	15.391742
1358.000000	15.337779
1359.000000	15.294113
1360.000000	15.275181
1361.000000	15.289470
1362.000000	15.277781
1363.000000	15.203938
1364.000000	15.138005
1365.000000	15.091873
1366.000000	15.023167
1367.000000	14.957709
1368.000000	14.899752
1369.000000	14.790449
1370.000000	14.688818
1371.000000	14.586950
1372.000000	14.485387
1373.000000	14.376235
1374.000000	14.277308
1375.000000	14.178531
1376.000000	14.129169
1377.000000	14.088307
1378.000000	14.049047
1379.000000	14.013494
1380.000000	13.960163
1381.000000	13.908607
1382.000000	13.834289
1383.000000	13.747487
1384.000000	13.595286
1385.000000	13.487786
1386.000000	13.363907
1387.000000	13.264145
1388.000000	13.202264
1389.000000	13.102527
1390.000000	13.039407
1391.000000	12.980996
1392.000000	12.931439
1393.000000	12.852225
1394.000000	12.817527
1395.000000	12.814015
1396.000000	12.776783
1397.000000	12.677769
1398.000000	12.584426
1399.000000	12.530723
1400.000000	12.480488
1401.000000	12.419554
1402.000000	12.244362
1403.000000	12.113322
1404.000000	12.019461
1405.000000	11.922285
1406.000000	11.801602
1407.000000	11.701507
1408.000000	11.587330
1409.000000	11.513213
1410.000000	11.394888
1411.000000	11.310408
1412.000000	11.238718
1413.000000	11.185108
1414.000000	11.145366
1415.000000	11.081427
1416.000000	11.009866
1417.000000	10.922315
1418.000000	10.882158
1419.000000	10.838907
1420.000000	10.753656
1421.000000	10.675201
1422.000000	10.632917
1423.000000	10.600067
1424.000000	10.518445
1425.000000	10.456045
1426.000000	10.389055
1427.000000	10.351406
1428.000000	10.287330
1429.000000	10.227469
1430.000000	10.183108
1431.000000	10.151550
1432.000000	10.119444
1433.000000	10.068168
1434.000000	10.036780
1435.000000	9.996592
1436.000000	9.958282
1437.000000	9.934237
1438.000000	9.891198
1439.000000	9.846500
1440.000000	9.825718
1441.000000	9.769129
1442.000000	9.727473
1443.000000	9.683354
1444.000000	9.640903
1445.000000	9.627111
1446.000000	9.585450
1447.000000	9.523076
1448.000000	9.503649
1449.000000	9.456305
1450.000000	9.433489
1451.000000	9.389382
1452.000000	9.359365
1453.000000	9.312023
1454.000000	9.278792
1455.000000	9.259602
1456.000000	9.203529
1457.000000	9.182525
1458.000000	9.164554
1459.000000	9.115048
1460.000000	9.101658
1461.000000	9.076329
1462.000000	9.055032
1463.000000	9.021737
1464.000000	9.008418
1465.000000	8.996516
1466.000000	8.976455
1467.000000	8.955811
1468.000000	8.948342
1469.000000	8.930247
1470.000000	8.903304
1471.000000	8.892622
1472.000000	8.893847
1473.000000	8.865074
1474.000000	8.843795
1475.000000	8.824175
1476.000000	8.810731
1477.000000	8.804671
1478.000000	8.793876
1479.000000	8.774785
1480.000000	8.769203
1481.000000	8.768805
1482.000000	8.748421
1483.000000	8.734015
1484.000000	8.732302
1485.000000	8.724315
1486.000000	8.717460
1487.000000	8.711332
1488.000000	8.709974
1489.000000	8.700946
1490.000000	8.692904
1491.000000	8.680261
1492.000000	8.679837
1493.000000	8.675661
1494.000000	8.665079
1495.000000	8.666432
1496.000000	8.666154
1497.000000	8.672478
1498.000000	8.672982
1499.000000	8.675244
1500.000000	8.698345
1501.000000	8.695892
1502.000000	8.689352
1503.000000	8.694479
1504.000000	8.707287
1505.000000	8.709546
1506.000000	8.721867
1507.000000	8.744638
1508.000000	8.746996
1509.000000	8.753790
1510.000000	8.767652
1511.000000	8.772549
1512.000000	8.781503
1513.000000	8.794286
1514.000000	8.797306
1515.000000	8.803486
1516.000000	8.815462
1517.000000	8.827432
1518.000000	8.838664
1519.000000	8.837579
1520.000000	8.845975
1521.000000	8.852614
1522.000000	8.860703
1523.000000	8.855674
1524.000000	8.865675
1525.000000	8.881639
1526.000000	8.887283
1527.000000	8.889472
1528.000000	8.891663
1529.000000	8.904674
1530.000000	8.911252
1531.000000	8.903341
1532.000000	8.899840
1533.000000	8.900428
1534.000000	8.900031
1535.000000	8.905187
1536.000000	8.909269
1537.000000	8.907670
1538.000000	8.895542
1539.000000	8.881769
1540.000000	8.889517
1541.000000	8.893686
1542.000000	8.901943
1543.000000	8.892890
1544.000000	8.879367
1545.000000	8.880673
1546.000000	8.879798
1547.000000	8.874706
1548.000000	8.871259
1549.000000	8.885114
1550.000000	8.889438
1551.000000	8.874039
1552.000000	8.863303
1553.000000	8.866820
1554.000000	8.872863
1555.000000	8.862807
1556.000000	8.847239
1557.000000	8.840107
1558.000000	8.840400
1559.000000	8.831448
1560.000000	8.817871
1561.000000	8.812215
1562.000000	8.800614
1563.000000	8.775858
1564.000000	8.754567
1565.000000	8.748767
1566.000000	8.736881
1567.000000	8.715903
1568.000000	8.701247
1569.000000	8.689276
1570.000000	8.677849
1571.000000	8.667622
1572.000000	8.658892
1573.000000	8.644905
1574.000000	8.629571
1575.000000	8.623162
1576.000000	8.613422
1577.000000	8.612125
1578.000000	8.614987
1579.000000	8.617426
1580.000000	8.621902
1581.000000	8.629369
1582.000000	8.636723
1583.000000	8.645074
1584.000000	8.643906
1585.000000	8.638276
1586.000000	8.650291
1587.000000	8.659608
1588.000000	8.668025
1589.000000	8.686340
1590.000000	8.702505
1591.000000	8.715413
1592.000000	8.726425
1593.000000	8.728296
1594.000000	8.740779
1595.000000	8.759046
1596.000000	8.772903
1597.000000	8.791163
1598.000000	8.800608
1599.000000	8.815770
1600.000000	8.834355
1601.000000	8.855805
1602.000000	8.878413
1603.000000	8.890036
1604.000000	8.900312
1605.000000	8.920948
1606.000000	8.932973
1607.000000	8.922634
1608.000000	8.939509
1609.000000	8.954457
1610.000000	8.973600
1611.000000	8.996979
1612.000000	9.016315
1613.000000	9.033214
1614.000000	9.053758
1615.000000	9.070422
1616.000000	9.086782
1617.000000	9.111672
1618.000000	9.128473
1619.000000	9.153367
1620.000000	9.169612
1621.000000	9.194508
1622.000000	9.220302
1623.000000	9.239636
1624.000000	9.257109
1625.000000	9.268387
1626.000000	9.294590
1627.000000	9.320181
1628.000000	9.354115
1629.000000	9.374208
1630.000000	9.397201
1631.000000	9.424715
1632.000000	9.445861
1633.000000	9.456355
1634.000000	9.479774
1635.000000	9.499197
1636.000000	9.520978
1637.000000	9.551644
1638.000000	9.571245
1639.000000	9.578375
1640.000000	9.588779
1641.000000	9.610060
1642.000000	9.618875
1643.000000	9.633901
1644.000000	9.632182
1645.000000	9.649572
1646.000000	9.666928
1647.000000	9.674439
1648.000000	9.680474
1649.000000	9.695221
1650.000000	9.694064
1651.000000	9.695485
1652.000000	9.705411
1653.000000	9.695394
1654.000000	9.694352
1655.000000	9.693702
1656.000000	9.688863
1657.000000	9.676035
1658.000000	9.658474
1659.000000	9.638469
1660.000000	9.628717
1661.000000	9.600944
1662.000000	9.576728
1663.000000	9.554351
1664.000000	9.515908
1665.000000	9.480462
1666.000000	9.427011
1667.000000	9.377810
1668.000000	9.315277
1669.000000	9.267404
1670.000000	9.189170
1671.000000	9.116190
1672.000000	9.042388
1673.000000	8.936667
1674.000000	8.833017
1675.000000	8.693224
1676.000000	8.549854
1677.000000	8.371240
1678.000000	8.188184
1679.000000	7.996331
1680.000000	7.774134
1681.000000	7.595296
1682.000000	7.444896
1683.000000	7.321536
1684.000000	7.253838
1685.000000	7.210830
1686.000000	7.197168
1687.000000	7.183822
1688.000000	7.192775
1689.000000	7.169058
1690.000000	7.127593
1691.000000	7.058237
1692.000000	6.991367
1693.000000	6.952071
1694.000000	6.911626
1695.000000	6.893802
1696.000000	6.917341
1697.000000	6.944364
1698.000000	6.999603
1699.000000	7.054412
1700.000000	7.113211
1701.000000	7.153046
1702.000000	7.218642
1703.000000	7.242240
1704.000000	7.275589
1705.000000	7.312239
1706.000000	7.315112
1707.000000	7.318445
1708.000000	7.311152
1709.000000	7.331774
1710.000000	7.327519
1711.000000	7.308556
1712.000000	7.299221
1713.000000	7.283115
1714.000000	7.260641
1715.000000	7.229645
1716.000000	7.219075
1717.000000	7.196732
1718.000000	7.176338
1719.000000	7.141612
1720.000000	7.138502
1721.000000	7.116558
1722.000000	7.122040
1723.000000	7.109171
1724.000000	7.109496
1725.000000	7.099321
1726.000000	7.058282
1727.000000	7.024069
1728.000000	6.985055
1729.000000	6.948347
1730.000000	6.908858
1731.000000	6.886947
1732.000000	6.868644
1733.000000	6.844326
1734.000000	6.854318
1735.000000	6.876613
1736.000000	6.919062
1737.000000	6.953517
1738.000000	7.033975
1739.000000	7.116263
1740.000000	7.208401
1741.000000	7.301055
1742.000000	7.380994
1743.000000	7.465068
1744.000000	7.523527
1745.000000	7.580333
1746.000000	7.634300
1747.000000	7.676543
1748.000000	7.717882
1749.000000	7.738387
1750.000000	7.768739
1751.000000	7.791883
1752.000000	7.802341
1753.000000	7.801492
1754.000000	7.806192
1755.000000	7.809332
1756.000000	7.800142
1757.000000	7.790630
1758.000000	7.766084
1759.000000	7.726910
1760.000000	7.708460
1761.000000	7.690800
1762.000000	7.687839
1763.000000	7.692254
1764.000000	7.687330
1765.000000	7.711331
1766.000000	7.734478
1767.000000	7.755761
1768.000000	7.803610
1769.000000	7.849048
1770.000000	7.894965
1771.000000	7.946149
1772.000000	7.997521
1773.000000	8.037570
1774.000000	8.085988
1775.000000	8.127267
1776.000000	8.169815
1777.000000	8.206358
1778.000000	8.236436
1779.000000	8.271468
1780.000000	8.311017
1781.000000	8.338152
1782.000000	8.360863
1783.000000	8.400087
1784.000000	8.418273
1785.000000	8.439858
1786.000000	8.453329
1787.000000	8.489918
1788.000000	8.517642
1789.000000	8.545803
1790.000000	8.561416
1791.000000	8.574272
1792.000000	8.592507
1793.000000	8.611784
1794.000000	8.623381
1795.000000	8.642313
1796.000000	8.647079
1797.000000	8.656857
1798.000000	8.682567
1799.000000	8.699038
1800.000000	8.712892
1801.000000	8.726833
1802.000000	8.734174
1803.000000	8.748331
1804.000000	8.756306
1805.000000	8.784599
1806.000000	8.799116
1807.000000	8.803485
1808.000000	8.813643
1809.000000	8.829457
1810.000000	8.853340
1811.000000	8.862475
1812.000000	8.857035
1813.000000	8.854917
1814.000000	8.872588
1815.000000	8.878796
1816.000000	8.870443
1817.000000	8.857316
1818.000000	8.847473
1819.000000	8.867340
1820.000000	8.891565
1821.000000	8.889998
1822.000000	8.863740
1823.000000	8.860024
1824.000000	8.897146
1825.000000	8.921360
1826.000000	8.934699
1827.000000	8.943214
1828.000000	8.953103
1829.000000	8.986636
1830.000000	9.015925
1831.000000	9.031822
1832.000000	9.040896
1833.000000	9.064084
1834.000000	9.092717
1835.000000	9.115657
1836.000000	9.120110
1837.000000	9.099700
1838.000000	9.086539
1839.000000	9.099598
1840.000000	9.149397
1841.000000	9.190776
1842.000000	9.190643
1843.000000	9.170403
1844.000000	9.176746
1845.000000	9.215793
1846.000000	9.249742
1847.000000	9.271711
1848.000000	9.266167
1849.000000	9.248458
1850.000000	9.266052
1851.000000	9.316828
1852.000000	9.343527
1853.000000	9.361897
1854.000000	9.375318
1855.000000	9.357884
1856.000000	9.354638
1857.000000	9.377029
1858.000000	9.371495
1859.000000	9.369986
1860.000000	9.371790
1861.000000	9.363435
1862.000000	9.356655
1863.000000	9.353365
1864.000000	9.346070
1865.000000	9.312389
1866.000000	9.268663
1867.000000	9.236469
1868.000000	9.161635
1869.000000	9.077154
1870.000000	8.980067
1871.000000	8.873359
1872.000000	8.770359
1873.000000	8.692879
1874.000000	8.633137
1875.000000	8.558805
1876.000000	8.458732
1877.000000	8.385970
1878.000000	8.283084
1879.000000	8.178276
1880.000000	8.044310
1881.000000	7.912449
1882.000000	7.764342
1883.000000	7.619887
1884.000000	7.482027
1885.000000	7.331410
1886.000000	7.210996
1887.000000	7.119297
1888.000000	7.039912
1889.000000	6.934602
1890.000000	6.856679
1891.000000	6.772564
1892.000000	6.664638
1893.000000	6.575900
1894.000000	6.494648
1895.000000	6.420025
1896.000000	6.385446
1897.000000	6.338505
1898.000000	6.224552
1899.000000	6.122747
1900.000000	6.012788
1901.000000	5.890484
1902.000000	5.830216
1903.000000	5.783737
1904.000000	5.714354
1905.000000	5.624949
1906.000000	5.510778
1907.000000	5.429044
1908.000000	5.367987
1909.000000	5.329895
1910.000000	5.310306
1911.000000	5.276840
1912.000000	5.178441
1913.000000	5.086742
1914.000000	4.997049
1915.000000	4.904870
1916.000000	4.854007
1917.000000	4.854486
1918.000000	4.815849
1919.000000	4.743891
1920.000000	4.683758
1921.000000	4.609593
1922.000000	4.539634
1923.000000	4.481873
1924.000000	4.482234
1925.000000	4.443617
1926.000000	4.414094
1927.000000	4.360917
1928.000000	4.318263
1929.000000	4.272701
1930.000000	4.244588
1931.000000	4.219820
1932.000000	4.205836
1933.000000	4.189267
1934.000000	4.189915
1935.000000	4.187320
1936.000000	4.161446
1937.000000	4.152469
1938.000000	4.131915
1939.000000	4.125000
1940.000000	4.114600
1941.000000	4.118042
1942.000000	4.129850
1943.000000	4.139338
1944.000000	4.142924
1945.000000	4.146488
1946.000000	4.157652
1947.000000	4.167988
1948.000000	4.178187
1949.000000	4.182135
1950.000000	4.197941
1951.000000	4.217821
1952.000000	4.235150
1953.000000	4.257077
1954.000000	4.247422
1955.000000	4.273037
1956.000000	4.276440
1957.000000	4.311646
1958.000000	4.314327
1959.000000	4.336309
1960.000000	4.352720
1961.000000	4.388586
1962.000000	4.389752
1963.000000	4.425415
1964.000000	4.417814
1965.000000	4.440565
1966.000000	4.460000
1967.000000	4.473216
1968.000000	4.477434
1969.000000	4.511459
1970.000000	4.501786
1971.000000	4.524715
1972.000000	4.549510
1973.000000	4.575338
1974.000000	4.601723
1975.000000	4.614875
1976.000000	4.616492
1977.000000	4.642869
1978.000000	4.661875
1979.000000	4.683362
1980.000000	4.705237
1981.000000	4.709021
1982.000000	4.730949
1983.000000	4.758689
1984.000000	4.776201
1985.000000	4.784958
1986.000000	4.806612
1987.000000	4.833372
1988.000000	4.845649
1989.000000	4.856162
1990.000000	4.856014
1991.000000	4.878680
1992.000000	4.893300
1993.000000	4.921852
1994.000000	4.920189
1995.000000	4.913344
1996.000000	4.919192
1997.000000	4.937794
1998.000000	4.948750
1999.000000	4.940306
2000.000000	4.944927
2001.000000	4.954113
2002.000000	4.951250
2003.000000	4.951727
2004.000000	4.938135
2005.000000	4.942216
2006.000000	4.943661
2007.000000	4.933949
2008.000000	4.924393
2009.000000	4.900474
2010.000000	4.916165
2011.000000	4.897221
2012.000000	4.899756
2013.000000	4.884551
2014.000000	4.856747
2015.000000	4.830982
2016.000000	4.805997
2017.000000	4.797045
2018.000000	4.780974
2019.000000	4.760159
2020.000000	4.736055
2021.000000	4.714813
2022.000000	4.687340
2023.000000	4.677097
2024.000000	4.636642
2025.000000	4.613847
2026.000000	4.574333
2027.000000	4.563208
2028.000000	4.540506
2029.000000	4.511623
2030.000000	4.480617
2031.000000	4.442277
2032.000000	4.408646
2033.000000	4.385781
2034.000000	4.334131
2035.000000	4.297474
2036.000000	4.261742
2037.000000	4.224268
2038.000000	4.195022
2039.000000	4.152695
2040.000000	4.089311
2041.000000	4.044928
2042.000000	4.003553
2043.000000	3.966105
2044.000000	3.922374
2045.000000	3.870256
2046.000000	3.815849
2047.000000	3.782914
2048.000000	3.758335
2049.000000	3.734172
2050.000000	3.709725
2051.000000	3.681671
2052.000000	3.643999
2053.000000	3.621255
2054.000000	3.599947
2055.000000	3.605726
2056.000000	3.601889
2057.000000	3.600230
2058.000000	3.605787
2059.000000	3.600942
2060.000000	3.601517
2061.000000	3.618195
2062.000000	3.626397
2063.000000	3.638543
2064.000000	3.650990
2065.000000	3.670113
2066.000000	3.679963
2067.000000	3.687924
2068.000000	3.701675
2069.000000	3.717242
2070.000000	3.743512
2071.000000	3.760122
2072.000000	3.767362
2073.000000	3.773850
2074.000000	3.789856
2075.000000	3.804928
2076.000000	3.817200
2077.000000	3.821666
2078.000000	3.839614
2079.000000	3.842081
2080.000000	3.835824
2081.000000	3.838365
2082.000000	3.855535
2083.000000	3.867569
2084.000000	3.873818
2085.000000	3.863053
2086.000000	3.857088
2087.000000	3.878698
2088.000000	3.876537
2089.000000	3.863315
2090.000000	3.867744
2091.000000	3.860048
2092.000000	3.849758
2093.000000	3.855485
2094.000000	3.865033
2095.000000	3.872124
2096.000000	3.859584
2097.000000	3.852640
2098.000000	3.864807
2099.000000	3.872532
2100.000000	3.873749
2101.000000	3.871840
2102.000000	3.874899
2103.000000	3.873470
2104.000000	3.868674
2105.000000	3.865265
2106.000000	3.862313
2107.000000	3.862942
2108.000000	3.862889
2109.000000	3.860446
2110.000000	3.852937
2111.000000	3.844566
2112.000000	3.846767
2113.000000	3.857433
2114.000000	3.838488
2115.000000	3.819603
2116.000000	3.811597
2117.000000	3.806303
2118.000000	3.793264
2119.000000	3.780769
2120.000000	3.778022
2121.000000	3.767231
2122.000000	3.748367
2123.000000	3.731968
2124.000000	3.713687
2125.000000	3.691936
2126.000000	3.686500
2127.000000	3.667551
2128.000000	3.645647
2129.000000	3.625330
2130.000000	3.606542
2131.000000	3.588440
2132.000000	3.566240
2133.000000	3.550034
2134.000000	3.533487
2135.000000	3.498651
2136.000000	3.466759
2137.000000	3.441644
2138.000000	3.421283
2139.000000	3.396553
2140.000000	3.376995
2141.000000	3.368061
2142.000000	3.345533
2143.000000	3.322404
2144.000000	3.309542
2145.000000	3.292083
2146.000000	3.259111
2147.000000	3.232908
2148.000000	3.205194
2149.000000	3.180795
2150.000000	3.156701
2151.000000	3.132436
2152.000000	3.117522
2153.000000	3.090461
2154.000000	3.065543
2155.000000	3.045550
2156.000000	3.040321
2157.000000	3.024140
2158.000000	3.012492
2159.000000	3.004435
2160.000000	2.973520
2161.000000	2.965325
2162.000000	2.948198
2163.000000	2.929433
2164.000000	2.929130
2165.000000	2.916657
2166.000000	2.923140
2167.000000	2.918713
2168.000000	2.912614
2169.000000	2.914361
2170.000000	2.925253
2171.000000	2.916783
2172.000000	2.915745
2173.000000	2.908757
2174.000000	2.913950
2175.000000	2.929981
2176.000000	2.919926
2177.000000	2.921443
2178.000000	2.935271
2179.000000	2.923248
2180.000000	2.935772
2181.000000	2.945230
2182.000000	2.952121
2183.000000	2.944657
2184.000000	2.956591
2185.000000	2.957690
2186.000000	2.953260
2187.000000	2.968241
2188.000000	2.968664
2189.000000	2.987386
2190.000000	2.973242
2191.000000	2.973989
2192.000000	2.969088
2193.000000	2.980695
2194.000000	2.966652
2195.000000	2.983627
2196.000000	2.988972
2197.000000	2.987562
2198.000000	2.982581
2199.000000	2.995641
2200.000000	2.997315
2201.000000	2.991924
2202.000000	2.971869
2203.000000	2.983294
2204.000000	2.983430
2205.000000	2.995193
2206.000000	2.992955
2207.000000	2.998515
2208.000000	3.008893
2209.000000	3.002483
2210.000000	3.017229
2211.000000	3.023557
2212.000000	3.027067
2213.000000	3.023705
2214.000000	3.041392
2215.000000	3.032600
2216.000000	3.061853
2217.000000	3.043280
2218.000000	3.060207
2219.000000	3.076931
2220.000000	3.095298
2221.000000	3.104128
2222.000000	3.117309
2223.000000	3.121593
2224.000000	3.126535
2225.000000	3.128456
2226.000000	3.133900
2227.000000	3.142788
2228.000000	3.110205
2229.000000	3.100940
2230.000000	3.116211
2231.000000	3.121630
2232.000000	3.104870
2233.000000	3.076532
2234.000000	3.071367
2235.000000	3.043577
2236.000000	3.029658
2237.000000	3.012503
2238.000000	2.983332
2239.000000	2.940896
2240.000000	2.919291
2241.000000	2.880889
2242.000000	2.858029
2243.000000	2.805009
2244.000000	2.751701
2245.000000	2.740003
2246.000000	2.691823
2247.000000	2.626791
2248.000000	2.577082
2249.000000	2.513937
2250.000000	2.460173
2251.000000	2.378662
2252.000000	2.312704
2253.000000	2.259492
2254.000000	2.168255
2255.000000	2.103396
2256.000000	2.018810
2257.000000	1.948544
2258.000000	1.848950
2259.000000	1.793071
2260.000000	1.708097
2261.000000	1.645969
2262.000000	1.593736
2263.000000	1.531834
2264.000000	1.498461
2265.000000	1.454611
2266.000000	1.406705
2267.000000	1.375645
2268.000000	1.359300
2269.000000	1.346618
2270.000000	1.332973
2271.000000	1.316781
2272.000000	1.322972
2273.000000	1.319252
2274.000000	1.325103
2275.000000	1.303941
2276.000000	1.311647
2277.000000	1.325839
2278.000000	1.333700
2279.000000	1.330948
2280.000000	1.351223
2281.000000	1.357281
2282.000000	1.365681
2283.000000	1.369869
2284.000000	1.377882
2285.000000	1.365875
2286.000000	1.372433
2287.000000	1.381284
2288.000000	1.380608
2289.000000	1.373148
2290.000000	1.356640
2291.000000	1.350764
2292.000000	1.338227
2293.000000	1.325010
2294.000000	1.301507
2295.000000	1.274921
2296.000000	1.248284
2297.000000	1.211396
2298.000000	1.173465
2299.000000	1.152855
2300.000000	1.118124
2301.000000	1.085823
2302.000000	1.072038
2303.000000	1.052802
2304.000000	1.037317
2305.000000	1.021128
2306.000000	1.018914
2307.000000	1.024059
2308.000000	1.031611
2309.000000	1.063625
2310.000000	1.078817
2311.000000	1.091472
2312.000000	1.125557
2313.000000	1.166136
2314.000000	1.202743
2315.000000	1.243603
2316.000000	1.274272
2317.000000	1.314470
2318.000000	1.338910
2319.000000	1.385647
2320.000000	1.422711
2321.000000	1.464901
2322.000000	1.497879
2323.000000	1.538085
2324.000000	1.566555
2325.000000	1.584905
2326.000000	1.609272
2327.000000	1.631830
2328.000000	1.658904
2329.000000	1.684628
2330.000000	1.694475
2331.000000	1.695971
2332.000000	1.711998
2333.000000	1.726592
2334.000000	1.729437
2335.000000	1.722980
2336.000000	1.727851
2337.000000	1.721392
2338.000000	1.703273
2339.000000	1.699998
2340.000000	1.681804
2341.000000	1.669399
2342.000000	1.651753
2343.000000	1.627136
2344.000000	1.618296
2345.000000	1.592983
2346.000000	1.562079
2347.000000	1.548870
2348.000000	1.527231
2349.000000	1.504202
2350.000000	1.490619
2351.000000	1.483501
2352.000000	1.476263
2353.000000	1.465268
2354.000000	1.460929
2355.000000	1.472827
2356.000000	1.480169
2357.000000	1.480890
2358.000000	1.501318
2359.000000	1.518229
2360.000000	1.531101
2361.000000	1.546782
2362.000000	1.565310
2363.000000	1.582611
2364.000000	1.590583
2365.000000	1.600531
2366.000000	1.619839
2367.000000	1.638282
2368.000000	1.644931
2369.000000	1.643977
2370.000000	1.653655
2371.000000	1.669395
2372.000000	1.674855
2373.000000	1.669860
2374.000000	1.679510
2375.000000	1.686585
2376.000000	1.680888
2377.000000	1.668616
2378.000000	1.667482
2379.000000	1.663711
2380.000000	1.670015
2381.000000	1.683244
2382.000000	1.686419
2383.000000	1.690478
2384.000000	1.681726
2385.000000	1.674781
2386.000000	1.682526
2387.000000	1.670790
2388.000000	1.664542
2389.000000	1.662118
2390.000000	1.650742
2391.000000	1.644096
2392.000000	1.628686
2393.000000	1.622202
2394.000000	1.600170
2395.000000	1.599571
2396.000000	1.595080
2397.000000	1.580907
2398.000000	1.573042
2399.000000	1.571434
2400.000000	1.549389
2401.000000	1.541243
2402.000000	1.551506
2403.000000	1.562554
2404.000000	1.532263
2405.000000	1.510352
2406.000000	1.502762
2407.000000	1.503242
2408.000000	1.517428
2409.000000	1.508511
2410.000000	1.483068
2411.000000	1.475893
2412.000000	1.483119
2413.000000	1.469242
2414.000000	1.469412
2415.000000	1.481142
2416.000000	1.468169
2417.000000	1.448088
2418.000000	1.437907
2419.000000	1.451088
2420.000000	1.440845
2421.000000	1.416280
2422.000000	1.428161
2423.000000	1.425855
2424.000000	1.431731
2425.000000	1.429093
2426.000000	1.422209
2427.000000	1.414271
2428.000000	1.396449
2429.000000	1.392053
2430.000000	1.387846
2431.000000	1.386265
2432.000000	1.377561
2433.000000	1.368229
2434.000000	1.360382
2435.000000	1.361521
2436.000000	1.351644
2437.000000	1.340562
2438.000000	1.324912
2439.000000	1.320313
2440.000000	1.313185
2441.000000	1.295334
2442.000000	1.302580
2443.000000	1.283800
2444.000000	1.270638
2445.000000	1.254536
2446.000000	1.236214
2447.000000	1.234946
2448.000000	1.232180
2449.000000	1.215320
2450.000000	1.194728
2451.000000	1.175536
2452.000000	1.175022
2453.000000	1.184770
2454.000000	1.162048
2455.000000	1.149579
2456.000000	1.157102
2457.000000	1.147401
2458.000000	1.141316
2459.000000	1.142960
2460.000000	1.140675
2461.000000	1.147359
2462.000000	1.147552
2463.000000	1.133931
2464.000000	1.143835
2465.000000	1.142902
2466.000000	1.157825
2467.000000	1.135744
2468.000000	1.143338
2469.000000	1.158203
2470.000000	1.147658
2471.000000	1.169380
2472.000000	1.173175
2473.000000	1.173514
2474.000000	1.200463
2475.000000	1.178614
2476.000000	1.166122
2477.000000	1.214730
2478.000000	1.204346
2479.000000	1.197739
2480.000000	1.236160
2481.000000	1.228414
2482.000000	1.181093
2483.000000	1.211835
2484.000000	1.209446
2485.000000	1.276761
2486.000000	1.239686
2487.000000	1.254778
2488.000000	1.222468
2489.000000	1.239216
2490.000000	1.243721
2491.000000	1.195320
2492.000000	1.264993
2493.000000	1.210364
2494.000000	1.267340
2495.000000	1.227386
2496.000000	1.296030
2497.000000	1.327596
2498.000000	1.291731
2499.000000	1.347091
2500.000000	1.333301
