PE UV       SUBTECH     SPECTRUM    ASCII       PEDS        4.00        
   -1
CICIMAUCR0098-5.Sample.ASC
24/04/25
11:55:07.00
24/04/25
11:55:07.00
Vinicio Soto Monge
C. cupreomarginata
250,000000
1
Lambda 1050
1050L1511233
PerkinElmer UV WinLab 6.3.2.0749 / 2.02.05 Lambda 900 UV/VIS/NIR, Aug  7 2015 09:38:08

0
0
3350/servo 860,8/2
0
0
UV/VIS
1
1
1
DoubleDePol,CommonBeamDepol,RBeamAtt,SBeamAtt,60mm sphere, WB InGaAs Detector
0
0
0
0
Program
Program
3350/servo 860,8/2
3350/0,2 860,8/0,2
3350/0,2 860,8/0,2
0
15.00
 
 
 
0
 
860,8
319,2
860,8
Front
100
on
S:100 R:100
0
0
0
0
 
0
 
 
 
0
 
 
0
0
0
0
0
 
 
 
 
0
0


0
0
#HDR
-1
-1
#GR
nm
%R
1.0
0.0
2500,000000
-1,000000
2251
8
65,296400
4,773000
#DATA
250.000000	0.490971
251.000000	0.488594
252.000000	0.467203
253.000000	0.500635
254.000000	0.507431
255.000000	0.484050
256.000000	0.488959
257.000000	0.466338
258.000000	0.490718
259.000000	0.459061
260.000000	0.455209
261.000000	0.472981
262.000000	0.455047
263.000000	0.448653
264.000000	0.457818
265.000000	0.464662
266.000000	0.488010
267.000000	0.464493
268.000000	0.432904
269.000000	0.444596
270.000000	0.443960
271.000000	0.441054
272.000000	0.457434
273.000000	0.458090
274.000000	0.445829
275.000000	0.444799
276.000000	0.457394
277.000000	0.453223
278.000000	0.457440
279.000000	0.441751
280.000000	0.448155
281.000000	0.442781
282.000000	0.441543
283.000000	0.459877
284.000000	0.441017
285.000000	0.441344
286.000000	0.431775
287.000000	0.429096
288.000000	0.444227
289.000000	0.450503
290.000000	0.433051
291.000000	0.472707
292.000000	0.417847
293.000000	0.456183
294.000000	0.431709
295.000000	0.456804
296.000000	0.454620
297.000000	0.456956
298.000000	0.437914
299.000000	0.455300
300.000000	0.456442
301.000000	0.425737
302.000000	0.443481
303.000000	0.422875
304.000000	0.453617
305.000000	0.447300
306.000000	0.448159
307.000000	0.459481
308.000000	0.463744
309.000000	0.439081
310.000000	0.468094
311.000000	0.445936
312.000000	0.447065
313.000000	0.444518
314.000000	0.432722
315.000000	0.440571
316.000000	0.445954
317.000000	0.370463
318.000000	0.355978
319.000000	0.400163
320.000000	0.604047
321.000000	0.328211
322.000000	0.508707
323.000000	0.360291
324.000000	0.391490
325.000000	0.408221
326.000000	0.350843
327.000000	0.344050
328.000000	0.343629
329.000000	0.481688
330.000000	0.459954
331.000000	0.332405
332.000000	0.398153
333.000000	0.345578
334.000000	0.349886
335.000000	0.375008
336.000000	0.424989
337.000000	0.428512
338.000000	0.450122
339.000000	0.425134
340.000000	0.454789
341.000000	0.492376
342.000000	0.421611
343.000000	0.431959
344.000000	0.415833
345.000000	0.414051
346.000000	0.392641
347.000000	0.419735
348.000000	0.412997
349.000000	0.406599
350.000000	0.447382
351.000000	0.467022
352.000000	0.469820
353.000000	0.457763
354.000000	0.440737
355.000000	0.449629
356.000000	0.396030
357.000000	0.443121
358.000000	0.399205
359.000000	0.393587
360.000000	0.448245
361.000000	0.468404
362.000000	0.456869
363.000000	0.410087
364.000000	0.447937
365.000000	0.431796
366.000000	0.453948
367.000000	0.479483
368.000000	0.458816
369.000000	0.487252
370.000000	0.451772
371.000000	0.455696
372.000000	0.478629
373.000000	0.436257
374.000000	0.422632
375.000000	0.451230
376.000000	0.450391
377.000000	0.442150
378.000000	0.444016
379.000000	0.444590
380.000000	0.450101
381.000000	0.447250
382.000000	0.444763
383.000000	0.443589
384.000000	0.441829
385.000000	0.443208
386.000000	0.445945
387.000000	0.438858
388.000000	0.439565
389.000000	0.433965
390.000000	0.438721
391.000000	0.434570
392.000000	0.421440
393.000000	0.422389
394.000000	0.420102
395.000000	0.418256
396.000000	0.403326
397.000000	0.405571
398.000000	0.402399
399.000000	0.405995
400.000000	0.402939
401.000000	0.396647
402.000000	0.391586
403.000000	0.385074
404.000000	0.381120
405.000000	0.382155
406.000000	0.382096
407.000000	0.380490
408.000000	0.382676
409.000000	0.389965
410.000000	0.400710
411.000000	0.414977
412.000000	0.432196
413.000000	0.446843
414.000000	0.463346
415.000000	0.481489
416.000000	0.495942
417.000000	0.507817
418.000000	0.522540
419.000000	0.529168
420.000000	0.545472
421.000000	0.562357
422.000000	0.578645
423.000000	0.600861
424.000000	0.617159
425.000000	0.628702
426.000000	0.639317
427.000000	0.654661
428.000000	0.663768
429.000000	0.670858
430.000000	0.679606
431.000000	0.689094
432.000000	0.702365
433.000000	0.712497
434.000000	0.711408
435.000000	0.712282
436.000000	0.728589
437.000000	0.742274
438.000000	0.749342
439.000000	0.766556
440.000000	0.788229
441.000000	0.810356
442.000000	0.842696
443.000000	0.877356
444.000000	0.912246
445.000000	0.946025
446.000000	0.980120
447.000000	1.011582
448.000000	1.037671
449.000000	1.064044
450.000000	1.094482
451.000000	1.121944
452.000000	1.141220
453.000000	1.168922
454.000000	1.205727
455.000000	1.233883
456.000000	1.258158
457.000000	1.285036
458.000000	1.318639
459.000000	1.355732
460.000000	1.386169
461.000000	1.421452
462.000000	1.461397
463.000000	1.494447
464.000000	1.530344
465.000000	1.568893
466.000000	1.603207
467.000000	1.626102
468.000000	1.650683
469.000000	1.677417
470.000000	1.704651
471.000000	1.737900
472.000000	1.767547
473.000000	1.784067
474.000000	1.803872
475.000000	1.837749
476.000000	1.871691
477.000000	1.904874
478.000000	1.935371
479.000000	1.961000
480.000000	1.982126
481.000000	1.998458
482.000000	2.014738
483.000000	2.015196
484.000000	2.012845
485.000000	2.007900
486.000000	1.987577
487.000000	1.952069
488.000000	1.920931
489.000000	1.875619
490.000000	1.825769
491.000000	1.778754
492.000000	1.724715
493.000000	1.676974
494.000000	1.638854
495.000000	1.598208
496.000000	1.571865
497.000000	1.561489
498.000000	1.562525
499.000000	1.564660
500.000000	1.578666
501.000000	1.598626
502.000000	1.600682
503.000000	1.602875
504.000000	1.605597
505.000000	1.606461
506.000000	1.589875
507.000000	1.564920
508.000000	1.538068
509.000000	1.499935
510.000000	1.461925
511.000000	1.420823
512.000000	1.393872
513.000000	1.376637
514.000000	1.374702
515.000000	1.390081
516.000000	1.434981
517.000000	1.487719
518.000000	1.561768
519.000000	1.661753
520.000000	1.783828
521.000000	1.918699
522.000000	2.048548
523.000000	2.205132
524.000000	2.332388
525.000000	2.471412
526.000000	2.596625
527.000000	2.700885
528.000000	2.803816
529.000000	2.883487
530.000000	2.959495
531.000000	3.018588
532.000000	3.078154
533.000000	3.127051
534.000000	3.198984
535.000000	3.262604
536.000000	3.355854
537.000000	3.455409
538.000000	3.561324
539.000000	3.678028
540.000000	3.799055
541.000000	3.910710
542.000000	4.017348
543.000000	4.125939
544.000000	4.211898
545.000000	4.309060
546.000000	4.381102
547.000000	4.439924
548.000000	4.527990
549.000000	4.602157
550.000000	4.669075
551.000000	4.749405
552.000000	4.845830
553.000000	4.928978
554.000000	5.014314
555.000000	5.102798
556.000000	5.174329
557.000000	5.263734
558.000000	5.331686
559.000000	5.411288
560.000000	5.493467
561.000000	5.557121
562.000000	5.591983
563.000000	5.630663
564.000000	5.644530
565.000000	5.645033
566.000000	5.651754
567.000000	5.649544
568.000000	5.629912
569.000000	5.624464
570.000000	5.630943
571.000000	5.632782
572.000000	5.633200
573.000000	5.667137
574.000000	5.720589
575.000000	5.772424
576.000000	5.815879
577.000000	5.894485
578.000000	5.978919
579.000000	6.046950
580.000000	6.100236
581.000000	6.173450
582.000000	6.240798
583.000000	6.304457
584.000000	6.337918
585.000000	6.379256
586.000000	6.403174
587.000000	6.410665
588.000000	6.412221
589.000000	6.399796
590.000000	6.386338
591.000000	6.376736
592.000000	6.362892
593.000000	6.361119
594.000000	6.399659
595.000000	6.451644
596.000000	6.512267
597.000000	6.575070
598.000000	6.670958
599.000000	6.787472
600.000000	6.878890
601.000000	6.965652
602.000000	7.015833
603.000000	7.065650
604.000000	7.124318
605.000000	7.135278
606.000000	7.128808
607.000000	7.075131
608.000000	7.020673
609.000000	6.913735
610.000000	6.779676
611.000000	6.585554
612.000000	6.402600
613.000000	6.170953
614.000000	5.917098
615.000000	5.678385
616.000000	5.421930
617.000000	5.152996
618.000000	4.894662
619.000000	4.635867
620.000000	4.397610
621.000000	4.152398
622.000000	3.922592
623.000000	3.707263
624.000000	3.518878
625.000000	3.340626
626.000000	3.168290
627.000000	3.016658
628.000000	2.889504
629.000000	2.782540
630.000000	2.684754
631.000000	2.641265
632.000000	2.608569
633.000000	2.590472
634.000000	2.610049
635.000000	2.641710
636.000000	2.722203
637.000000	2.791328
638.000000	2.856279
639.000000	2.951210
640.000000	3.038216
641.000000	3.119741
642.000000	3.223054
643.000000	3.296085
644.000000	3.352722
645.000000	3.407052
646.000000	3.448501
647.000000	3.471879
648.000000	3.517190
649.000000	3.528030
650.000000	3.549721
651.000000	3.553121
652.000000	3.544203
653.000000	3.541042
654.000000	3.538069
655.000000	3.515539
656.000000	3.518144
657.000000	3.511054
658.000000	3.521444
659.000000	3.522638
660.000000	3.503367
661.000000	3.503732
662.000000	3.500257
663.000000	3.501929
664.000000	3.462791
665.000000	3.425095
666.000000	3.399121
667.000000	3.348671
668.000000	3.304097
669.000000	3.264438
670.000000	3.205433
671.000000	3.164698
672.000000	3.119715
673.000000	3.069861
674.000000	3.035616
675.000000	2.998378
676.000000	2.983233
677.000000	2.989690
678.000000	3.007534
679.000000	3.031034
680.000000	3.050655
681.000000	3.040275
682.000000	3.074496
683.000000	3.095521
684.000000	3.117595
685.000000	3.164492
686.000000	3.185216
687.000000	3.222258
688.000000	3.240161
689.000000	3.274135
690.000000	3.282403
691.000000	3.307243
692.000000	3.347704
693.000000	3.389601
694.000000	3.399024
695.000000	3.417594
696.000000	3.458585
697.000000	3.498340
698.000000	3.531149
699.000000	3.549875
700.000000	3.585352
701.000000	3.611069
702.000000	3.651973
703.000000	3.687282
704.000000	3.697966
705.000000	3.697205
706.000000	3.726760
707.000000	3.758226
708.000000	3.779828
709.000000	3.792950
710.000000	3.792587
711.000000	3.823473
712.000000	3.835457
713.000000	3.837400
714.000000	3.825099
715.000000	3.812899
716.000000	3.839839
717.000000	3.849895
718.000000	3.854352
719.000000	3.847325
720.000000	3.843673
721.000000	3.823890
722.000000	3.794217
723.000000	3.791612
724.000000	3.805580
725.000000	3.811515
726.000000	3.825486
727.000000	3.814187
728.000000	3.829611
729.000000	3.813668
730.000000	3.784406
731.000000	3.792673
732.000000	3.776819
733.000000	3.745621
734.000000	3.748209
735.000000	3.751161
736.000000	3.747734
737.000000	3.743109
738.000000	3.750037
739.000000	3.737982
740.000000	3.721527
741.000000	3.734689
742.000000	3.742972
743.000000	3.727983
744.000000	3.714028
745.000000	3.726614
746.000000	3.729167
747.000000	3.729328
748.000000	3.732794
749.000000	3.738353
750.000000	3.744685
751.000000	3.756256
752.000000	3.757791
753.000000	3.754438
754.000000	3.783743
755.000000	3.789383
756.000000	3.767229
757.000000	3.790357
758.000000	3.818286
759.000000	3.811675
760.000000	3.814912
761.000000	3.818441
762.000000	3.800638
763.000000	3.803583
764.000000	3.827525
765.000000	3.829752
766.000000	3.810001
767.000000	3.819001
768.000000	3.848913
769.000000	3.888148
770.000000	3.876840
771.000000	3.889046
772.000000	3.898927
773.000000	3.880653
774.000000	3.894703
775.000000	3.923906
776.000000	3.917734
777.000000	3.965959
778.000000	3.976178
779.000000	3.928982
780.000000	3.933297
781.000000	3.909677
782.000000	3.915789
783.000000	3.930936
784.000000	3.972652
785.000000	3.959620
786.000000	3.958837
787.000000	3.958250
788.000000	3.990138
789.000000	3.980351
790.000000	3.991654
791.000000	4.013645
792.000000	4.014952
793.000000	3.989270
794.000000	3.948981
795.000000	3.987201
796.000000	3.996576
797.000000	4.001006
798.000000	3.959079
799.000000	3.967380
800.000000	3.958666
801.000000	3.957734
802.000000	3.979282
803.000000	3.992084
804.000000	3.994832
805.000000	3.999888
806.000000	4.019762
807.000000	4.045022
808.000000	4.095676
809.000000	4.122790
810.000000	4.112575
811.000000	4.100987
812.000000	4.133558
813.000000	4.188499
814.000000	4.183421
815.000000	4.246648
816.000000	4.235670
817.000000	4.304761
818.000000	4.294184
819.000000	4.248187
820.000000	4.287070
821.000000	4.365305
822.000000	4.401967
823.000000	4.422861
824.000000	4.420416
825.000000	4.405985
826.000000	4.499315
827.000000	4.431879
828.000000	4.504887
829.000000	4.477105
830.000000	4.472700
831.000000	4.588713
832.000000	4.582041
833.000000	4.593519
834.000000	4.654930
835.000000	4.640757
836.000000	4.630660
837.000000	4.717808
838.000000	4.740726
839.000000	4.760865
840.000000	4.713170
841.000000	4.704502
842.000000	4.769089
843.000000	4.738596
844.000000	4.803700
845.000000	4.833753
846.000000	4.779418
847.000000	4.596471
848.000000	4.742617
849.000000	4.829990
850.000000	4.836640
851.000000	4.618170
852.000000	4.681829
853.000000	4.655231
854.000000	4.743717
855.000000	4.631747
856.000000	4.816815
857.000000	5.040998
858.000000	4.984705
859.000000	5.042698
860.000000	5.071114
861.000000	5.116874
862.000000	5.175195
863.000000	5.212076
864.000000	5.272817
865.000000	5.325798
866.000000	5.379080
867.000000	5.364313
868.000000	5.323430
869.000000	5.277468
870.000000	5.248139
871.000000	5.202960
872.000000	5.203103
873.000000	5.171124
874.000000	5.145655
875.000000	5.173846
876.000000	5.166524
877.000000	5.197064
878.000000	5.196677
879.000000	5.218033
880.000000	5.212890
881.000000	5.253300
882.000000	5.282811
883.000000	5.285063
884.000000	5.329929
885.000000	5.344615
886.000000	5.356330
887.000000	5.380942
888.000000	5.403297
889.000000	5.435978
890.000000	5.469683
891.000000	5.494852
892.000000	5.501659
893.000000	5.531699
894.000000	5.545805
895.000000	5.562444
896.000000	5.584505
897.000000	5.615733
898.000000	5.658805
899.000000	5.669301
900.000000	5.703798
901.000000	5.726648
902.000000	5.740536
903.000000	5.767508
904.000000	5.793214
905.000000	5.803747
906.000000	5.832139
907.000000	5.848675
908.000000	5.871390
909.000000	5.880305
910.000000	5.906191
911.000000	5.884510
912.000000	5.886407
913.000000	5.898130
914.000000	5.909871
915.000000	5.927570
916.000000	5.898923
917.000000	5.914179
918.000000	5.917259
919.000000	5.920079
920.000000	5.917204
921.000000	5.942138
922.000000	5.946531
923.000000	5.978684
924.000000	5.979738
925.000000	5.995425
926.000000	6.011961
927.000000	6.034058
928.000000	6.054909
929.000000	6.060202
930.000000	6.082568
931.000000	6.105512
932.000000	6.095824
933.000000	6.128628
934.000000	6.155660
935.000000	6.168633
936.000000	6.178239
937.000000	6.194830
938.000000	6.214221
939.000000	6.220522
940.000000	6.247687
941.000000	6.261617
942.000000	6.288515
943.000000	6.298622
944.000000	6.311054
945.000000	6.344916
946.000000	6.361981
947.000000	6.369408
948.000000	6.394410
949.000000	6.411325
950.000000	6.423495
951.000000	6.441793
952.000000	6.468482
953.000000	6.477611
954.000000	6.513529
955.000000	6.512241
956.000000	6.531961
957.000000	6.568373
958.000000	6.594243
959.000000	6.606871
960.000000	6.641480
961.000000	6.665534
962.000000	6.697705
963.000000	6.733736
964.000000	6.753218
965.000000	6.791999
966.000000	6.815567
967.000000	6.839410
968.000000	6.865476
969.000000	6.888539
970.000000	6.919775
971.000000	6.945912
972.000000	6.977701
973.000000	6.989008
974.000000	7.026279
975.000000	7.052579
976.000000	7.084004
977.000000	7.112931
978.000000	7.146792
979.000000	7.168910
980.000000	7.197168
981.000000	7.239979
982.000000	7.283352
983.000000	7.308243
984.000000	7.342492
985.000000	7.378858
986.000000	7.414823
987.000000	7.455677
988.000000	7.489797
989.000000	7.523863
990.000000	7.562448
991.000000	7.601294
992.000000	7.632488
993.000000	7.666769
994.000000	7.699902
995.000000	7.730841
996.000000	7.758922
997.000000	7.796294
998.000000	7.831595
999.000000	7.865716
1000.000000	7.898908
1001.000000	7.925986
1002.000000	7.959107
1003.000000	7.987501
1004.000000	8.013556
1005.000000	8.049360
1006.000000	8.077293
1007.000000	8.114811
1008.000000	8.150974
1009.000000	8.177891
1010.000000	8.205617
1011.000000	8.233223
1012.000000	8.251453
1013.000000	8.269518
1014.000000	8.289604
1015.000000	8.310181
1016.000000	8.330087
1017.000000	8.335920
1018.000000	8.340853
1019.000000	8.345283
1020.000000	8.343330
1021.000000	8.355630
1022.000000	8.368165
1023.000000	8.373777
1024.000000	8.367774
1025.000000	8.368014
1026.000000	8.372834
1027.000000	8.369224
1028.000000	8.376795
1029.000000	8.383764
1030.000000	8.380598
1031.000000	8.384776
1032.000000	8.394990
1033.000000	8.395117
1034.000000	8.403292
1035.000000	8.412377
1036.000000	8.416415
1037.000000	8.417190
1038.000000	8.423385
1039.000000	8.434144
1040.000000	8.437617
1041.000000	8.445917
1042.000000	8.456584
1043.000000	8.462139
1044.000000	8.468613
1045.000000	8.473544
1046.000000	8.478752
1047.000000	8.488210
1048.000000	8.493977
1049.000000	8.496309
1050.000000	8.502678
1051.000000	8.505270
1052.000000	8.503056
1053.000000	8.506968
1054.000000	8.511256
1055.000000	8.511256
1056.000000	8.508173
1057.000000	8.501758
1058.000000	8.490269
1059.000000	8.487034
1060.000000	8.490557
1061.000000	8.494450
1062.000000	8.500116
1063.000000	8.493348
1064.000000	8.492976
1065.000000	8.499774
1066.000000	8.504368
1067.000000	8.507766
1068.000000	8.512474
1069.000000	8.512101
1070.000000	8.512826
1071.000000	8.515337
1072.000000	8.519929
1073.000000	8.525128
1074.000000	8.530385
1075.000000	8.535850
1076.000000	8.540112
1077.000000	8.538379
1078.000000	8.541312
1079.000000	8.549987
1080.000000	8.553289
1081.000000	8.561344
1082.000000	8.564782
1083.000000	8.566020
1084.000000	8.566963
1085.000000	8.562603
1086.000000	8.563071
1087.000000	8.563589
1088.000000	8.572512
1089.000000	8.576618
1090.000000	8.583260
1091.000000	8.582670
1092.000000	8.593138
1093.000000	8.601151
1094.000000	8.600454
1095.000000	8.602989
1096.000000	8.619099
1097.000000	8.609472
1098.000000	8.612972
1099.000000	8.621340
1100.000000	8.625347
1101.000000	8.631442
1102.000000	8.640944
1103.000000	8.645357
1104.000000	8.655042
1105.000000	8.660784
1106.000000	8.672071
1107.000000	8.686469
1108.000000	8.693065
1109.000000	8.706596
1110.000000	8.717148
1111.000000	8.721215
1112.000000	8.727241
1113.000000	8.738946
1114.000000	8.739136
1115.000000	8.752945
1116.000000	8.765959
1117.000000	8.778405
1118.000000	8.785447
1119.000000	8.796388
1120.000000	8.816149
1121.000000	8.832628
1122.000000	8.863253
1123.000000	8.876055
1124.000000	8.909964
1125.000000	8.931471
1126.000000	8.950690
1127.000000	8.978913
1128.000000	9.022813
1129.000000	9.077922
1130.000000	9.131888
1131.000000	9.200100
1132.000000	9.282342
1133.000000	9.412021
1134.000000	9.523872
1135.000000	9.639715
1136.000000	9.783995
1137.000000	9.909574
1138.000000	10.043763
1139.000000	10.185294
1140.000000	10.329097
1141.000000	10.463024
1142.000000	10.605038
1143.000000	10.737742
1144.000000	10.882006
1145.000000	10.997276
1146.000000	11.069287
1147.000000	11.119876
1148.000000	11.132040
1149.000000	11.124612
1150.000000	11.105244
1151.000000	11.089847
1152.000000	11.072545
1153.000000	11.080656
1154.000000	11.096626
1155.000000	11.132086
1156.000000	11.190756
1157.000000	11.267854
1158.000000	11.377880
1159.000000	11.484441
1160.000000	11.613653
1161.000000	11.729442
1162.000000	11.864892
1163.000000	11.992763
1164.000000	12.129263
1165.000000	12.278092
1166.000000	12.409294
1167.000000	12.542114
1168.000000	12.686521
1169.000000	12.820989
1170.000000	12.962616
1171.000000	13.108080
1172.000000	13.240237
1173.000000	13.390421
1174.000000	13.514926
1175.000000	13.655575
1176.000000	13.778542
1177.000000	13.933274
1178.000000	14.111253
1179.000000	14.304704
1180.000000	14.523445
1181.000000	14.766365
1182.000000	15.026439
1183.000000	15.243569
1184.000000	15.426532
1185.000000	15.537853
1186.000000	15.598389
1187.000000	15.599935
1188.000000	15.532087
1189.000000	15.412355
1190.000000	15.243830
1191.000000	15.044795
1192.000000	14.849141
1193.000000	14.656508
1194.000000	14.500024
1195.000000	14.377757
1196.000000	14.287502
1197.000000	14.228566
1198.000000	14.194077
1199.000000	14.178002
1200.000000	14.179317
1201.000000	14.193772
1202.000000	14.210616
1203.000000	14.236916
1204.000000	14.269168
1205.000000	14.294249
1206.000000	14.301371
1207.000000	14.314975
1208.000000	14.313727
1209.000000	14.304735
1210.000000	14.298113
1211.000000	14.262461
1212.000000	14.230420
1213.000000	14.206067
1214.000000	14.171671
1215.000000	14.122603
1216.000000	14.067540
1217.000000	14.016269
1218.000000	13.960461
1219.000000	13.896555
1220.000000	13.835627
1221.000000	13.756819
1222.000000	13.675261
1223.000000	13.591122
1224.000000	13.511065
1225.000000	13.426778
1226.000000	13.342864
1227.000000	13.259304
1228.000000	13.175131
1229.000000	13.083135
1230.000000	12.993464
1231.000000	12.915177
1232.000000	12.829112
1233.000000	12.743071
1234.000000	12.661901
1235.000000	12.582949
1236.000000	12.503562
1237.000000	12.432941
1238.000000	12.354065
1239.000000	12.287331
1240.000000	12.228374
1241.000000	12.165534
1242.000000	12.108174
1243.000000	12.053408
1244.000000	11.999463
1245.000000	11.954749
1246.000000	11.911953
1247.000000	11.866442
1248.000000	11.830646
1249.000000	11.801444
1250.000000	11.762106
1251.000000	11.729514
1252.000000	11.712310
1253.000000	11.686169
1254.000000	11.648661
1255.000000	11.624763
1256.000000	11.595543
1257.000000	11.562529
1258.000000	11.533741
1259.000000	11.510383
1260.000000	11.487768
1261.000000	11.458313
1262.000000	11.429918
1263.000000	11.400533
1264.000000	11.374628
1265.000000	11.347171
1266.000000	11.324235
1267.000000	11.301949
1268.000000	11.277130
1269.000000	11.251631
1270.000000	11.223782
1271.000000	11.195851
1272.000000	11.173326
1273.000000	11.150690
1274.000000	11.132094
1275.000000	11.106141
1276.000000	11.077772
1277.000000	11.055925
1278.000000	11.041056
1279.000000	11.021950
1280.000000	11.000988
1281.000000	10.978262
1282.000000	10.956994
1283.000000	10.942125
1284.000000	10.928503
1285.000000	10.915457
1286.000000	10.901303
1287.000000	10.884818
1288.000000	10.875771
1289.000000	10.867672
1290.000000	10.860469
1291.000000	10.856511
1292.000000	10.850172
1293.000000	10.848939
1294.000000	10.850777
1295.000000	10.851713
1296.000000	10.858790
1297.000000	10.867231
1298.000000	10.871151
1299.000000	10.870555
1300.000000	10.874757
1301.000000	10.885046
1302.000000	10.885621
1303.000000	10.893973
1304.000000	10.907511
1305.000000	10.920959
1306.000000	10.936970
1307.000000	10.951040
1308.000000	10.964691
1309.000000	10.981235
1310.000000	11.001289
1311.000000	11.022939
1312.000000	11.042081
1313.000000	11.066508
1314.000000	11.091257
1315.000000	11.117452
1316.000000	11.148175
1317.000000	11.177214
1318.000000	11.210023
1319.000000	11.246971
1320.000000	11.280990
1321.000000	11.319033
1322.000000	11.355211
1323.000000	11.396047
1324.000000	11.442211
1325.000000	11.482019
1326.000000	11.527005
1327.000000	11.577956
1328.000000	11.630792
1329.000000	11.685681
1330.000000	11.739900
1331.000000	11.801648
1332.000000	11.855922
1333.000000	11.913407
1334.000000	11.979963
1335.000000	12.048151
1336.000000	12.115813
1337.000000	12.191095
1338.000000	12.260339
1339.000000	12.324131
1340.000000	12.410227
1341.000000	12.495405
1342.000000	12.575442
1343.000000	12.659077
1344.000000	12.751312
1345.000000	12.842630
1346.000000	12.936839
1347.000000	13.047051
1348.000000	13.171130
1349.000000	13.300551
1350.000000	13.449016
1351.000000	13.616459
1352.000000	13.809191
1353.000000	14.039795
1354.000000	14.251848
1355.000000	14.448042
1356.000000	14.599935
1357.000000	14.704260
1358.000000	14.772066
1359.000000	14.796074
1360.000000	14.825095
1361.000000	14.843359
1362.000000	14.857836
1363.000000	14.871617
1364.000000	14.917724
1365.000000	14.963529
1366.000000	15.006511
1367.000000	15.060727
1368.000000	15.158920
1369.000000	15.235527
1370.000000	15.332547
1371.000000	15.451693
1372.000000	15.575915
1373.000000	15.690635
1374.000000	15.792637
1375.000000	15.878609
1376.000000	15.936415
1377.000000	15.952478
1378.000000	15.965122
1379.000000	15.962862
1380.000000	15.961618
1381.000000	16.034199
1382.000000	16.126996
1383.000000	16.215128
1384.000000	16.338008
1385.000000	16.414576
1386.000000	16.486054
1387.000000	16.559273
1388.000000	16.634761
1389.000000	16.620066
1390.000000	16.624156
1391.000000	16.634688
1392.000000	16.634312
1393.000000	16.612586
1394.000000	16.601704
1395.000000	16.615879
1396.000000	16.582649
1397.000000	16.530796
1398.000000	16.495372
1399.000000	16.526568
1400.000000	16.561405
1401.000000	16.584829
1402.000000	16.559088
1403.000000	16.581496
1404.000000	16.588192
1405.000000	16.643085
1406.000000	16.643201
1407.000000	16.657892
1408.000000	16.651760
1409.000000	16.675622
1410.000000	16.631299
1411.000000	16.577976
1412.000000	16.550664
1413.000000	16.514671
1414.000000	16.493675
1415.000000	16.438418
1416.000000	16.378312
1417.000000	16.330879
1418.000000	16.331269
1419.000000	16.327287
1420.000000	16.286038
1421.000000	16.239168
1422.000000	16.220466
1423.000000	16.214594
1424.000000	16.207009
1425.000000	16.182300
1426.000000	16.162983
1427.000000	16.161621
1428.000000	16.153739
1429.000000	16.131857
1430.000000	16.108500
1431.000000	16.102101
1432.000000	16.105208
1433.000000	16.081242
1434.000000	16.072980
1435.000000	16.035048
1436.000000	16.031410
1437.000000	16.026982
1438.000000	16.016943
1439.000000	16.013264
1440.000000	15.985140
1441.000000	15.992108
1442.000000	15.989772
1443.000000	15.961489
1444.000000	15.972468
1445.000000	15.975167
1446.000000	15.977701
1447.000000	15.963687
1448.000000	15.926397
1449.000000	15.930852
1450.000000	15.933965
1451.000000	15.927447
1452.000000	15.911759
1453.000000	15.881454
1454.000000	15.859069
1455.000000	15.847805
1456.000000	15.840602
1457.000000	15.803088
1458.000000	15.767137
1459.000000	15.741812
1460.000000	15.727616
1461.000000	15.703469
1462.000000	15.679003
1463.000000	15.649248
1464.000000	15.606191
1465.000000	15.578341
1466.000000	15.555573
1467.000000	15.518535
1468.000000	15.482295
1469.000000	15.441903
1470.000000	15.429054
1471.000000	15.396878
1472.000000	15.358081
1473.000000	15.328327
1474.000000	15.289613
1475.000000	15.244305
1476.000000	15.224066
1477.000000	15.202742
1478.000000	15.174931
1479.000000	15.148778
1480.000000	15.114867
1481.000000	15.093844
1482.000000	15.069832
1483.000000	15.040558
1484.000000	15.009763
1485.000000	14.981331
1486.000000	14.950469
1487.000000	14.923760
1488.000000	14.892162
1489.000000	14.857155
1490.000000	14.835103
1491.000000	14.808708
1492.000000	14.783765
1493.000000	14.761285
1494.000000	14.746746
1495.000000	14.733408
1496.000000	14.711360
1497.000000	14.690624
1498.000000	14.680306
1499.000000	14.683643
1500.000000	14.672627
1501.000000	14.675508
1502.000000	14.677211
1503.000000	14.681841
1504.000000	14.692024
1505.000000	14.695327
1506.000000	14.697092
1507.000000	14.701348
1508.000000	14.705924
1509.000000	14.720219
1510.000000	14.730526
1511.000000	14.743563
1512.000000	14.754842
1513.000000	14.762374
1514.000000	14.773107
1515.000000	14.779841
1516.000000	14.789557
1517.000000	14.801775
1518.000000	14.815434
1519.000000	14.828915
1520.000000	14.841196
1521.000000	14.852194
1522.000000	14.860230
1523.000000	14.874429
1524.000000	14.880181
1525.000000	14.891901
1526.000000	14.909695
1527.000000	14.920695
1528.000000	14.936015
1529.000000	14.944432
1530.000000	14.954540
1531.000000	14.966339
1532.000000	14.978646
1533.000000	14.988406
1534.000000	14.999017
1535.000000	15.013036
1536.000000	15.027145
1537.000000	15.035463
1538.000000	15.042395
1539.000000	15.057286
1540.000000	15.069285
1541.000000	15.080698
1542.000000	15.095463
1543.000000	15.118046
1544.000000	15.141290
1545.000000	15.161846
1546.000000	15.193834
1547.000000	15.232103
1548.000000	15.268817
1549.000000	15.312706
1550.000000	15.346776
1551.000000	15.383722
1552.000000	15.426076
1553.000000	15.459447
1554.000000	15.498194
1555.000000	15.534472
1556.000000	15.557524
1557.000000	15.582150
1558.000000	15.602202
1559.000000	15.620025
1560.000000	15.634569
1561.000000	15.648567
1562.000000	15.653798
1563.000000	15.652666
1564.000000	15.649263
1565.000000	15.650509
1566.000000	15.653454
1567.000000	15.649765
1568.000000	15.642922
1569.000000	15.642507
1570.000000	15.639856
1571.000000	15.632969
1572.000000	15.634217
1573.000000	15.633120
1574.000000	15.632084
1575.000000	15.634331
1576.000000	15.635423
1577.000000	15.644462
1578.000000	15.648024
1579.000000	15.652162
1580.000000	15.667801
1581.000000	15.685729
1582.000000	15.702362
1583.000000	15.716399
1584.000000	15.727426
1585.000000	15.736278
1586.000000	15.751799
1587.000000	15.763445
1588.000000	15.770798
1589.000000	15.777358
1590.000000	15.791062
1591.000000	15.801134
1592.000000	15.815049
1593.000000	15.831006
1594.000000	15.846958
1595.000000	15.862419
1596.000000	15.872014
1597.000000	15.885976
1598.000000	15.900179
1599.000000	15.912687
1600.000000	15.926894
1601.000000	15.945364
1602.000000	15.959311
1603.000000	15.972115
1604.000000	15.982170
1605.000000	15.989992
1606.000000	16.000615
1607.000000	16.017762
1608.000000	16.020598
1609.000000	16.021902
1610.000000	16.021077
1611.000000	16.021755
1612.000000	16.022545
1613.000000	16.011824
1614.000000	16.002560
1615.000000	15.993100
1616.000000	15.982142
1617.000000	15.968077
1618.000000	15.952678
1619.000000	15.935524
1620.000000	15.917143
1621.000000	15.900007
1622.000000	15.885693
1623.000000	15.859767
1624.000000	15.848283
1625.000000	15.833903
1626.000000	15.819865
1627.000000	15.801434
1628.000000	15.790656
1629.000000	15.790425
1630.000000	15.775676
1631.000000	15.755220
1632.000000	15.734596
1633.000000	15.730442
1634.000000	15.711318
1635.000000	15.686062
1636.000000	15.663632
1637.000000	15.636922
1638.000000	15.615431
1639.000000	15.589383
1640.000000	15.572577
1641.000000	15.543793
1642.000000	15.520859
1643.000000	15.499497
1644.000000	15.481137
1645.000000	15.463160
1646.000000	15.437357
1647.000000	15.419772
1648.000000	15.398318
1649.000000	15.388564
1650.000000	15.365623
1651.000000	15.341169
1652.000000	15.316284
1653.000000	15.292545
1654.000000	15.277757
1655.000000	15.239755
1656.000000	15.215013
1657.000000	15.174442
1658.000000	15.144199
1659.000000	15.101699
1660.000000	15.060112
1661.000000	15.003647
1662.000000	14.957806
1663.000000	14.911906
1664.000000	14.866945
1665.000000	14.814547
1666.000000	14.780062
1667.000000	14.733808
1668.000000	14.696076
1669.000000	14.653775
1670.000000	14.612275
1671.000000	14.581036
1672.000000	14.573791
1673.000000	14.574977
1674.000000	14.590105
1675.000000	14.623919
1676.000000	14.679224
1677.000000	14.750234
1678.000000	14.825501
1679.000000	14.915721
1680.000000	14.994904
1681.000000	15.054474
1682.000000	15.069539
1683.000000	15.053112
1684.000000	15.016288
1685.000000	14.937921
1686.000000	14.850726
1687.000000	14.785905
1688.000000	14.735746
1689.000000	14.740104
1690.000000	14.777958
1691.000000	14.828766
1692.000000	14.900819
1693.000000	14.962937
1694.000000	15.006288
1695.000000	15.039282
1696.000000	15.041513
1697.000000	15.022510
1698.000000	15.001875
1699.000000	14.962807
1700.000000	14.915853
1701.000000	14.879396
1702.000000	14.846237
1703.000000	14.829428
1704.000000	14.796112
1705.000000	14.776339
1706.000000	14.746093
1707.000000	14.712632
1708.000000	14.682062
1709.000000	14.643925
1710.000000	14.593770
1711.000000	14.549082
1712.000000	14.501282
1713.000000	14.455769
1714.000000	14.398706
1715.000000	14.338411
1716.000000	14.261576
1717.000000	14.189791
1718.000000	14.109826
1719.000000	14.020239
1720.000000	13.946014
1721.000000	13.888478
1722.000000	13.834183
1723.000000	13.808356
1724.000000	13.804179
1725.000000	13.817303
1726.000000	13.854667
1727.000000	13.882367
1728.000000	13.931684
1729.000000	13.989327
1730.000000	14.039971
1731.000000	14.071499
1732.000000	14.105955
1733.000000	14.137949
1734.000000	14.147301
1735.000000	14.148724
1736.000000	14.133974
1737.000000	14.105452
1738.000000	14.075883
1739.000000	14.048893
1740.000000	14.022655
1741.000000	13.982778
1742.000000	13.953420
1743.000000	13.917693
1744.000000	13.899804
1745.000000	13.887906
1746.000000	13.879915
1747.000000	13.881521
1748.000000	13.897759
1749.000000	13.898501
1750.000000	13.911637
1751.000000	13.926636
1752.000000	13.944002
1753.000000	13.958763
1754.000000	13.968393
1755.000000	14.002447
1756.000000	14.034356
1757.000000	14.060191
1758.000000	14.104760
1759.000000	14.146545
1760.000000	14.184584
1761.000000	14.219999
1762.000000	14.254009
1763.000000	14.274418
1764.000000	14.293803
1765.000000	14.300734
1766.000000	14.308691
1767.000000	14.299940
1768.000000	14.291394
1769.000000	14.282969
1770.000000	14.271736
1771.000000	14.257290
1772.000000	14.235138
1773.000000	14.220264
1774.000000	14.210366
1775.000000	14.193567
1776.000000	14.174279
1777.000000	14.162395
1778.000000	14.153687
1779.000000	14.141645
1780.000000	14.128127
1781.000000	14.121171
1782.000000	14.088004
1783.000000	14.067311
1784.000000	14.049190
1785.000000	14.025989
1786.000000	13.999759
1787.000000	13.973570
1788.000000	13.941010
1789.000000	13.920947
1790.000000	13.904236
1791.000000	13.886663
1792.000000	13.871435
1793.000000	13.859849
1794.000000	13.849168
1795.000000	13.837778
1796.000000	13.823345
1797.000000	13.815373
1798.000000	13.808129
1799.000000	13.800171
1800.000000	13.790328
1801.000000	13.793606
1802.000000	13.798002
1803.000000	13.781094
1804.000000	13.758424
1805.000000	13.749849
1806.000000	13.756499
1807.000000	13.751657
1808.000000	13.736333
1809.000000	13.729167
1810.000000	13.728495
1811.000000	13.740957
1812.000000	13.747929
1813.000000	13.739442
1814.000000	13.731253
1815.000000	13.737798
1816.000000	13.745581
1817.000000	13.744353
1818.000000	13.729130
1819.000000	13.729502
1820.000000	13.755587
1821.000000	13.755135
1822.000000	13.732768
1823.000000	13.704670
1824.000000	13.675087
1825.000000	13.661577
1826.000000	13.647411
1827.000000	13.628858
1828.000000	13.622553
1829.000000	13.618333
1830.000000	13.607843
1831.000000	13.589008
1832.000000	13.561307
1833.000000	13.539898
1834.000000	13.525874
1835.000000	13.526883
1836.000000	13.539093
1837.000000	13.547518
1838.000000	13.541151
1839.000000	13.536751
1840.000000	13.538448
1841.000000	13.541987
1842.000000	13.541117
1843.000000	13.517729
1844.000000	13.494775
1845.000000	13.479420
1846.000000	13.477425
1847.000000	13.481119
1848.000000	13.478064
1849.000000	13.459156
1850.000000	13.405771
1851.000000	13.355629
1852.000000	13.312023
1853.000000	13.300392
1854.000000	13.291144
1855.000000	13.267247
1856.000000	13.240329
1857.000000	13.212765
1858.000000	13.197052
1859.000000	13.186115
1860.000000	13.177333
1861.000000	13.160936
1862.000000	13.137758
1863.000000	13.125314
1864.000000	13.113886
1865.000000	13.104115
1866.000000	13.109461
1867.000000	13.137050
1868.000000	13.151185
1869.000000	13.169084
1870.000000	13.204336
1871.000000	13.243999
1872.000000	13.276255
1873.000000	13.298060
1874.000000	13.322025
1875.000000	13.343368
1876.000000	13.371702
1877.000000	13.390302
1878.000000	13.418649
1879.000000	13.437421
1880.000000	13.448029
1881.000000	13.446327
1882.000000	13.442541
1883.000000	13.429347
1884.000000	13.397190
1885.000000	13.326086
1886.000000	13.241577
1887.000000	13.129190
1888.000000	12.995768
1889.000000	12.839950
1890.000000	12.700802
1891.000000	12.537870
1892.000000	12.349922
1893.000000	12.171231
1894.000000	11.978185
1895.000000	11.790777
1896.000000	11.618285
1897.000000	11.436831
1898.000000	11.242267
1899.000000	11.063121
1900.000000	10.880281
1901.000000	10.699060
1902.000000	10.544880
1903.000000	10.358077
1904.000000	10.203782
1905.000000	10.052692
1906.000000	9.902441
1907.000000	9.730066
1908.000000	9.594257
1909.000000	9.463440
1910.000000	9.346155
1911.000000	9.219145
1912.000000	9.119382
1913.000000	9.024118
1914.000000	8.928768
1915.000000	8.819623
1916.000000	8.727401
1917.000000	8.637941
1918.000000	8.559028
1919.000000	8.483621
1920.000000	8.420950
1921.000000	8.355580
1922.000000	8.289193
1923.000000	8.236338
1924.000000	8.190522
1925.000000	8.127839
1926.000000	8.080179
1927.000000	8.047712
1928.000000	8.022269
1929.000000	7.985542
1930.000000	7.959214
1931.000000	7.937477
1932.000000	7.918272
1933.000000	7.890085
1934.000000	7.870583
1935.000000	7.862808
1936.000000	7.861120
1937.000000	7.852419
1938.000000	7.856920
1939.000000	7.867301
1940.000000	7.870300
1941.000000	7.878824
1942.000000	7.884858
1943.000000	7.883132
1944.000000	7.908816
1945.000000	7.931175
1946.000000	7.946699
1947.000000	7.960184
1948.000000	7.990593
1949.000000	8.012094
1950.000000	8.040744
1951.000000	8.061024
1952.000000	8.085322
1953.000000	8.123289
1954.000000	8.148597
1955.000000	8.184452
1956.000000	8.209798
1957.000000	8.241045
1958.000000	8.261155
1959.000000	8.293272
1960.000000	8.326467
1961.000000	8.344672
1962.000000	8.383261
1963.000000	8.396832
1964.000000	8.429571
1965.000000	8.442940
1966.000000	8.473585
1967.000000	8.497558
1968.000000	8.502119
1969.000000	8.533344
1970.000000	8.553094
1971.000000	8.582734
1972.000000	8.598524
1973.000000	8.627339
1974.000000	8.656433
1975.000000	8.676310
1976.000000	8.697693
1977.000000	8.721770
1978.000000	8.747831
1979.000000	8.776878
1980.000000	8.812370
1981.000000	8.830391
1982.000000	8.859631
1983.000000	8.882744
1984.000000	8.912427
1985.000000	8.937982
1986.000000	8.963655
1987.000000	8.996530
1988.000000	9.022260
1989.000000	9.046628
1990.000000	9.072426
1991.000000	9.098894
1992.000000	9.134802
1993.000000	9.144442
1994.000000	9.170107
1995.000000	9.185598
1996.000000	9.206966
1997.000000	9.226219
1998.000000	9.239595
1999.000000	9.254655
2000.000000	9.272599
2001.000000	9.288429
2002.000000	9.296164
2003.000000	9.309841
2004.000000	9.316498
2005.000000	9.321325
2006.000000	9.325131
2007.000000	9.323993
2008.000000	9.318559
2009.000000	9.325155
2010.000000	9.318968
2011.000000	9.312443
2012.000000	9.304813
2013.000000	9.296050
2014.000000	9.287103
2015.000000	9.276081
2016.000000	9.257746
2017.000000	9.250717
2018.000000	9.221470
2019.000000	9.208100
2020.000000	9.191448
2021.000000	9.163168
2022.000000	9.145447
2023.000000	9.123823
2024.000000	9.094482
2025.000000	9.063246
2026.000000	9.023067
2027.000000	8.988127
2028.000000	8.953146
2029.000000	8.915880
2030.000000	8.875279
2031.000000	8.837257
2032.000000	8.791059
2033.000000	8.742575
2034.000000	8.691559
2035.000000	8.645532
2036.000000	8.593094
2037.000000	8.531905
2038.000000	8.481578
2039.000000	8.408892
2040.000000	8.345338
2041.000000	8.280214
2042.000000	8.204670
2043.000000	8.150519
2044.000000	8.089832
2045.000000	8.017937
2046.000000	7.953840
2047.000000	7.905271
2048.000000	7.853580
2049.000000	7.804130
2050.000000	7.753374
2051.000000	7.720324
2052.000000	7.707354
2053.000000	7.689354
2054.000000	7.677380
2055.000000	7.676327
2056.000000	7.684799
2057.000000	7.708810
2058.000000	7.735682
2059.000000	7.761989
2060.000000	7.802416
2061.000000	7.839481
2062.000000	7.881404
2063.000000	7.931340
2064.000000	7.984855
2065.000000	8.039346
2066.000000	8.094166
2067.000000	8.142546
2068.000000	8.201324
2069.000000	8.259956
2070.000000	8.311327
2071.000000	8.354659
2072.000000	8.405971
2073.000000	8.458616
2074.000000	8.499109
2075.000000	8.537546
2076.000000	8.584297
2077.000000	8.620551
2078.000000	8.649015
2079.000000	8.675356
2080.000000	8.700586
2081.000000	8.720256
2082.000000	8.744628
2083.000000	8.767642
2084.000000	8.776937
2085.000000	8.782750
2086.000000	8.788185
2087.000000	8.786236
2088.000000	8.784607
2089.000000	8.778131
2090.000000	8.767663
2091.000000	8.766305
2092.000000	8.766332
2093.000000	8.750831
2094.000000	8.741023
2095.000000	8.738294
2096.000000	8.726039
2097.000000	8.724047
2098.000000	8.721869
2099.000000	8.707330
2100.000000	8.699541
2101.000000	8.693552
2102.000000	8.685532
2103.000000	8.681072
2104.000000	8.676093
2105.000000	8.666564
2106.000000	8.656669
2107.000000	8.643934
2108.000000	8.637728
2109.000000	8.627224
2110.000000	8.613057
2111.000000	8.602503
2112.000000	8.590083
2113.000000	8.577771
2114.000000	8.560107
2115.000000	8.539846
2116.000000	8.522480
2117.000000	8.493013
2118.000000	8.475549
2119.000000	8.461618
2120.000000	8.432721
2121.000000	8.407771
2122.000000	8.374917
2123.000000	8.344229
2124.000000	8.318723
2125.000000	8.284884
2126.000000	8.249362
2127.000000	8.219309
2128.000000	8.184882
2129.000000	8.145259
2130.000000	8.107527
2131.000000	8.066607
2132.000000	8.018286
2133.000000	7.975714
2134.000000	7.935891
2135.000000	7.890182
2136.000000	7.840925
2137.000000	7.792617
2138.000000	7.749140
2139.000000	7.691729
2140.000000	7.646793
2141.000000	7.601359
2142.000000	7.541243
2143.000000	7.496200
2144.000000	7.445770
2145.000000	7.395290
2146.000000	7.354208
2147.000000	7.303317
2148.000000	7.254134
2149.000000	7.201899
2150.000000	7.156444
2151.000000	7.106464
2152.000000	7.057303
2153.000000	7.000968
2154.000000	6.956653
2155.000000	6.925964
2156.000000	6.889311
2157.000000	6.853497
2158.000000	6.815665
2159.000000	6.779152
2160.000000	6.756328
2161.000000	6.732087
2162.000000	6.706578
2163.000000	6.682167
2164.000000	6.661968
2165.000000	6.645527
2166.000000	6.628441
2167.000000	6.618635
2168.000000	6.612741
2169.000000	6.601175
2170.000000	6.588672
2171.000000	6.582184
2172.000000	6.578032
2173.000000	6.582192
2174.000000	6.575352
2175.000000	6.568200
2176.000000	6.573466
2177.000000	6.562944
2178.000000	6.575680
2179.000000	6.586249
2180.000000	6.592244
2181.000000	6.596838
2182.000000	6.606625
2183.000000	6.605677
2184.000000	6.615158
2185.000000	6.617295
2186.000000	6.624990
2187.000000	6.628991
2188.000000	6.636231
2189.000000	6.638764
2190.000000	6.644760
2191.000000	6.645885
2192.000000	6.659602
2193.000000	6.663257
2194.000000	6.668082
2195.000000	6.674205
2196.000000	6.681944
2197.000000	6.689913
2198.000000	6.694861
2199.000000	6.712855
2200.000000	6.732008
2201.000000	6.735394
2202.000000	6.759501
2203.000000	6.767540
2204.000000	6.783135
2205.000000	6.804629
2206.000000	6.818602
2207.000000	6.851482
2208.000000	6.878845
2209.000000	6.899996
2210.000000	6.932271
2211.000000	6.959938
2212.000000	6.984907
2213.000000	7.029810
2214.000000	7.061089
2215.000000	7.089687
2216.000000	7.130153
2217.000000	7.162232
2218.000000	7.208354
2219.000000	7.240634
2220.000000	7.289766
2221.000000	7.323453
2222.000000	7.368005
2223.000000	7.412576
2224.000000	7.444827
2225.000000	7.479159
2226.000000	7.502143
2227.000000	7.532482
2228.000000	7.566091
2229.000000	7.594524
2230.000000	7.611065
2231.000000	7.637517
2232.000000	7.649939
2233.000000	7.668174
2234.000000	7.679771
2235.000000	7.685206
2236.000000	7.688188
2237.000000	7.697498
2238.000000	7.686642
2239.000000	7.682394
2240.000000	7.656575
2241.000000	7.661114
2242.000000	7.644513
2243.000000	7.615250
2244.000000	7.584674
2245.000000	7.555615
2246.000000	7.523466
2247.000000	7.494840
2248.000000	7.445394
2249.000000	7.401438
2250.000000	7.353302
2251.000000	7.304788
2252.000000	7.255513
2253.000000	7.199670
2254.000000	7.144281
2255.000000	7.084788
2256.000000	7.040451
2257.000000	6.980823
2258.000000	6.941766
2259.000000	6.883999
2260.000000	6.827555
2261.000000	6.789661
2262.000000	6.746951
2263.000000	6.705478
2264.000000	6.667421
2265.000000	6.628586
2266.000000	6.606751
2267.000000	6.581027
2268.000000	6.550096
2269.000000	6.531878
2270.000000	6.512955
2271.000000	6.493325
2272.000000	6.480683
2273.000000	6.468859
2274.000000	6.455167
2275.000000	6.441678
2276.000000	6.438517
2277.000000	6.427187
2278.000000	6.413988
2279.000000	6.406936
2280.000000	6.396761
2281.000000	6.372736
2282.000000	6.356383
2283.000000	6.345067
2284.000000	6.328940
2285.000000	6.308784
2286.000000	6.308680
2287.000000	6.288742
2288.000000	6.272029
2289.000000	6.255051
2290.000000	6.248633
2291.000000	6.246659
2292.000000	6.237905
2293.000000	6.220454
2294.000000	6.215652
2295.000000	6.219068
2296.000000	6.215088
2297.000000	6.212780
2298.000000	6.221802
2299.000000	6.224789
2300.000000	6.227237
2301.000000	6.222906
2302.000000	6.229649
2303.000000	6.244145
2304.000000	6.245547
2305.000000	6.263672
2306.000000	6.275615
2307.000000	6.280076
2308.000000	6.304452
2309.000000	6.325698
2310.000000	6.339577
2311.000000	6.366158
2312.000000	6.386787
2313.000000	6.402442
2314.000000	6.423971
2315.000000	6.437447
2316.000000	6.452127
2317.000000	6.464956
2318.000000	6.481001
2319.000000	6.481202
2320.000000	6.477156
2321.000000	6.481777
2322.000000	6.480597
2323.000000	6.475826
2324.000000	6.479197
2325.000000	6.478851
2326.000000	6.466239
2327.000000	6.449985
2328.000000	6.441702
2329.000000	6.438663
2330.000000	6.428402
2331.000000	6.423113
2332.000000	6.416340
2333.000000	6.413894
2334.000000	6.413060
2335.000000	6.417096
2336.000000	6.413012
2337.000000	6.416370
2338.000000	6.421556
2339.000000	6.419567
2340.000000	6.430291
2341.000000	6.442384
2342.000000	6.442871
2343.000000	6.452675
2344.000000	6.457620
2345.000000	6.464071
2346.000000	6.475810
2347.000000	6.490209
2348.000000	6.499482
2349.000000	6.499492
2350.000000	6.509323
2351.000000	6.512837
2352.000000	6.520352
2353.000000	6.526794
2354.000000	6.536764
2355.000000	6.540974
2356.000000	6.541861
2357.000000	6.547095
2358.000000	6.549859
2359.000000	6.557080
2360.000000	6.559912
2361.000000	6.557358
2362.000000	6.556545
2363.000000	6.556430
2364.000000	6.558122
2365.000000	6.562797
2366.000000	6.570255
2367.000000	6.581419
2368.000000	6.587076
2369.000000	6.588840
2370.000000	6.594779
2371.000000	6.594250
2372.000000	6.602420
2373.000000	6.620875
2374.000000	6.634212
2375.000000	6.637948
2376.000000	6.639299
2377.000000	6.652724
2378.000000	6.663539
2379.000000	6.668995
2380.000000	6.672188
2381.000000	6.681323
2382.000000	6.694477
2383.000000	6.702102
2384.000000	6.702953
2385.000000	6.703009
2386.000000	6.711120
2387.000000	6.716484
2388.000000	6.719563
2389.000000	6.720139
2390.000000	6.719406
2391.000000	6.722626
2392.000000	6.726458
2393.000000	6.723176
2394.000000	6.723884
2395.000000	6.719683
2396.000000	6.714830
2397.000000	6.709992
2398.000000	6.700818
2399.000000	6.698936
2400.000000	6.698460
2401.000000	6.690164
2402.000000	6.687977
2403.000000	6.683427
2404.000000	6.673963
2405.000000	6.657534
2406.000000	6.640656
2407.000000	6.635423
2408.000000	6.621589
2409.000000	6.605560
2410.000000	6.593459
2411.000000	6.580460
2412.000000	6.560309
2413.000000	6.542547
2414.000000	6.521164
2415.000000	6.494714
2416.000000	6.477933
2417.000000	6.448329
2418.000000	6.421010
2419.000000	6.390452
2420.000000	6.365322
2421.000000	6.336411
2422.000000	6.299116
2423.000000	6.259254
2424.000000	6.227151
2425.000000	6.199562
2426.000000	6.170862
2427.000000	6.132188
2428.000000	6.099259
2429.000000	6.061731
2430.000000	6.029040
2431.000000	5.993685
2432.000000	5.955280
2433.000000	5.918234
2434.000000	5.884793
2435.000000	5.846615
2436.000000	5.806765
2437.000000	5.768333
2438.000000	5.728853
2439.000000	5.684199
2440.000000	5.653848
2441.000000	5.614484
2442.000000	5.560761
2443.000000	5.526240
2444.000000	5.487075
2445.000000	5.442393
2446.000000	5.394114
2447.000000	5.353297
2448.000000	5.306100
2449.000000	5.267601
2450.000000	5.231905
2451.000000	5.196085
2452.000000	5.167124
2453.000000	5.120823
2454.000000	5.082474
2455.000000	5.053471
2456.000000	5.020857
2457.000000	4.987667
2458.000000	4.956622
2459.000000	4.924786
2460.000000	4.898155
2461.000000	4.857676
2462.000000	4.847572
2463.000000	4.815656
2464.000000	4.788262
2465.000000	4.778417
2466.000000	4.739022
2467.000000	4.729653
2468.000000	4.707353
2469.000000	4.683599
2470.000000	4.673112
2471.000000	4.660969
2472.000000	4.644687
2473.000000	4.646423
2474.000000	4.636711
2475.000000	4.621192
2476.000000	4.605256
2477.000000	4.587257
2478.000000	4.585958
2479.000000	4.577579
2480.000000	4.571190
2481.000000	4.558331
2482.000000	4.542358
2483.000000	4.551682
2484.000000	4.551795
2485.000000	4.534028
2486.000000	4.573233
2487.000000	4.512725
2488.000000	4.529012
2489.000000	4.526699
2490.000000	4.553156
2491.000000	4.541089
2492.000000	4.551255
2493.000000	4.574833
2494.000000	4.564508
2495.000000	4.573565
2496.000000	4.523948
2497.000000	4.566673
2498.000000	4.597104
2499.000000	4.609623
2500.000000	4.566281
