PE UV       SUBTECH     SPECTRUM    ASCII       PEDS        4.00        
   -1
CICIMAUCR0014-1.Sample.ASC
24/04/12
10:26:09.00
24/04/12
10:26:09.00
Vinicio Soto Monge
C. cupreomarginata
250,000000
1
Lambda 1050
1050L1511233
PerkinElmer UV WinLab 6.3.2.0749 / 2.02.05 Lambda 900 UV/VIS/NIR, Aug  7 2015 09:38:08

0
0
3350/servo 860,8/2
0
0
UV/VIS
1
1
1
DoubleDePol,CommonBeamDepol,RBeamAtt,SBeamAtt,60mm sphere, WB InGaAs Detector
0
0
0
0
Program
Program
3350/servo 860,8/2
3350/0,2 860,8/0,2
3350/0,2 860,8/0,2
0
15.00
 
 
 
0
 
860,8
319,2
860,8
Front
100
on
S:100 R:100
0
0
0
0
 
0
 
 
 
0
 
 
0
0
0
0
0
 
 
 
 
0
0


0
0
#HDR
-1
-1
#GR
nm
%R
1.0
0.0
2500,000000
-1,000000
2251
8
75,639400
5,339800
#DATA
2482.000000	13.449611
2481.000000	13.409882
2480.000000	13.407270
2479.000000	13.421420
2478.000000	13.439379
2477.000000	13.428712
2476.000000	13.433066
2475.000000	13.426644
2474.000000	13.430127
2473.000000	13.473013
2472.000000	13.450591
2471.000000	13.462673
2470.000000	13.481830
2469.000000	13.516226
2468.000000	13.508062
2467.000000	13.545614
2466.000000	13.572173
2465.000000	13.603848
2464.000000	13.670898
2463.000000	13.721294
2462.000000	13.737621
2461.000000	13.814250
2460.000000	13.838958
2459.000000	13.931261
2458.000000	14.008216
2457.000000	14.091048
2456.000000	14.190099
2455.000000	14.284144
2454.000000	14.395821
2453.000000	14.494763
2452.000000	14.596644
2451.000000	14.737602
2450.000000	14.863429
2449.000000	14.972494
2448.000000	15.090267
2447.000000	15.200420
2446.000000	15.311227
2445.000000	15.423340
2444.000000	15.537629
2443.000000	15.647130
2442.000000	15.769910
2441.000000	15.875927
2440.000000	15.964311
2439.000000	16.065212
2438.000000	16.162413
2437.000000	16.267451
2436.000000	16.368352
2435.000000	16.451076
2434.000000	16.547188
2433.000000	16.649396
2432.000000	16.722106
2431.000000	16.803524
2430.000000	16.892452
2429.000000	16.943937
2428.000000	16.967774
2427.000000	16.960808
2426.000000	16.999884
2425.000000	17.023831
2424.000000	17.052893
2423.000000	17.107970
2422.000000	17.163155
2421.000000	17.201796
2420.000000	17.228464
2419.000000	17.273418
2418.000000	17.331978
2417.000000	17.378347
2416.000000	17.417640
2415.000000	17.465316
2414.000000	17.505916
2413.000000	17.530733
2412.000000	17.582000
2411.000000	17.624559
2410.000000	17.660805
2409.000000	17.703691
2408.000000	17.750713
2407.000000	17.776945
2406.000000	17.825491
2405.000000	17.869901
2404.000000	17.892868
2403.000000	17.941740
2402.000000	17.984408
2401.000000	18.022723
2400.000000	18.066262
2399.000000	18.117311
2398.000000	18.158238
2397.000000	18.194919
2396.000000	18.236608
2395.000000	18.265997
2394.000000	18.304202
2393.000000	18.349374
2392.000000	18.372449
2391.000000	18.406192
2390.000000	18.442003
2389.000000	18.456697
2388.000000	18.480208
2387.000000	18.497406
2386.000000	18.505243
2385.000000	18.497188
2384.000000	18.486195
2383.000000	18.500671
2382.000000	18.490222
2381.000000	18.483909
2380.000000	18.468561
2379.000000	18.441785
2378.000000	18.419362
2377.000000	18.391715
2376.000000	18.368204
2375.000000	18.342952
2374.000000	18.309427
2373.000000	18.278187
2372.000000	18.253697
2371.000000	18.211137
2370.000000	18.151271
2369.000000	18.100657
2368.000000	18.045363
2367.000000	17.958612
2366.000000	17.878609
2365.000000	17.794470
2364.000000	17.709896
2363.000000	17.636968
2362.000000	17.544121
2361.000000	17.445941
2360.000000	17.359625
2359.000000	17.279622
2358.000000	17.202449
2357.000000	17.128651
2356.000000	17.063778
2355.000000	17.032539
2354.000000	16.993462
2353.000000	16.976591
2352.000000	16.981598
2351.000000	16.998361
2350.000000	17.032321
2349.000000	17.091425
2348.000000	17.144216
2347.000000	17.200381
2346.000000	17.278751
2345.000000	17.363870
2344.000000	17.435818
2343.000000	17.508201
2342.000000	17.578952
2341.000000	17.619661
2340.000000	17.653295
2339.000000	17.679745
2338.000000	17.705433
2337.000000	17.720998
2336.000000	17.708045
2335.000000	17.685405
2334.000000	17.665486
2333.000000	17.620314
2332.000000	17.554135
2331.000000	17.517453
2330.000000	17.479792
2329.000000	17.407626
2328.000000	17.336223
2327.000000	17.231403
2326.000000	17.120378
2325.000000	17.020348
2324.000000	16.906929
2323.000000	16.768148
2322.000000	16.637967
2321.000000	16.498534
2320.000000	16.339617
2319.000000	16.180373
2318.000000	16.004258
2317.000000	15.841858
2316.000000	15.690125
2315.000000	15.534908
2314.000000	15.361732
2313.000000	15.210325
2312.000000	15.072307
2311.000000	14.946915
2310.000000	14.830666
2309.000000	14.738146
2308.000000	14.702553
2307.000000	14.689164
2306.000000	14.673490
2305.000000	14.713437
2304.000000	14.770147
2303.000000	14.859946
2302.000000	14.956820
2301.000000	15.075028
2300.000000	15.218598
2299.000000	15.358902
2298.000000	15.492784
2297.000000	15.655293
2296.000000	15.781121
2295.000000	15.897152
2294.000000	15.998924
2293.000000	16.118656
2292.000000	16.210632
2291.000000	16.249164
2290.000000	16.312840
2289.000000	16.303806
2288.000000	16.306200
2287.000000	16.285084
2286.000000	16.289111
2285.000000	16.242089
2284.000000	16.186577
2283.000000	16.113214
2282.000000	16.073158
2281.000000	16.011551
2280.000000	15.933507
2279.000000	15.863954
2278.000000	15.811272
2277.000000	15.747922
2276.000000	15.710152
2275.000000	15.672491
2274.000000	15.648327
2273.000000	15.626993
2272.000000	15.648109
2271.000000	15.696002
2270.000000	15.737255
2269.000000	15.813013
2268.000000	15.901288
2267.000000	16.014925
2266.000000	16.213571
2265.000000	16.416898
2264.000000	16.624252
2263.000000	16.898983
2262.000000	17.155754
2261.000000	17.511358
2260.000000	17.820049
2259.000000	18.156496
2258.000000	18.548564
2257.000000	18.923108
2256.000000	19.285352
2255.000000	19.636820
2254.000000	19.971308
2253.000000	20.319184
2252.000000	20.689918
2251.000000	20.986418
2250.000000	21.247107
2249.000000	21.545893
2248.000000	21.828678
2247.000000	22.063462
2246.000000	22.288558
2245.000000	22.505709
2244.000000	22.693688
2243.000000	22.876552
2242.000000	23.028176
2241.000000	23.200481
2240.000000	23.301056
2239.000000	23.491430
2238.000000	23.587651
2237.000000	23.687464
2236.000000	23.778134
2235.000000	23.855307
2234.000000	23.973297
2233.000000	24.030333
2232.000000	24.075396
2231.000000	24.121003
2230.000000	24.154746
2229.000000	24.184352
2228.000000	24.182175
2227.000000	24.211129
2226.000000	24.217333
2225.000000	24.195999
2224.000000	24.180107
2223.000000	24.163780
2222.000000	24.109792
2221.000000	24.074525
2220.000000	24.042524
2219.000000	23.998768
2218.000000	23.943908
2217.000000	23.901349
2216.000000	23.854871
2215.000000	23.803822
2214.000000	23.773236
2213.000000	23.731983
2212.000000	23.701505
2211.000000	23.650565
2210.000000	23.627489
2209.000000	23.555106
2208.000000	23.542806
2207.000000	23.510914
2206.000000	23.476518
2205.000000	23.454857
2204.000000	23.418611
2203.000000	23.396842
2202.000000	23.363208
2201.000000	23.366365
2200.000000	23.364079
2199.000000	23.319778
2198.000000	23.303124
2197.000000	23.284729
2196.000000	23.270797
2195.000000	23.253708
2194.000000	23.234006
2193.000000	23.216917
2192.000000	23.183936
2191.000000	23.181106
2190.000000	23.164779
2189.000000	23.156289
2188.000000	23.125377
2187.000000	23.108179
2186.000000	23.086845
2185.000000	23.044938
2184.000000	23.032747
2183.000000	23.011305
2182.000000	22.996937
2181.000000	22.969943
2180.000000	22.959929
2179.000000	22.921832
2178.000000	22.926513
2177.000000	22.921179
2176.000000	22.910947
2175.000000	22.890049
2174.000000	22.892879
2173.000000	22.904743
2172.000000	22.926513
2171.000000	22.928363
2170.000000	22.943166
2169.000000	22.955031
2168.000000	22.972773
2167.000000	23.007386
2166.000000	23.031006
2165.000000	23.057238
2164.000000	23.087715
2163.000000	23.138112
2162.000000	23.187855
2161.000000	23.230741
2160.000000	23.283205
2159.000000	23.323479
2158.000000	23.380406
2157.000000	23.438966
2156.000000	23.497199
2155.000000	23.552711
2154.000000	23.622265
2153.000000	23.682348
2152.000000	23.764093
2151.000000	23.843007
2150.000000	23.922139
2149.000000	23.990713
2148.000000	24.067341
2147.000000	24.131888
2146.000000	24.178257
2145.000000	24.247701
2144.000000	24.308547
2143.000000	24.377012
2142.000000	24.429694
2141.000000	24.493370
2140.000000	24.531249
2139.000000	24.576747
2138.000000	24.635742
2137.000000	24.695935
2136.000000	24.739147
2135.000000	24.775284
2134.000000	24.828293
2133.000000	24.846471
2132.000000	24.877274
2131.000000	24.911779
2130.000000	24.943998
2129.000000	24.953467
2128.000000	24.963481
2127.000000	24.977305
2126.000000	24.993741
2125.000000	25.002013
2124.000000	25.009088
2123.000000	25.000272
2122.000000	24.984815
2121.000000	24.982530
2120.000000	24.975346
2119.000000	24.962611
2118.000000	24.950855
2117.000000	24.929630
2116.000000	24.914935
2115.000000	24.888377
2114.000000	24.857246
2113.000000	24.822742
2112.000000	24.768645
2111.000000	24.751556
2110.000000	24.751773
2109.000000	24.719772
2108.000000	24.691254
2107.000000	24.667961
2106.000000	24.635524
2105.000000	24.602870
2104.000000	24.563794
2103.000000	24.524065
2102.000000	24.485206
2101.000000	24.451246
2100.000000	24.428497
2099.000000	24.395516
2098.000000	24.361773
2097.000000	24.339895
2096.000000	24.320956
2095.000000	24.293417
2094.000000	24.279267
2093.000000	24.256518
2092.000000	24.235946
2091.000000	24.222775
2090.000000	24.196108
2089.000000	24.174012
2088.000000	24.172161
2087.000000	24.167263
2086.000000	24.126663
2085.000000	24.104023
2084.000000	24.079750
2083.000000	24.043830
2082.000000	24.021734
2081.000000	23.986250
2080.000000	23.948589
2079.000000	23.918874
2078.000000	23.875661
2077.000000	23.833102
2076.000000	23.785971
2075.000000	23.732200
2074.000000	23.677777
2073.000000	23.629666
2072.000000	23.579379
2071.000000	23.534207
2070.000000	23.472926
2069.000000	23.419917
2068.000000	23.357113
2067.000000	23.298553
2066.000000	23.252075
2065.000000	23.204835
2064.000000	23.161078
2063.000000	23.129513
2062.000000	23.087607
2061.000000	23.046680
2060.000000	23.032747
2059.000000	23.033618
2058.000000	23.032421
2057.000000	23.036013
2056.000000	23.061592
2055.000000	23.101212
2054.000000	23.162929
2053.000000	23.241190
2052.000000	23.308022
2051.000000	23.419047
2050.000000	23.535622
2049.000000	23.652089
2048.000000	23.809482
2047.000000	23.983202
2046.000000	24.140487
2045.000000	24.281226
2044.000000	24.453967
2043.000000	24.641946
2042.000000	24.829381
2041.000000	24.996244
2040.000000	25.167679
2039.000000	25.340855
2038.000000	25.510439
2037.000000	25.671098
2036.000000	25.813688
2035.000000	25.971190
2034.000000	26.118025
2033.000000	26.275418
2032.000000	26.395803
2031.000000	26.493766
2030.000000	26.616328
2029.000000	26.724740
2028.000000	26.841098
2027.000000	26.958979
2026.000000	27.049432
2025.000000	27.136945
2024.000000	27.235452
2023.000000	27.343210
2022.000000	27.413744
2021.000000	27.470562
2020.000000	27.536415
2019.000000	27.614240
2018.000000	27.686515
2017.000000	27.712965
2016.000000	27.780124
2015.000000	27.816043
2014.000000	27.892672
2013.000000	27.919666
2012.000000	27.932619
2011.000000	27.937952
2010.000000	27.961572
2009.000000	27.962116
2008.000000	27.974743
2007.000000	27.962116
2006.000000	27.943612
2005.000000	27.943504
2004.000000	27.906387
2003.000000	27.863392
2002.000000	27.833568
2001.000000	27.801240
2000.000000	27.759225
1999.000000	27.707849
1998.000000	27.669861
1997.000000	27.582130
1996.000000	27.513339
1995.000000	27.440520
1994.000000	27.372599
1993.000000	27.292270
1992.000000	27.206063
1991.000000	27.131067
1990.000000	27.034737
1989.000000	26.941237
1988.000000	26.845125
1987.000000	26.752387
1986.000000	26.620464
1985.000000	26.535563
1984.000000	26.425628
1983.000000	26.329189
1982.000000	26.215879
1981.000000	26.078840
1980.000000	25.970755
1979.000000	25.857336
1978.000000	25.760244
1977.000000	25.642580
1976.000000	25.539719
1975.000000	25.424232
1974.000000	25.327793
1973.000000	25.240280
1972.000000	25.117936
1971.000000	25.001360
1970.000000	24.896867
1969.000000	24.795639
1968.000000	24.675798
1967.000000	24.598843
1966.000000	24.496418
1965.000000	24.387461
1964.000000	24.336738
1963.000000	24.228000
1962.000000	24.106091
1961.000000	24.026959
1960.000000	23.895471
1959.000000	23.805128
1958.000000	23.693342
1957.000000	23.602346
1956.000000	23.495131
1955.000000	23.390202
1954.000000	23.281572
1953.000000	23.184698
1952.000000	23.106546
1951.000000	23.007060
1950.000000	22.911818
1949.000000	22.855000
1948.000000	22.768684
1947.000000	22.675728
1946.000000	22.619998
1945.000000	22.578310
1944.000000	22.526172
1943.000000	22.468048
1942.000000	22.409270
1941.000000	22.396535
1940.000000	22.388154
1939.000000	22.359636
1938.000000	22.358003
1937.000000	22.394576
1936.000000	22.410032
1935.000000	22.424400
1934.000000	22.466197
1933.000000	22.547506
1932.000000	22.626638
1931.000000	22.712736
1930.000000	22.814509
1929.000000	22.906376
1928.000000	23.034707
1927.000000	23.206903
1926.000000	23.357221
1925.000000	23.535513
1924.000000	23.693995
1923.000000	23.857701
1922.000000	24.076702
1921.000000	24.353610
1920.000000	24.622463
1919.000000	24.833627
1918.000000	25.097364
1917.000000	25.351849
1916.000000	25.574550
1915.000000	25.843947
1914.000000	26.210545
1913.000000	26.582259
1912.000000	26.928720
1911.000000	27.256786
1910.000000	27.554592
1909.000000	27.822030
1908.000000	28.145415
1907.000000	28.515496
1906.000000	28.945987
1905.000000	29.427637
1904.000000	29.861067
1903.000000	30.223855
1902.000000	30.606998
1901.000000	31.020400
1900.000000	31.478974
1899.000000	31.971399
1898.000000	32.428340
1897.000000	32.889308
1896.000000	33.252858
1895.000000	33.616735
1894.000000	34.027960
1893.000000	34.459866
1892.000000	34.952074
1891.000000	35.460718
1890.000000	35.911128
1889.000000	36.326598
1888.000000	36.784192
1887.000000	37.227310
1886.000000	37.709612
1885.000000	38.255373
1884.000000	38.871993
1883.000000	39.435387
1882.000000	39.987787
1881.000000	40.560541
1880.000000	41.061021
1879.000000	41.543542
1878.000000	42.017354
1877.000000	42.465478
1876.000000	42.871152
1875.000000	43.274867
1874.000000	43.647343
1873.000000	44.002838
1872.000000	44.320781
1871.000000	44.610859
1870.000000	44.845752
1869.000000	45.063882
1868.000000	45.259916
1867.000000	45.338721
1866.000000	45.361797
1865.000000	45.418833
1864.000000	45.452793
1863.000000	45.481420
1862.000000	45.541395
1861.000000	45.610840
1860.000000	45.665699
1859.000000	45.707823
1858.000000	45.722517
1857.000000	45.704122
1856.000000	45.642623
1855.000000	45.608119
1854.000000	45.580036
1853.000000	45.508632
1852.000000	45.437337
1851.000000	45.363974
1850.000000	45.287672
1849.000000	45.276352
1848.000000	45.273848
1847.000000	45.232269
1846.000000	45.123857
1845.000000	44.981920
1844.000000	44.852174
1843.000000	44.808526
1842.000000	44.822567
1841.000000	44.816145
1840.000000	44.774239
1839.000000	44.680195
1838.000000	44.596600
1837.000000	44.556653
1836.000000	44.500488
1835.000000	44.414390
1834.000000	44.280834
1833.000000	44.146081
1832.000000	44.042459
1831.000000	43.945693
1830.000000	43.862534
1829.000000	43.771211
1828.000000	43.658881
1827.000000	43.570170
1826.000000	43.503338
1825.000000	43.406028
1824.000000	43.304800
1823.000000	43.238948
1822.000000	43.240145
1821.000000	43.270840
1820.000000	43.260173
1819.000000	43.193014
1818.000000	43.121828
1817.000000	43.095487
1816.000000	43.093963
1815.000000	43.081228
1814.000000	43.048791
1813.000000	43.018532
1812.000000	42.997633
1811.000000	42.960407
1810.000000	42.883017
1809.000000	42.828702
1808.000000	42.786578
1807.000000	42.748373
1806.000000	42.698412
1805.000000	42.615252
1804.000000	42.536665
1803.000000	42.472009
1802.000000	42.431845
1801.000000	42.386238
1800.000000	42.313419
1799.000000	42.232763
1798.000000	42.171046
1797.000000	42.117602
1796.000000	42.072757
1795.000000	42.029980
1794.000000	41.952590
1793.000000	41.879771
1792.000000	41.806734
1791.000000	41.748175
1790.000000	41.695601
1789.000000	41.622456
1788.000000	41.538752
1787.000000	41.474968
1786.000000	41.401278
1785.000000	41.317683
1784.000000	41.214278
1783.000000	41.118493
1782.000000	41.024340
1781.000000	40.942596
1780.000000	40.830918
1779.000000	40.750807
1778.000000	40.639565
1777.000000	40.513519
1776.000000	40.382467
1775.000000	40.252612
1774.000000	40.082375
1773.000000	39.928247
1772.000000	39.763561
1771.000000	39.595719
1770.000000	39.441373
1769.000000	39.282892
1768.000000	39.165010
1767.000000	39.034067
1766.000000	38.912593
1765.000000	38.826712
1764.000000	38.765540
1763.000000	38.742356
1762.000000	38.753567
1761.000000	38.784262
1760.000000	38.851638
1759.000000	38.923151
1758.000000	38.970173
1757.000000	39.025359
1756.000000	39.054965
1755.000000	39.088926
1754.000000	39.089796
1753.000000	39.072598
1752.000000	39.042557
1751.000000	38.975942
1750.000000	38.907151
1749.000000	38.819746
1748.000000	38.716885
1747.000000	38.583983
1746.000000	38.456849
1745.000000	38.287809
1744.000000	38.079475
1743.000000	37.852420
1742.000000	37.603268
1741.000000	37.323857
1740.000000	37.065345
1739.000000	36.810969
1738.000000	36.555286
1737.000000	36.350980
1736.000000	36.230486
1735.000000	36.132959
1734.000000	36.079515
1733.000000	36.064058
1732.000000	36.130346
1731.000000	36.234078
1730.000000	36.366872
1729.000000	36.493679
1728.000000	36.619506
1727.000000	36.737061
1726.000000	36.820874
1725.000000	36.916333
1724.000000	36.978702
1723.000000	37.033453
1722.000000	37.077754
1721.000000	37.110843
1720.000000	37.146872
1719.000000	37.198574
1718.000000	37.276400
1717.000000	37.366634
1716.000000	37.445875
1715.000000	37.547539
1714.000000	37.639623
1713.000000	37.719844
1712.000000	37.796146
1711.000000	37.848610
1710.000000	37.868312
1709.000000	37.875713
1708.000000	37.868312
1707.000000	37.838270
1706.000000	37.814432
1705.000000	37.756743
1704.000000	37.705476
1703.000000	37.588030
1702.000000	37.454148
1701.000000	37.305353
1700.000000	37.089291
1699.000000	36.929721
1698.000000	36.743810
1697.000000	36.605138
1696.000000	36.569219
1695.000000	36.572920
1694.000000	36.641058
1693.000000	36.746858
1692.000000	36.927109
1691.000000	37.150572
1690.000000	37.297081
1689.000000	37.448596
1688.000000	37.546124
1687.000000	37.591295
1686.000000	37.617310
1685.000000	37.686101
1684.000000	37.852529
1683.000000	38.139341
1682.000000	38.555029
1681.000000	39.096436
1680.000000	39.738200
1679.000000	40.432864
1678.000000	41.038817
1677.000000	41.651083
1676.000000	42.168543
1675.000000	42.626137
1674.000000	43.019620
1673.000000	43.377075
1672.000000	43.712869
1671.000000	44.000770
1670.000000	44.214329
1669.000000	44.445520
1668.000000	44.645037
1667.000000	44.853153
1666.000000	44.974192
1665.000000	45.114605
1664.000000	45.229221
1663.000000	45.352327
1662.000000	45.421772
1661.000000	45.504387
1660.000000	45.573179
1659.000000	45.611275
1658.000000	45.650569
1657.000000	45.701292
1656.000000	45.719360
1655.000000	45.712830
1654.000000	45.735252
1653.000000	45.699550
1652.000000	45.680284
1651.000000	45.673645
1650.000000	45.626623
1649.000000	45.571981
1648.000000	45.513530
1647.000000	45.480658
1646.000000	45.415785
1645.000000	45.341007
1644.000000	45.271671
1643.000000	45.230092
1642.000000	45.150198
1641.000000	45.086958
1640.000000	45.022302
1639.000000	44.938599
1638.000000	44.857616
1637.000000	44.788716
1636.000000	44.699679
1635.000000	44.615866
1634.000000	44.530857
1633.000000	44.437574
1632.000000	44.345925
1631.000000	44.245350
1630.000000	44.151632
1629.000000	44.047901
1628.000000	43.939598
1627.000000	43.837934
1626.000000	43.724842
1625.000000	43.625573
1624.000000	43.517379
1623.000000	43.424423
1622.000000	43.325264
1621.000000	43.231002
1620.000000	43.121175
1619.000000	43.035185
1618.000000	42.944951
1617.000000	42.854825
1616.000000	42.763067
1615.000000	42.670111
1614.000000	42.585755
1613.000000	42.491058
1612.000000	42.387000
1611.000000	42.305799
1610.000000	42.215021
1609.000000	42.117602
1608.000000	42.019858
1607.000000	41.920371
1606.000000	41.832531
1605.000000	41.743603
1604.000000	41.648362
1603.000000	41.551487
1602.000000	41.467349
1601.000000	41.378203
1600.000000	41.289819
1599.000000	41.201108
1598.000000	41.106955
1597.000000	41.024013
1596.000000	40.945752
1595.000000	40.866294
1594.000000	40.794345
1593.000000	40.726534
1592.000000	40.668300
1591.000000	40.615074
1590.000000	40.565657
1589.000000	40.501002
1588.000000	40.435040
1587.000000	40.386386
1586.000000	40.330547
1585.000000	40.290382
1584.000000	40.253157
1583.000000	40.191331
1582.000000	40.150514
1581.000000	40.122866
1580.000000	40.103492
1579.000000	40.089559
1578.000000	40.076389
1577.000000	40.052877
1576.000000	40.042428
1575.000000	40.050156
1574.000000	40.049503
1573.000000	40.063000
1572.000000	40.071817
1571.000000	40.087926
1570.000000	40.124826
1569.000000	40.145724
1568.000000	40.164990
1567.000000	40.207550
1566.000000	40.239333
1565.000000	40.253701
1564.000000	40.282001
1563.000000	40.315200
1562.000000	40.338711
1561.000000	40.359936
1560.000000	40.366575
1559.000000	40.376481
1558.000000	40.396835
1557.000000	40.389760
1556.000000	40.379855
1555.000000	40.379311
1554.000000	40.364507
1553.000000	40.346874
1552.000000	40.333704
1551.000000	40.307254
1550.000000	40.276015
1549.000000	40.250109
1548.000000	40.228231
1547.000000	40.202978
1546.000000	40.163358
1545.000000	40.156718
1544.000000	40.142459
1543.000000	40.129288
1542.000000	40.116444
1541.000000	40.104798
1540.000000	40.106322
1539.000000	40.116335
1538.000000	40.100553
1537.000000	40.094784
1536.000000	40.097505
1535.000000	40.085967
1534.000000	40.070620
1533.000000	40.049721
1532.000000	40.038401
1531.000000	40.028060
1530.000000	40.005529
1529.000000	39.978970
1528.000000	39.964820
1527.000000	39.946969
1526.000000	39.926941
1525.000000	39.890260
1524.000000	39.849551
1523.000000	39.819400
1522.000000	39.799154
1521.000000	39.759099
1520.000000	39.728404
1519.000000	39.701409
1518.000000	39.667558
1517.000000	39.642632
1516.000000	39.604971
1515.000000	39.571555
1514.000000	39.521594
1513.000000	39.493946
1512.000000	39.468912
1511.000000	39.437455
1510.000000	39.410461
1509.000000	39.377915
1508.000000	39.347438
1507.000000	39.295735
1506.000000	39.268415
1505.000000	39.248060
1504.000000	39.229992
1503.000000	39.211161
1502.000000	39.171432
1501.000000	39.151948
1500.000000	39.145744
1499.000000	39.139975
1498.000000	39.141063
1497.000000	39.145853
1496.000000	39.143676
1495.000000	39.130179
1494.000000	39.138016
1493.000000	39.157935
1492.000000	39.186017
1491.000000	39.210617
1490.000000	39.236958
1489.000000	39.279844
1488.000000	39.302811
1487.000000	39.332961
1486.000000	39.337968
1485.000000	39.383358
1484.000000	39.410569
1483.000000	39.444747
1482.000000	39.511471
1481.000000	39.564371
1480.000000	39.596807
1479.000000	39.662442
1478.000000	39.713492
1477.000000	39.772051
1476.000000	39.819618
1475.000000	39.840625
1474.000000	39.917689
1473.000000	39.988875
1472.000000	40.044605
1471.000000	40.112090
1470.000000	40.151058
1469.000000	40.206135
1468.000000	40.265565
1467.000000	40.324669
1466.000000	40.399012
1465.000000	40.457028
1464.000000	40.523207
1463.000000	40.621278
1462.000000	40.691811
1461.000000	40.790862
1460.000000	40.901342
1459.000000	40.992665
1458.000000	41.103907
1457.000000	41.226469
1456.000000	41.327589
1455.000000	41.463865
1454.000000	41.578917
1453.000000	41.722269
1452.000000	41.884669
1451.000000	42.027041
1450.000000	42.166257
1449.000000	42.273690
1448.000000	42.409531
1447.000000	42.584993
1446.000000	42.759584
1445.000000	42.917195
1444.000000	43.054669
1443.000000	43.205640
1442.000000	43.362380
1441.000000	43.547203
1440.000000	43.674663
1439.000000	43.850234
1438.000000	44.027438
1437.000000	44.168830
1436.000000	44.317733
1435.000000	44.481549
1434.000000	44.653745
1433.000000	44.827030
1432.000000	45.020016
1431.000000	45.178716
1430.000000	45.358967
1429.000000	45.621942
1428.000000	45.864889
1427.000000	46.077033
1426.000000	46.319109
1425.000000	46.613977
1424.000000	46.909824
1423.000000	47.147111
1422.000000	47.420535
1421.000000	47.737934
1420.000000	48.079279
1419.000000	48.372514
1418.000000	48.659327
1417.000000	48.840775
1416.000000	49.150555
1415.000000	49.490485
1414.000000	49.831613
1413.000000	50.068355
1412.000000	50.272009
1411.000000	50.628266
1410.000000	51.020661
1409.000000	51.465084
1408.000000	51.868799
1407.000000	52.288079
1406.000000	52.718570
1405.000000	53.186940
1404.000000	53.600995
1403.000000	53.986968
1402.000000	54.400044
1401.000000	55.007085
1400.000000	55.388377
1399.000000	55.630345
1398.000000	55.792963
1397.000000	56.076946
1396.000000	56.492525
1395.000000	56.722084
1394.000000	56.787066
1393.000000	56.930091
1392.000000	57.184794
1391.000000	57.366133
1390.000000	57.548779
1389.000000	57.816652
1388.000000	58.220803
1387.000000	58.497710
1386.000000	58.818483
1385.000000	59.218824
1384.000000	59.624933
1383.000000	60.048785
1382.000000	60.369013
1381.000000	60.591824
1380.000000	60.689678
1379.000000	60.788402
1378.000000	60.833030
1377.000000	60.934911
1376.000000	61.077065
1375.000000	61.290297
1374.000000	61.564157
1373.000000	61.917693
1372.000000	62.329789
1371.000000	62.716306
1370.000000	63.035011
1369.000000	63.360682
1368.000000	63.687224
1367.000000	63.925491
1366.000000	64.120219
1365.000000	64.379820
1364.000000	64.577160
1363.000000	64.735642
1362.000000	64.956384
1361.000000	65.062401
1360.000000	65.040958
1359.000000	65.193127
1358.000000	65.319608
1357.000000	65.513247
1356.000000	65.840224
1355.000000	66.289655
1354.000000	66.848586
1353.000000	67.346780
1352.000000	67.897003
1351.000000	68.448315
1350.000000	68.960224
1349.000000	69.416077
1348.000000	69.846677
1347.000000	70.229493
1346.000000	70.539490
1345.000000	70.906959
1344.000000	71.284332
1343.000000	71.596942
1342.000000	71.874829
1341.000000	72.171329
1340.000000	72.431910
1339.000000	72.670503
1338.000000	72.915518
1337.000000	73.146383
1336.000000	73.347098
1335.000000	73.546724
1334.000000	73.742867
1333.000000	73.931390
1332.000000	74.115995
1331.000000	74.281770
1330.000000	74.444279
1329.000000	74.585780
1328.000000	74.724887
1327.000000	74.847558
1326.000000	74.952705
1325.000000	75.080818
1324.000000	75.189121
1323.000000	75.291329
1322.000000	75.380584
1321.000000	75.463090
1320.000000	75.570958
1319.000000	75.663478
1318.000000	75.722147
1317.000000	75.790285
1316.000000	75.856464
1315.000000	75.929065
1314.000000	75.996551
1313.000000	76.053369
1312.000000	76.106922
1311.000000	76.148828
1310.000000	76.191170
1309.000000	76.236994
1308.000000	76.266492
1307.000000	76.296207
1306.000000	76.324072
1305.000000	76.335610
1304.000000	76.345406
1303.000000	76.336481
1302.000000	76.330603
1301.000000	76.329732
1300.000000	76.314058
1299.000000	76.296860
1298.000000	76.291309
1297.000000	76.274329
1296.000000	76.247335
1295.000000	76.229375
1294.000000	76.215769
1293.000000	76.192694
1292.000000	76.165482
1291.000000	76.120201
1290.000000	76.072308
1289.000000	76.026701
1288.000000	75.968250
1287.000000	75.904575
1286.000000	75.831974
1285.000000	75.760461
1284.000000	75.683288
1283.000000	75.612646
1282.000000	75.543093
1281.000000	75.466900
1280.000000	75.401482
1279.000000	75.331276
1278.000000	75.264335
1277.000000	75.218183
1276.000000	75.173665
1275.000000	75.123922
1274.000000	75.080600
1273.000000	75.026612
1272.000000	74.996788
1271.000000	74.971318
1270.000000	74.918962
1269.000000	74.881736
1268.000000	74.862362
1267.000000	74.822088
1266.000000	74.784209
1265.000000	74.738058
1264.000000	74.681784
1263.000000	74.646082
1262.000000	74.591876
1261.000000	74.550732
1260.000000	74.498376
1259.000000	74.446891
1258.000000	74.418156
1257.000000	74.362535
1256.000000	74.284926
1255.000000	74.227020
1254.000000	74.173249
1253.000000	74.090199
1252.000000	73.997134
1251.000000	73.934329
1250.000000	73.822216
1249.000000	73.726322
1248.000000	73.628686
1247.000000	73.503294
1246.000000	73.388351
1245.000000	73.260564
1244.000000	73.120042
1243.000000	72.994541
1242.000000	72.854020
1241.000000	72.703375
1240.000000	72.563615
1239.000000	72.411555
1238.000000	72.258842
1237.000000	72.102102
1236.000000	71.941661
1235.000000	71.787751
1234.000000	71.622085
1233.000000	71.437698
1232.000000	71.279978
1231.000000	71.110612
1230.000000	70.939830
1229.000000	70.765457
1228.000000	70.596091
1227.000000	70.418452
1226.000000	70.231670
1225.000000	70.051310
1224.000000	69.874868
1223.000000	69.710509
1222.000000	69.528081
1221.000000	69.354796
1220.000000	69.205566
1219.000000	69.049588
1218.000000	68.911025
1217.000000	68.769088
1216.000000	68.634009
1215.000000	68.485214
1214.000000	68.358407
1213.000000	68.244662
1212.000000	68.114807
1211.000000	68.002259
1210.000000	67.893194
1209.000000	67.782605
1208.000000	67.693024
1207.000000	67.616177
1206.000000	67.575904
1205.000000	67.499711
1204.000000	67.446375
1203.000000	67.428089
1202.000000	67.377693
1201.000000	67.331759
1200.000000	67.263621
1199.000000	67.150420
1198.000000	67.046035
1197.000000	66.898003
1196.000000	66.665505
1195.000000	66.395781
1194.000000	66.082518
1193.000000	65.694587
1192.000000	65.250381
1191.000000	64.797358
1190.000000	64.362622
1189.000000	64.008868
1188.000000	63.741321
1187.000000	63.610269
1186.000000	63.612990
1185.000000	63.730654
1184.000000	63.981765
1183.000000	64.357506
1182.000000	64.815753
1181.000000	65.319608
1180.000000	65.801692
1179.000000	66.277899
1178.000000	66.685750
1177.000000	67.067151
1176.000000	67.383679
1175.000000	67.668206
1174.000000	67.972543
1173.000000	68.292663
1172.000000	68.603640
1171.000000	68.965558
1170.000000	69.293079
1169.000000	69.644221
1168.000000	69.986654
1167.000000	70.362069
1166.000000	70.727905
1165.000000	71.109523
1164.000000	71.475033
1163.000000	71.827263
1162.000000	72.219984
1161.000000	72.546308
1160.000000	72.873721
1159.000000	73.221815
1158.000000	73.515485
1157.000000	73.770296
1156.000000	74.013135
1155.000000	74.175861
1154.000000	74.289172
1153.000000	74.364276
1152.000000	74.384304
1151.000000	74.382671
1150.000000	74.385501
1149.000000	74.376358
1148.000000	74.380712
1147.000000	74.429802
1146.000000	74.542242
1145.000000	74.701268
1144.000000	74.931044
1143.000000	75.200006
1142.000000	75.504561
1141.000000	75.799428
1140.000000	76.118569
1139.000000	76.418987
1138.000000	76.750101
1137.000000	77.122685
1136.000000	77.467405
1135.000000	77.844887
1134.000000	78.119618
1133.000000	78.326645
1132.000000	78.565021
1131.000000	78.801764
1130.000000	79.052875
1129.000000	79.199057
1128.000000	79.332830
1127.000000	79.414357
1126.000000	79.538552
1125.000000	79.606472
1124.000000	79.677658
1123.000000	79.728490
1122.000000	79.772900
1121.000000	79.786832
1120.000000	79.799894
1119.000000	79.825473
1118.000000	79.824167
1117.000000	79.825147
1116.000000	79.816439
1115.000000	79.787703
1114.000000	79.765934
1113.000000	79.770179
1112.000000	79.742749
1111.000000	79.748409
1110.000000	79.723701
1109.000000	79.687672
1108.000000	79.686475
1107.000000	79.674720
1106.000000	79.654909
1105.000000	79.643154
1104.000000	79.636841
1103.000000	79.624867
1102.000000	79.595261
1101.000000	79.578281
1100.000000	79.553355
1099.000000	79.528755
1098.000000	79.520374
1097.000000	79.504809
1096.000000	79.463773
1095.000000	79.437868
1094.000000	79.397703
1093.000000	79.362219
1092.000000	79.310081
1091.000000	79.287441
1090.000000	79.258705
1089.000000	79.190022
1088.000000	79.154103
1087.000000	79.142456
1086.000000	79.084549
1085.000000	79.036765
1084.000000	79.002370
1083.000000	78.949361
1082.000000	78.901904
1081.000000	78.880461
1080.000000	78.846065
1079.000000	78.803941
1078.000000	78.765191
1077.000000	78.725462
1076.000000	78.694332
1075.000000	78.655800
1074.000000	78.604859
1073.000000	78.567851
1072.000000	78.540095
1071.000000	78.513319
1070.000000	78.464664
1069.000000	78.420907
1068.000000	78.371599
1067.000000	78.340469
1066.000000	78.302155
1065.000000	78.254697
1064.000000	78.209526
1063.000000	78.175348
1062.000000	78.133768
1061.000000	78.076514
1060.000000	78.029057
1059.000000	77.988457
1058.000000	77.935666
1057.000000	77.903991
1056.000000	77.858928
1055.000000	77.809294
1054.000000	77.774245
1053.000000	77.734407
1052.000000	77.705236
1051.000000	77.678460
1050.000000	77.658976
1049.000000	77.649397
1048.000000	77.620662
1047.000000	77.589096
1046.000000	77.576252
1045.000000	77.571354
1044.000000	77.560251
1043.000000	77.546101
1042.000000	77.555571
1041.000000	77.560034
1040.000000	77.541530
1039.000000	77.525747
1038.000000	77.539135
1037.000000	77.530318
1036.000000	77.509202
1035.000000	77.508875
1034.000000	77.515515
1033.000000	77.503977
1032.000000	77.487324
1031.000000	77.472194
1030.000000	77.455105
1029.000000	77.451731
1028.000000	77.452384
1027.000000	77.442587
1026.000000	77.433335
1025.000000	77.415049
1024.000000	77.406777
1023.000000	77.397307
1022.000000	77.408409
1021.000000	77.421362
1020.000000	77.435621
1019.000000	77.457391
1018.000000	77.463377
1017.000000	77.475133
1016.000000	77.514644
1015.000000	77.561884
1014.000000	77.607273
1013.000000	77.645043
1012.000000	77.698052
1011.000000	77.769783
1010.000000	77.830302
1009.000000	77.907474
1008.000000	77.981382
1007.000000	78.052568
1006.000000	78.122774
1005.000000	78.193852
1004.000000	78.252412
1003.000000	78.316631
1002.000000	78.397505
1001.000000	78.434513
1000.000000	78.486651
999.000000	78.546844
998.000000	78.604968
997.000000	78.672562
996.000000	78.739721
995.000000	78.769328
994.000000	78.825819
993.000000	78.903101
992.000000	78.949688
991.000000	79.019568
990.000000	79.072358
989.000000	79.141803
988.000000	79.211901
987.000000	79.303986
986.000000	79.382356
985.000000	79.450603
984.000000	79.508074
983.000000	79.588077
982.000000	79.677658
981.000000	79.744382
980.000000	79.802397
979.000000	79.893612
978.000000	79.953042
977.000000	80.004745
976.000000	80.074407
975.000000	80.163009
974.000000	80.246059
973.000000	80.286333
972.000000	80.353274
971.000000	80.445359
970.000000	80.507837
969.000000	80.584030
968.000000	80.639107
967.000000	80.703109
966.000000	80.784309
965.000000	80.859958
964.000000	80.910246
963.000000	80.971309
962.000000	81.044454
961.000000	81.147968
960.000000	81.239073
959.000000	81.284572
958.000000	81.344002
957.000000	81.408113
956.000000	81.490075
955.000000	81.535573
954.000000	81.589779
953.000000	81.666408
952.000000	81.682626
951.000000	81.750329
950.000000	81.836210
949.000000	81.866469
948.000000	81.878007
947.000000	81.941683
946.000000	81.961384
945.000000	82.022883
944.000000	82.039537
943.000000	82.049115
942.000000	82.080137
941.000000	82.133581
940.000000	82.117689
939.000000	82.127268
938.000000	82.142288
937.000000	82.220441
936.000000	82.224251
935.000000	82.233176
934.000000	82.253422
933.000000	82.310458
932.000000	82.297831
931.000000	82.276280
930.000000	82.331465
929.000000	82.287382
928.000000	82.276171
927.000000	82.247544
926.000000	82.305124
925.000000	82.268660
924.000000	82.236877
923.000000	82.227407
922.000000	82.189746
921.000000	82.178208
920.000000	82.230781
919.000000	82.168085
918.000000	82.110287
917.000000	82.083511
916.000000	82.055102
915.000000	82.003617
914.000000	81.938091
913.000000	81.925682
912.000000	81.842088
911.000000	81.804535
910.000000	81.842088
909.000000	81.789514
908.000000	81.695688
907.000000	81.628420
906.000000	81.590433
905.000000	81.543193
904.000000	81.598052
903.000000	81.523165
902.000000	81.481259
901.000000	81.394072
900.000000	81.349009
899.000000	81.292300
898.000000	81.271401
897.000000	81.198038
896.000000	81.133818
895.000000	81.083204
894.000000	81.032155
893.000000	80.976425
892.000000	80.898708
891.000000	80.811848
890.000000	80.689830
889.000000	80.610915
888.000000	80.548655
887.000000	80.465060
886.000000	80.355886
885.000000	80.274795
884.000000	80.178030
883.000000	80.001479
882.000000	79.890020
881.000000	79.786723
880.000000	79.621929
879.000000	79.446902
878.000000	79.305183
877.000000	79.202540
876.000000	79.024792
875.000000	78.796539
874.000000	78.622492
873.000000	78.419601
872.000000	78.274290
871.000000	78.107971
870.000000	77.880263
869.000000	77.618049
868.000000	77.416899
867.000000	77.137597
866.000000	76.874731
865.000000	76.562883
864.000000	76.303391
863.000000	75.960196
862.000000	75.635395
861.000000	75.174100
860.000000	74.778331
859.000000	74.405094
858.000000	75.087567
857.000000	75.099700
856.000000	75.207700
855.000000	74.955300
854.000000	75.045700
853.000000	74.486200
852.000000	74.648100
851.000000	74.726800
850.000000	74.511800
849.000000	74.416200
848.000000	74.202800
847.000000	74.216300
846.000000	74.156300
845.000000	73.897800
844.000000	73.749900
843.000000	73.513700
842.000000	73.483600
841.000000	73.344700
840.000000	73.136600
839.000000	73.412400
838.000000	73.256700
837.000000	73.043100
836.000000	72.937000
835.000000	72.754800
834.000000	72.685300
833.000000	72.404600
832.000000	72.274000
831.000000	72.250500
830.000000	72.165600
829.000000	72.042300
828.000000	71.852400
827.000000	71.788200
826.000000	71.585500
825.000000	71.513000
824.000000	71.363800
823.000000	71.182700
822.000000	71.036800
821.000000	70.863500
820.000000	70.709000
819.000000	70.460100
818.000000	70.392600
817.000000	70.295800
816.000000	70.184900
815.000000	70.049400
814.000000	69.920700
813.000000	69.820300
812.000000	69.627300
811.000000	69.585800
810.000000	69.506600
809.000000	69.324400
808.000000	69.193600
807.000000	69.195900
806.000000	68.937900
805.000000	68.849700
804.000000	68.766400
803.000000	68.656400
802.000000	68.559000
801.000000	68.554300
800.000000	68.433800
799.000000	68.375900
798.000000	68.287100
797.000000	68.102200
796.000000	68.023500
795.000000	67.981700
794.000000	67.795600
793.000000	67.727800
792.000000	67.669700
791.000000	67.541800
790.000000	67.480800
789.000000	67.466300
788.000000	67.333500
787.000000	67.147000
786.000000	67.099700
785.000000	66.986900
784.000000	66.767600
783.000000	66.643900
782.000000	66.549800
781.000000	66.341500
780.000000	66.236000
779.000000	66.160100
778.000000	65.953600
777.000000	65.846600
776.000000	65.705600
775.000000	65.535400
774.000000	65.415500
773.000000	65.232200
772.000000	65.044500
771.000000	64.966200
770.000000	64.846000
769.000000	64.748400
768.000000	64.598400
767.000000	64.420500
766.000000	64.311100
765.000000	64.144700
764.000000	63.918800
763.000000	63.789900
762.000000	63.586300
761.000000	63.343400
760.000000	63.260200
759.000000	63.105300
758.000000	62.848700
757.000000	62.618700
756.000000	62.390100
755.000000	62.200000
754.000000	62.007400
753.000000	61.805300
752.000000	61.558700
751.000000	61.332500
750.000000	61.109400
749.000000	60.899700
748.000000	60.728200
747.000000	60.548600
746.000000	60.336200
745.000000	60.091600
744.000000	59.872700
743.000000	59.700700
742.000000	59.491500
741.000000	59.240800
740.000000	59.062400
739.000000	58.869600
738.000000	58.582200
737.000000	58.308600
736.000000	58.136200
735.000000	57.900500
734.000000	57.614000
733.000000	57.401500
732.000000	57.145800
731.000000	56.843800
730.000000	56.581600
729.000000	56.364200
728.000000	56.101200
727.000000	55.823100
726.000000	55.538400
725.000000	55.309200
724.000000	55.156600
723.000000	54.936900
722.000000	54.736400
721.000000	54.487400
720.000000	54.294300
719.000000	54.144700
718.000000	53.960200
717.000000	53.817800
716.000000	53.660300
715.000000	53.511500
714.000000	53.395600
713.000000	53.274000
712.000000	53.097800
711.000000	53.006100
710.000000	52.903300
709.000000	52.809200
708.000000	52.680500
707.000000	52.597400
706.000000	52.506600
705.000000	52.377500
704.000000	52.320300
703.000000	52.249300
702.000000	52.112800
701.000000	51.966100
700.000000	51.870900
699.000000	51.771200
698.000000	51.640700
697.000000	51.535500
696.000000	51.409600
695.000000	51.280600
694.000000	51.177500
693.000000	51.070100
692.000000	50.909700
691.000000	50.834500
690.000000	50.722200
689.000000	50.539400
688.000000	50.372600
687.000000	50.224200
686.000000	50.064700
685.000000	49.894400
684.000000	49.703300
683.000000	49.548900
682.000000	49.278900
681.000000	49.079500
680.000000	48.864200
679.000000	48.644300
678.000000	48.373300
677.000000	48.148200
676.000000	47.919600
675.000000	47.680900
674.000000	47.403300
673.000000	47.127700
672.000000	46.936600
671.000000	46.721400
670.000000	46.487900
669.000000	46.243800
668.000000	46.034700
667.000000	45.841000
666.000000	45.643300
665.000000	45.474000
664.000000	45.311400
663.000000	45.166800
662.000000	45.024300
661.000000	44.893500
660.000000	44.779600
659.000000	44.667400
658.000000	44.616500
657.000000	44.596300
656.000000	44.622300
655.000000	44.681300
654.000000	44.744600
653.000000	44.920800
652.000000	45.122700
651.000000	45.309200
650.000000	45.563600
649.000000	45.890600
648.000000	46.240800
647.000000	46.647400
646.000000	47.078700
645.000000	47.513900
644.000000	48.009400
643.000000	48.507600
642.000000	49.024900
641.000000	49.615600
640.000000	50.166000
639.000000	50.731900
638.000000	51.328200
637.000000	51.868400
636.000000	52.401000
635.000000	53.005800
634.000000	53.512300
633.000000	54.067800
632.000000	54.583700
631.000000	55.117400
630.000000	55.629900
629.000000	56.128200
628.000000	56.604000
627.000000	57.083700
626.000000	57.552000
625.000000	57.942600
624.000000	58.352600
623.000000	58.812500
622.000000	59.235900
621.000000	59.551200
620.000000	59.952200
619.000000	60.306100
618.000000	60.645300
617.000000	60.972100
616.000000	61.257200
615.000000	61.613500
614.000000	61.907200
613.000000	62.145200
612.000000	62.485900
611.000000	62.729400
610.000000	62.978300
609.000000	63.213700
608.000000	63.482100
607.000000	63.713600
606.000000	63.968900
605.000000	64.200500
604.000000	64.515700
603.000000	64.736300
602.000000	64.970900
601.000000	65.193100
600.000000	65.452900
599.000000	65.665500
598.000000	65.806200
597.000000	66.052900
596.000000	66.173800
595.000000	66.360500
594.000000	66.490500
593.000000	66.553500
592.000000	66.647900
591.000000	66.675000
590.000000	66.726100
589.000000	66.723300
588.000000	66.778600
587.000000	66.786200
586.000000	66.780100
585.000000	66.763000
584.000000	66.747400
583.000000	66.749000
582.000000	66.721000
581.000000	66.777100
580.000000	66.766700
579.000000	66.816100
578.000000	66.834800
577.000000	66.844200
576.000000	66.838700
575.000000	66.840200
574.000000	66.822500
573.000000	66.783200
572.000000	66.765100
571.000000	66.693000
570.000000	66.528000
569.000000	66.378100
568.000000	66.144300
567.000000	65.937600
566.000000	65.635900
565.000000	65.372000
564.000000	64.998100
563.000000	64.678800
562.000000	64.316600
561.000000	63.914900
560.000000	63.505700
559.000000	63.137700
558.000000	62.690700
557.000000	62.276700
556.000000	61.763600
555.000000	61.263400
554.000000	60.706100
553.000000	60.127200
552.000000	59.478900
551.000000	58.805000
550.000000	58.106000
549.000000	57.367500
548.000000	56.566300
547.000000	55.746800
546.000000	54.947100
545.000000	54.069700
544.000000	53.239000
543.000000	52.355500
542.000000	51.492800
541.000000	50.631100
540.000000	49.783900
539.000000	48.945100
538.000000	48.138900
537.000000	47.324500
536.000000	46.555900
535.000000	45.773200
534.000000	45.034900
533.000000	44.322400
532.000000	43.603900
531.000000	42.903600
530.000000	42.237500
529.000000	41.581500
528.000000	40.955200
527.000000	40.345700
526.000000	39.776900
525.000000	39.190700
524.000000	38.613500
523.000000	38.053100
522.000000	37.502200
521.000000	36.925900
520.000000	36.358800
519.000000	35.811900
518.000000	35.265500
517.000000	34.723700
516.000000	34.206500
515.000000	33.677500
514.000000	33.148400
513.000000	32.615700
512.000000	32.066400
511.000000	31.510600
510.000000	30.959800
509.000000	30.435600
508.000000	29.917200
507.000000	29.430200
506.000000	28.946400
505.000000	28.447500
504.000000	27.951900
503.000000	27.464100
502.000000	27.021800
501.000000	26.574300
500.000000	26.153900
499.000000	25.753900
498.000000	25.386500
497.000000	25.038100
496.000000	24.701800
495.000000	24.398200
494.000000	24.096700
493.000000	23.836300
492.000000	23.595500
491.000000	23.381600
490.000000	23.183900
489.000000	23.013800
488.000000	22.873100
487.000000	22.733100
486.000000	22.617800
485.000000	22.535900
484.000000	22.453500
483.000000	22.380100
482.000000	22.294700
481.000000	22.211100
480.000000	22.139700
479.000000	22.063500
478.000000	22.027300
477.000000	21.992100
476.000000	21.935900
475.000000	21.891900
474.000000	21.846300
473.000000	21.771600
472.000000	21.714100
471.000000	21.646100
470.000000	21.569600
469.000000	21.506400
468.000000	21.427500
467.000000	21.330600
466.000000	21.237200
465.000000	21.128700
464.000000	21.017200
463.000000	20.924100
462.000000	20.815800
461.000000	20.684900
460.000000	20.535200
459.000000	20.393300
458.000000	20.253600
457.000000	20.099100
456.000000	19.921500
455.000000	19.748400
454.000000	19.577300
453.000000	19.390000
452.000000	19.195700
451.000000	18.991400
450.000000	18.766500
449.000000	18.526400
448.000000	18.288100
447.000000	18.038100
446.000000	17.785000
445.000000	17.526600
444.000000	17.268300
443.000000	16.967700
442.000000	16.671800
441.000000	16.384700
440.000000	16.079300
439.000000	15.782500
438.000000	15.476800
437.000000	15.148800
436.000000	14.827900
435.000000	14.530100
434.000000	14.227400
433.000000	13.915900
432.000000	13.596100
431.000000	13.271900
430.000000	12.963700
429.000000	12.670800
428.000000	12.363200
427.000000	12.054400
426.000000	11.760000
425.000000	11.454800
424.000000	11.167500
423.000000	10.886000
422.000000	10.599900
421.000000	10.331400
420.000000	10.072800
419.000000	9.812600
418.000000	9.565900
417.000000	9.337400
416.000000	9.121400
415.000000	8.900300
414.000000	8.686400
413.000000	8.477000
412.000000	8.280800
411.000000	8.098400
410.000000	7.925100
409.000000	7.756700
408.000000	7.596200
407.000000	7.453900
406.000000	7.329700
405.000000	7.193200
404.000000	7.069600
403.000000	6.968100
402.000000	6.862600
401.000000	6.768200
400.000000	6.675800
399.000000	6.597300
398.000000	6.520300
397.000000	6.449700
396.000000	6.380900
395.000000	6.316200
394.000000	6.263000
393.000000	6.205200
392.000000	6.156800
391.000000	6.113600
390.000000	6.077800
389.000000	6.047900
388.000000	6.008100
387.000000	5.979700
386.000000	5.937800
385.000000	5.909100
384.000000	5.884800
383.000000	5.853800
382.000000	5.836100
381.000000	5.814600
380.000000	5.790500
379.000000	5.773600
378.000000	5.749900
377.000000	5.737200
376.000000	5.703300
375.000000	5.669700
374.000000	5.625100
373.000000	5.554500
372.000000	5.557800
371.000000	5.588900
370.000000	5.572300
369.000000	5.582200
368.000000	5.585100
367.000000	5.540000
366.000000	5.578300
365.000000	5.499800
364.000000	5.528800
363.000000	5.531600
362.000000	5.531400
361.000000	5.572300
360.000000	5.630400
359.000000	5.531700
358.000000	5.545400
357.000000	5.531000
356.000000	5.489300
355.000000	5.481100
354.000000	5.579800
353.000000	5.547200
352.000000	5.452300
351.000000	5.496100
350.000000	5.516200
349.000000	5.431700
348.000000	5.466900
347.000000	5.448900
346.000000	5.483500
345.000000	5.518200
344.000000	5.478400
343.000000	5.432600
342.000000	5.422800
341.000000	5.495600
340.000000	5.412700
339.000000	5.367600
338.000000	5.499700
337.000000	5.440200
336.000000	5.400700
335.000000	5.487700
334.000000	5.391500
333.000000	5.456900
332.000000	5.454800
331.000000	5.569200
330.000000	5.381300
329.000000	5.430900
328.000000	5.339800
327.000000	5.589000
326.000000	5.492100
325.000000	5.426200
324.000000	5.500100
323.000000	5.480500
322.000000	5.358000
321.000000	5.429800
320.000000	5.486000
319.000000	5.650200
318.000000	5.585400
317.000000	5.669600
316.000000	5.423900
315.000000	5.445800
314.000000	5.463600
313.000000	5.507400
312.000000	5.464400
311.000000	5.472000
310.000000	5.485400
309.000000	5.425900
308.000000	5.515600
307.000000	5.489600
306.000000	5.494900
305.000000	5.440700
304.000000	5.517800
303.000000	5.487500
302.000000	5.487600
301.000000	5.480000
300.000000	5.504100
299.000000	5.490900
298.000000	5.583200
297.000000	5.549500
296.000000	5.522200
295.000000	5.560000
294.000000	5.520900
293.000000	5.563200
292.000000	5.566600
291.000000	5.580500
290.000000	5.575500
289.000000	5.579600
288.000000	5.602000
287.000000	5.614900
286.000000	5.613700
285.000000	5.611100
284.000000	5.636500
283.000000	5.682400
282.000000	5.640900
281.000000	5.698900
280.000000	5.644300
279.000000	5.709500
278.000000	5.652600
277.000000	5.691800
276.000000	5.721700
275.000000	5.682500
274.000000	5.772200
273.000000	5.733100
272.000000	5.786900
271.000000	5.777700
270.000000	5.818000
269.000000	5.800100
268.000000	5.888200
267.000000	5.869400
266.000000	5.857700
265.000000	5.955600
264.000000	5.914500
263.000000	5.950500
262.000000	6.050900
261.000000	6.075600
260.000000	6.039500
259.000000	6.065600
258.000000	6.063000
257.000000	6.122500
256.000000	6.133600
255.000000	6.128800
254.000000	6.173000
253.000000	6.167400
252.000000	6.198000
251.000000	6.194400
250.000000	6.217500
