PE UV       SUBTECH     SPECTRUM    ASCII       PEDS        4.00        
   -1
CICIMAUCR0245-3.Sample.ASC
24/06/21
16:20:03.00
24/06/21
16:20:03.00
Vinicio Soto Monge
C. resplendens. Ventral. Sex M
250,000000
1
Lambda 1050
1050L1511233
PerkinElmer UV WinLab 6.3.2.0749 / 2.02.05 Lambda 900 UV/VIS/NIR, Aug  7 2015 09:38:08

0
0
3350/servo 860,8/2
0
0
UV/VIS
1
1
1
DoubleDePol,CommonBeamDepol,RBeamAtt,SBeamAtt,60mm sphere, WB InGaAs Detector
0
0
0
0
Program
Program
3350/servo 860,8/2
3350/0,2 860,8/0,2
3350/0,2 860,8/0,2
0
15.00
 
 
 
0
 
860,8
319,2
860,8
Front
100
on
S:100 R:100
0
0
0
0
 
0
 
 
 
0
 
 
0
0
0
0
0
 
 
 
 
0
0


0
0
#HDR
-1
-1
#GR
nm
%R
1.0
0.0
2500,000000
-1,000000
2251
8
54,501800
4,588600
#DATA
2482.000000	6.143077
2481.000000	6.092096
2480.000000	6.196125
2479.000000	6.105760
2478.000000	6.043756
2477.000000	6.083944
2476.000000	6.098641
2475.000000	6.058109
2474.000000	6.144570
2473.000000	6.091981
2472.000000	6.025040
2471.000000	6.083255
2470.000000	6.059257
2469.000000	6.023777
2468.000000	6.031470
2467.000000	6.051564
2466.000000	6.044560
2465.000000	6.058798
2464.000000	6.058683
2463.000000	6.104956
2462.000000	6.068099
2461.000000	6.059028
2460.000000	6.097378
2459.000000	6.090374
2458.000000	6.086585
2457.000000	6.112879
2456.000000	6.101856
2455.000000	6.127921
2454.000000	6.128035
2453.000000	6.157085
2452.000000	6.153411
2451.000000	6.206459
2450.000000	6.215759
2449.000000	6.248598
2448.000000	6.255717
2447.000000	6.281322
2446.000000	6.283963
2445.000000	6.279715
2444.000000	6.307846
2443.000000	6.356301
2442.000000	6.347689
2441.000000	6.375017
2440.000000	6.384777
2439.000000	6.420257
2438.000000	6.440351
2437.000000	6.465152
2436.000000	6.472156
2435.000000	6.506258
2434.000000	6.520037
2433.000000	6.549202
2432.000000	6.566425
2431.000000	6.582500
2430.000000	6.582729
2429.000000	6.596738
2428.000000	6.632562
2427.000000	6.644504
2426.000000	6.643011
2425.000000	6.647719
2424.000000	6.660923
2423.000000	6.672750
2422.000000	6.691925
2421.000000	6.688480
2420.000000	6.694566
2419.000000	6.698929
2418.000000	6.702948
2417.000000	6.744284
2416.000000	6.757029
2415.000000	6.755077
2414.000000	6.741528
2413.000000	6.769430
2412.000000	6.791590
2411.000000	6.796068
2410.000000	6.801006
2409.000000	6.789638
2408.000000	6.816851
2407.000000	6.839930
2406.000000	6.838782
2405.000000	6.847623
2404.000000	6.862091
2403.000000	6.867947
2402.000000	6.882759
2401.000000	6.897456
2400.000000	6.909971
2399.000000	6.903771
2398.000000	6.916746
2397.000000	6.929147
2396.000000	6.950503
2395.000000	6.955441
2394.000000	6.969679
2393.000000	6.969794
2392.000000	6.970368
2391.000000	6.989772
2390.000000	7.011589
2389.000000	7.019741
2388.000000	7.020774
2387.000000	7.039146
2386.000000	7.040409
2385.000000	7.035931
2384.000000	7.020200
2383.000000	7.033290
2382.000000	7.042476
2381.000000	7.040983
2380.000000	7.042016
2379.000000	7.044313
2378.000000	7.047872
2377.000000	7.049135
2376.000000	7.045231
2375.000000	7.049824
2374.000000	7.044657
2373.000000	7.025597
2372.000000	7.014689
2371.000000	7.005273
2370.000000	7.008374
2369.000000	6.989084
2368.000000	6.966923
2367.000000	6.951996
2366.000000	6.941433
2365.000000	6.935921
2364.000000	6.940973
2363.000000	6.916746
2362.000000	6.886088
2361.000000	6.880347
2360.000000	6.862320
2359.000000	6.842112
2358.000000	6.837289
2357.000000	6.832122
2356.000000	6.820525
2355.000000	6.791016
2354.000000	6.781256
2353.000000	6.778386
2352.000000	6.772071
2351.000000	6.769659
2350.000000	6.764607
2349.000000	6.776204
2348.000000	6.790786
2347.000000	6.796528
2346.000000	6.803187
2345.000000	6.810765
2344.000000	6.835567
2343.000000	6.850379
2342.000000	6.856924
2341.000000	6.867258
2340.000000	6.876788
2339.000000	6.883792
2338.000000	6.881381
2337.000000	6.885974
2336.000000	6.888155
2335.000000	6.892174
2334.000000	6.885285
2333.000000	6.882185
2332.000000	6.874606
2331.000000	6.866224
2330.000000	6.840389
2329.000000	6.820181
2328.000000	6.817310
2327.000000	6.811340
2326.000000	6.792624
2325.000000	6.767592
2324.000000	6.747269
2323.000000	6.725223
2322.000000	6.706048
2321.000000	6.685495
2320.000000	6.654838
2319.000000	6.599608
2318.000000	6.582385
2317.000000	6.568951
2316.000000	6.539212
2315.000000	6.508555
2314.000000	6.486968
2313.000000	6.438284
2312.000000	6.408775
2311.000000	6.389599
2310.000000	6.359861
2309.000000	6.345163
2308.000000	6.325644
2307.000000	6.308420
2306.000000	6.317836
2305.000000	6.307846
2304.000000	6.317376
2303.000000	6.307502
2302.000000	6.320247
2301.000000	6.335174
2300.000000	6.351823
2299.000000	6.374673
2298.000000	6.394307
2297.000000	6.428065
2296.000000	6.447699
2295.000000	6.447584
2294.000000	6.481457
2293.000000	6.479620
2292.000000	6.504651
2291.000000	6.541968
2290.000000	6.560224
2289.000000	6.565966
2288.000000	6.565047
2287.000000	6.562291
2286.000000	6.561143
2285.000000	6.562291
2284.000000	6.538293
2283.000000	6.545412
2282.000000	6.533701
2281.000000	6.515674
2280.000000	6.491446
2279.000000	6.501895
2278.000000	6.505799
2277.000000	6.476060
2276.000000	6.440810
2275.000000	6.454244
2274.000000	6.459526
2273.000000	6.456540
2272.000000	6.429557
2271.000000	6.423357
2270.000000	6.443451
2269.000000	6.446666
2268.000000	6.465037
2267.000000	6.464808
2266.000000	6.480883
2265.000000	6.523711
2264.000000	6.530486
2263.000000	6.586748
2262.000000	6.647948
2261.000000	6.699848
2260.000000	6.741758
2259.000000	6.793887
2258.000000	6.888500
2257.000000	6.949011
2256.000000	7.040064
2255.000000	7.125032
2254.000000	7.173143
2253.000000	7.279697
2252.000000	7.372358
2251.000000	7.408642
2250.000000	7.505437
2249.000000	7.592127
2248.000000	7.656427
2247.000000	7.721417
2246.000000	7.784568
2245.000000	7.864370
2244.000000	7.941300
2243.000000	7.981028
2242.000000	8.040965
2241.000000	8.085631
2240.000000	8.118470
2239.000000	8.186215
2238.000000	8.234899
2237.000000	8.246267
2236.000000	8.299659
2235.000000	8.332383
2234.000000	8.373145
2233.000000	8.398405
2232.000000	8.407706
2231.000000	8.443530
2230.000000	8.446286
2229.000000	8.476714
2228.000000	8.483373
2227.000000	8.506912
2226.000000	8.513342
2225.000000	8.497267
2224.000000	8.518279
2223.000000	8.518509
2222.000000	8.536191
2221.000000	8.514031
2220.000000	8.513342
2219.000000	8.518279
2218.000000	8.506797
2217.000000	8.498645
2216.000000	8.504730
2215.000000	8.480847
2214.000000	8.456620
2213.000000	8.462131
2212.000000	8.438134
2211.000000	8.449386
2210.000000	8.429407
2209.000000	8.421599
2208.000000	8.419647
2207.000000	8.413906
2206.000000	8.410577
2205.000000	8.411725
2204.000000	8.402195
2203.000000	8.374523
2202.000000	8.387153
2201.000000	8.359251
2200.000000	8.387727
2199.000000	8.380608
2198.000000	8.365222
2197.000000	8.357414
2196.000000	8.359366
2195.000000	8.371767
2194.000000	8.350410
2193.000000	8.358907
2192.000000	8.337550
2191.000000	8.365911
2190.000000	8.363040
2189.000000	8.342832
2188.000000	8.337205
2187.000000	8.343750
2186.000000	8.324460
2185.000000	8.334909
2184.000000	8.327905
2183.000000	8.346506
2182.000000	8.322508
2181.000000	8.298970
2180.000000	8.308844
2179.000000	8.331235
2178.000000	8.296903
2177.000000	8.298970
2176.000000	8.307237
2175.000000	8.284387
2174.000000	8.300233
2173.000000	8.299199
2172.000000	8.290243
2171.000000	8.307467
2170.000000	8.306893
2169.000000	8.319293
2168.000000	8.314126
2167.000000	8.315963
2166.000000	8.332038
2165.000000	8.340420
2164.000000	8.340535
2163.000000	8.333302
2162.000000	8.361548
2161.000000	8.377967
2160.000000	8.391861
2159.000000	8.389220
2158.000000	8.398980
2157.000000	8.404950
2156.000000	8.428604
2155.000000	8.432048
2154.000000	8.444219
2153.000000	8.478551
2152.000000	8.472351
2151.000000	8.491181
2150.000000	8.519657
2149.000000	8.531254
2148.000000	8.557663
2147.000000	8.570294
2146.000000	8.586369
2145.000000	8.600147
2144.000000	8.600492
2143.000000	8.624604
2142.000000	8.627360
2141.000000	8.644124
2140.000000	8.660314
2139.000000	8.677307
2138.000000	8.678456
2137.000000	8.691316
2136.000000	8.709572
2135.000000	8.718299
2134.000000	8.719677
2133.000000	8.721399
2132.000000	8.711180
2131.000000	8.725073
2130.000000	8.749875
2129.000000	8.747578
2128.000000	8.739770
2127.000000	8.738622
2126.000000	8.742411
2125.000000	8.753090
2124.000000	8.735981
2123.000000	8.722892
2122.000000	8.738163
2121.000000	8.739656
2120.000000	8.702224
2119.000000	8.693957
2118.000000	8.716002
2117.000000	8.700272
2116.000000	8.687527
2115.000000	8.669959
2114.000000	8.659740
2113.000000	8.651817
2112.000000	8.637694
2111.000000	8.632182
2110.000000	8.621734
2109.000000	8.611170
2108.000000	8.607036
2107.000000	8.590961
2106.000000	8.580053
2105.000000	8.560189
2104.000000	8.530565
2103.000000	8.525283
2102.000000	8.522872
2101.000000	8.518853
2100.000000	8.501745
2099.000000	8.482455
2098.000000	8.477747
2097.000000	8.463165
2096.000000	8.465461
2095.000000	8.446401
2094.000000	8.417695
2093.000000	8.419647
2092.000000	8.415514
2091.000000	8.412873
2090.000000	8.409658
2089.000000	8.404376
2088.000000	8.395765
2087.000000	8.395994
2086.000000	8.403802
2085.000000	8.382330
2084.000000	8.381986
2083.000000	8.377278
2082.000000	8.356610
2081.000000	8.352247
2080.000000	8.332383
2079.000000	8.324460
2078.000000	8.325838
2077.000000	8.292999
2076.000000	8.280598
2075.000000	8.283010
2074.000000	8.270150
2073.000000	8.255797
2072.000000	8.229273
2071.000000	8.216069
2070.000000	8.211361
2069.000000	8.197927
2068.000000	8.186789
2067.000000	8.176799
2066.000000	8.166351
2065.000000	8.143272
2064.000000	8.131675
2063.000000	8.130297
2062.000000	8.107906
2061.000000	8.091257
2060.000000	8.091717
2059.000000	8.087698
2058.000000	8.074723
2057.000000	8.064504
2056.000000	8.069786
2055.000000	8.074379
2054.000000	8.079545
2053.000000	8.090568
2052.000000	8.105380
2051.000000	8.129608
2050.000000	8.149931
2049.000000	8.164628
2048.000000	8.196549
2047.000000	8.231110
2046.000000	8.260275
2045.000000	8.293803
2044.000000	8.332498
2043.000000	8.360514
2042.000000	8.410691
2041.000000	8.429063
2040.000000	8.474303
2039.000000	8.519083
2038.000000	8.547329
2037.000000	8.578790
2036.000000	8.615533
2035.000000	8.636660
2034.000000	8.669040
2033.000000	8.697860
2032.000000	8.733570
2031.000000	8.752516
2030.000000	8.772150
2029.000000	8.803726
2028.000000	8.830135
2027.000000	8.839206
2026.000000	8.846440
2025.000000	8.873193
2024.000000	8.911773
2023.000000	8.910625
2022.000000	8.910281
2021.000000	8.924519
2020.000000	8.921992
2019.000000	8.930145
2018.000000	8.943694
2017.000000	8.960687
2016.000000	8.976762
2015.000000	8.960458
2014.000000	8.969299
2013.000000	8.965165
2012.000000	8.961147
2011.000000	8.955176
2010.000000	8.951272
2009.000000	8.929800
2008.000000	8.939790
2007.000000	8.924863
2006.000000	8.931293
2005.000000	8.920385
2004.000000	8.897191
2003.000000	8.879968
2002.000000	8.862744
2001.000000	8.841158
2000.000000	8.828068
1999.000000	8.796492
1998.000000	8.787077
1997.000000	8.753549
1996.000000	8.725992
1995.000000	8.714969
1994.000000	8.686608
1993.000000	8.647798
1992.000000	8.646880
1991.000000	8.603018
1990.000000	8.565012
1989.000000	8.547100
1988.000000	8.516557
1987.000000	8.471088
1986.000000	8.455931
1985.000000	8.425159
1984.000000	8.400817
1983.000000	8.337550
1982.000000	8.299314
1981.000000	8.290243
1980.000000	8.287028
1979.000000	8.254878
1978.000000	8.211590
1977.000000	8.136267
1976.000000	8.139253
1975.000000	8.083794
1974.000000	8.071623
1973.000000	8.046592
1972.000000	8.021561
1971.000000	7.974713
1970.000000	7.949912
1969.000000	7.930277
1968.000000	7.912135
1967.000000	7.870570
1966.000000	7.860580
1965.000000	7.835090
1964.000000	7.807188
1963.000000	7.763441
1962.000000	7.755404
1961.000000	7.738755
1960.000000	7.666417
1959.000000	7.677899
1958.000000	7.655164
1957.000000	7.620948
1956.000000	7.578349
1955.000000	7.607858
1954.000000	7.570196
1953.000000	7.542409
1952.000000	7.510948
1951.000000	7.485917
1950.000000	7.490051
1949.000000	7.450667
1948.000000	7.431721
1947.000000	7.428736
1946.000000	7.400949
1945.000000	7.392912
1944.000000	7.368914
1943.000000	7.374081
1942.000000	7.341471
1941.000000	7.328956
1940.000000	7.360647
1939.000000	7.317359
1938.000000	7.322067
1937.000000	7.322985
1936.000000	7.327578
1935.000000	7.359728
1934.000000	7.324937
1933.000000	7.320459
1932.000000	7.343883
1931.000000	7.351691
1930.000000	7.374655
1929.000000	7.401294
1928.000000	7.423913
1927.000000	7.463527
1926.000000	7.468464
1925.000000	7.506355
1924.000000	7.537472
1923.000000	7.566063
1922.000000	7.580875
1921.000000	7.631970
1920.000000	7.691448
1919.000000	7.764015
1918.000000	7.778942
1917.000000	7.861269
1916.000000	7.894683
1915.000000	7.937511
1914.000000	8.012260
1913.000000	8.065997
1912.000000	8.131904
1911.000000	8.220547
1910.000000	8.305515
1909.000000	8.372111
1908.000000	8.458802
1907.000000	8.529761
1906.000000	8.637120
1905.000000	8.739311
1904.000000	8.820146
1903.000000	8.966084
1902.000000	9.065405
1901.000000	9.152095
1900.000000	9.297000
1899.000000	9.434442
1898.000000	9.581643
1897.000000	9.696580
1896.000000	9.873750
1895.000000	10.002350
1894.000000	10.146451
1893.000000	10.284008
1892.000000	10.421449
1891.000000	10.627325
1890.000000	10.819651
1889.000000	11.006925
1888.000000	11.209241
1887.000000	11.418217
1886.000000	11.662328
1885.000000	11.910343
1884.000000	12.181666
1883.000000	12.530610
1882.000000	12.892068
1881.000000	13.227118
1880.000000	13.613034
1879.000000	13.921445
1878.000000	14.254887
1877.000000	14.628632
1876.000000	14.991813
1875.000000	15.330882
1874.000000	15.670639
1873.000000	15.993633
1872.000000	16.320530
1871.000000	16.625841
1870.000000	16.923344
1869.000000	17.193405
1868.000000	17.472422
1867.000000	17.677838
1866.000000	17.855238
1865.000000	18.019318
1864.000000	18.151133
1863.000000	18.267562
1862.000000	18.384795
1861.000000	18.501110
1860.000000	18.605138
1859.000000	18.718352
1858.000000	18.798268
1857.000000	18.865898
1856.000000	18.924343
1855.000000	18.947881
1854.000000	18.954081
1853.000000	18.994499
1852.000000	18.993350
1851.000000	18.983131
1850.000000	18.976931
1849.000000	18.946733
1848.000000	18.931002
1847.000000	18.953852
1846.000000	18.935825
1845.000000	18.892537
1844.000000	18.845116
1843.000000	18.795742
1842.000000	18.782882
1841.000000	18.782423
1840.000000	18.791609
1839.000000	18.758081
1838.000000	18.720190
1837.000000	18.709741
1836.000000	18.667831
1835.000000	18.647507
1834.000000	18.588259
1833.000000	18.537508
1832.000000	18.474816
1831.000000	18.413386
1830.000000	18.364816
1829.000000	18.313721
1828.000000	18.258951
1827.000000	18.189828
1826.000000	18.139421
1825.000000	18.089933
1824.000000	18.014725
1823.000000	17.976030
1822.000000	17.946291
1821.000000	17.924131
1820.000000	17.917701
1819.000000	17.899214
1818.000000	17.870394
1817.000000	17.805979
1816.000000	17.783818
1815.000000	17.795071
1814.000000	17.805060
1813.000000	17.783589
1812.000000	17.774518
1811.000000	17.762462
1810.000000	17.729967
1809.000000	17.709414
1808.000000	17.684268
1807.000000	17.641899
1806.000000	17.607912
1805.000000	17.564279
1804.000000	17.517891
1803.000000	17.480115
1802.000000	17.436827
1801.000000	17.394688
1800.000000	17.354730
1799.000000	17.313738
1798.000000	17.266891
1797.000000	17.223488
1796.000000	17.185482
1795.000000	17.146902
1794.000000	17.103614
1793.000000	17.056767
1792.000000	17.016006
1791.000000	16.978574
1790.000000	16.915307
1789.000000	16.861341
1788.000000	16.822531
1787.000000	16.784410
1786.000000	16.746060
1785.000000	16.681989
1784.000000	16.604255
1783.000000	16.536740
1782.000000	16.478755
1781.000000	16.438108
1780.000000	16.377597
1779.000000	16.290217
1778.000000	16.232807
1777.000000	16.161732
1776.000000	16.082620
1775.000000	16.012119
1774.000000	15.932088
1773.000000	15.850221
1772.000000	15.755148
1771.000000	15.660650
1770.000000	15.568333
1769.000000	15.476131
1768.000000	15.382781
1767.000000	15.297584
1766.000000	15.212960
1765.000000	15.146249
1764.000000	15.101468
1763.000000	15.066677
1762.000000	15.047043
1761.000000	15.057262
1760.000000	15.091134
1759.000000	15.120069
1758.000000	15.160831
1757.000000	15.233743
1756.000000	15.283116
1755.000000	15.317333
1754.000000	15.375777
1753.000000	15.403220
1752.000000	15.417228
1751.000000	15.426528
1750.000000	15.421706
1749.000000	15.397478
1748.000000	15.370955
1747.000000	15.342594
1746.000000	15.270256
1745.000000	15.209286
1744.000000	15.149578
1743.000000	15.030738
1742.000000	14.911208
1741.000000	14.781690
1740.000000	14.631962
1739.000000	14.462715
1738.000000	14.292549
1737.000000	14.131224
1736.000000	14.016518
1735.000000	13.916623
1734.000000	13.820632
1733.000000	13.780559
1732.000000	13.781478
1731.000000	13.800079
1730.000000	13.836018
1729.000000	13.889065
1728.000000	13.964618
1727.000000	14.033626
1726.000000	14.113657
1725.000000	14.183354
1724.000000	14.257299
1723.000000	14.306672
1722.000000	14.333081
1721.000000	14.374302
1720.000000	14.398529
1719.000000	14.408863
1718.000000	14.410815
1717.000000	14.458237
1716.000000	14.508529
1715.000000	14.529656
1714.000000	14.574436
1713.000000	14.637473
1712.000000	14.691669
1711.000000	14.728642
1710.000000	14.764696
1709.000000	14.785019
1708.000000	14.782608
1707.000000	14.803046
1706.000000	14.782608
1705.000000	14.759873
1704.000000	14.704759
1703.000000	14.652860
1702.000000	14.605898
1701.000000	14.538038
1700.000000	14.448477
1699.000000	14.353060
1698.000000	14.253395
1697.000000	14.138573
1696.000000	14.050734
1695.000000	14.001820
1694.000000	13.982416
1693.000000	14.002509
1692.000000	14.067843
1691.000000	14.156715
1690.000000	14.291975
1689.000000	14.417590
1688.000000	14.493946
1687.000000	14.575699
1686.000000	14.629895
1685.000000	14.642066
1684.000000	14.675939
1683.000000	14.734727
1682.000000	14.874925
1681.000000	15.105142
1680.000000	15.379222
1679.000000	15.761234
1678.000000	16.186993
1677.000000	16.608159
1676.000000	17.049419
1675.000000	17.411337
1674.000000	17.741105
1673.000000	18.045267
1672.000000	18.346674
1671.000000	18.568395
1670.000000	18.758081
1669.000000	18.949718
1668.000000	19.083371
1667.000000	19.234246
1666.000000	19.337701
1665.000000	19.438399
1664.000000	19.543002
1663.000000	19.629922
1662.000000	19.684118
1661.000000	19.735903
1660.000000	19.784357
1659.000000	19.841653
1658.000000	19.882185
1657.000000	19.920995
1656.000000	19.922143
1655.000000	19.951423
1654.000000	19.949241
1653.000000	19.958657
1652.000000	19.921454
1651.000000	19.934200
1650.000000	19.898605
1649.000000	19.882645
1648.000000	19.858877
1647.000000	19.821100
1646.000000	19.795380
1645.000000	19.749337
1644.000000	19.713627
1643.000000	19.628889
1642.000000	19.604432
1641.000000	19.538409
1640.000000	19.516938
1639.000000	19.459067
1638.000000	19.389371
1637.000000	19.327252
1636.000000	19.277075
1635.000000	19.211856
1634.000000	19.159038
1633.000000	19.084060
1632.000000	19.016200
1631.000000	18.957296
1630.000000	18.885992
1629.000000	18.806191
1628.000000	18.752454
1627.000000	18.689647
1626.000000	18.594000
1625.000000	18.539460
1624.000000	18.476308
1623.000000	18.395359
1622.000000	18.334159
1621.000000	18.261132
1620.000000	18.202688
1619.000000	18.144244
1618.000000	18.050434
1617.000000	17.978671
1616.000000	17.928494
1615.000000	17.872805
1614.000000	17.830551
1613.000000	17.761658
1612.000000	17.694602
1611.000000	17.652348
1610.000000	17.592181
1609.000000	17.506639
1608.000000	17.454510
1607.000000	17.410074
1606.000000	17.360586
1605.000000	17.303060
1604.000000	17.231756
1603.000000	17.184908
1602.000000	17.121297
1601.000000	17.066986
1600.000000	17.007509
1599.000000	16.954806
1598.000000	16.890505
1597.000000	16.845380
1596.000000	16.781425
1595.000000	16.732051
1594.000000	16.671311
1593.000000	16.622741
1592.000000	16.587720
1591.000000	16.542481
1590.000000	16.507805
1589.000000	16.459005
1588.000000	16.432137
1587.000000	16.405384
1586.000000	16.378400
1585.000000	16.321219
1584.000000	16.274716
1583.000000	16.249456
1582.000000	16.232807
1581.000000	16.196982
1580.000000	16.171721
1579.000000	16.155876
1578.000000	16.137160
1577.000000	16.115459
1576.000000	16.098580
1575.000000	16.082849
1574.000000	16.069415
1573.000000	16.062411
1572.000000	16.066659
1571.000000	16.071826
1570.000000	16.068841
1569.000000	16.072975
1568.000000	16.069415
1567.000000	16.074582
1566.000000	16.093872
1565.000000	16.086868
1564.000000	16.087098
1563.000000	16.107880
1562.000000	16.097547
1561.000000	16.116262
1560.000000	16.140145
1559.000000	16.144509
1558.000000	16.134519
1557.000000	16.128434
1556.000000	16.127745
1555.000000	16.113622
1554.000000	16.105469
1553.000000	16.099039
1552.000000	16.088246
1551.000000	16.083423
1550.000000	16.069645
1549.000000	16.039332
1548.000000	16.025094
1547.000000	16.014416
1546.000000	15.993059
1545.000000	15.997652
1544.000000	15.993518
1543.000000	15.963320
1542.000000	15.966879
1541.000000	15.960220
1540.000000	15.942308
1539.000000	15.934040
1538.000000	15.935533
1537.000000	15.917391
1536.000000	15.887078
1535.000000	15.880419
1534.000000	15.869855
1533.000000	15.853436
1532.000000	15.843791
1531.000000	15.819104
1530.000000	15.798091
1529.000000	15.775701
1528.000000	15.756870
1527.000000	15.744355
1526.000000	15.720816
1525.000000	15.689240
1524.000000	15.655138
1523.000000	15.628385
1522.000000	15.604272
1521.000000	15.573845
1520.000000	15.529868
1519.000000	15.493240
1518.000000	15.465338
1517.000000	15.438470
1516.000000	15.409190
1515.000000	15.376466
1514.000000	15.341675
1513.000000	15.304014
1512.000000	15.259578
1511.000000	15.220538
1510.000000	15.195966
1509.000000	15.147167
1508.000000	15.104683
1507.000000	15.073337
1506.000000	15.035331
1505.000000	14.991699
1504.000000	14.943933
1503.000000	14.924643
1502.000000	14.883766
1501.000000	14.846334
1500.000000	14.818892
1499.000000	14.788234
1498.000000	14.757347
1497.000000	14.716700
1496.000000	14.685239
1495.000000	14.656534
1494.000000	14.643215
1493.000000	14.632995
1492.000000	14.601190
1491.000000	14.568236
1490.000000	14.546535
1489.000000	14.551242
1488.000000	14.538956
1487.000000	14.483498
1486.000000	14.467652
1485.000000	14.461222
1484.000000	14.443540
1483.000000	14.432746
1482.000000	14.410126
1481.000000	14.413686
1480.000000	14.412997
1479.000000	14.396003
1478.000000	14.391066
1477.000000	14.388999
1476.000000	14.393707
1475.000000	14.396348
1474.000000	14.398185
1473.000000	14.403122
1472.000000	14.410356
1471.000000	14.439406
1470.000000	14.420575
1469.000000	14.439291
1468.000000	14.437110
1467.000000	14.425627
1466.000000	14.443540
1465.000000	14.462715
1464.000000	14.476608
1463.000000	14.483153
1462.000000	14.511170
1461.000000	14.530804
1460.000000	14.567547
1459.000000	14.595793
1458.000000	14.639311
1457.000000	14.680417
1456.000000	14.727034
1455.000000	14.778015
1454.000000	14.808902
1453.000000	14.850583
1452.000000	14.916720
1451.000000	14.993421
1450.000000	15.048191
1449.000000	15.114213
1448.000000	15.158305
1447.000000	15.228346
1446.000000	15.294024
1445.000000	15.369462
1444.000000	15.454545
1443.000000	15.526308
1442.000000	15.612425
1441.000000	15.671443
1440.000000	15.759052
1439.000000	15.856880
1438.000000	15.939667
1437.000000	16.003852
1436.000000	16.083998
1435.000000	16.172295
1434.000000	16.279654
1433.000000	16.383567
1432.000000	16.500571
1431.000000	16.582668
1430.000000	16.702887
1429.000000	16.799567
1428.000000	16.918177
1427.000000	17.058604
1426.000000	17.195931
1425.000000	17.339229
1424.000000	17.506409
1423.000000	17.656596
1422.000000	17.835259
1421.000000	18.012314
1420.000000	18.190517
1419.000000	18.397655
1418.000000	18.639700
1417.000000	18.824218
1416.000000	19.007933
1415.000000	19.229079
1414.000000	19.474568
1413.000000	19.716498
1412.000000	19.957394
1411.000000	20.158906
1410.000000	20.420125
1409.000000	20.759423
1408.000000	21.087814
1407.000000	21.436183
1406.000000	21.797412
1405.000000	22.137973
1404.000000	22.555809
1403.000000	22.926683
1402.000000	23.314666
1401.000000	23.674632
1400.000000	24.124504
1399.000000	24.567256
1398.000000	24.922629
1397.000000	25.153880
1396.000000	25.449087
1395.000000	25.877028
1394.000000	26.203695
1393.000000	26.457222
1392.000000	26.705696
1391.000000	27.013074
1390.000000	27.377059
1389.000000	27.684781
1388.000000	28.039236
1387.000000	28.506101
1386.000000	28.964699
1385.000000	29.438798
1384.000000	29.955151
1383.000000	30.565773
1382.000000	31.178232
1381.000000	31.753259
1380.000000	32.242170
1379.000000	32.523713
1378.000000	32.863585
1377.000000	33.084961
1376.000000	33.263280
1375.000000	33.498664
1374.000000	33.736115
1373.000000	34.053368
1372.000000	34.416205
1371.000000	34.782945
1370.000000	35.269215
1369.000000	35.646404
1368.000000	35.995348
1367.000000	36.355543
1366.000000	36.678192
1365.000000	36.959161
1364.000000	37.196268
1363.000000	37.447843
1362.000000	37.625472
1361.000000	37.845700
1360.000000	38.066387
1359.000000	38.159852
1358.000000	38.267784
1357.000000	38.397877
1356.000000	38.574703
1355.000000	38.854753
1354.000000	39.242965
1353.000000	39.791354
1352.000000	40.253511
1351.000000	40.878256
1350.000000	41.471540
1349.000000	42.047371
1348.000000	42.581751
1347.000000	43.067103
1346.000000	43.550502
1345.000000	43.969487
1344.000000	44.359881
1343.000000	44.801830
1342.000000	45.222192
1341.000000	45.588932
1340.000000	45.974389
1339.000000	46.363635
1338.000000	46.735313
1337.000000	47.090112
1336.000000	47.432166
1335.000000	47.789261
1334.000000	48.133956
1333.000000	48.469121
1332.000000	48.793722
1331.000000	49.107300
1330.000000	49.410544
1329.000000	49.692546
1328.000000	50.001531
1327.000000	50.259306
1326.000000	50.516392
1325.000000	50.769804
1324.000000	51.007025
1323.000000	51.242984
1322.000000	51.466082
1321.000000	51.673680
1320.000000	51.862677
1319.000000	52.076245
1318.000000	52.271901
1317.000000	52.446545
1316.000000	52.629801
1315.000000	52.788944
1314.000000	52.958650
1313.000000	53.097125
1312.000000	53.248116
1311.000000	53.387968
1310.000000	53.519899
1309.000000	53.660900
1308.000000	53.763895
1307.000000	53.875157
1306.000000	53.960355
1305.000000	54.036252
1304.000000	54.122139
1303.000000	54.191606
1302.000000	54.239027
1301.000000	54.286219
1300.000000	54.345926
1299.000000	54.389673
1298.000000	54.411719
1297.000000	54.436291
1296.000000	54.477167
1295.000000	54.511155
1294.000000	54.524129
1293.000000	54.521029
1292.000000	54.530445
1291.000000	54.515059
1290.000000	54.500591
1289.000000	54.486927
1288.000000	54.465800
1287.000000	54.446051
1286.000000	54.390707
1285.000000	54.335592
1284.000000	54.281741
1283.000000	54.228119
1282.000000	54.152452
1281.000000	54.084707
1280.000000	54.006283
1279.000000	53.924760
1278.000000	53.861608
1277.000000	53.812579
1276.000000	53.735993
1275.000000	53.677664
1274.000000	53.610493
1273.000000	53.554001
1272.000000	53.516798
1271.000000	53.471674
1270.000000	53.424597
1269.000000	53.382687
1268.000000	53.326768
1267.000000	53.264994
1266.000000	53.217573
1265.000000	53.159014
1264.000000	53.096436
1263.000000	53.032595
1262.000000	52.978055
1261.000000	52.927648
1260.000000	52.860018
1259.000000	52.792388
1258.000000	52.726940
1257.000000	52.664592
1256.000000	52.607870
1255.000000	52.538862
1254.000000	52.443215
1253.000000	52.370992
1252.000000	52.281317
1251.000000	52.169136
1250.000000	52.078427
1249.000000	51.975891
1248.000000	51.858199
1247.000000	51.731206
1246.000000	51.617417
1245.000000	51.482732
1244.000000	51.341271
1243.000000	51.191084
1242.000000	51.022641
1241.000000	50.846849
1240.000000	50.674272
1239.000000	50.505139
1238.000000	50.322803
1237.000000	50.139203
1236.000000	49.948943
1235.000000	49.767984
1234.000000	49.572213
1233.000000	49.350492
1232.000000	49.140828
1231.000000	48.926685
1230.000000	48.706916
1229.000000	48.493463
1228.000000	48.261982
1227.000000	48.028894
1226.000000	47.798677
1225.000000	47.549628
1224.000000	47.312292
1223.000000	47.066229
1222.000000	46.829926
1221.000000	46.608090
1220.000000	46.371443
1219.000000	46.149033
1218.000000	45.933398
1217.000000	45.719370
1216.000000	45.513839
1215.000000	45.302223
1214.000000	45.117704
1213.000000	44.946620
1212.000000	44.771631
1211.000000	44.588491
1210.000000	44.427051
1209.000000	44.302929
1208.000000	44.157794
1207.000000	44.017712
1206.000000	43.888767
1205.000000	43.795991
1204.000000	43.731921
1203.000000	43.679332
1202.000000	43.620199
1201.000000	43.582882
1200.000000	43.535805
1199.000000	43.470472
1198.000000	43.397101
1197.000000	43.278605
1196.000000	43.124743
1195.000000	42.935288
1194.000000	42.672461
1193.000000	42.309165
1192.000000	41.893166
1191.000000	41.415278
1190.000000	40.897087
1189.000000	40.391412
1188.000000	39.951186
1187.000000	39.577441
1186.000000	39.353424
1185.000000	39.261796
1184.000000	39.303821
1183.000000	39.504185
1182.000000	39.862199
1181.000000	40.358229
1180.000000	40.935897
1179.000000	41.536644
1178.000000	42.109949
1177.000000	42.666605
1176.000000	43.145871
1175.000000	43.567266
1174.000000	43.964894
1173.000000	44.343576
1172.000000	44.700097
1171.000000	45.080502
1170.000000	45.487545
1169.000000	45.891832
1168.000000	46.305305
1167.000000	46.747943
1166.000000	47.166583
1165.000000	47.605087
1164.000000	48.043362
1163.000000	48.491970
1162.000000	48.973877
1161.000000	49.442924
1160.000000	49.881887
1159.000000	50.325214
1158.000000	50.766359
1157.000000	51.218297
1156.000000	51.615351
1155.000000	51.971757
1154.000000	52.295784
1153.000000	52.536106
1152.000000	52.719936
1151.000000	52.865185
1150.000000	52.963473
1149.000000	53.070142
1148.000000	53.148795
1147.000000	53.248116
1146.000000	53.365234
1145.000000	53.546193
1144.000000	53.821535
1143.000000	54.150270
1142.000000	54.563743
1141.000000	55.021652
1140.000000	55.489665
1139.000000	55.945278
1138.000000	56.432926
1137.000000	56.936189
1136.000000	57.465058
1135.000000	58.013102
1134.000000	58.591230
1133.000000	59.147082
1132.000000	59.629677
1131.000000	60.103317
1130.000000	60.496581
1129.000000	60.872967
1128.000000	61.191138
1127.000000	61.466825
1126.000000	61.700602
1125.000000	61.892699
1124.000000	62.025548
1123.000000	62.149670
1122.000000	62.251632
1121.000000	62.349919
1120.000000	62.442580
1119.000000	62.497924
1118.000000	62.547872
1117.000000	62.568080
1116.000000	62.579907
1115.000000	62.570377
1114.000000	62.577610
1113.000000	62.570377
1112.000000	62.575658
1111.000000	62.564061
1110.000000	62.543164
1109.000000	62.551776
1108.000000	62.526974
1107.000000	62.529500
1106.000000	62.505962
1105.000000	62.492987
1104.000000	62.467841
1103.000000	62.462789
1102.000000	62.434198
1101.000000	62.413071
1100.000000	62.391714
1099.000000	62.391714
1098.000000	62.326036
1097.000000	62.300660
1096.000000	62.283207
1095.000000	62.221204
1094.000000	62.180672
1093.000000	62.151966
1092.000000	62.091455
1091.000000	62.042771
1090.000000	61.985475
1089.000000	61.929901
1088.000000	61.850904
1087.000000	61.803827
1086.000000	61.732867
1085.000000	61.675456
1084.000000	61.589569
1083.000000	61.509424
1082.000000	61.459936
1081.000000	61.371867
1080.000000	61.296430
1079.000000	61.233048
1078.000000	61.172767
1077.000000	61.098132
1076.000000	61.005242
1075.000000	60.959198
1074.000000	60.866307
1073.000000	60.819460
1072.000000	60.737937
1071.000000	60.675933
1070.000000	60.593261
1069.000000	60.516790
1068.000000	60.451571
1067.000000	60.383712
1066.000000	60.308159
1065.000000	60.214464
1064.000000	60.135582
1063.000000	60.070708
1062.000000	59.978276
1061.000000	59.874822
1060.000000	59.802714
1059.000000	59.716827
1058.000000	59.630596
1057.000000	59.532998
1056.000000	59.458708
1055.000000	59.368917
1054.000000	59.269941
1053.000000	59.169127
1052.000000	59.057980
1051.000000	58.984379
1050.000000	58.894818
1049.000000	58.842460
1048.000000	58.763807
1047.000000	58.673327
1046.000000	58.606846
1045.000000	58.531293
1044.000000	58.462515
1043.000000	58.402463
1042.000000	58.320250
1041.000000	58.247109
1040.000000	58.171786
1039.000000	58.102778
1038.000000	58.032392
1037.000000	57.952476
1036.000000	57.881402
1035.000000	57.810212
1034.000000	57.714107
1033.000000	57.608700
1032.000000	57.538544
1031.000000	57.437731
1030.000000	57.341740
1029.000000	57.261594
1028.000000	57.172722
1027.000000	57.072368
1026.000000	56.964436
1025.000000	56.867411
1024.000000	56.740189
1023.000000	56.648561
1022.000000	56.541318
1021.000000	56.446245
1020.000000	56.333146
1019.000000	56.234973
1018.000000	56.155057
1017.000000	56.055047
1016.000000	55.973065
1015.000000	55.886834
1014.000000	55.802440
1013.000000	55.735154
1012.000000	55.696344
1011.000000	55.636293
1010.000000	55.577619
1009.000000	55.550406
1008.000000	55.525605
1007.000000	55.519289
1006.000000	55.500918
1005.000000	55.478872
1004.000000	55.448444
1003.000000	55.426054
1002.000000	55.417557
1001.000000	55.410783
1000.000000	55.382537
999.000000	55.346712
998.000000	55.331211
997.000000	55.327078
996.000000	55.319959
995.000000	55.287120
994.000000	55.265533
993.000000	55.261859
992.000000	55.246128
991.000000	55.245784
990.000000	55.219145
989.000000	55.227642
988.000000	55.233498
987.000000	55.238435
986.000000	55.228905
985.000000	55.212256
984.000000	55.228905
983.000000	55.248195
982.000000	55.249114
981.000000	55.258529
980.000000	55.274719
979.000000	55.293779
978.000000	55.303654
977.000000	55.317088
976.000000	55.317433
975.000000	55.324092
974.000000	55.322944
973.000000	55.347746
972.000000	55.371629
971.000000	55.382077
970.000000	55.381159
969.000000	55.388393
968.000000	55.419624
967.000000	55.424791
966.000000	55.422035
965.000000	55.440522
964.000000	55.460156
963.000000	55.494947
962.000000	55.513663
961.000000	55.549602
960.000000	55.568318
959.000000	55.595186
958.000000	55.646167
957.000000	55.669361
956.000000	55.680729
955.000000	55.687962
954.000000	55.684173
953.000000	55.714946
952.000000	55.758922
951.000000	55.755248
950.000000	55.743192
949.000000	55.750655
948.000000	55.754904
947.000000	55.784872
946.000000	55.794173
945.000000	55.802899
944.000000	55.810248
943.000000	55.790269
942.000000	55.787628
941.000000	55.775112
940.000000	55.774308
939.000000	55.758004
938.000000	55.732513
937.000000	55.721146
936.000000	55.728150
935.000000	55.711386
934.000000	55.687388
933.000000	55.661094
932.000000	55.645364
931.000000	55.658913
930.000000	55.640541
929.000000	55.603568
928.000000	55.573256
927.000000	55.569696
926.000000	55.552014
925.000000	55.521930
924.000000	55.464290
923.000000	55.418017
922.000000	55.435929
921.000000	55.408946
920.000000	55.344760
919.000000	55.306295
918.000000	55.258414
917.000000	55.210993
916.000000	55.148760
915.000000	55.079981
914.000000	55.015222
913.000000	54.957237
912.000000	54.901319
911.000000	54.831163
910.000000	54.773407
909.000000	54.715193
908.000000	54.664097
907.000000	54.639985
906.000000	54.595663
905.000000	54.556394
904.000000	54.541697
903.000000	54.514140
902.000000	54.495654
901.000000	54.492209
900.000000	54.453170
899.000000	54.434109
898.000000	54.424120
897.000000	54.421938
896.000000	54.411949
895.000000	54.402189
894.000000	54.341333
893.000000	54.277492
892.000000	54.251313
891.000000	54.193558
890.000000	54.156470
889.000000	54.125009
888.000000	54.063350
887.000000	53.970344
886.000000	53.905470
885.000000	53.802245
884.000000	53.730941
883.000000	53.641495
882.000000	53.559512
881.000000	53.455254
880.000000	53.367760
879.000000	53.251675
878.000000	53.143857
877.000000	52.993785
876.000000	52.820979
875.000000	52.679518
874.000000	52.551492
873.000000	52.345272
872.000000	52.135149
871.000000	52.014471
870.000000	52.009419
869.000000	52.071078
868.000000	52.094272
867.000000	52.150190
866.000000	52.186244
865.000000	52.211735
864.000000	52.243196
863.000000	52.282809
862.000000	52.320356
861.000000	52.354688
860.000000	52.399009
859.000000	52.429781
858.000000	52.434833
857.000000	51.488300
856.000000	52.928600
855.000000	52.887600
854.000000	53.042300
853.000000	52.804000
852.000000	52.697200
851.000000	52.828800
850.000000	53.044500
849.000000	52.773200
848.000000	52.712200
847.000000	52.925300
846.000000	52.695900
845.000000	52.896200
844.000000	52.989200
843.000000	52.898500
842.000000	52.911900
841.000000	52.960400
840.000000	53.205500
839.000000	53.000200
838.000000	52.865400
837.000000	52.739000
836.000000	52.613300
835.000000	52.677200
834.000000	52.787300
833.000000	52.737100
832.000000	52.726800
831.000000	52.863700
830.000000	52.646600
829.000000	52.636600
828.000000	52.590000
827.000000	52.552400
826.000000	52.728000
825.000000	52.746300
824.000000	52.622200
823.000000	52.592900
822.000000	52.276400
821.000000	52.462200
820.000000	52.372000
819.000000	52.409300
818.000000	52.210100
817.000000	52.260900
816.000000	52.180800
815.000000	52.049000
814.000000	52.033900
813.000000	52.078100
812.000000	52.006500
811.000000	51.901900
810.000000	51.699200
809.000000	51.900900
808.000000	51.704900
807.000000	51.748600
806.000000	51.661100
805.000000	51.456100
804.000000	51.419600
803.000000	51.412300
802.000000	51.350000
801.000000	51.295100
800.000000	51.161600
799.000000	51.180000
798.000000	50.987700
797.000000	50.871300
796.000000	50.874500
795.000000	50.748500
794.000000	50.752900
793.000000	50.586800
792.000000	50.352300
791.000000	50.392500
790.000000	50.146700
789.000000	50.127900
788.000000	50.058900
787.000000	50.020600
786.000000	49.931700
785.000000	49.767300
784.000000	49.710300
783.000000	49.546900
782.000000	49.508400
781.000000	49.435900
780.000000	49.135300
779.000000	49.117400
778.000000	48.936000
777.000000	48.856000
776.000000	48.793100
775.000000	48.603100
774.000000	48.549000
773.000000	48.332100
772.000000	48.246600
771.000000	48.044200
770.000000	47.984400
769.000000	47.882300
768.000000	47.793800
767.000000	47.605800
766.000000	47.488900
765.000000	47.355700
764.000000	47.276700
763.000000	47.104900
762.000000	46.913000
761.000000	46.821900
760.000000	46.716300
759.000000	46.573300
758.000000	46.390000
757.000000	46.215600
756.000000	45.969200
755.000000	45.765400
754.000000	45.603700
753.000000	45.455600
752.000000	45.262100
751.000000	45.089700
750.000000	44.855900
749.000000	44.617900
748.000000	44.399400
747.000000	44.168100
746.000000	44.021200
745.000000	43.758500
744.000000	43.544700
743.000000	43.329000
742.000000	43.074700
741.000000	42.853700
740.000000	42.587200
739.000000	42.387600
738.000000	42.081900
737.000000	41.871100
736.000000	41.547200
735.000000	41.306600
734.000000	41.043900
733.000000	40.800300
732.000000	40.570900
731.000000	40.310100
730.000000	40.015500
729.000000	39.734600
728.000000	39.546000
727.000000	39.282300
726.000000	38.993800
725.000000	38.727800
724.000000	38.435700
723.000000	38.190200
722.000000	37.864500
721.000000	37.574400
720.000000	37.327700
719.000000	37.030600
718.000000	36.722100
717.000000	36.500100
716.000000	36.230400
715.000000	35.977400
714.000000	35.720500
713.000000	35.444900
712.000000	35.168800
711.000000	34.935600
710.000000	34.670100
709.000000	34.390500
708.000000	34.135900
707.000000	33.885600
706.000000	33.619600
705.000000	33.425800
704.000000	33.182900
703.000000	32.931700
702.000000	32.708900
701.000000	32.528400
700.000000	32.299300
699.000000	32.051200
698.000000	31.848200
697.000000	31.672000
696.000000	31.490200
695.000000	31.295300
694.000000	31.120500
693.000000	30.934900
692.000000	30.703200
691.000000	30.505600
690.000000	30.352500
689.000000	30.206600
688.000000	30.055300
687.000000	29.872700
686.000000	29.693300
685.000000	29.546200
684.000000	29.403200
683.000000	29.258000
682.000000	29.115500
681.000000	28.956600
680.000000	28.800500
679.000000	28.663200
678.000000	28.536200
677.000000	28.401300
676.000000	28.279900
675.000000	28.136400
674.000000	28.004100
673.000000	27.869000
672.000000	27.760100
671.000000	27.653500
670.000000	27.544600
669.000000	27.415000
668.000000	27.319000
667.000000	27.214800
666.000000	27.125300
665.000000	27.043100
664.000000	26.949800
663.000000	26.876300
662.000000	26.825800
661.000000	26.758500
660.000000	26.690100
659.000000	26.614600
658.000000	26.548600
657.000000	26.513700
656.000000	26.470400
655.000000	26.410700
654.000000	26.322200
653.000000	26.285600
652.000000	26.289000
651.000000	26.237200
650.000000	26.188700
649.000000	26.187800
648.000000	26.170200
647.000000	26.115900
646.000000	26.080900
645.000000	26.066200
644.000000	26.065900
643.000000	26.063500
642.000000	26.041600
641.000000	26.043800
640.000000	26.061600
639.000000	26.066400
638.000000	26.094200
637.000000	26.124900
636.000000	26.158200
635.000000	26.216900
634.000000	26.266400
633.000000	26.332600
632.000000	26.412500
631.000000	26.468500
630.000000	26.516600
629.000000	26.597600
628.000000	26.703300
627.000000	26.794000
626.000000	26.906500
625.000000	27.003200
624.000000	27.093500
623.000000	27.224700
622.000000	27.355500
621.000000	27.462700
620.000000	27.557900
619.000000	27.684600
618.000000	27.810300
617.000000	27.917800
616.000000	28.063100
615.000000	28.216900
614.000000	28.351300
613.000000	28.482800
612.000000	28.643900
611.000000	28.797500
610.000000	28.937000
609.000000	29.086400
608.000000	29.253400
607.000000	29.403300
606.000000	29.548300
605.000000	29.693900
604.000000	29.848600
603.000000	30.011500
602.000000	30.146300
601.000000	30.298500
600.000000	30.416100
599.000000	30.563300
598.000000	30.697300
597.000000	30.806300
596.000000	30.933100
595.000000	31.032900
594.000000	31.126700
593.000000	31.233200
592.000000	31.329700
591.000000	31.388500
590.000000	31.457800
589.000000	31.524000
588.000000	31.594700
587.000000	31.634900
586.000000	31.653000
585.000000	31.694700
584.000000	31.727900
583.000000	31.728000
582.000000	31.716900
581.000000	31.711800
580.000000	31.693500
579.000000	31.676300
578.000000	31.653000
577.000000	31.617600
576.000000	31.559500
575.000000	31.499100
574.000000	31.423800
573.000000	31.338200
572.000000	31.254700
571.000000	31.170600
570.000000	31.074400
569.000000	30.960500
568.000000	30.868900
567.000000	30.712800
566.000000	30.564300
565.000000	30.423300
564.000000	30.256600
563.000000	30.082100
562.000000	29.884700
561.000000	29.683700
560.000000	29.515100
559.000000	29.307100
558.000000	29.087400
557.000000	28.840400
556.000000	28.606100
555.000000	28.362100
554.000000	28.100400
553.000000	27.796900
552.000000	27.505500
551.000000	27.204700
550.000000	26.891100
549.000000	26.580100
548.000000	26.267100
547.000000	25.949700
546.000000	25.624300
545.000000	25.305900
544.000000	24.950600
543.000000	24.603300
542.000000	24.254300
541.000000	23.920300
540.000000	23.569100
539.000000	23.230000
538.000000	22.894700
537.000000	22.562700
536.000000	22.212900
535.000000	21.876700
534.000000	21.543100
533.000000	21.208700
532.000000	20.873100
531.000000	20.576900
530.000000	20.243200
529.000000	19.938000
528.000000	19.650300
527.000000	19.359100
526.000000	19.064300
525.000000	18.767800
524.000000	18.495200
523.000000	18.229900
522.000000	17.967100
521.000000	17.722100
520.000000	17.489400
519.000000	17.246000
518.000000	17.015200
517.000000	16.797400
516.000000	16.584500
515.000000	16.368400
514.000000	16.176800
513.000000	15.981300
512.000000	15.814800
511.000000	15.630600
510.000000	15.477200
509.000000	15.320200
508.000000	15.166200
507.000000	15.038000
506.000000	14.881800
505.000000	14.771600
504.000000	14.679400
503.000000	14.544400
502.000000	14.451000
501.000000	14.326000
500.000000	14.229000
499.000000	14.149900
498.000000	14.061400
497.000000	13.970100
496.000000	13.892200
495.000000	13.833500
494.000000	13.745000
493.000000	13.690800
492.000000	13.603100
491.000000	13.547300
490.000000	13.490400
489.000000	13.445100
488.000000	13.385700
487.000000	13.309100
486.000000	13.258300
485.000000	13.215600
484.000000	13.152000
483.000000	13.094800
482.000000	13.017000
481.000000	12.951500
480.000000	12.866400
479.000000	12.767700
478.000000	12.696600
477.000000	12.610300
476.000000	12.530500
475.000000	12.441600
474.000000	12.357200
473.000000	12.286400
472.000000	12.182200
471.000000	12.090900
470.000000	12.005300
469.000000	11.924200
468.000000	11.844400
467.000000	11.737300
466.000000	11.650300
465.000000	11.560800
464.000000	11.474900
463.000000	11.371500
462.000000	11.260800
461.000000	11.175300
460.000000	11.102300
459.000000	10.974900
458.000000	10.897800
457.000000	10.809300
456.000000	10.704100
455.000000	10.610400
454.000000	10.513500
453.000000	10.423200
452.000000	10.296700
451.000000	10.215400
450.000000	10.090300
449.000000	9.999700
448.000000	9.900700
447.000000	9.803300
446.000000	9.693100
445.000000	9.577100
444.000000	9.474000
443.000000	9.377900
442.000000	9.293600
441.000000	9.147200
440.000000	9.034300
439.000000	8.923800
438.000000	8.836100
437.000000	8.711000
436.000000	8.614400
435.000000	8.488100
434.000000	8.401400
433.000000	8.284100
432.000000	8.172200
431.000000	8.070600
430.000000	7.988600
429.000000	7.884900
428.000000	7.779900
427.000000	7.697200
426.000000	7.617700
425.000000	7.518000
424.000000	7.420200
423.000000	7.339000
422.000000	7.235000
421.000000	7.170800
420.000000	7.088400
419.000000	7.015200
418.000000	6.923600
417.000000	6.843800
416.000000	6.769800
415.000000	6.693700
414.000000	6.629900
413.000000	6.548800
412.000000	6.473000
411.000000	6.404000
410.000000	6.332800
409.000000	6.264900
408.000000	6.215200
407.000000	6.169900
406.000000	6.123500
405.000000	6.061500
404.000000	6.010900
403.000000	5.950400
402.000000	5.898100
401.000000	5.867800
400.000000	5.824100
399.000000	5.767800
398.000000	5.708600
397.000000	5.662500
396.000000	5.627600
395.000000	5.603700
394.000000	5.567500
393.000000	5.521800
392.000000	5.483600
391.000000	5.435100
390.000000	5.400300
389.000000	5.379300
388.000000	5.341900
387.000000	5.324100
386.000000	5.286800
385.000000	5.273300
384.000000	5.276600
383.000000	5.240400
382.000000	5.207100
381.000000	5.197000
380.000000	5.164400
379.000000	5.127700
378.000000	5.117000
377.000000	5.100900
376.000000	5.059500
375.000000	4.962400
374.000000	4.922800
373.000000	4.867100
372.000000	4.805900
371.000000	4.824500
370.000000	4.804600
369.000000	4.894200
368.000000	4.888900
367.000000	4.933300
366.000000	4.868200
365.000000	4.787400
364.000000	4.884800
363.000000	4.842900
362.000000	4.722100
361.000000	4.805400
360.000000	4.887700
359.000000	4.793100
358.000000	4.792700
357.000000	4.853300
356.000000	4.811400
355.000000	4.798900
354.000000	4.749700
353.000000	4.649100
352.000000	4.761800
351.000000	4.820200
350.000000	4.838000
349.000000	4.764800
348.000000	4.684200
347.000000	4.671800
346.000000	4.632300
345.000000	4.666000
344.000000	4.780500
343.000000	4.852800
342.000000	4.813000
341.000000	4.732900
340.000000	4.702300
339.000000	4.704100
338.000000	4.749700
337.000000	4.791700
336.000000	4.916200
335.000000	4.810500
334.000000	4.600700
333.000000	4.627200
332.000000	4.882600
331.000000	5.065400
330.000000	4.922100
329.000000	4.690400
328.000000	4.588600
327.000000	4.772300
326.000000	5.127300
325.000000	4.978500
324.000000	4.614000
323.000000	4.666500
322.000000	4.904300
321.000000	4.787500
320.000000	4.933600
319.000000	5.078100
318.000000	5.113200
317.000000	5.004300
316.000000	4.804800
315.000000	4.792800
314.000000	4.768900
313.000000	4.735700
312.000000	4.774400
311.000000	4.775500
310.000000	4.748400
309.000000	4.753100
308.000000	4.759400
307.000000	4.752500
306.000000	4.742600
305.000000	4.774400
304.000000	4.778100
303.000000	4.760300
302.000000	4.806300
301.000000	4.807400
300.000000	4.792700
299.000000	4.798300
298.000000	4.794300
297.000000	4.781100
296.000000	4.759600
295.000000	4.791800
294.000000	4.817600
293.000000	4.812100
292.000000	4.812900
291.000000	4.804100
290.000000	4.815600
289.000000	4.813800
288.000000	4.805500
287.000000	4.800000
286.000000	4.798800
285.000000	4.804700
284.000000	4.796900
283.000000	4.789800
282.000000	4.818400
281.000000	4.815300
280.000000	4.828800
279.000000	4.860600
278.000000	4.839200
277.000000	4.853100
276.000000	4.865900
275.000000	4.875700
274.000000	4.880600
273.000000	4.874600
272.000000	4.893100
271.000000	4.907200
270.000000	4.924300
269.000000	4.944500
268.000000	4.932300
267.000000	4.961400
266.000000	4.993300
265.000000	5.002400
264.000000	5.026700
263.000000	5.035500
262.000000	5.047500
261.000000	5.095300
260.000000	5.120700
259.000000	5.103400
258.000000	5.146100
257.000000	5.182700
256.000000	5.172100
255.000000	5.184800
254.000000	5.208400
253.000000	5.220600
252.000000	5.232000
251.000000	5.234900
250.000000	5.250600
