PE UV       SUBTECH     SPECTRUM    ASCII       PEDS        4.00        
   -1
CICIMAUCR0232-2.ASC
24/06/14
14:36:19.00
24/06/14
14:36:19.00
Vinicio Soto Monge
C. resplendens. Sex M. Ventral 
250,000000
1
Lambda 1050
1050L1511233
PerkinElmer UV WinLab 6.3.2.0749 / 2.02.05 Lambda 900 UV/VIS/NIR, Aug  7 2015 09:38:08

0
0
3350/servo 860,8/2
0
0
UV/VIS
1
1
1
DoubleDePol,CommonBeamDepol,RBeamAtt,SBeamAtt,60mm sphere, WB InGaAs Detector
0
0
0
0
Program
Program
3350/servo 860,8/2
3350/0,2 860,8/0,2
3350/0,2 860,8/0,2
0
15.00
 
 
 
0
 
860,8
319,2
860,8
Front
100
on
S:100 R:100
0
0
0
0
 
0
 
 
 
0
 
 
0
0
0
0
0
 
 
 
 
0
0


0
0
#HDR
-1
-1
#GR
nm
%R
1.0
0.0
2500,000000
-1,000000
2251
8
57,698000
4,471100
#DATA
2482.000000	5.316357
2481.000000	5.340371
2480.000000	5.252094
2479.000000	5.349954
2478.000000	5.308690
2477.000000	5.291102
2476.000000	5.325150
2475.000000	5.349954
2474.000000	5.313651
2473.000000	5.339807
2472.000000	5.281181
2471.000000	5.254348
2470.000000	5.267314
2469.000000	5.300234
2468.000000	5.259760
2467.000000	5.270809
2466.000000	5.294936
2465.000000	5.328195
2464.000000	5.326503
2463.000000	5.337101
2462.000000	5.303166
2461.000000	5.271598
2460.000000	5.310719
2459.000000	5.339694
2458.000000	5.304744
2457.000000	5.331239
2456.000000	5.370811
2455.000000	5.369684
2454.000000	5.405987
2453.000000	5.425716
2452.000000	5.453789
2451.000000	5.468220
2450.000000	5.474985
2449.000000	5.504636
2448.000000	5.510837
2447.000000	5.532934
2446.000000	5.585472
2445.000000	5.597310
2444.000000	5.613770
2443.000000	5.652892
2442.000000	5.657853
2441.000000	5.707572
2440.000000	5.752781
2439.000000	5.742973
2438.000000	5.743875
2437.000000	5.779614
2436.000000	5.795398
2435.000000	5.815917
2434.000000	5.837451
2433.000000	5.867553
2432.000000	5.870372
2431.000000	5.904983
2430.000000	5.937340
2429.000000	5.940272
2428.000000	5.974320
2427.000000	5.964737
2426.000000	5.990555
2425.000000	6.006226
2424.000000	6.014682
2423.000000	6.047489
2422.000000	6.063048
2421.000000	6.066543
2420.000000	6.068798
2419.000000	6.085033
2418.000000	6.109836
2417.000000	6.135992
2416.000000	6.137345
2415.000000	6.139374
2414.000000	6.166771
2413.000000	6.181314
2412.000000	6.188304
2411.000000	6.197324
2410.000000	6.217392
2409.000000	6.209274
2408.000000	6.226750
2407.000000	6.237347
2406.000000	6.241068
2405.000000	6.269479
2404.000000	6.274552
2403.000000	6.291802
2402.000000	6.305669
2401.000000	6.299243
2400.000000	6.322580
2399.000000	6.359560
2398.000000	6.389662
2397.000000	6.409617
2396.000000	6.425739
2395.000000	6.436224
2394.000000	6.446709
2393.000000	6.469934
2392.000000	6.461704
2391.000000	6.477263
2390.000000	6.504095
2389.000000	6.518414
2388.000000	6.527095
2387.000000	6.538482
2386.000000	6.544570
2385.000000	6.538707
2384.000000	6.540962
2383.000000	6.568246
2382.000000	6.575687
2381.000000	6.577490
2380.000000	6.592936
2379.000000	6.587524
2378.000000	6.571741
2377.000000	6.575574
2376.000000	6.589216
2375.000000	6.578843
2374.000000	6.572981
2373.000000	6.577378
2372.000000	6.553025
2371.000000	6.542540
2370.000000	6.561143
2369.000000	6.560579
2368.000000	6.532506
2367.000000	6.506688
2366.000000	6.491355
2365.000000	6.485718
2364.000000	6.484929
2363.000000	6.460690
2362.000000	6.436224
2361.000000	6.431602
2360.000000	6.416269
2359.000000	6.380755
2358.000000	6.357305
2357.000000	6.343889
2356.000000	6.332163
2355.000000	6.329007
2354.000000	6.328781
2353.000000	6.327654
2352.000000	6.319536
2351.000000	6.303414
2350.000000	6.313448
2349.000000	6.340732
2348.000000	6.349751
2347.000000	6.349977
2346.000000	6.360236
2345.000000	6.393157
2344.000000	6.411308
2343.000000	6.425965
2342.000000	6.444455
2341.000000	6.467116
2340.000000	6.466214
2339.000000	6.481547
2338.000000	6.513227
2337.000000	6.517512
2336.000000	6.514129
2335.000000	6.526756
2334.000000	6.529237
2333.000000	6.527771
2332.000000	6.528673
2331.000000	6.508041
2330.000000	6.472415
2329.000000	6.482449
2328.000000	6.451219
2327.000000	6.423034
2326.000000	6.421004
2325.000000	6.403078
2324.000000	6.356290
2323.000000	6.329345
2322.000000	6.306796
2321.000000	6.268013
2320.000000	6.242195
2319.000000	6.217279
2318.000000	6.185937
2317.000000	6.145124
2316.000000	6.090670
2315.000000	6.055945
2314.000000	6.037906
2313.000000	5.997545
2312.000000	5.946811
2311.000000	5.931365
2310.000000	5.918738
2309.000000	5.906449
2308.000000	5.875332
2307.000000	5.843201
2306.000000	5.827304
2305.000000	5.838917
2304.000000	5.848161
2303.000000	5.847147
2302.000000	5.855490
2301.000000	5.891003
2300.000000	5.915919
2299.000000	5.933169
2298.000000	5.978153
2297.000000	5.985594
2296.000000	6.022799
2295.000000	6.054480
2294.000000	6.084582
2293.000000	6.105101
2292.000000	6.131482
2291.000000	6.148845
2290.000000	6.174888
2289.000000	6.189319
2288.000000	6.176692
2287.000000	6.191461
2286.000000	6.189319
2285.000000	6.198451
2284.000000	6.175790
2283.000000	6.174663
2282.000000	6.153129
2281.000000	6.135203
2280.000000	6.133963
2279.000000	6.095630
2278.000000	6.078832
2277.000000	6.081312
2276.000000	6.058876
2275.000000	6.048955
2274.000000	6.012427
2273.000000	6.013329
2272.000000	6.011525
2271.000000	6.019191
2270.000000	6.026181
2269.000000	6.042980
2268.000000	6.012539
2267.000000	6.074435
2266.000000	6.104988
2265.000000	6.110851
2264.000000	6.179511
2263.000000	6.235431
2262.000000	6.291013
2261.000000	6.370721
2260.000000	6.454150
2259.000000	6.524840
2258.000000	6.597446
2257.000000	6.692262
2256.000000	6.834092
2255.000000	6.929810
2254.000000	7.030939
2253.000000	7.126883
2252.000000	7.247066
2251.000000	7.339402
2250.000000	7.441095
2249.000000	7.544818
2248.000000	7.677741
2247.000000	7.768048
2246.000000	7.857001
2245.000000	7.962528
2244.000000	8.020026
2243.000000	8.090039
2242.000000	8.189591
2241.000000	8.243369
2240.000000	8.261633
2239.000000	8.351714
2238.000000	8.407070
2237.000000	8.492641
2236.000000	8.500872
2235.000000	8.571336
2234.000000	8.593095
2233.000000	8.631765
2232.000000	8.676524
2231.000000	8.737968
2230.000000	8.714067
2229.000000	8.756684
2228.000000	8.784644
2227.000000	8.782840
2226.000000	8.781712
2225.000000	8.831883
2224.000000	8.814408
2223.000000	8.798398
2222.000000	8.804937
2221.000000	8.814408
2220.000000	8.801330
2219.000000	8.808658
2218.000000	8.799413
2217.000000	8.758375
2216.000000	8.772918
2215.000000	8.743267
2214.000000	8.744395
2213.000000	8.720155
2212.000000	8.727145
2211.000000	8.722072
2210.000000	8.692984
2209.000000	8.685092
2208.000000	8.664912
2207.000000	8.683401
2206.000000	8.648564
2205.000000	8.627819
2204.000000	8.625903
2203.000000	8.618011
2202.000000	8.609217
2201.000000	8.625001
2200.000000	8.604820
2199.000000	8.603242
2198.000000	8.608202
2197.000000	8.589036
2196.000000	8.590614
2195.000000	8.576522
2194.000000	8.570095
2193.000000	8.591742
2192.000000	8.567953
2191.000000	8.540444
2190.000000	8.553184
2189.000000	8.550140
2188.000000	8.551944
2187.000000	8.543488
2186.000000	8.538528
2185.000000	8.528493
2184.000000	8.516656
2183.000000	8.508538
2182.000000	8.496136
2181.000000	8.505381
2180.000000	8.495347
2179.000000	8.495122
2178.000000	8.488019
2177.000000	8.483735
2176.000000	8.473363
2175.000000	8.487906
2174.000000	8.462652
2173.000000	8.437172
2172.000000	8.463667
2171.000000	8.458706
2170.000000	8.469417
2169.000000	8.473024
2168.000000	8.463779
2167.000000	8.480240
2166.000000	8.474715
2165.000000	8.475843
2164.000000	8.490612
2163.000000	8.522744
2162.000000	8.529734
2161.000000	8.525224
2160.000000	8.534807
2159.000000	8.553297
2158.000000	8.552959
2157.000000	8.565022
2156.000000	8.575732
2155.000000	8.610457
2154.000000	8.631314
2153.000000	8.630638
2152.000000	8.669308
2151.000000	8.689151
2150.000000	8.690617
2149.000000	8.709783
2148.000000	8.746762
2147.000000	8.752512
2146.000000	8.783742
2145.000000	8.803246
2144.000000	8.813055
2143.000000	8.836054
2142.000000	8.850711
2141.000000	8.845524
2140.000000	8.852289
2139.000000	8.872244
2138.000000	8.911704
2137.000000	8.913170
2136.000000	8.926135
2135.000000	8.928841
2134.000000	8.949473
2133.000000	8.956575
2132.000000	8.956914
2131.000000	8.979124
2130.000000	8.990285
2129.000000	8.992427
2128.000000	8.987580
2127.000000	8.996824
2126.000000	8.996261
2125.000000	8.981266
2124.000000	8.969766
2123.000000	8.967173
2122.000000	8.975629
2121.000000	8.961311
2120.000000	8.949698
2119.000000	8.934703
2118.000000	8.932336
2117.000000	8.921400
2116.000000	8.891974
2115.000000	8.891636
2114.000000	8.884646
2113.000000	8.850711
2112.000000	8.848907
2111.000000	8.848907
2110.000000	8.824216
2109.000000	8.805501
2108.000000	8.798962
2107.000000	8.779796
2106.000000	8.758375
2105.000000	8.753189
2104.000000	8.720832
2103.000000	8.697607
2102.000000	8.705837
2101.000000	8.691857
2100.000000	8.665926
2099.000000	8.644054
2098.000000	8.629849
2097.000000	8.621280
2096.000000	8.612937
2095.000000	8.597266
2094.000000	8.595350
2093.000000	8.585090
2092.000000	8.569870
2091.000000	8.570095
2090.000000	8.552959
2089.000000	8.543037
2088.000000	8.521053
2087.000000	8.508087
2086.000000	8.494558
2085.000000	8.481142
2084.000000	8.485200
2083.000000	8.471446
2082.000000	8.459383
2081.000000	8.448108
2080.000000	8.425447
2079.000000	8.417893
2078.000000	8.410678
2077.000000	8.378885
2076.000000	8.349233
2075.000000	8.333450
2074.000000	8.319695
2073.000000	8.307293
2072.000000	8.287902
2071.000000	8.269074
2070.000000	8.244158
2069.000000	8.225668
2068.000000	8.215070
2067.000000	8.199399
2066.000000	8.165576
2065.000000	8.157008
2064.000000	8.151822
2063.000000	8.109769
2062.000000	8.095338
2061.000000	8.090603
2060.000000	8.076285
2059.000000	8.073692
2058.000000	8.066476
2057.000000	8.055427
2056.000000	8.057569
2055.000000	8.052609
2054.000000	8.051030
2053.000000	8.075834
2052.000000	8.092745
2051.000000	8.110784
2050.000000	8.144043
2049.000000	8.170988
2048.000000	8.196919
2047.000000	8.242579
2046.000000	8.280010
2045.000000	8.318229
2044.000000	8.360169
2043.000000	8.403011
2042.000000	8.459495
2041.000000	8.520827
2040.000000	8.558145
2039.000000	8.593658
2038.000000	8.648000
2037.000000	8.693886
2036.000000	8.756909
2035.000000	8.776977
2034.000000	8.810687
2033.000000	8.864240
2032.000000	8.879122
2031.000000	8.901783
2030.000000	8.935380
2029.000000	8.955448
2028.000000	8.996486
2027.000000	9.030083
2026.000000	9.041921
2025.000000	9.056240
2024.000000	9.079690
2023.000000	9.090513
2022.000000	9.111596
2021.000000	9.130988
2020.000000	9.146997
2019.000000	9.174844
2018.000000	9.178339
2017.000000	9.168080
2016.000000	9.173717
2015.000000	9.187020
2014.000000	9.177663
2013.000000	9.183751
2012.000000	9.176310
2011.000000	9.179692
2010.000000	9.190064
2009.000000	9.159962
2008.000000	9.149252
2007.000000	9.131890
2006.000000	9.127267
2005.000000	9.114753
2004.000000	9.095248
2003.000000	9.073940
2002.000000	9.060073
2001.000000	9.030647
2000.000000	9.011255
1999.000000	8.997839
1998.000000	8.946992
1997.000000	8.914635
1996.000000	8.881489
1995.000000	8.838309
1994.000000	8.801780
1993.000000	8.779007
1992.000000	8.753640
1991.000000	8.721734
1990.000000	8.681259
1989.000000	8.641687
1988.000000	8.594222
1987.000000	8.548336
1986.000000	8.523195
1985.000000	8.463216
1984.000000	8.414737
1983.000000	8.391737
1982.000000	8.336381
1981.000000	8.303911
1980.000000	8.258251
1979.000000	8.222173
1978.000000	8.181360
1977.000000	8.152611
1976.000000	8.117097
1975.000000	8.052271
1974.000000	8.027355
1973.000000	7.973238
1972.000000	7.943362
1971.000000	7.916642
1970.000000	7.860496
1969.000000	7.846742
1968.000000	7.801645
1967.000000	7.756210
1966.000000	7.739862
1965.000000	7.685859
1964.000000	7.649668
1963.000000	7.629149
1962.000000	7.573567
1961.000000	7.580106
1960.000000	7.529598
1959.000000	7.503667
1958.000000	7.491266
1957.000000	7.454737
1956.000000	7.405018
1955.000000	7.375930
1954.000000	7.361950
1953.000000	7.337260
1952.000000	7.286075
1951.000000	7.279310
1950.000000	7.251801
1949.000000	7.218768
1948.000000	7.208846
1947.000000	7.192950
1946.000000	7.144358
1945.000000	7.153490
1944.000000	7.137593
1943.000000	7.131844
1942.000000	7.099036
1941.000000	7.080884
1940.000000	7.089565
1939.000000	7.067693
1938.000000	7.073556
1937.000000	7.040522
1936.000000	7.091933
1935.000000	7.085845
1934.000000	7.096894
1933.000000	7.083815
1932.000000	7.105800
1931.000000	7.112790
1930.000000	7.132971
1929.000000	7.142892
1928.000000	7.163524
1927.000000	7.217415
1926.000000	7.221586
1925.000000	7.279423
1924.000000	7.344137
1923.000000	7.359808
1922.000000	7.411895
1921.000000	7.455414
1920.000000	7.531740
1919.000000	7.571764
1918.000000	7.632419
1917.000000	7.687211
1916.000000	7.787777
1915.000000	7.848771
1914.000000	7.922392
1913.000000	7.997591
1912.000000	8.109769
1911.000000	8.184517
1910.000000	8.267157
1909.000000	8.377983
1908.000000	8.499519
1907.000000	8.589487
1906.000000	8.706062
1905.000000	8.849809
1904.000000	8.992315
1903.000000	9.108101
1902.000000	9.262219
1901.000000	9.401118
1900.000000	9.557717
1899.000000	9.734835
1898.000000	9.906879
1897.000000	10.090198
1896.000000	10.283325
1895.000000	10.476904
1894.000000	10.656502
1893.000000	10.860001
1892.000000	11.086388
1891.000000	11.345131
1890.000000	11.584144
1889.000000	11.850441
1888.000000	12.109635
1887.000000	12.405245
1886.000000	12.704914
1885.000000	13.045395
1884.000000	13.416768
1883.000000	13.830870
1882.000000	14.276991
1881.000000	14.707328
1880.000000	15.184114
1879.000000	15.617157
1878.000000	16.053356
1877.000000	16.506580
1876.000000	16.956759
1875.000000	17.376273
1874.000000	17.801536
1873.000000	18.208874
1872.000000	18.599638
1871.000000	18.952521
1870.000000	19.297286
1869.000000	19.626719
1868.000000	19.956152
1867.000000	20.195954
1866.000000	20.445002
1865.000000	20.637114
1864.000000	20.817502
1863.000000	20.986051
1862.000000	21.145356
1861.000000	21.302857
1860.000000	21.447505
1859.000000	21.564419
1858.000000	21.654161
1857.000000	21.733532
1856.000000	21.807378
1855.000000	21.875587
1854.000000	21.912228
1853.000000	21.934438
1852.000000	21.951011
1851.000000	21.939061
1850.000000	21.961384
1849.000000	21.967134
1848.000000	21.965442
1847.000000	21.933875
1846.000000	21.886185
1845.000000	21.826657
1844.000000	21.818088
1843.000000	21.790354
1842.000000	21.791143
1841.000000	21.787874
1840.000000	21.765100
1839.000000	21.740747
1838.000000	21.707601
1837.000000	21.664646
1836.000000	21.636799
1835.000000	21.590575
1834.000000	21.532174
1833.000000	21.468137
1832.000000	21.422251
1831.000000	21.376477
1830.000000	21.316837
1829.000000	21.250995
1828.000000	21.175571
1827.000000	21.098568
1826.000000	21.019197
1825.000000	20.968238
1824.000000	20.904990
1823.000000	20.861471
1822.000000	20.835202
1821.000000	20.796644
1820.000000	20.775336
1819.000000	20.747489
1818.000000	20.710397
1817.000000	20.669246
1816.000000	20.653124
1815.000000	20.653575
1814.000000	20.654815
1813.000000	20.630688
1812.000000	20.622796
1811.000000	20.601262
1810.000000	20.560562
1809.000000	20.537676
1808.000000	20.509941
1807.000000	20.469241
1806.000000	20.423468
1805.000000	20.383444
1804.000000	20.336769
1803.000000	20.278369
1802.000000	20.226282
1801.000000	20.172053
1800.000000	20.105422
1799.000000	20.043640
1798.000000	20.004293
1797.000000	19.965396
1796.000000	19.910942
1795.000000	19.863590
1794.000000	19.809700
1793.000000	19.747917
1792.000000	19.693688
1791.000000	19.634386
1790.000000	19.582186
1789.000000	19.538555
1788.000000	19.487482
1787.000000	19.429420
1786.000000	19.359295
1785.000000	19.279586
1784.000000	19.220171
1783.000000	19.149820
1782.000000	19.063008
1781.000000	18.984652
1780.000000	18.910694
1779.000000	18.832451
1778.000000	18.742144
1777.000000	18.653190
1776.000000	18.574835
1775.000000	18.497945
1774.000000	18.411133
1773.000000	18.281705
1772.000000	18.160507
1771.000000	18.060618
1770.000000	17.943817
1769.000000	17.827129
1768.000000	17.717318
1767.000000	17.608634
1766.000000	17.505024
1765.000000	17.423399
1764.000000	17.356994
1763.000000	17.316858
1762.000000	17.316858
1761.000000	17.326553
1760.000000	17.354965
1759.000000	17.405473
1758.000000	17.466016
1757.000000	17.525318
1756.000000	17.579096
1755.000000	17.630168
1754.000000	17.678873
1753.000000	17.712921
1752.000000	17.742685
1751.000000	17.757229
1750.000000	17.752042
1749.000000	17.738062
1748.000000	17.696799
1747.000000	17.650011
1746.000000	17.591385
1745.000000	17.485858
1744.000000	17.374582
1743.000000	17.250114
1742.000000	17.098476
1741.000000	16.941088
1740.000000	16.742887
1739.000000	16.544461
1738.000000	16.349192
1737.000000	16.150202
1736.000000	15.987740
1735.000000	15.852562
1734.000000	15.748952
1733.000000	15.687057
1732.000000	15.682886
1731.000000	15.691116
1730.000000	15.746810
1729.000000	15.849631
1728.000000	15.945462
1727.000000	16.042533
1726.000000	16.128894
1725.000000	16.227430
1724.000000	16.311423
1723.000000	16.359113
1722.000000	16.387411
1721.000000	16.461934
1720.000000	16.471968
1719.000000	16.487977
1718.000000	16.525295
1717.000000	16.580990
1716.000000	16.614812
1715.000000	16.689335
1714.000000	16.754387
1713.000000	16.824851
1712.000000	16.875247
1711.000000	16.923951
1710.000000	16.964426
1709.000000	17.001518
1708.000000	16.994641
1707.000000	16.991033
1706.000000	16.972205
1705.000000	16.950220
1704.000000	16.900050
1703.000000	16.837253
1702.000000	16.761941
1701.000000	16.642209
1700.000000	16.518418
1699.000000	16.388651
1698.000000	16.255390
1697.000000	16.121114
1696.000000	15.997662
1695.000000	15.930129
1694.000000	15.906679
1693.000000	15.938359
1692.000000	16.019646
1691.000000	16.124948
1690.000000	16.287296
1689.000000	16.426307
1688.000000	16.548069
1687.000000	16.649086
1686.000000	16.663630
1685.000000	16.734319
1684.000000	16.754838
1683.000000	16.835787
1682.000000	17.003773
1681.000000	17.282359
1680.000000	17.657226
1679.000000	18.114734
1678.000000	18.609108
1677.000000	19.135727
1676.000000	19.677791
1675.000000	20.104859
1674.000000	20.500696
1673.000000	20.856849
1672.000000	21.192820
1671.000000	21.464529
1670.000000	21.718424
1669.000000	21.930605
1668.000000	22.109527
1667.000000	22.287096
1666.000000	22.391833
1665.000000	22.541104
1664.000000	22.674027
1663.000000	22.748099
1662.000000	22.843704
1661.000000	22.889364
1660.000000	22.960617
1659.000000	22.989705
1658.000000	23.064228
1657.000000	23.088918
1656.000000	23.129392
1655.000000	23.139539
1654.000000	23.143823
1653.000000	23.137284
1652.000000	23.098276
1651.000000	23.095457
1650.000000	23.064904
1649.000000	23.045174
1648.000000	23.016425
1647.000000	22.954529
1646.000000	22.926908
1645.000000	22.878879
1644.000000	22.830626
1643.000000	22.772902
1642.000000	22.710104
1641.000000	22.644714
1640.000000	22.595558
1639.000000	22.496007
1638.000000	22.439636
1637.000000	22.358913
1636.000000	22.321708
1635.000000	22.245832
1634.000000	22.166913
1633.000000	22.083822
1632.000000	21.990697
1631.000000	21.924517
1630.000000	21.834662
1629.000000	21.751909
1628.000000	21.667127
1627.000000	21.593957
1626.000000	21.512219
1625.000000	21.404888
1624.000000	21.335439
1623.000000	21.236339
1622.000000	21.145694
1621.000000	21.100597
1620.000000	20.997664
1619.000000	20.913220
1618.000000	20.834977
1617.000000	20.755945
1616.000000	20.698897
1615.000000	20.612649
1614.000000	20.538352
1613.000000	20.458982
1612.000000	20.379273
1611.000000	20.304187
1610.000000	20.243419
1609.000000	20.157960
1608.000000	20.072502
1607.000000	20.015341
1606.000000	19.966637
1605.000000	19.890423
1604.000000	19.809925
1603.000000	19.743745
1602.000000	19.662233
1601.000000	19.594362
1600.000000	19.536300
1599.000000	19.437876
1598.000000	19.381167
1597.000000	19.316002
1596.000000	19.244185
1595.000000	19.186348
1594.000000	19.118816
1593.000000	19.067292
1592.000000	19.005284
1591.000000	18.930085
1590.000000	18.884425
1589.000000	18.827715
1588.000000	18.765594
1587.000000	18.729066
1586.000000	18.685322
1585.000000	18.645975
1584.000000	18.591746
1583.000000	18.547889
1582.000000	18.507189
1581.000000	18.466377
1580.000000	18.433794
1579.000000	18.402001
1578.000000	18.379678
1577.000000	18.338865
1576.000000	18.320263
1575.000000	18.303239
1574.000000	18.308763
1573.000000	18.300871
1572.000000	18.282945
1571.000000	18.264906
1570.000000	18.263892
1569.000000	18.271896
1568.000000	18.251716
1567.000000	18.251603
1566.000000	18.263441
1565.000000	18.277083
1564.000000	18.275279
1563.000000	18.287004
1562.000000	18.285651
1561.000000	18.286440
1560.000000	18.282269
1559.000000	18.290048
1558.000000	18.276181
1557.000000	18.272009
1556.000000	18.257578
1555.000000	18.243147
1554.000000	18.246642
1553.000000	18.234692
1552.000000	18.203237
1551.000000	18.190384
1550.000000	18.175502
1549.000000	18.136719
1548.000000	18.114959
1547.000000	18.093313
1546.000000	18.073358
1545.000000	18.048554
1544.000000	18.024878
1543.000000	17.994100
1542.000000	17.972904
1541.000000	17.961856
1540.000000	17.954415
1539.000000	17.948214
1538.000000	17.929724
1537.000000	17.913602
1536.000000	17.890377
1535.000000	17.859824
1534.000000	17.828482
1533.000000	17.806271
1532.000000	17.781243
1531.000000	17.750577
1530.000000	17.720475
1529.000000	17.702661
1528.000000	17.675378
1527.000000	17.641893
1526.000000	17.603561
1525.000000	17.560493
1524.000000	17.524529
1523.000000	17.481348
1522.000000	17.435237
1521.000000	17.391944
1520.000000	17.346283
1519.000000	17.299946
1518.000000	17.276609
1517.000000	17.237487
1516.000000	17.175479
1515.000000	17.125760
1514.000000	17.078972
1513.000000	17.028576
1512.000000	16.988214
1511.000000	16.946274
1510.000000	16.890918
1509.000000	16.842664
1508.000000	16.791141
1507.000000	16.740294
1506.000000	16.689222
1505.000000	16.640405
1504.000000	16.594631
1503.000000	16.533300
1502.000000	16.475914
1501.000000	16.423489
1500.000000	16.387411
1499.000000	16.350432
1498.000000	16.302629
1497.000000	16.265650
1496.000000	16.228558
1495.000000	16.181093
1494.000000	16.144452
1493.000000	16.120325
1492.000000	16.093154
1491.000000	16.064969
1490.000000	16.047268
1489.000000	16.013671
1488.000000	15.988755
1487.000000	15.951776
1486.000000	15.930806
1485.000000	15.926521
1484.000000	15.907355
1483.000000	15.879846
1482.000000	15.865528
1481.000000	15.850082
1480.000000	15.838695
1479.000000	15.843430
1478.000000	15.823250
1477.000000	15.804422
1476.000000	15.807240
1475.000000	15.822122
1474.000000	15.810848
1473.000000	15.809157
1472.000000	15.808255
1471.000000	15.822348
1470.000000	15.840386
1469.000000	15.825730
1468.000000	15.817274
1467.000000	15.825279
1466.000000	15.846474
1465.000000	15.871390
1464.000000	15.876464
1463.000000	15.870714
1462.000000	15.917727
1461.000000	15.954820
1460.000000	15.977143
1459.000000	16.004652
1458.000000	16.041744
1457.000000	16.086502
1456.000000	16.148511
1455.000000	16.205220
1454.000000	16.258998
1453.000000	16.324501
1452.000000	16.382676
1451.000000	16.457650
1450.000000	16.544912
1449.000000	16.604440
1448.000000	16.668139
1447.000000	16.746044
1446.000000	16.837365
1445.000000	16.914594
1444.000000	16.995430
1443.000000	17.082241
1442.000000	17.179650
1441.000000	17.281682
1440.000000	17.369959
1439.000000	17.463761
1438.000000	17.559366
1437.000000	17.678535
1436.000000	17.778988
1435.000000	17.877073
1434.000000	17.969297
1433.000000	18.091058
1432.000000	18.224207
1431.000000	18.348787
1430.000000	18.454313
1429.000000	18.581036
1428.000000	18.729630
1427.000000	18.902914
1426.000000	19.059851
1425.000000	19.226935
1424.000000	19.414764
1423.000000	19.625028
1422.000000	19.810151
1421.000000	20.021204
1420.000000	20.230341
1419.000000	20.474766
1418.000000	20.712426
1417.000000	20.967562
1416.000000	21.178502
1415.000000	21.437471
1414.000000	21.704783
1413.000000	21.995883
1412.000000	22.246734
1411.000000	22.504688
1410.000000	22.860164
1409.000000	23.205493
1408.000000	23.591748
1407.000000	23.969096
1406.000000	24.400899
1405.000000	24.766860
1404.000000	25.241279
1403.000000	25.659214
1402.000000	26.107026
1401.000000	26.539279
1400.000000	27.038276
1399.000000	27.499504
1398.000000	27.854078
1397.000000	28.177085
1396.000000	28.536281
1395.000000	28.968873
1394.000000	29.327956
1393.000000	29.629429
1392.000000	29.946573
1391.000000	30.335533
1390.000000	30.681088
1389.000000	31.057421
1388.000000	31.480317
1387.000000	32.001637
1386.000000	32.509991
1385.000000	33.055776
1384.000000	33.613624
1383.000000	34.302028
1382.000000	34.918727
1381.000000	35.556284
1380.000000	36.064639
1379.000000	36.336460
1378.000000	36.721475
1377.000000	36.973228
1376.000000	37.241892
1375.000000	37.492180
1374.000000	37.720145
1373.000000	38.063557
1372.000000	38.406293
1371.000000	38.836743
1370.000000	39.273732
1369.000000	39.664045
1368.000000	40.040040
1367.000000	40.413555
1366.000000	40.732277
1365.000000	41.006240
1364.000000	41.274341
1363.000000	41.513580
1362.000000	41.715163
1361.000000	41.934672
1360.000000	42.134113
1359.000000	42.251027
1358.000000	42.335132
1357.000000	42.471776
1356.000000	42.658928
1355.000000	42.947773
1354.000000	43.341243
1353.000000	43.830432
1352.000000	44.307556
1351.000000	44.938349
1350.000000	45.541294
1349.000000	46.098917
1348.000000	46.623957
1347.000000	47.098038
1346.000000	47.583054
1345.000000	47.964799
1344.000000	48.389499
1343.000000	48.802925
1342.000000	49.224355
1341.000000	49.574194
1340.000000	49.973075
1339.000000	50.355271
1338.000000	50.724727
1337.000000	51.058895
1336.000000	51.410876
1335.000000	51.749441
1334.000000	52.074026
1333.000000	52.406051
1332.000000	52.722068
1331.000000	53.018579
1330.000000	53.310469
1329.000000	53.615436
1328.000000	53.894473
1327.000000	54.158854
1326.000000	54.405421
1325.000000	54.668110
1324.000000	54.888972
1323.000000	55.104648
1322.000000	55.319760
1321.000000	55.531828
1320.000000	55.732396
1319.000000	55.925072
1318.000000	56.096779
1317.000000	56.283141
1316.000000	56.435343
1315.000000	56.618888
1314.000000	56.782476
1313.000000	56.937722
1312.000000	57.058469
1311.000000	57.202103
1310.000000	57.336942
1309.000000	57.467836
1308.000000	57.574377
1307.000000	57.661640
1306.000000	57.775509
1305.000000	57.846537
1304.000000	57.924329
1303.000000	57.977318
1302.000000	58.039552
1301.000000	58.088482
1300.000000	58.143274
1299.000000	58.180367
1298.000000	58.188709
1297.000000	58.225012
1296.000000	58.241360
1295.000000	58.260413
1294.000000	58.287923
1293.000000	58.284766
1292.000000	58.291418
1291.000000	58.292207
1290.000000	58.287246
1289.000000	58.255566
1288.000000	58.230086
1287.000000	58.200998
1286.000000	58.144627
1285.000000	58.092428
1284.000000	58.050600
1283.000000	57.978558
1282.000000	57.904036
1281.000000	57.838420
1280.000000	57.774720
1279.000000	57.702903
1278.000000	57.630410
1277.000000	57.581255
1276.000000	57.518232
1275.000000	57.448332
1274.000000	57.377079
1273.000000	57.334237
1272.000000	57.281924
1271.000000	57.231416
1270.000000	57.191054
1269.000000	57.148663
1268.000000	57.095449
1267.000000	57.050465
1266.000000	57.008637
1265.000000	56.953055
1264.000000	56.901758
1263.000000	56.843808
1262.000000	56.779432
1261.000000	56.728698
1260.000000	56.659926
1259.000000	56.587658
1258.000000	56.530610
1257.000000	56.464205
1256.000000	56.387428
1255.000000	56.311102
1254.000000	56.233309
1253.000000	56.164424
1252.000000	56.065775
1251.000000	55.973101
1250.000000	55.867123
1249.000000	55.750998
1248.000000	55.653589
1247.000000	55.540847
1246.000000	55.409277
1245.000000	55.265869
1244.000000	55.130917
1243.000000	54.983563
1242.000000	54.815351
1241.000000	54.644321
1240.000000	54.477012
1239.000000	54.312747
1238.000000	54.148707
1237.000000	53.970912
1236.000000	53.791765
1235.000000	53.610927
1234.000000	53.415657
1233.000000	53.214525
1232.000000	53.010688
1231.000000	52.812261
1230.000000	52.607296
1229.000000	52.391846
1228.000000	52.173126
1227.000000	51.949897
1226.000000	51.730951
1225.000000	51.514937
1224.000000	51.294865
1223.000000	51.051680
1222.000000	50.808157
1221.000000	50.588873
1220.000000	50.367673
1219.000000	50.144556
1218.000000	49.925273
1217.000000	49.729440
1216.000000	49.541273
1215.000000	49.350964
1214.000000	49.150058
1213.000000	48.959298
1212.000000	48.784660
1211.000000	48.623777
1210.000000	48.458723
1209.000000	48.298516
1208.000000	48.153304
1207.000000	48.028950
1206.000000	47.902678
1205.000000	47.782495
1204.000000	47.698277
1203.000000	47.640215
1202.000000	47.582942
1201.000000	47.517326
1200.000000	47.455994
1199.000000	47.390716
1198.000000	47.301650
1197.000000	47.180903
1196.000000	47.021260
1195.000000	46.818437
1194.000000	46.545263
1193.000000	46.207149
1192.000000	45.810522
1191.000000	45.344108
1190.000000	44.833273
1189.000000	44.321987
1188.000000	43.854784
1187.000000	43.481946
1186.000000	43.251275
1185.000000	43.149920
1184.000000	43.189380
1183.000000	43.374728
1182.000000	43.710023
1181.000000	44.179143
1180.000000	44.735526
1179.000000	45.299800
1178.000000	45.864300
1177.000000	46.404110
1176.000000	46.878078
1175.000000	47.296577
1174.000000	47.686439
1173.000000	48.050258
1172.000000	48.396151
1171.000000	48.772484
1170.000000	49.161445
1169.000000	49.560777
1168.000000	49.940718
1167.000000	50.347267
1166.000000	50.756633
1165.000000	51.177387
1164.000000	51.610994
1163.000000	52.034002
1162.000000	52.462986
1161.000000	52.897945
1160.000000	53.347223
1159.000000	53.781167
1158.000000	54.185461
1157.000000	54.581411
1156.000000	54.955828
1155.000000	55.293491
1154.000000	55.588537
1153.000000	55.814247
1152.000000	55.983022
1151.000000	56.119778
1150.000000	56.227560
1149.000000	56.311327
1148.000000	56.388104
1147.000000	56.483146
1146.000000	56.600736
1145.000000	56.782138
1144.000000	57.023632
1143.000000	57.344834
1142.000000	57.705609
1141.000000	58.107761
1140.000000	58.523779
1139.000000	58.965503
1138.000000	59.422672
1137.000000	59.889763
1136.000000	60.365310
1135.000000	60.884036
1134.000000	61.425537
1133.000000	61.944940
1132.000000	62.356336
1131.000000	62.781600
1130.000000	63.164021
1129.000000	63.510703
1128.000000	63.814882
1127.000000	64.085801
1126.000000	64.271487
1125.000000	64.449845
1124.000000	64.540490
1123.000000	64.672962
1122.000000	64.766651
1121.000000	64.871727
1120.000000	64.917274
1119.000000	64.969474
1118.000000	65.002282
1117.000000	65.038923
1116.000000	65.049972
1115.000000	65.041854
1114.000000	65.037908
1113.000000	65.037345
1112.000000	65.011978
1111.000000	64.992924
1110.000000	64.996983
1109.000000	64.996307
1108.000000	64.992586
1107.000000	64.981199
1106.000000	64.954930
1105.000000	64.943543
1104.000000	64.926632
1103.000000	64.915921
1102.000000	64.883001
1101.000000	64.881084
1100.000000	64.856506
1099.000000	64.820429
1098.000000	64.795175
1097.000000	64.783788
1096.000000	64.749965
1095.000000	64.714000
1094.000000	64.684800
1093.000000	64.650977
1092.000000	64.585474
1091.000000	64.536657
1090.000000	64.501932
1089.000000	64.465291
1088.000000	64.397758
1087.000000	64.343417
1086.000000	64.313089
1085.000000	64.207788
1084.000000	64.181181
1083.000000	64.133491
1082.000000	64.067988
1081.000000	64.000793
1080.000000	63.934050
1079.000000	63.883767
1078.000000	63.804058
1077.000000	63.765500
1076.000000	63.687032
1075.000000	63.652758
1074.000000	63.562677
1073.000000	63.519497
1072.000000	63.458278
1071.000000	63.392211
1070.000000	63.311826
1069.000000	63.261881
1068.000000	63.210696
1067.000000	63.133581
1066.000000	63.096376
1065.000000	63.014187
1064.000000	62.938424
1063.000000	62.890847
1062.000000	62.809560
1061.000000	62.760066
1060.000000	62.706288
1059.000000	62.620604
1058.000000	62.554537
1057.000000	62.476519
1056.000000	62.422065
1055.000000	62.336268
1054.000000	62.271329
1053.000000	62.212364
1052.000000	62.145621
1051.000000	62.077412
1050.000000	61.998380
1049.000000	61.941107
1048.000000	61.884623
1047.000000	61.820924
1046.000000	61.774699
1045.000000	61.708858
1044.000000	61.676501
1043.000000	61.621257
1042.000000	61.546960
1041.000000	61.509304
1040.000000	61.450227
1039.000000	61.391038
1038.000000	61.347519
1037.000000	61.298364
1036.000000	61.250448
1035.000000	61.173445
1034.000000	61.096104
1033.000000	61.045709
1032.000000	60.996891
1031.000000	60.914928
1030.000000	60.861826
1029.000000	60.785951
1028.000000	60.704551
1027.000000	60.640062
1026.000000	60.571064
1025.000000	60.500149
1024.000000	60.420215
1023.000000	60.332389
1022.000000	60.250200
1021.000000	60.194054
1020.000000	60.114007
1019.000000	60.037230
1018.000000	59.940723
1017.000000	59.868342
1016.000000	59.833730
1015.000000	59.770482
1014.000000	59.722567
1013.000000	59.658078
1012.000000	59.621099
1011.000000	59.599227
1010.000000	59.579384
1009.000000	59.570026
1008.000000	59.551537
1007.000000	59.524366
1006.000000	59.528988
1005.000000	59.540150
1004.000000	59.546463
1003.000000	59.533498
1002.000000	59.518841
1001.000000	59.516812
1000.000000	59.514332
999.000000	59.499450
998.000000	59.495842
997.000000	59.496857
996.000000	59.506553
995.000000	59.519405
994.000000	59.511288
993.000000	59.495391
992.000000	59.494489
991.000000	59.494827
990.000000	59.498548
989.000000	59.502719
988.000000	59.531581
987.000000	59.522449
986.000000	59.514332
985.000000	59.519518
984.000000	59.536993
983.000000	59.548380
982.000000	59.557287
981.000000	59.570139
980.000000	59.592575
979.000000	59.600129
978.000000	59.602496
977.000000	59.615462
976.000000	59.647480
975.000000	59.657853
974.000000	59.646578
973.000000	59.652328
972.000000	59.665294
971.000000	59.674200
970.000000	59.685023
969.000000	59.700356
968.000000	59.726963
967.000000	59.715915
966.000000	59.727978
965.000000	59.760448
964.000000	59.768791
963.000000	59.767438
962.000000	59.780629
961.000000	59.807687
960.000000	59.829108
959.000000	59.852896
958.000000	59.866651
957.000000	59.851544
956.000000	59.885253
955.000000	59.911410
954.000000	59.917498
953.000000	59.926743
952.000000	59.909831
951.000000	59.882322
950.000000	59.897655
949.000000	59.925277
948.000000	59.929561
947.000000	59.918963
946.000000	59.892244
945.000000	59.869131
944.000000	59.837451
943.000000	59.845230
942.000000	59.844554
941.000000	59.805883
940.000000	59.796187
939.000000	59.764056
938.000000	59.709939
937.000000	59.684798
936.000000	59.652892
935.000000	59.642745
934.000000	59.623804
933.000000	59.583668
932.000000	59.554806
931.000000	59.548493
930.000000	59.505763
929.000000	59.451760
928.000000	59.411173
927.000000	59.406099
926.000000	59.359424
925.000000	59.291441
924.000000	59.243863
923.000000	59.187718
922.000000	59.154346
921.000000	59.104852
920.000000	59.049383
919.000000	58.996282
918.000000	58.911499
917.000000	58.848928
916.000000	58.781057
915.000000	58.697853
914.000000	58.630997
913.000000	58.557940
912.000000	58.531558
911.000000	58.468085
910.000000	58.361543
909.000000	58.290177
908.000000	58.246095
907.000000	58.200998
906.000000	58.145078
905.000000	58.109564
904.000000	58.074163
903.000000	58.055223
902.000000	58.031321
901.000000	58.009562
900.000000	57.969200
899.000000	57.943946
898.000000	57.899751
897.000000	57.871679
896.000000	57.850032
895.000000	57.821170
894.000000	57.775058
893.000000	57.730976
892.000000	57.651493
891.000000	57.577534
890.000000	57.531084
889.000000	57.422965
888.000000	57.353177
887.000000	57.282939
886.000000	57.155540
885.000000	57.075381
884.000000	56.940879
883.000000	56.832196
882.000000	56.691381
881.000000	56.578075
880.000000	56.426662
879.000000	56.283367
878.000000	56.119440
877.000000	55.973213
876.000000	55.777831
875.000000	55.561028
874.000000	55.371057
873.000000	55.140500
872.000000	54.849738
871.000000	54.569235
870.000000	54.402264
869.000000	54.364044
868.000000	54.348148
867.000000	54.363368
866.000000	54.367201
865.000000	54.342962
864.000000	54.338565
863.000000	54.325036
862.000000	54.321090
861.000000	54.319624
860.000000	54.275655
859.000000	54.274189
858.000000	54.261900
857.000000	53.739200
856.000000	54.786500
855.000000	54.260000
854.000000	54.506800
853.000000	54.767100
852.000000	54.429700
851.000000	54.784600
850.000000	54.479700
849.000000	54.535200
848.000000	54.595000
847.000000	54.744200
846.000000	54.714200
845.000000	54.515500
844.000000	54.714400
843.000000	54.647900
842.000000	54.525100
841.000000	54.475500
840.000000	54.653000
839.000000	54.835700
838.000000	54.416900
837.000000	54.461600
836.000000	54.476400
835.000000	54.675100
834.000000	54.518200
833.000000	54.149900
832.000000	54.401000
831.000000	54.217100
830.000000	54.409500
829.000000	54.267500
828.000000	54.221800
827.000000	54.096800
826.000000	54.237100
825.000000	54.151700
824.000000	54.005400
823.000000	54.083400
822.000000	53.792900
821.000000	53.715600
820.000000	53.772000
819.000000	53.729600
818.000000	53.721100
817.000000	53.673200
816.000000	53.664800
815.000000	53.390100
814.000000	53.499700
813.000000	53.333200
812.000000	53.208500
811.000000	53.165100
810.000000	53.070800
809.000000	52.978200
808.000000	52.887200
807.000000	53.012800
806.000000	52.817800
805.000000	52.643200
804.000000	52.631700
803.000000	52.683600
802.000000	52.465400
801.000000	52.382600
800.000000	52.280300
799.000000	52.309900
798.000000	52.161500
797.000000	52.021000
796.000000	52.111700
795.000000	52.066700
794.000000	51.867400
793.000000	51.815100
792.000000	51.734700
791.000000	51.616100
790.000000	51.699500
789.000000	51.450300
788.000000	51.283900
787.000000	51.340400
786.000000	51.210400
785.000000	51.091900
784.000000	51.045000
783.000000	50.917200
782.000000	50.821600
781.000000	50.761800
780.000000	50.593100
779.000000	50.520300
778.000000	50.253900
777.000000	50.190400
776.000000	50.113100
775.000000	50.064000
774.000000	49.965900
773.000000	49.944000
772.000000	49.693600
771.000000	49.630700
770.000000	49.602700
769.000000	49.458700
768.000000	49.317500
767.000000	49.131700
766.000000	49.031800
765.000000	48.978300
764.000000	48.838600
763.000000	48.766900
762.000000	48.584100
761.000000	48.453200
760.000000	48.355100
759.000000	48.304900
758.000000	48.092600
757.000000	48.025800
756.000000	47.813500
755.000000	47.717300
754.000000	47.585500
753.000000	47.413800
752.000000	47.333600
751.000000	47.155100
750.000000	47.094500
749.000000	47.000900
748.000000	46.739100
747.000000	46.693700
746.000000	46.552700
745.000000	46.410300
744.000000	46.153300
743.000000	45.977400
742.000000	45.876800
741.000000	45.714100
740.000000	45.583800
739.000000	45.417700
738.000000	45.364900
737.000000	45.097900
736.000000	44.911300
735.000000	44.778300
734.000000	44.623700
733.000000	44.430200
732.000000	44.294600
731.000000	44.055200
730.000000	43.944100
729.000000	43.763500
728.000000	43.582700
727.000000	43.469600
726.000000	43.250000
725.000000	43.039200
724.000000	42.828800
723.000000	42.629200
722.000000	42.406300
721.000000	42.220400
720.000000	42.007900
719.000000	41.767100
718.000000	41.509200
717.000000	41.334900
716.000000	41.096100
715.000000	40.849400
714.000000	40.700800
713.000000	40.518200
712.000000	40.318100
711.000000	40.016100
710.000000	39.802600
709.000000	39.600100
708.000000	39.399900
707.000000	39.201500
706.000000	38.941800
705.000000	38.715800
704.000000	38.551500
703.000000	38.295400
702.000000	38.096700
701.000000	37.893700
700.000000	37.642000
699.000000	37.434200
698.000000	37.179500
697.000000	36.967600
696.000000	36.838800
695.000000	36.653900
694.000000	36.441300
693.000000	36.221100
692.000000	36.019800
691.000000	35.803900
690.000000	35.621300
689.000000	35.398000
688.000000	35.212700
687.000000	35.010500
686.000000	34.822100
685.000000	34.611400
684.000000	34.429200
683.000000	34.239700
682.000000	34.053200
681.000000	33.845700
680.000000	33.696000
679.000000	33.535800
678.000000	33.384300
677.000000	33.238500
676.000000	33.069800
675.000000	32.923400
674.000000	32.749200
673.000000	32.571800
672.000000	32.412900
671.000000	32.248300
670.000000	32.119400
669.000000	31.993400
668.000000	31.863100
667.000000	31.719700
666.000000	31.589900
665.000000	31.499000
664.000000	31.367100
663.000000	31.256300
662.000000	31.152100
661.000000	31.034500
660.000000	30.919900
659.000000	30.798800
658.000000	30.672200
657.000000	30.553100
656.000000	30.443800
655.000000	30.336200
654.000000	30.224400
653.000000	30.147700
652.000000	30.053200
651.000000	29.946200
650.000000	29.840100
649.000000	29.735400
648.000000	29.656600
647.000000	29.571200
646.000000	29.466700
645.000000	29.402300
644.000000	29.345200
643.000000	29.252000
642.000000	29.167100
641.000000	29.102300
640.000000	29.048200
639.000000	28.987200
638.000000	28.936000
637.000000	28.888600
636.000000	28.838400
635.000000	28.782300
634.000000	28.753600
633.000000	28.732700
632.000000	28.699500
631.000000	28.669000
630.000000	28.632800
629.000000	28.592800
628.000000	28.595200
627.000000	28.603000
626.000000	28.600200
625.000000	28.611700
624.000000	28.642000
623.000000	28.669900
622.000000	28.692200
621.000000	28.742700
620.000000	28.791100
619.000000	28.835400
618.000000	28.909300
617.000000	28.965500
616.000000	29.025100
615.000000	29.120500
614.000000	29.199300
613.000000	29.297000
612.000000	29.404300
611.000000	29.517100
610.000000	29.619100
609.000000	29.719800
608.000000	29.838400
607.000000	29.939700
606.000000	30.041600
605.000000	30.162500
604.000000	30.265100
603.000000	30.358600
602.000000	30.450600
601.000000	30.562600
600.000000	30.676900
599.000000	30.772500
598.000000	30.857400
597.000000	30.934500
596.000000	31.036900
595.000000	31.129700
594.000000	31.206300
593.000000	31.275200
592.000000	31.354800
591.000000	31.424200
590.000000	31.481200
589.000000	31.550400
588.000000	31.586600
587.000000	31.643700
586.000000	31.712400
585.000000	31.758200
584.000000	31.749900
583.000000	31.770000
582.000000	31.778100
581.000000	31.801000
580.000000	31.809200
579.000000	31.783100
578.000000	31.772000
577.000000	31.783200
576.000000	31.774300
575.000000	31.731300
574.000000	31.704700
573.000000	31.649300
572.000000	31.604800
571.000000	31.531600
570.000000	31.451900
569.000000	31.384800
568.000000	31.280500
567.000000	31.190900
566.000000	31.090400
565.000000	30.971100
564.000000	30.831300
563.000000	30.699300
562.000000	30.541900
561.000000	30.359400
560.000000	30.191100
559.000000	29.959100
558.000000	29.779400
557.000000	29.572100
556.000000	29.355300
555.000000	29.098700
554.000000	28.846100
553.000000	28.594400
552.000000	28.331500
551.000000	28.034700
550.000000	27.756200
549.000000	27.451200
548.000000	27.137000
547.000000	26.848900
546.000000	26.524300
545.000000	26.185400
544.000000	25.857900
543.000000	25.516100
542.000000	25.150600
541.000000	24.787100
540.000000	24.433900
539.000000	24.059400
538.000000	23.716900
537.000000	23.328100
536.000000	22.952600
535.000000	22.578700
534.000000	22.201700
533.000000	21.832700
532.000000	21.435100
531.000000	21.074000
530.000000	20.674100
529.000000	20.320700
528.000000	19.945200
527.000000	19.588400
526.000000	19.230300
525.000000	18.875700
524.000000	18.510500
523.000000	18.165600
522.000000	17.819300
521.000000	17.480400
520.000000	17.169100
519.000000	16.851500
518.000000	16.520800
517.000000	16.235600
516.000000	15.929300
515.000000	15.662800
514.000000	15.381800
513.000000	15.105700
512.000000	14.851200
511.000000	14.584700
510.000000	14.374000
509.000000	14.131000
508.000000	13.930700
507.000000	13.714100
506.000000	13.535600
505.000000	13.326800
504.000000	13.133900
503.000000	12.955800
502.000000	12.756500
501.000000	12.601100
500.000000	12.429500
499.000000	12.282300
498.000000	12.137600
497.000000	12.006900
496.000000	11.872300
495.000000	11.738600
494.000000	11.603000
493.000000	11.473200
492.000000	11.323900
491.000000	11.231000
490.000000	11.120100
489.000000	11.014600
488.000000	10.904300
487.000000	10.809200
486.000000	10.710600
485.000000	10.602600
484.000000	10.494100
483.000000	10.401900
482.000000	10.294400
481.000000	10.188100
480.000000	10.069900
479.000000	9.962800
478.000000	9.843800
477.000000	9.758900
476.000000	9.641700
475.000000	9.532300
474.000000	9.443300
473.000000	9.347300
472.000000	9.255300
471.000000	9.146800
470.000000	9.063300
469.000000	8.967900
468.000000	8.888600
467.000000	8.795900
466.000000	8.711100
465.000000	8.641900
464.000000	8.545800
463.000000	8.469200
462.000000	8.382900
461.000000	8.312500
460.000000	8.219100
459.000000	8.145800
458.000000	8.076300
457.000000	8.006100
456.000000	7.928100
455.000000	7.868700
454.000000	7.790800
453.000000	7.712200
452.000000	7.635600
451.000000	7.580700
450.000000	7.514000
449.000000	7.461100
448.000000	7.388900
447.000000	7.304300
446.000000	7.246500
445.000000	7.201800
444.000000	7.132600
443.000000	7.056600
442.000000	7.011500
441.000000	6.948100
440.000000	6.894100
439.000000	6.820700
438.000000	6.765400
437.000000	6.690700
436.000000	6.641500
435.000000	6.593200
434.000000	6.541800
433.000000	6.483600
432.000000	6.440600
431.000000	6.383600
430.000000	6.338800
429.000000	6.273300
428.000000	6.222000
427.000000	6.177400
426.000000	6.138000
425.000000	6.108800
424.000000	6.044600
423.000000	6.016700
422.000000	5.964000
421.000000	5.943500
420.000000	5.894900
419.000000	5.855800
418.000000	5.822600
417.000000	5.774000
416.000000	5.749700
415.000000	5.729200
414.000000	5.694000
413.000000	5.655800
412.000000	5.620300
411.000000	5.605200
410.000000	5.573200
409.000000	5.531200
408.000000	5.509100
407.000000	5.475400
406.000000	5.461100
405.000000	5.435900
404.000000	5.418200
403.000000	5.391000
402.000000	5.381400
401.000000	5.355200
400.000000	5.341100
399.000000	5.309000
398.000000	5.284000
397.000000	5.278200
396.000000	5.247300
395.000000	5.246700
394.000000	5.231000
393.000000	5.221300
392.000000	5.209900
391.000000	5.191300
390.000000	5.176800
389.000000	5.171200
388.000000	5.163100
387.000000	5.145800
386.000000	5.112500
385.000000	5.114000
384.000000	5.095100
383.000000	5.062000
382.000000	5.048000
381.000000	5.039600
380.000000	5.040700
379.000000	5.042900
378.000000	5.020700
377.000000	5.023900
376.000000	5.086600
375.000000	4.873200
374.000000	4.471100
373.000000	4.786600
372.000000	4.932800
371.000000	4.920600
370.000000	4.782200
369.000000	4.724700
368.000000	4.792900
367.000000	4.997500
366.000000	5.176100
365.000000	5.021600
364.000000	4.861200
363.000000	4.869500
362.000000	4.916900
361.000000	4.906500
360.000000	4.903800
359.000000	5.001600
358.000000	4.981200
357.000000	4.936800
356.000000	4.986300
355.000000	5.110000
354.000000	5.054300
353.000000	4.879900
352.000000	4.831200
351.000000	4.943000
350.000000	5.155500
349.000000	5.169000
348.000000	4.903500
347.000000	4.780200
346.000000	4.952400
345.000000	5.160800
344.000000	5.170600
343.000000	4.983500
342.000000	4.999300
341.000000	5.166000
340.000000	5.114800
339.000000	5.145400
338.000000	5.147200
337.000000	4.973000
336.000000	5.019800
335.000000	5.154600
334.000000	5.051400
333.000000	4.959600
332.000000	5.143100
331.000000	5.338100
330.000000	5.160100
329.000000	5.110900
328.000000	5.310500
327.000000	5.356400
326.000000	5.124100
325.000000	4.950000
324.000000	5.224100
323.000000	5.603600
322.000000	5.606000
321.000000	5.501600
320.000000	5.599300
319.000000	5.872600
318.000000	6.452100
317.000000	6.753900
316.000000	5.673700
315.000000	4.868600
314.000000	4.892500
313.000000	4.938200
312.000000	4.939500
311.000000	4.937700
310.000000	4.908200
309.000000	4.931100
308.000000	4.927700
307.000000	4.924000
306.000000	4.951600
305.000000	4.942200
304.000000	4.924700
303.000000	4.912100
302.000000	4.903500
301.000000	4.938600
300.000000	4.947800
299.000000	4.942600
298.000000	4.948900
297.000000	4.980500
296.000000	4.976500
295.000000	4.982100
294.000000	5.002000
293.000000	5.040500
292.000000	5.014200
291.000000	4.990200
290.000000	4.975500
289.000000	4.976000
288.000000	4.982500
287.000000	4.969200
286.000000	5.007700
285.000000	5.021400
284.000000	5.018400
283.000000	5.020400
282.000000	5.009100
281.000000	5.029900
280.000000	5.010700
279.000000	5.002000
278.000000	5.000500
277.000000	5.052700
276.000000	5.023900
275.000000	5.059900
274.000000	5.053100
273.000000	5.056700
272.000000	5.060000
271.000000	5.075300
270.000000	5.109700
269.000000	5.105500
268.000000	5.153500
267.000000	5.127500
266.000000	5.163900
265.000000	5.218100
264.000000	5.174200
263.000000	5.203100
262.000000	5.225200
261.000000	5.274600
260.000000	5.288900
259.000000	5.239500
258.000000	5.284200
257.000000	5.309400
256.000000	5.313500
255.000000	5.346400
254.000000	5.333900
253.000000	5.352800
252.000000	5.380700
251.000000	5.383900
250.000000	5.452000
