PE UV       SUBTECH     SPECTRUM    ASCII       PEDS        4.00        
   -1
CICIMAUCR0248-2.ASC
24/06/27
14:42:40.00
24/06/27
14:42:40.00
Vinicio Soto Monge
C. resplendens. Sex F. Ventral
250,000000
1
Lambda 1050
1050L1511233
PerkinElmer UV WinLab 6.3.2.0749 / 2.02.05 Lambda 900 UV/VIS/NIR, Aug  7 2015 09:38:08

0
0
3350/servo 860,8/2
0
0
UV/VIS
1
1
1
DoubleDePol,CommonBeamDepol,RBeamAtt,SBeamAtt,60mm sphere, WB InGaAs Detector
0
0
0
0
Program
Program
3350/servo 860,8/2
3350/0,2 860,8/0,2
3350/0,2 860,8/0,2
0
15.00
 
 
 
0
 
860,8
319,2
860,8
Front
100
on
S:100 R:100
0
0
0
0
 
0
 
 
 
0
 
 
0
0
0
0
0
 
 
 
 
0
0


0
0
#HDR
-1
-1
#GR
nm
%R
1.0
0.0
2500,000000
-1,000000
2251
8
63,654100
4,573200
#DATA
2482.000000	5.705050
2481.000000	5.588083
2480.000000	5.629902
2479.000000	5.605278
2478.000000	5.543504
2477.000000	5.592753
2476.000000	5.616953
2475.000000	5.612707
2474.000000	5.629053
2473.000000	5.661001
2472.000000	5.579592
2471.000000	5.646991
2470.000000	5.626506
2469.000000	5.629371
2468.000000	5.643913
2467.000000	5.643594
2466.000000	5.640410
2465.000000	5.655907
2464.000000	5.648158
2463.000000	5.630114
2462.000000	5.649007
2461.000000	5.681486
2460.000000	5.684352
2459.000000	5.682760
2458.000000	5.704307
2457.000000	5.717786
2456.000000	5.709507
2455.000000	5.744746
2454.000000	5.737529
2453.000000	5.779879
2452.000000	5.782001
2451.000000	5.808855
2450.000000	5.857467
2449.000000	5.850887
2448.000000	5.884321
2447.000000	5.902259
2446.000000	5.933145
2445.000000	5.952357
2444.000000	5.996511
2443.000000	5.995450
2442.000000	5.998952
2441.000000	6.039180
2440.000000	6.070810
2439.000000	6.089490
2438.000000	6.121651
2437.000000	6.159649
2436.000000	6.175252
2435.000000	6.181302
2434.000000	6.211021
2433.000000	6.229914
2432.000000	6.269186
2431.000000	6.297313
2430.000000	6.305274
2429.000000	6.337859
2428.000000	6.342848
2427.000000	6.372461
2426.000000	6.402180
2425.000000	6.434235
2424.000000	6.444318
2423.000000	6.460876
2422.000000	6.471065
2421.000000	6.485182
2420.000000	6.506198
2419.000000	6.523605
2418.000000	6.539632
2417.000000	6.559056
2416.000000	6.576569
2415.000000	6.590473
2414.000000	6.611065
2413.000000	6.617433
2412.000000	6.645772
2411.000000	6.671989
2410.000000	6.660420
2409.000000	6.664241
2408.000000	6.683452
2407.000000	6.700010
2406.000000	6.706803
2405.000000	6.728668
2404.000000	6.749366
2403.000000	6.775582
2402.000000	6.811352
2401.000000	6.839903
2400.000000	6.835021
2399.000000	6.841389
2398.000000	6.849456
2397.000000	6.865589
2396.000000	6.880555
2395.000000	6.895096
2394.000000	6.896052
2393.000000	6.901571
2392.000000	6.924073
2391.000000	6.949440
2390.000000	6.960160
2389.000000	6.964725
2388.000000	6.977780
2387.000000	6.984573
2386.000000	6.989986
2385.000000	7.006650
2384.000000	7.012700
2383.000000	7.008879
2382.000000	7.010683
2381.000000	7.018007
2380.000000	7.032336
2379.000000	7.036688
2378.000000	7.027666
2377.000000	7.031168
2376.000000	7.024375
2375.000000	7.021510
2374.000000	7.015247
2373.000000	7.004846
2372.000000	7.016839
2371.000000	7.034777
2370.000000	7.021616
2369.000000	7.013018
2368.000000	7.001874
2367.000000	6.992109
2366.000000	6.996779
2365.000000	6.987863
2364.000000	6.974065
2363.000000	6.964088
2362.000000	6.957825
2361.000000	6.952412
2360.000000	6.939675
2359.000000	6.930866
2358.000000	6.924603
2357.000000	6.906029
2356.000000	6.899448
2355.000000	6.892974
2354.000000	6.877902
2353.000000	6.874930
2352.000000	6.875248
2351.000000	6.861450
2350.000000	6.870790
2349.000000	6.898917
2348.000000	6.890957
2347.000000	6.880767
2346.000000	6.899554
2345.000000	6.914732
2344.000000	6.924073
2343.000000	6.936916
2342.000000	6.955066
2341.000000	6.963345
2340.000000	6.973853
2339.000000	6.990092
2338.000000	6.999114
2337.000000	7.014823
2336.000000	7.024057
2335.000000	7.018538
2334.000000	7.013761
2333.000000	7.009091
2332.000000	7.010471
2331.000000	7.020554
2330.000000	7.021297
2329.000000	7.010789
2328.000000	7.003784
2327.000000	6.996991
2326.000000	6.990517
2325.000000	6.980115
2324.000000	6.969925
2323.000000	6.945832
2322.000000	6.923860
2321.000000	6.904755
2320.000000	6.891169
2319.000000	6.860601
2318.000000	6.849138
2317.000000	6.817508
2316.000000	6.773141
2315.000000	6.741299
2314.000000	6.720814
2313.000000	6.678039
2312.000000	6.665090
2311.000000	6.648214
2310.000000	6.624969
2309.000000	6.604590
2308.000000	6.562134
2307.000000	6.562771
2306.000000	6.543347
2305.000000	6.522968
2304.000000	6.521164
2303.000000	6.522650
2302.000000	6.548123
2301.000000	6.557251
2300.000000	6.562771
2299.000000	6.583786
2298.000000	6.602573
2297.000000	6.618813
2296.000000	6.653096
2295.000000	6.673369
2294.000000	6.707652
2293.000000	6.728562
2292.000000	6.737053
2291.000000	6.773035
2290.000000	6.785241
2289.000000	6.800631
2288.000000	6.816765
2287.000000	6.827591
2286.000000	6.844786
2285.000000	6.841283
2284.000000	6.829289
2283.000000	6.842981
2282.000000	6.832792
2281.000000	6.807424
2280.000000	6.818145
2279.000000	6.814536
2278.000000	6.800950
2277.000000	6.779934
2276.000000	6.772398
2275.000000	6.763482
2274.000000	6.745014
2273.000000	6.742891
2272.000000	6.726015
2271.000000	6.733126
2270.000000	6.732808
2269.000000	6.738115
2268.000000	6.738539
2267.000000	6.762315
2266.000000	6.787470
2265.000000	6.800419
2264.000000	6.858902
2263.000000	6.904649
2262.000000	6.956658
2261.000000	7.016096
2260.000000	7.074049
2259.000000	7.146755
2258.000000	7.245572
2257.000000	7.319977
2256.000000	7.407542
2255.000000	7.509862
2254.000000	7.612818
2253.000000	7.728617
2252.000000	7.787101
2251.000000	7.909056
2250.000000	8.001717
2249.000000	8.082277
2248.000000	8.177485
2247.000000	8.259957
2246.000000	8.342746
2245.000000	8.416408
2244.000000	8.534330
2243.000000	8.576467
2242.000000	8.643442
2241.000000	8.704260
2240.000000	8.747460
2239.000000	8.797133
2238.000000	8.841076
2237.000000	8.913357
2236.000000	8.941697
2235.000000	8.972477
2234.000000	9.001984
2233.000000	9.018542
2232.000000	9.031067
2231.000000	9.061635
2230.000000	9.079361
2229.000000	9.100589
2228.000000	9.121180
2227.000000	9.081908
2226.000000	9.090187
2225.000000	9.110354
2224.000000	9.092098
2223.000000	9.083500
2222.000000	9.066942
2221.000000	9.037011
2220.000000	9.031491
2219.000000	9.040301
2218.000000	9.009733
2217.000000	9.005699
2216.000000	8.975343
2215.000000	8.952417
2214.000000	8.928641
2213.000000	8.912614
2212.000000	8.866337
2211.000000	8.871432
2210.000000	8.828126
2209.000000	8.822076
2208.000000	8.806155
2207.000000	8.788218
2206.000000	8.782274
2205.000000	8.774844
2204.000000	8.736209
2203.000000	8.751918
2202.000000	8.731539
2201.000000	8.726232
2200.000000	8.721986
2199.000000	8.715830
2198.000000	8.699166
2197.000000	8.691948
2196.000000	8.678044
2195.000000	8.697574
2194.000000	8.674753
2193.000000	8.656922
2192.000000	8.644503
2191.000000	8.655117
2190.000000	8.638029
2189.000000	8.653525
2188.000000	8.637923
2187.000000	8.604807
2186.000000	8.618605
2185.000000	8.598757
2184.000000	8.604488
2183.000000	8.598969
2182.000000	8.606399
2181.000000	8.579652
2180.000000	8.568719
2179.000000	8.564686
2178.000000	8.557044
2177.000000	8.557680
2176.000000	8.537302
2175.000000	8.525520
2174.000000	8.515967
2173.000000	8.545793
2172.000000	8.537195
2171.000000	8.535073
2170.000000	8.520850
2169.000000	8.532950
2168.000000	8.528810
2167.000000	8.535603
2166.000000	8.547809
2165.000000	8.552267
2164.000000	8.561820
2163.000000	8.590584
2162.000000	8.573814
2161.000000	8.580819
2160.000000	8.607566
2159.000000	8.612555
2158.000000	8.643548
2157.000000	8.653313
2156.000000	8.673267
2155.000000	8.709249
2154.000000	8.709886
2153.000000	8.748733
2152.000000	8.739181
2151.000000	8.778559
2150.000000	8.790022
2149.000000	8.822501
2148.000000	8.844472
2147.000000	8.864002
2146.000000	8.915162
2145.000000	8.938937
2144.000000	8.962712
2143.000000	8.987231
2142.000000	8.988611
2141.000000	9.012386
2140.000000	9.052826
2139.000000	9.060468
2138.000000	9.094857
2137.000000	9.123728
2136.000000	9.139224
2135.000000	9.141665
2134.000000	9.168625
2133.000000	9.178071
2132.000000	9.202590
2131.000000	9.213735
2130.000000	9.230505
2129.000000	9.234963
2128.000000	9.235493
2127.000000	9.242923
2126.000000	9.263621
2125.000000	9.262665
2124.000000	9.277950
2123.000000	9.281134
2122.000000	9.278268
2121.000000	9.277525
2120.000000	9.278162
2119.000000	9.272218
2118.000000	9.269883
2117.000000	9.268715
2116.000000	9.273067
2115.000000	9.263621
2114.000000	9.238890
2113.000000	9.232522
2112.000000	9.241013
2111.000000	9.228276
2110.000000	9.214902
2109.000000	9.203864
2108.000000	9.197920
2107.000000	9.185077
2106.000000	9.173401
2105.000000	9.148777
2104.000000	9.141878
2103.000000	9.152704
2102.000000	9.137101
2101.000000	9.113750
2100.000000	9.101013
2099.000000	9.086685
2098.000000	9.076601
2097.000000	9.068428
2096.000000	9.048792
2095.000000	9.029475
2094.000000	9.021514
2093.000000	9.012068
2092.000000	9.006442
2091.000000	8.995828
2090.000000	8.982348
2089.000000	8.972796
2088.000000	8.964411
2087.000000	8.953903
2086.000000	8.942440
2085.000000	8.935965
2084.000000	8.920681
2083.000000	8.917072
2082.000000	8.903805
2081.000000	8.875465
2080.000000	8.847444
2079.000000	8.818680
2078.000000	8.803820
2077.000000	8.786625
2076.000000	8.765503
2075.000000	8.747884
2074.000000	8.714981
2073.000000	8.682077
2072.000000	8.652570
2071.000000	8.632191
2070.000000	8.597165
2069.000000	8.550675
2068.000000	8.525308
2067.000000	8.495588
2066.000000	8.453557
2065.000000	8.414391
2064.000000	8.399850
2063.000000	8.365672
2062.000000	8.315574
2061.000000	8.292754
2060.000000	8.279168
2059.000000	8.244460
2058.000000	8.224824
2057.000000	8.228857
2056.000000	8.206992
2055.000000	8.174938
2054.000000	8.177910
2053.000000	8.182049
2052.000000	8.194149
2051.000000	8.198926
2050.000000	8.208903
2049.000000	8.220791
2048.000000	8.228008
2047.000000	8.263778
2046.000000	8.299971
2045.000000	8.341366
2044.000000	8.377029
2043.000000	8.414391
2042.000000	8.452071
2041.000000	8.484868
2040.000000	8.508856
2039.000000	8.535073
2038.000000	8.570630
2037.000000	8.601198
2036.000000	8.643867
2035.000000	8.675709
2034.000000	8.686641
2033.000000	8.698847
2032.000000	8.738013
2031.000000	8.756375
2030.000000	8.773146
2029.000000	8.776011
2028.000000	8.810507
2027.000000	8.828339
2026.000000	8.852220
2025.000000	8.843623
2024.000000	8.846913
2023.000000	8.854131
2022.000000	8.854980
2021.000000	8.880029
2020.000000	8.885654
2019.000000	8.878331
2018.000000	8.882789
2017.000000	8.884805
2016.000000	8.897755
2015.000000	8.888202
2014.000000	8.883319
2013.000000	8.881833
2012.000000	8.867611
2011.000000	8.841500
2010.000000	8.827490
2009.000000	8.826428
2008.000000	8.817618
2007.000000	8.793949
2006.000000	8.770811
2005.000000	8.742046
2004.000000	8.747141
2003.000000	8.719863
2002.000000	8.678999
2001.000000	8.667430
2000.000000	8.635057
1999.000000	8.624443
1998.000000	8.582942
1997.000000	8.559803
1996.000000	8.523928
1995.000000	8.495376
1994.000000	8.457802
1993.000000	8.428614
1992.000000	8.403565
1991.000000	8.359304
1990.000000	8.334998
1989.000000	8.294983
1988.000000	8.270464
1987.000000	8.226522
1986.000000	8.170905
1985.000000	8.146386
1984.000000	8.109025
1983.000000	8.065189
1982.000000	8.022626
1981.000000	8.006175
1980.000000	7.945887
1979.000000	7.931558
1978.000000	7.878275
1977.000000	7.857153
1976.000000	7.814060
1975.000000	7.774470
1974.000000	7.758018
1973.000000	7.718428
1972.000000	7.690513
1971.000000	7.643280
1970.000000	7.622795
1969.000000	7.580021
1968.000000	7.531621
1967.000000	7.517186
1966.000000	7.493410
1965.000000	7.455730
1964.000000	7.442887
1963.000000	7.408285
1962.000000	7.384510
1961.000000	7.361159
1960.000000	7.336110
1959.000000	7.298218
1958.000000	7.252047
1957.000000	7.229863
1956.000000	7.224981
1955.000000	7.191865
1954.000000	7.127862
1953.000000	7.134974
1952.000000	7.088060
1951.000000	7.066301
1950.000000	7.027772
1949.000000	7.029895
1948.000000	6.986908
1947.000000	7.003678
1946.000000	6.979266
1945.000000	6.927257
1944.000000	6.932989
1943.000000	6.935111
1942.000000	6.906347
1941.000000	6.915263
1940.000000	6.894566
1939.000000	6.885119
1938.000000	6.877689
1937.000000	6.858372
1936.000000	6.865271
1935.000000	6.840752
1934.000000	6.877583
1933.000000	6.863467
1932.000000	6.890320
1931.000000	6.913353
1930.000000	6.895415
1929.000000	6.952837
1928.000000	6.964300
1927.000000	6.993701
1926.000000	6.991896
1925.000000	7.048788
1924.000000	7.061843
1923.000000	7.110986
1922.000000	7.163419
1921.000000	7.205133
1920.000000	7.239416
1919.000000	7.287391
1918.000000	7.310955
1917.000000	7.382175
1916.000000	7.444479
1915.000000	7.518672
1914.000000	7.595305
1913.000000	7.651666
1912.000000	7.728724
1911.000000	7.795167
1910.000000	7.868298
1909.000000	7.967858
1908.000000	8.037805
1907.000000	8.147448
1906.000000	8.256772
1905.000000	8.358030
1904.000000	8.495058
1903.000000	8.643548
1902.000000	8.741940
1901.000000	8.907732
1900.000000	9.058239
1899.000000	9.219679
1898.000000	9.405849
1897.000000	9.567182
1896.000000	9.749956
1895.000000	9.923708
1894.000000	10.128984
1893.000000	10.331075
1892.000000	10.570847
1891.000000	10.813165
1890.000000	11.067372
1889.000000	11.346203
1888.000000	11.598817
1887.000000	11.910764
1886.000000	12.207532
1885.000000	12.537629
1884.000000	12.882480
1883.000000	13.247178
1882.000000	13.645948
1881.000000	13.990055
1880.000000	14.379060
1879.000000	14.773053
1878.000000	15.160784
1877.000000	15.537477
1876.000000	15.920750
1875.000000	16.280991
1874.000000	16.677532
1873.000000	17.034482
1872.000000	17.397376
1871.000000	17.749232
1870.000000	18.084529
1869.000000	18.404755
1868.000000	18.754488
1867.000000	19.019839
1866.000000	19.290497
1865.000000	19.497577
1864.000000	19.711875
1863.000000	19.915028
1862.000000	20.098014
1861.000000	20.281849
1860.000000	20.468338
1859.000000	20.648034
1858.000000	20.791854
1857.000000	20.929837
1856.000000	21.040753
1855.000000	21.151246
1854.000000	21.246029
1853.000000	21.337628
1852.000000	21.396642
1851.000000	21.436233
1850.000000	21.497264
1849.000000	21.542904
1848.000000	21.585360
1847.000000	21.612851
1846.000000	21.621872
1845.000000	21.612001
1844.000000	21.603616
1843.000000	21.613275
1842.000000	21.619537
1841.000000	21.648726
1840.000000	21.663480
1839.000000	21.653608
1838.000000	21.624526
1837.000000	21.594594
1836.000000	21.573579
1835.000000	21.564557
1834.000000	21.526877
1833.000000	21.478477
1832.000000	21.451942
1831.000000	21.436870
1830.000000	21.399296
1829.000000	21.351957
1828.000000	21.316188
1827.000000	21.258341
1826.000000	21.203042
1825.000000	21.173429
1824.000000	21.116432
1823.000000	21.076311
1822.000000	21.073763
1821.000000	21.071216
1820.000000	21.050094
1819.000000	21.012732
1818.000000	20.964969
1817.000000	20.931960
1816.000000	20.915826
1815.000000	20.909670
1814.000000	20.910944
1813.000000	20.871566
1812.000000	20.837282
1811.000000	20.815417
1810.000000	20.800664
1809.000000	20.767654
1808.000000	20.728170
1807.000000	20.685926
1806.000000	20.654615
1805.000000	20.622136
1804.000000	20.578830
1803.000000	20.538285
1802.000000	20.492432
1801.000000	20.465791
1800.000000	20.413357
1799.000000	20.347338
1798.000000	20.313479
1797.000000	20.288005
1796.000000	20.236209
1795.000000	20.191948
1794.000000	20.152889
1793.000000	20.100349
1792.000000	20.051631
1791.000000	20.001957
1790.000000	19.973511
1789.000000	19.939122
1788.000000	19.877454
1787.000000	19.839031
1786.000000	19.805385
1785.000000	19.766219
1784.000000	19.734271
1783.000000	19.701049
1782.000000	19.640124
1781.000000	19.575166
1780.000000	19.525280
1779.000000	19.481338
1778.000000	19.433787
1777.000000	19.375834
1776.000000	19.301324
1775.000000	19.247723
1774.000000	19.186267
1773.000000	19.103266
1772.000000	19.049134
1771.000000	18.983433
1770.000000	18.897035
1769.000000	18.837702
1768.000000	18.763085
1767.000000	18.683480
1766.000000	18.625103
1765.000000	18.579462
1764.000000	18.515990
1763.000000	18.473853
1762.000000	18.446468
1761.000000	18.449759
1760.000000	18.469076
1759.000000	18.499433
1758.000000	18.535520
1757.000000	18.601858
1756.000000	18.665224
1755.000000	18.702267
1754.000000	18.749712
1753.000000	18.787073
1752.000000	18.811698
1751.000000	18.845238
1750.000000	18.863282
1749.000000	18.870500
1748.000000	18.862645
1747.000000	18.847892
1746.000000	18.808620
1745.000000	18.764996
1744.000000	18.702055
1743.000000	18.633276
1742.000000	18.537537
1741.000000	18.418341
1740.000000	18.301693
1739.000000	18.178676
1738.000000	18.039632
1737.000000	17.890292
1736.000000	17.785107
1735.000000	17.675464
1734.000000	17.571128
1733.000000	17.501925
1732.000000	17.481015
1731.000000	17.436224
1730.000000	17.439620
1729.000000	17.486959
1728.000000	17.548626
1727.000000	17.606685
1726.000000	17.682151
1725.000000	17.734054
1724.000000	17.792431
1723.000000	17.851976
1722.000000	17.903560
1721.000000	17.950686
1720.000000	18.014158
1719.000000	18.070307
1718.000000	18.163816
1717.000000	18.218054
1716.000000	18.279191
1715.000000	18.361025
1714.000000	18.453155
1713.000000	18.535839
1712.000000	18.637946
1711.000000	18.715216
1710.000000	18.788559
1709.000000	18.828468
1708.000000	18.841099
1707.000000	18.868801
1706.000000	18.862964
1705.000000	18.852456
1704.000000	18.831015
1703.000000	18.787285
1702.000000	18.728802
1701.000000	18.666498
1700.000000	18.576915
1699.000000	18.484254
1698.000000	18.382041
1697.000000	18.277599
1696.000000	18.171034
1695.000000	18.080390
1694.000000	18.037509
1693.000000	18.036554
1692.000000	18.057676
1691.000000	18.098965
1690.000000	18.198524
1689.000000	18.297341
1688.000000	18.398175
1687.000000	18.476931
1686.000000	18.553670
1685.000000	18.640705
1684.000000	18.712244
1683.000000	18.812016
1682.000000	18.940128
1681.000000	19.120036
1680.000000	19.391331
1679.000000	19.713573
1678.000000	20.051524
1677.000000	20.435434
1676.000000	20.810110
1675.000000	21.167910
1674.000000	21.495141
1673.000000	21.790424
1672.000000	22.046116
1671.000000	22.301384
1670.000000	22.503369
1669.000000	22.702913
1668.000000	22.879106
1667.000000	23.050311
1666.000000	23.156133
1665.000000	23.280848
1664.000000	23.390066
1663.000000	23.476783
1662.000000	23.554478
1661.000000	23.606911
1660.000000	23.690338
1659.000000	23.754022
1658.000000	23.791808
1657.000000	23.833627
1656.000000	23.854962
1655.000000	23.879268
1654.000000	23.883726
1653.000000	23.893491
1652.000000	23.876933
1651.000000	23.864833
1650.000000	23.834476
1649.000000	23.833733
1648.000000	23.802740
1647.000000	23.764848
1646.000000	23.730671
1645.000000	23.684606
1644.000000	23.642575
1643.000000	23.598632
1642.000000	23.548322
1641.000000	23.498648
1640.000000	23.462773
1639.000000	23.394206
1638.000000	23.337421
1637.000000	23.286473
1636.000000	23.238604
1635.000000	23.171523
1634.000000	23.107733
1633.000000	23.043836
1632.000000	22.970918
1631.000000	22.906384
1630.000000	22.843868
1629.000000	22.765430
1628.000000	22.701746
1627.000000	22.621822
1626.000000	22.537334
1625.000000	22.460488
1624.000000	22.406357
1623.000000	22.317517
1622.000000	22.263173
1621.000000	22.166055
1620.000000	22.097382
1619.000000	22.032211
1618.000000	21.976806
1617.000000	21.909619
1616.000000	21.825874
1615.000000	21.754017
1614.000000	21.698612
1613.000000	21.621554
1612.000000	21.561479
1611.000000	21.487711
1610.000000	21.420630
1609.000000	21.355991
1608.000000	21.295066
1607.000000	21.222254
1606.000000	21.154430
1605.000000	21.067289
1604.000000	20.994264
1603.000000	20.922725
1602.000000	20.844924
1601.000000	20.765531
1600.000000	20.703545
1599.000000	20.620650
1598.000000	20.558664
1597.000000	20.486063
1596.000000	20.406140
1595.000000	20.325473
1594.000000	20.274738
1593.000000	20.208825
1592.000000	20.135269
1591.000000	20.065641
1590.000000	20.000471
1589.000000	19.961623
1588.000000	19.891995
1587.000000	19.826613
1586.000000	19.774922
1585.000000	19.720472
1584.000000	19.652012
1583.000000	19.604355
1582.000000	19.559245
1581.000000	19.495455
1580.000000	19.451725
1579.000000	19.410436
1578.000000	19.363628
1577.000000	19.302916
1576.000000	19.273196
1575.000000	19.246343
1574.000000	19.212378
1573.000000	19.174698
1572.000000	19.148481
1571.000000	19.118974
1570.000000	19.091696
1569.000000	19.091272
1568.000000	19.066541
1567.000000	19.049240
1566.000000	19.026314
1565.000000	19.015169
1564.000000	18.984919
1563.000000	18.975579
1562.000000	18.955094
1561.000000	18.940234
1560.000000	18.915609
1559.000000	18.884404
1558.000000	18.855321
1557.000000	18.826027
1556.000000	18.793017
1555.000000	18.770621
1554.000000	18.736232
1553.000000	18.685921
1552.000000	18.630091
1551.000000	18.583708
1550.000000	18.545922
1549.000000	18.501980
1548.000000	18.460054
1547.000000	18.404437
1546.000000	18.346272
1545.000000	18.303179
1544.000000	18.261890
1543.000000	18.214339
1542.000000	18.171459
1541.000000	18.134415
1540.000000	18.106394
1539.000000	18.069988
1538.000000	18.030079
1537.000000	18.001422
1536.000000	17.965228
1535.000000	17.923408
1534.000000	17.884667
1533.000000	17.841574
1532.000000	17.793917
1531.000000	17.746684
1530.000000	17.698815
1529.000000	17.650415
1528.000000	17.607322
1527.000000	17.546291
1526.000000	17.487596
1525.000000	17.429855
1524.000000	17.379014
1523.000000	17.331038
1522.000000	17.282532
1521.000000	17.215239
1520.000000	17.154527
1519.000000	17.101881
1518.000000	17.047113
1517.000000	16.985551
1516.000000	16.930677
1515.000000	16.882383
1514.000000	16.804476
1513.000000	16.738987
1512.000000	16.689525
1511.000000	16.617244
1510.000000	16.552286
1509.000000	16.502931
1508.000000	16.448268
1507.000000	16.394986
1506.000000	16.333212
1505.000000	16.262735
1504.000000	16.188118
1503.000000	16.125177
1502.000000	16.070302
1501.000000	16.001948
1500.000000	15.943995
1499.000000	15.896975
1498.000000	15.833821
1497.000000	15.771623
1496.000000	15.730016
1495.000000	15.686710
1494.000000	15.647651
1493.000000	15.612518
1492.000000	15.570274
1491.000000	15.522936
1490.000000	15.482496
1489.000000	15.453308
1488.000000	15.420298
1487.000000	15.385059
1486.000000	15.354066
1485.000000	15.322649
1484.000000	15.305029
1483.000000	15.279025
1482.000000	15.242831
1481.000000	15.214173
1480.000000	15.173415
1479.000000	15.156433
1478.000000	15.125546
1477.000000	15.102513
1476.000000	15.100815
1475.000000	15.099435
1474.000000	15.093173
1473.000000	15.099966
1472.000000	15.083833
1471.000000	15.079693
1470.000000	15.080648
1469.000000	15.068336
1468.000000	15.073325
1467.000000	15.072051
1466.000000	15.085106
1465.000000	15.087335
1464.000000	15.093810
1463.000000	15.101346
1462.000000	15.113552
1461.000000	15.136054
1460.000000	15.157494
1459.000000	15.178828
1458.000000	15.210352
1457.000000	15.246652
1456.000000	15.289533
1455.000000	15.328380
1454.000000	15.361921
1453.000000	15.418175
1452.000000	15.457022
1451.000000	15.512746
1450.000000	15.577810
1449.000000	15.622495
1448.000000	15.657628
1447.000000	15.723647
1446.000000	15.807498
1445.000000	15.875110
1444.000000	15.909075
1443.000000	15.971379
1442.000000	16.043342
1441.000000	16.117004
1440.000000	16.208391
1439.000000	16.277488
1438.000000	16.357730
1437.000000	16.456547
1436.000000	16.527555
1435.000000	16.619579
1434.000000	16.721474
1433.000000	16.827508
1432.000000	16.930252
1431.000000	17.032571
1430.000000	17.129265
1429.000000	17.235300
1428.000000	17.386550
1427.000000	17.517952
1426.000000	17.667397
1425.000000	17.822999
1424.000000	17.976691
1423.000000	18.140678
1422.000000	18.307212
1421.000000	18.472367
1420.000000	18.664906
1419.000000	18.902872
1418.000000	19.104858
1417.000000	19.320111
1416.000000	19.508616
1415.000000	19.780548
1414.000000	20.046005
1413.000000	20.313267
1412.000000	20.592098
1411.000000	20.812870
1410.000000	21.139783
1409.000000	21.491638
1408.000000	21.865889
1407.000000	22.223583
1406.000000	22.599957
1405.000000	22.975694
1404.000000	23.398770
1403.000000	23.790640
1402.000000	24.211700
1401.000000	24.629468
1400.000000	25.136077
1399.000000	25.601821
1398.000000	26.019908
1397.000000	26.396495
1396.000000	26.816174
1395.000000	27.351228
1394.000000	27.841385
1393.000000	28.268600
1392.000000	28.697195
1391.000000	29.220256
1390.000000	29.736841
1389.000000	30.230819
1388.000000	30.793682
1387.000000	31.429357
1386.000000	32.058770
1385.000000	32.673217
1384.000000	33.313987
1383.000000	33.966432
1382.000000	34.664200
1381.000000	35.307835
1380.000000	35.858704
1379.000000	36.308315
1378.000000	36.697214
1377.000000	37.051723
1376.000000	37.364307
1375.000000	37.656299
1374.000000	37.931097
1373.000000	38.235295
1372.000000	38.589168
1371.000000	38.940174
1370.000000	39.302538
1369.000000	39.651846
1368.000000	39.960502
1367.000000	40.300364
1366.000000	40.606155
1365.000000	40.863970
1364.000000	41.120087
1363.000000	41.346484
1362.000000	41.564815
1361.000000	41.787922
1360.000000	41.976216
1359.000000	42.120354
1358.000000	42.225327
1357.000000	42.372650
1356.000000	42.543855
1355.000000	42.761230
1354.000000	43.037514
1353.000000	43.389688
1352.000000	43.690809
1351.000000	44.127470
1350.000000	44.563814
1349.000000	45.011196
1348.000000	45.442657
1347.000000	45.857666
1346.000000	46.272675
1345.000000	46.612219
1344.000000	46.976599
1343.000000	47.392139
1342.000000	47.741659
1341.000000	48.086828
1340.000000	48.468827
1339.000000	48.824716
1338.000000	49.177740
1337.000000	49.513462
1336.000000	49.862558
1335.000000	50.205922
1334.000000	50.548968
1333.000000	50.892545
1332.000000	51.196213
1331.000000	51.513891
1330.000000	51.842926
1329.000000	52.153069
1328.000000	52.446547
1327.000000	52.749684
1326.000000	53.027348
1325.000000	53.309363
1324.000000	53.572167
1323.000000	53.845372
1322.000000	54.105735
1321.000000	54.338501
1320.000000	54.581562
1319.000000	54.807323
1318.000000	55.034252
1317.000000	55.243985
1316.000000	55.458707
1315.000000	55.672368
1314.000000	55.852170
1313.000000	56.045982
1312.000000	56.236398
1311.000000	56.413228
1310.000000	56.577215
1309.000000	56.742051
1308.000000	56.903597
1307.000000	57.024916
1306.000000	57.128190
1305.000000	57.275195
1304.000000	57.394815
1303.000000	57.489280
1302.000000	57.570265
1301.000000	57.670674
1300.000000	57.753782
1299.000000	57.837421
1298.000000	57.909066
1297.000000	57.956935
1296.000000	58.027625
1295.000000	58.060634
1294.000000	58.115084
1293.000000	58.161998
1292.000000	58.191506
1291.000000	58.212734
1290.000000	58.245213
1289.000000	58.248291
1288.000000	58.268139
1287.000000	58.254128
1286.000000	58.238950
1285.000000	58.232157
1284.000000	58.209443
1283.000000	58.185456
1282.000000	58.139391
1281.000000	58.097147
1280.000000	58.077511
1279.000000	58.033887
1278.000000	57.998861
1277.000000	57.963834
1276.000000	57.932204
1275.000000	57.898664
1274.000000	57.870431
1273.000000	57.824153
1272.000000	57.813221
1271.000000	57.791038
1270.000000	57.751447
1269.000000	57.722471
1268.000000	57.703790
1267.000000	57.673752
1266.000000	57.646687
1265.000000	57.620576
1264.000000	57.587566
1263.000000	57.538423
1262.000000	57.502866
1261.000000	57.472404
1260.000000	57.422730
1259.000000	57.384626
1258.000000	57.333891
1257.000000	57.294088
1256.000000	57.247174
1255.000000	57.184976
1254.000000	57.109085
1253.000000	57.061428
1252.000000	56.991269
1251.000000	56.910496
1250.000000	56.829723
1249.000000	56.724432
1248.000000	56.641324
1247.000000	56.564054
1246.000000	56.456321
1245.000000	56.344343
1244.000000	56.238946
1243.000000	56.135989
1242.000000	56.009152
1241.000000	55.873716
1240.000000	55.748258
1239.000000	55.631079
1238.000000	55.513263
1237.000000	55.378359
1236.000000	55.249504
1235.000000	55.125108
1234.000000	54.984790
1233.000000	54.846595
1232.000000	54.712434
1231.000000	54.566384
1230.000000	54.419486
1229.000000	54.277895
1228.000000	54.113589
1227.000000	53.945250
1226.000000	53.791453
1225.000000	53.625874
1224.000000	53.454988
1223.000000	53.277627
1222.000000	53.104512
1221.000000	52.935961
1220.000000	52.756265
1219.000000	52.585803
1218.000000	52.415873
1217.000000	52.243288
1216.000000	52.071977
1215.000000	51.919984
1214.000000	51.768204
1213.000000	51.606445
1212.000000	51.452754
1211.000000	51.302141
1210.000000	51.156091
1209.000000	51.000490
1208.000000	50.863568
1207.000000	50.732273
1206.000000	50.609574
1205.000000	50.478172
1204.000000	50.355474
1203.000000	50.284891
1202.000000	50.207514
1201.000000	50.119948
1200.000000	50.050745
1199.000000	49.981329
1198.000000	49.905014
1197.000000	49.813096
1196.000000	49.695493
1195.000000	49.551566
1194.000000	49.365608
1193.000000	49.137618
1192.000000	48.882987
1191.000000	48.589297
1190.000000	48.261323
1189.000000	47.916897
1188.000000	47.590727
1187.000000	47.310092
1186.000000	47.123497
1185.000000	47.001542
1184.000000	46.983392
1183.000000	47.086773
1182.000000	47.288652
1181.000000	47.582130
1180.000000	47.946829
1179.000000	48.372452
1178.000000	48.815482
1177.000000	49.231447
1176.000000	49.609094
1175.000000	49.960101
1174.000000	50.293488
1173.000000	50.578687
1172.000000	50.864842
1171.000000	51.154181
1170.000000	51.464748
1169.000000	51.754724
1168.000000	52.066670
1167.000000	52.377237
1166.000000	52.714870
1165.000000	53.045498
1164.000000	53.401811
1163.000000	53.773303
1162.000000	54.158168
1161.000000	54.512253
1160.000000	54.888308
1159.000000	55.254175
1158.000000	55.645514
1157.000000	56.001828
1156.000000	56.358672
1155.000000	56.701187
1154.000000	57.004961
1153.000000	57.294831
1152.000000	57.551054
1151.000000	57.759938
1150.000000	57.960119
1149.000000	58.157222
1148.000000	58.322483
1147.000000	58.503983
1146.000000	58.714672
1145.000000	58.976839
1144.000000	59.241765
1143.000000	59.561567
1142.000000	59.907691
1141.000000	60.301153
1140.000000	60.718285
1139.000000	61.163757
1138.000000	61.615597
1137.000000	62.088559
1136.000000	62.588162
1135.000000	63.106764
1134.000000	63.657739
1133.000000	64.191307
1132.000000	64.627438
1131.000000	65.032152
1130.000000	65.430603
1129.000000	65.785006
1128.000000	66.116058
1127.000000	66.365276
1126.000000	66.577663
1125.000000	66.785592
1124.000000	66.938328
1123.000000	67.075780
1122.000000	67.192004
1121.000000	67.273095
1120.000000	67.331366
1119.000000	67.397916
1118.000000	67.456294
1117.000000	67.499068
1116.000000	67.521358
1115.000000	67.533352
1114.000000	67.543860
1113.000000	67.548318
1112.000000	67.550016
1111.000000	67.562753
1110.000000	67.548636
1109.000000	67.556172
1108.000000	67.549697
1107.000000	67.556490
1106.000000	67.557552
1105.000000	67.557127
1104.000000	67.544603
1103.000000	67.547787
1102.000000	67.547999
1101.000000	67.538022
1100.000000	67.524542
1099.000000	67.517749
1098.000000	67.503632
1097.000000	67.492488
1096.000000	67.464148
1095.000000	67.445149
1094.000000	67.440160
1093.000000	67.377325
1092.000000	67.359494
1091.000000	67.352064
1090.000000	67.303558
1089.000000	67.273201
1088.000000	67.213338
1087.000000	67.185423
1086.000000	67.116644
1085.000000	67.096265
1084.000000	67.024302
1083.000000	66.986410
1082.000000	66.927396
1081.000000	66.861164
1080.000000	66.798541
1079.000000	66.727640
1078.000000	66.691976
1077.000000	66.615661
1076.000000	66.540302
1075.000000	66.507929
1074.000000	66.431826
1073.000000	66.350204
1072.000000	66.293313
1071.000000	66.215936
1070.000000	66.159788
1069.000000	66.079546
1068.000000	66.005460
1067.000000	65.932754
1066.000000	65.872254
1065.000000	65.785537
1064.000000	65.712194
1063.000000	65.627600
1062.000000	65.546402
1061.000000	65.455546
1060.000000	65.397806
1059.000000	65.308542
1058.000000	65.224691
1057.000000	65.112606
1056.000000	65.030454
1055.000000	64.939810
1054.000000	64.865087
1053.000000	64.758416
1052.000000	64.685285
1051.000000	64.586999
1050.000000	64.498478
1049.000000	64.393929
1048.000000	64.334384
1047.000000	64.250958
1046.000000	64.178464
1045.000000	64.086971
1044.000000	64.026683
1043.000000	63.919163
1042.000000	63.828837
1041.000000	63.775449
1040.000000	63.682682
1039.000000	63.600211
1038.000000	63.504048
1037.000000	63.429962
1036.000000	63.338256
1035.000000	63.243261
1034.000000	63.136377
1033.000000	63.052845
1032.000000	62.951374
1031.000000	62.865719
1030.000000	62.744188
1029.000000	62.658957
1028.000000	62.556850
1027.000000	62.450391
1026.000000	62.349452
1025.000000	62.259126
1024.000000	62.145344
1023.000000	62.027634
1022.000000	61.910455
1021.000000	61.796142
1020.000000	61.706771
1019.000000	61.593413
1018.000000	61.491731
1017.000000	61.388350
1016.000000	61.295902
1015.000000	61.233809
1014.000000	61.127138
1013.000000	61.046153
1012.000000	60.960286
1011.000000	60.902545
1010.000000	60.834827
1009.000000	60.776769
1008.000000	60.734843
1007.000000	60.697800
1006.000000	60.635920
1005.000000	60.594207
1004.000000	60.547081
1003.000000	60.522138
1002.000000	60.474481
1001.000000	60.438181
1000.000000	60.377999
999.000000	60.344883
998.000000	60.305930
997.000000	60.263367
996.000000	60.237257
995.000000	60.206051
994.000000	60.186946
993.000000	60.131541
992.000000	60.094604
991.000000	60.078258
990.000000	60.058410
989.000000	60.026143
988.000000	59.999821
987.000000	59.998335
986.000000	59.969252
985.000000	59.959699
984.000000	59.948555
983.000000	59.945370
982.000000	59.940594
981.000000	59.912255
980.000000	59.925734
979.000000	59.929025
978.000000	59.920958
977.000000	59.925416
976.000000	59.939745
975.000000	59.959593
974.000000	59.951739
973.000000	59.962035
972.000000	59.968827
971.000000	59.976894
970.000000	59.976576
969.000000	59.998016
968.000000	60.017228
967.000000	60.032936
966.000000	60.052148
965.000000	60.073482
964.000000	60.105006
963.000000	60.133770
962.000000	60.140457
961.000000	60.158607
960.000000	60.195331
959.000000	60.242988
958.000000	60.281199
957.000000	60.315588
956.000000	60.363670
955.000000	60.399333
954.000000	60.459090
953.000000	60.494860
952.000000	60.525534
951.000000	60.579560
950.000000	60.618089
949.000000	60.652584
948.000000	60.704593
947.000000	60.747580
946.000000	60.774115
945.000000	60.794388
944.000000	60.824638
943.000000	60.860301
942.000000	60.854357
941.000000	60.854676
940.000000	60.884820
939.000000	60.896920
938.000000	60.894054
937.000000	60.902121
936.000000	60.919103
935.000000	60.909869
934.000000	60.905835
933.000000	60.916662
932.000000	60.918785
931.000000	60.927382
930.000000	60.920907
929.000000	60.891825
928.000000	60.879088
927.000000	60.880256
926.000000	60.869854
925.000000	60.863379
924.000000	60.832705
923.000000	60.818270
922.000000	60.800650
921.000000	60.797148
920.000000	60.775283
919.000000	60.745776
918.000000	60.726564
917.000000	60.701727
916.000000	60.663729
915.000000	60.630189
914.000000	60.592933
913.000000	60.560030
912.000000	60.525322
911.000000	60.494860
910.000000	60.465565
909.000000	60.435952
908.000000	60.419181
907.000000	60.395406
906.000000	60.387658
905.000000	60.380865
904.000000	60.377574
903.000000	60.368128
902.000000	60.367809
901.000000	60.352525
900.000000	60.351888
899.000000	60.363458
898.000000	60.361229
897.000000	60.387552
896.000000	60.392540
895.000000	60.371949
894.000000	60.388507
893.000000	60.397423
892.000000	60.382032
891.000000	60.370781
890.000000	60.348173
889.000000	60.349553
888.000000	60.333845
887.000000	60.319622
886.000000	60.291813
885.000000	60.254133
884.000000	60.211677
883.000000	60.168372
882.000000	60.128781
881.000000	60.072102
880.000000	60.025506
879.000000	59.938896
878.000000	59.882429
877.000000	59.808131
876.000000	59.741156
875.000000	59.607207
874.000000	59.453409
873.000000	59.309695
872.000000	59.110045
871.000000	58.912624
870.000000	58.796188
869.000000	58.771988
868.000000	58.773792
867.000000	58.803618
866.000000	58.818265
865.000000	58.804467
864.000000	58.794914
863.000000	58.789819
862.000000	58.801919
861.000000	58.798841
860.000000	58.790987
859.000000	58.776233
858.000000	58.792367
857.000000	58.424000
856.000000	59.104300
855.000000	58.848800
854.000000	58.534300
853.000000	58.793400
852.000000	58.891700
851.000000	58.971200
850.000000	58.948800
849.000000	59.182100
848.000000	59.035300
847.000000	58.929700
846.000000	59.083000
845.000000	58.815000
844.000000	59.078600
843.000000	59.037000
842.000000	58.751000
841.000000	58.726800
840.000000	58.723100
839.000000	58.832000
838.000000	58.581000
837.000000	58.638700
836.000000	58.978700
835.000000	58.576500
834.000000	58.444700
833.000000	58.213200
832.000000	58.244100
831.000000	58.301200
830.000000	58.258600
829.000000	58.176900
828.000000	58.145200
827.000000	58.170100
826.000000	58.017000
825.000000	58.007200
824.000000	57.938400
823.000000	57.694800
822.000000	57.674100
821.000000	57.590100
820.000000	57.398300
819.000000	57.449600
818.000000	57.462800
817.000000	57.305400
816.000000	57.112000
815.000000	56.923000
814.000000	57.036000
813.000000	56.737100
812.000000	56.837700
811.000000	56.711200
810.000000	56.618600
809.000000	56.419300
808.000000	56.323200
807.000000	56.187500
806.000000	56.097000
805.000000	56.014400
804.000000	56.012700
803.000000	55.876700
802.000000	55.767400
801.000000	55.366900
800.000000	55.569700
799.000000	55.282500
798.000000	55.303300
797.000000	54.991200
796.000000	54.845100
795.000000	54.726700
794.000000	54.552700
793.000000	54.580500
792.000000	54.326200
791.000000	54.313600
790.000000	54.113500
789.000000	54.033900
788.000000	53.939400
787.000000	53.863800
786.000000	53.763900
785.000000	53.589000
784.000000	53.446600
783.000000	53.342700
782.000000	53.189200
781.000000	53.042900
780.000000	52.946900
779.000000	52.726600
778.000000	52.472000
777.000000	52.466700
776.000000	52.352000
775.000000	52.174200
774.000000	52.029600
773.000000	51.932100
772.000000	51.655000
771.000000	51.595800
770.000000	51.332600
769.000000	51.230000
768.000000	51.108300
767.000000	50.988700
766.000000	50.833900
765.000000	50.600100
764.000000	50.433300
763.000000	50.296400
762.000000	50.118500
761.000000	49.993500
760.000000	49.735500
759.000000	49.594200
758.000000	49.383800
757.000000	49.166600
756.000000	48.990600
755.000000	48.704200
754.000000	48.665000
753.000000	48.507800
752.000000	48.262400
751.000000	48.029400
750.000000	47.876500
749.000000	47.650000
748.000000	47.491700
747.000000	47.272100
746.000000	47.076400
745.000000	46.790600
744.000000	46.666100
743.000000	46.396800
742.000000	46.203200
741.000000	45.943200
740.000000	45.736800
739.000000	45.465300
738.000000	45.290900
737.000000	45.037600
736.000000	44.815100
735.000000	44.610000
734.000000	44.304800
733.000000	44.136700
732.000000	43.939400
731.000000	43.680000
730.000000	43.503900
729.000000	43.217900
728.000000	42.932500
727.000000	42.738300
726.000000	42.545700
725.000000	42.339400
724.000000	42.041400
723.000000	41.809900
722.000000	41.554300
721.000000	41.305200
720.000000	41.115100
719.000000	40.888200
718.000000	40.606900
717.000000	40.378900
716.000000	40.062500
715.000000	39.820900
714.000000	39.589800
713.000000	39.312500
712.000000	39.090400
711.000000	38.823100
710.000000	38.518500
709.000000	38.207200
708.000000	37.943800
707.000000	37.711500
706.000000	37.435000
705.000000	37.138700
704.000000	36.871900
703.000000	36.587500
702.000000	36.271900
701.000000	35.976800
700.000000	35.669000
699.000000	35.358000
698.000000	35.056900
697.000000	34.798700
696.000000	34.519800
695.000000	34.173800
694.000000	33.889200
693.000000	33.624200
692.000000	33.346400
691.000000	33.071100
690.000000	32.791700
689.000000	32.499900
688.000000	32.198100
687.000000	31.930800
686.000000	31.687700
685.000000	31.411200
684.000000	31.157000
683.000000	30.884200
682.000000	30.641800
681.000000	30.407300
680.000000	30.188800
679.000000	29.960900
678.000000	29.722900
677.000000	29.510900
676.000000	29.307900
675.000000	29.122900
674.000000	28.928600
673.000000	28.707500
672.000000	28.540000
671.000000	28.369400
670.000000	28.192200
669.000000	28.042600
668.000000	27.895200
667.000000	27.740800
666.000000	27.611300
665.000000	27.444700
664.000000	27.296900
663.000000	27.162100
662.000000	27.046300
661.000000	26.929700
660.000000	26.797700
659.000000	26.695700
658.000000	26.597900
657.000000	26.485200
656.000000	26.396200
655.000000	26.326600
654.000000	26.233400
653.000000	26.152900
652.000000	26.074700
651.000000	26.010700
650.000000	25.953200
649.000000	25.896800
648.000000	25.846900
647.000000	25.803000
646.000000	25.763900
645.000000	25.722100
644.000000	25.681400
643.000000	25.669400
642.000000	25.667400
641.000000	25.679200
640.000000	25.685700
639.000000	25.682800
638.000000	25.679300
637.000000	25.693400
636.000000	25.714200
635.000000	25.721500
634.000000	25.739500
633.000000	25.765500
632.000000	25.783400
631.000000	25.814200
630.000000	25.872700
629.000000	25.917800
628.000000	25.973100
627.000000	26.035800
626.000000	26.072600
625.000000	26.099800
624.000000	26.157700
623.000000	26.222000
622.000000	26.277300
621.000000	26.340100
620.000000	26.403100
619.000000	26.461100
618.000000	26.520300
617.000000	26.594800
616.000000	26.665500
615.000000	26.727000
614.000000	26.805500
613.000000	26.860000
612.000000	26.915600
611.000000	26.975400
610.000000	27.035500
609.000000	27.097100
608.000000	27.171500
607.000000	27.220400
606.000000	27.264400
605.000000	27.311300
604.000000	27.363000
603.000000	27.411800
602.000000	27.472000
601.000000	27.520300
600.000000	27.553700
599.000000	27.585200
598.000000	27.610700
597.000000	27.621700
596.000000	27.623100
595.000000	27.620600
594.000000	27.638200
593.000000	27.662700
592.000000	27.646300
591.000000	27.644200
590.000000	27.618500
589.000000	27.600000
588.000000	27.560400
587.000000	27.523800
586.000000	27.498100
585.000000	27.443400
584.000000	27.378300
583.000000	27.331400
582.000000	27.263600
581.000000	27.206500
580.000000	27.146600
579.000000	27.067700
578.000000	26.939300
577.000000	26.850800
576.000000	26.761900
575.000000	26.635200
574.000000	26.521400
573.000000	26.406900
572.000000	26.261000
571.000000	26.124400
570.000000	26.009300
569.000000	25.869700
568.000000	25.703300
567.000000	25.545100
566.000000	25.382100
565.000000	25.214700
564.000000	25.033100
563.000000	24.833100
562.000000	24.626100
561.000000	24.435800
560.000000	24.238000
559.000000	24.009900
558.000000	23.809000
557.000000	23.590200
556.000000	23.365000
555.000000	23.141600
554.000000	22.912100
553.000000	22.685300
552.000000	22.458600
551.000000	22.207500
550.000000	21.975700
549.000000	21.739800
548.000000	21.516100
547.000000	21.285200
546.000000	21.049700
545.000000	20.803500
544.000000	20.566600
543.000000	20.331000
542.000000	20.101600
541.000000	19.862500
540.000000	19.636000
539.000000	19.399000
538.000000	19.176900
537.000000	18.962400
536.000000	18.740700
535.000000	18.520200
534.000000	18.315700
533.000000	18.112400
532.000000	17.902300
531.000000	17.687900
530.000000	17.474000
529.000000	17.281800
528.000000	17.089700
527.000000	16.879800
526.000000	16.691800
525.000000	16.502800
524.000000	16.309200
523.000000	16.129100
522.000000	15.928800
521.000000	15.752700
520.000000	15.579000
519.000000	15.394200
518.000000	15.226700
517.000000	15.038200
516.000000	14.887200
515.000000	14.726500
514.000000	14.553800
513.000000	14.407400
512.000000	14.283200
511.000000	14.100900
510.000000	13.974800
509.000000	13.852300
508.000000	13.731300
507.000000	13.595400
506.000000	13.479200
505.000000	13.371500
504.000000	13.258200
503.000000	13.156600
502.000000	13.064200
501.000000	12.962100
500.000000	12.869900
499.000000	12.790100
498.000000	12.728900
497.000000	12.639000
496.000000	12.581400
495.000000	12.518100
494.000000	12.468900
493.000000	12.418100
492.000000	12.360800
491.000000	12.316400
490.000000	12.288400
489.000000	12.245600
488.000000	12.198000
487.000000	12.201900
486.000000	12.190500
485.000000	12.144300
484.000000	12.107800
483.000000	12.089300
482.000000	12.060500
481.000000	12.023700
480.000000	11.992100
479.000000	11.957100
478.000000	11.915200
477.000000	11.882100
476.000000	11.846100
475.000000	11.814200
474.000000	11.790000
473.000000	11.751300
472.000000	11.716000
471.000000	11.668400
470.000000	11.649300
469.000000	11.617700
468.000000	11.586000
467.000000	11.548500
466.000000	11.508600
465.000000	11.480200
464.000000	11.446400
463.000000	11.411400
462.000000	11.381800
461.000000	11.348800
460.000000	11.310200
459.000000	11.257900
458.000000	11.231000
457.000000	11.185400
456.000000	11.171400
455.000000	11.129500
454.000000	11.075400
453.000000	11.034100
452.000000	10.996600
451.000000	10.942000
450.000000	10.919000
449.000000	10.881100
448.000000	10.814000
447.000000	10.772200
446.000000	10.724500
445.000000	10.681200
444.000000	10.630100
443.000000	10.583100
442.000000	10.520300
441.000000	10.459400
440.000000	10.383500
439.000000	10.333200
438.000000	10.287500
437.000000	10.202700
436.000000	10.140800
435.000000	10.071900
434.000000	10.013500
433.000000	9.952500
432.000000	9.868800
431.000000	9.789700
430.000000	9.756100
429.000000	9.693900
428.000000	9.622600
427.000000	9.536800
426.000000	9.482700
425.000000	9.414400
424.000000	9.336000
423.000000	9.263500
422.000000	9.189000
421.000000	9.131300
420.000000	9.047300
419.000000	8.970800
418.000000	8.898900
417.000000	8.830200
416.000000	8.757500
415.000000	8.658600
414.000000	8.596800
413.000000	8.529800
412.000000	8.417900
411.000000	8.340000
410.000000	8.265600
409.000000	8.169000
408.000000	8.088900
407.000000	7.981100
406.000000	7.918700
405.000000	7.817100
404.000000	7.728000
403.000000	7.638900
402.000000	7.574300
401.000000	7.461200
400.000000	7.359500
399.000000	7.272300
398.000000	7.193500
397.000000	7.115700
396.000000	7.024900
395.000000	6.928700
394.000000	6.837700
393.000000	6.734400
392.000000	6.650800
391.000000	6.578300
390.000000	6.500800
389.000000	6.414800
388.000000	6.319500
387.000000	6.217200
386.000000	6.145200
385.000000	6.103400
384.000000	6.005300
383.000000	5.927200
382.000000	5.890200
381.000000	5.807100
380.000000	5.715800
379.000000	5.661900
378.000000	5.620800
377.000000	5.553700
376.000000	5.334200
375.000000	5.080800
374.000000	5.133900
373.000000	5.057800
372.000000	5.042100
371.000000	4.935600
370.000000	4.953000
369.000000	4.901900
368.000000	4.906800
367.000000	4.988300
366.000000	4.953800
365.000000	4.889500
364.000000	4.933000
363.000000	4.922900
362.000000	4.947600
361.000000	4.917300
360.000000	4.979600
359.000000	4.822000
358.000000	4.778300
357.000000	4.915400
356.000000	4.862600
355.000000	4.660300
354.000000	4.640400
353.000000	4.683300
352.000000	4.713100
351.000000	4.678300
350.000000	4.661100
349.000000	4.617600
348.000000	4.748300
347.000000	4.681600
346.000000	4.573200
345.000000	4.702200
344.000000	4.727000
343.000000	4.693100
342.000000	4.716500
341.000000	4.912800
340.000000	4.920600
339.000000	4.761100
338.000000	4.621600
337.000000	4.628500
336.000000	4.817100
335.000000	4.790500
334.000000	4.803900
333.000000	4.974600
332.000000	4.887700
331.000000	4.976900
330.000000	5.023600
329.000000	5.053400
328.000000	5.070900
327.000000	4.878100
326.000000	4.923600
325.000000	5.271800
324.000000	5.267800
323.000000	5.230200
322.000000	5.136100
321.000000	5.026300
320.000000	5.059100
319.000000	5.194100
318.000000	5.595600
317.000000	5.692600
316.000000	5.107800
315.000000	4.720300
314.000000	4.712700
313.000000	4.702500
312.000000	4.694200
311.000000	4.701900
310.000000	4.717600
309.000000	4.712500
308.000000	4.696400
307.000000	4.752900
306.000000	4.744400
305.000000	4.723700
304.000000	4.744700
303.000000	4.761700
302.000000	4.748700
301.000000	4.772700
300.000000	4.723800
299.000000	4.703500
298.000000	4.735800
297.000000	4.725100
296.000000	4.740700
295.000000	4.734700
294.000000	4.734200
293.000000	4.756700
292.000000	4.731800
291.000000	4.764200
290.000000	4.800900
289.000000	4.789600
288.000000	4.758400
287.000000	4.756200
286.000000	4.781500
285.000000	4.768700
284.000000	4.798000
283.000000	4.835800
282.000000	4.800200
281.000000	4.859100
280.000000	4.868900
279.000000	4.892500
278.000000	4.872700
277.000000	4.860000
276.000000	4.869000
275.000000	4.863200
274.000000	4.887700
273.000000	4.923300
272.000000	4.952500
271.000000	4.960100
270.000000	4.965700
269.000000	5.008600
268.000000	4.980800
267.000000	4.995100
266.000000	5.020600
265.000000	5.059900
264.000000	5.048300
263.000000	5.052500
262.000000	5.066600
261.000000	5.094700
260.000000	5.162700
259.000000	5.194000
258.000000	5.194500
257.000000	5.205600
256.000000	5.258100
255.000000	5.242900
254.000000	5.218600
253.000000	5.230200
252.000000	5.313400
251.000000	5.333700
250.000000	5.304500
