PE UV       SUBTECH     SPECTRUM    ASCII       PEDS        4.00        
   -1
INBUCR0127-2.Sample.ASC
24/04/26
11:18:18.00
24/04/26
11:18:18.00
Vinicio Soto Monge
C. resplendens
250,000000
1
Lambda 1050
1050L1511233
PerkinElmer UV WinLab 6.3.2.0749 / 2.02.05 Lambda 900 UV/VIS/NIR, Aug  7 2015 09:38:08

0
0
3350/servo 860,8/2
0
0
UV/VIS
1
1
1
DoubleDePol,CommonBeamDepol,RBeamAtt,SBeamAtt,60mm sphere, WB InGaAs Detector
0
0
0
0
Program
Program
3350/servo 860,8/2
3350/0,2 860,8/0,2
3350/0,2 860,8/0,2
0
15.00
 
 
 
0
 
860,8
319,2
860,8
Front
100
on
S:100 R:100
0
0
0
0
 
0
 
 
 
0
 
 
0
0
0
0
0
 
 
 
 
0
0


0
0
#HDR
-1
-1
#GR
nm
%R
1.0
0.0
2500,000000
-1,000000
2251
8
82,877600
5,974600
#DATA
2482.000000	11.938605
2481.000000	11.955488
2480.000000	11.990134
2479.000000	12.022144
2478.000000	12.005261
2477.000000	12.033465
2476.000000	12.047128
2475.000000	12.064109
2474.000000	12.101877
2473.000000	12.173998
2472.000000	12.214890
2471.000000	12.245436
2470.000000	12.284961
2469.000000	12.305748
2468.000000	12.370452
2467.000000	12.437010
2466.000000	12.484343
2465.000000	12.494883
2464.000000	12.546314
2463.000000	12.642736
2462.000000	12.664401
2461.000000	12.693874
2460.000000	12.812059
2459.000000	12.853633
2458.000000	12.930146
2457.000000	13.007244
2456.000000	13.114108
2455.000000	13.187303
2454.000000	13.258057
2453.000000	13.353308
2452.000000	13.469443
2451.000000	13.543320
2450.000000	13.628812
2449.000000	13.744556
2448.000000	13.867426
2447.000000	13.971459
2446.000000	14.047191
2445.000000	14.175916
2444.000000	14.302982
2443.000000	14.395402
2442.000000	14.508902
2441.000000	14.628746
2440.000000	14.737366
2439.000000	14.861992
2438.000000	14.983495
2437.000000	15.086846
2436.000000	15.209324
2435.000000	15.315993
2434.000000	15.405778
2433.000000	15.530892
2432.000000	15.644197
2431.000000	15.756721
2430.000000	15.866318
2429.000000	15.959519
2428.000000	16.059942
2427.000000	16.169441
2426.000000	16.256396
2425.000000	16.341985
2424.000000	16.431184
2423.000000	16.539512
2422.000000	16.614658
2421.000000	16.694294
2420.000000	16.764658
2419.000000	16.830826
2418.000000	16.905094
2417.000000	16.979948
2416.000000	17.048262
2415.000000	17.114040
2414.000000	17.153370
2413.000000	17.198945
2412.000000	17.234274
2411.000000	17.267748
2410.000000	17.277215
2409.000000	17.321815
2408.000000	17.355679
2407.000000	17.394228
2406.000000	17.427312
2405.000000	17.436876
2404.000000	17.447709
2403.000000	17.480305
2402.000000	17.493285
2401.000000	17.498945
2400.000000	17.513487
2399.000000	17.516414
2398.000000	17.533005
2397.000000	17.560917
2396.000000	17.560331
2395.000000	17.564820
2394.000000	17.567748
2393.000000	17.573408
2392.000000	17.580045
2391.000000	17.582192
2390.000000	17.588340
2389.000000	17.594196
2388.000000	17.592341
2387.000000	17.585217
2386.000000	17.570969
2385.000000	17.555842
2384.000000	17.541496
2383.000000	17.526759
2382.000000	17.515926
2381.000000	17.493480
2380.000000	17.469667
2379.000000	17.458835
2378.000000	17.431509
2377.000000	17.406037
2376.000000	17.394911
2375.000000	17.353727
2374.000000	17.325328
2373.000000	17.301906
2372.000000	17.285998
2371.000000	17.276727
2370.000000	17.249889
2369.000000	17.234079
2368.000000	17.203240
2367.000000	17.179232
2366.000000	17.182062
2365.000000	17.179915
2364.000000	17.156102
2363.000000	17.120579
2362.000000	17.125946
2361.000000	17.123506
2360.000000	17.092862
2359.000000	17.070123
2358.000000	17.048555
2357.000000	17.015276
2356.000000	16.990097
2355.000000	16.974873
2354.000000	16.939349
2353.000000	16.910071
2352.000000	16.884795
2351.000000	16.847417
2350.000000	16.809356
2349.000000	16.776467
2348.000000	16.746311
2347.000000	16.710006
2346.000000	16.669896
2345.000000	16.637202
2344.000000	16.610950
2343.000000	16.578939
2342.000000	16.550833
2341.000000	16.529167
2340.000000	16.494034
2339.000000	16.460560
2338.000000	16.446116
2337.000000	16.432453
2336.000000	16.422108
2335.000000	16.411861
2334.000000	16.414496
2333.000000	16.421620
2332.000000	16.413227
2331.000000	16.418204
2330.000000	16.427085
2329.000000	16.422889
2328.000000	16.446897
2327.000000	16.471783
2326.000000	16.488569
2325.000000	16.496766
2324.000000	16.511991
2323.000000	16.537072
2322.000000	16.551906
2321.000000	16.558933
2320.000000	16.557176
2319.000000	16.562251
2318.000000	16.551223
2317.000000	16.545465
2316.000000	16.518822
2315.000000	16.501256
2314.000000	16.455778
2313.000000	16.421132
2312.000000	16.384925
2311.000000	16.348914
2310.000000	16.321588
2309.000000	16.277964
2308.000000	16.230826
2307.000000	16.186227
2306.000000	16.146702
2305.000000	16.108543
2304.000000	16.095173
2303.000000	16.080827
2302.000000	16.058966
2301.000000	16.047840
2300.000000	16.041302
2299.000000	16.017001
2298.000000	16.020222
2297.000000	16.027541
2296.000000	16.039935
2295.000000	16.040228
2294.000000	16.061406
2293.000000	16.078582
2292.000000	16.097808
2291.000000	16.130404
2290.000000	16.156656
2289.000000	16.172173
2288.000000	16.201451
2287.000000	16.230729
2286.000000	16.261568
2285.000000	16.295238
2284.000000	16.303240
2283.000000	16.348718
2282.000000	16.373605
2281.000000	16.407957
2280.000000	16.460560
2279.000000	16.461828
2278.000000	16.493155
2277.000000	16.521555
2276.000000	16.542635
2275.000000	16.569473
2274.000000	16.569180
2273.000000	16.613487
2272.000000	16.627931
2271.000000	16.642375
2270.000000	16.663455
2269.000000	16.684047
2268.000000	16.755289
2267.000000	16.787300
2266.000000	16.834339
2265.000000	16.909778
2264.000000	16.993318
2263.000000	17.091106
2262.000000	17.171815
2261.000000	17.292146
2260.000000	17.397546
2259.000000	17.520318
2258.000000	17.678418
2257.000000	17.842471
2256.000000	18.019016
2255.000000	18.169895
2254.000000	18.346635
2253.000000	18.515373
2252.000000	18.693869
2251.000000	18.875001
2250.000000	19.032906
2249.000000	19.201254
2248.000000	19.371358
2247.000000	19.522626
2246.000000	19.663843
2245.000000	19.791787
2244.000000	19.926269
2243.000000	20.039574
2242.000000	20.126822
2241.000000	20.244128
2240.000000	20.333035
2239.000000	20.374415
2238.000000	20.424577
2237.000000	20.468299
2236.000000	20.513972
2235.000000	20.535930
2234.000000	20.534174
2233.000000	20.534662
2232.000000	20.529294
2231.000000	20.543055
2230.000000	20.489769
2229.000000	20.450537
2228.000000	20.423504
2227.000000	20.369047
2226.000000	20.294389
2225.000000	20.248032
2224.000000	20.166347
2223.000000	20.099496
2222.000000	20.019861
2221.000000	19.955742
2220.000000	19.864396
2219.000000	19.779588
2218.000000	19.705027
2217.000000	19.621292
2216.000000	19.523309
2215.000000	19.430011
2214.000000	19.350863
2213.000000	19.271423
2212.000000	19.194910
2211.000000	19.109809
2210.000000	19.053791
2209.000000	18.986745
2208.000000	18.918918
2207.000000	18.849042
2206.000000	18.790486
2205.000000	18.723928
2204.000000	18.674253
2203.000000	18.623505
2202.000000	18.575978
2201.000000	18.530597
2200.000000	18.486680
2199.000000	18.449888
2198.000000	18.406362
2197.000000	18.351514
2196.000000	18.335997
2195.000000	18.291105
2194.000000	18.254898
2193.000000	18.225327
2192.000000	18.190096
2191.000000	18.188535
2190.000000	18.154280
2189.000000	18.143349
2188.000000	18.116023
2187.000000	18.078548
2186.000000	18.056492
2185.000000	18.032387
2184.000000	18.007110
2183.000000	17.982224
2182.000000	17.953629
2181.000000	17.953532
2180.000000	17.939088
2179.000000	17.895366
2178.000000	17.881313
2177.000000	17.879947
2176.000000	17.881899
2175.000000	17.873311
2174.000000	17.870383
2173.000000	17.879361
2172.000000	17.878385
2171.000000	17.891170
2170.000000	17.924156
2169.000000	17.942406
2168.000000	17.960363
2167.000000	17.984176
2166.000000	18.022627
2165.000000	18.064202
2164.000000	18.113681
2163.000000	18.151742
2162.000000	18.203076
2161.000000	18.273440
2160.000000	18.339901
2159.000000	18.429393
2158.000000	18.485119
2157.000000	18.569341
2156.000000	18.664299
2155.000000	18.773993
2154.000000	18.878905
2153.000000	18.986355
2152.000000	19.096634
2151.000000	19.207012
2150.000000	19.341104
2149.000000	19.473439
2148.000000	19.590258
2147.000000	19.703270
2146.000000	19.830238
2145.000000	19.949887
2144.000000	20.072463
2143.000000	20.193380
2142.000000	20.313419
2141.000000	20.442632
2140.000000	20.555547
2139.000000	20.659288
2138.000000	20.756490
2137.000000	20.855546
2136.000000	20.968754
2135.000000	21.073861
2134.000000	21.170478
2133.000000	21.264459
2132.000000	21.350927
2131.000000	21.419339
2130.000000	21.502000
2129.000000	21.571779
2128.000000	21.652585
2127.000000	21.731245
2126.000000	21.784335
2125.000000	21.826105
2124.000000	21.875097
2123.000000	21.931896
2122.000000	22.000503
2121.000000	22.043054
2120.000000	22.072429
2119.000000	22.113125
2118.000000	22.139865
2117.000000	22.160457
2116.000000	22.195200
2115.000000	22.218525
2114.000000	22.220867
2113.000000	22.220184
2112.000000	22.229943
2111.000000	22.244387
2110.000000	22.253756
2109.000000	22.252780
2108.000000	22.252097
2107.000000	22.256098
2106.000000	22.251902
2105.000000	22.246534
2104.000000	22.253951
2103.000000	22.251804
2102.000000	22.247803
2101.000000	22.241069
2100.000000	22.238727
2099.000000	22.253951
2098.000000	22.247510
2097.000000	22.245461
2096.000000	22.268883
2095.000000	22.288889
2094.000000	22.305187
2093.000000	22.328024
2092.000000	22.354081
2091.000000	22.388629
2090.000000	22.417907
2089.000000	22.438011
2088.000000	22.455870
2087.000000	22.463775
2086.000000	22.469045
2085.000000	22.475194
2084.000000	22.465532
2083.000000	22.457627
2082.000000	22.432546
2081.000000	22.400145
2080.000000	22.382383
2079.000000	22.319631
2078.000000	22.246437
2077.000000	22.191785
2076.000000	22.119273
2075.000000	22.029391
2074.000000	21.939313
2073.000000	21.831375
2072.000000	21.721876
2071.000000	21.620380
2070.000000	21.499853
2069.000000	21.379619
2068.000000	21.246210
2067.000000	21.118266
2066.000000	20.982807
2065.000000	20.842957
2064.000000	20.709353
2063.000000	20.572528
2062.000000	20.445072
2061.000000	20.330693
2060.000000	20.215924
2059.000000	20.099203
2058.000000	20.010199
2057.000000	19.956035
2056.000000	19.906263
2055.000000	19.873374
2054.000000	19.849757
2053.000000	19.849171
2052.000000	19.878254
2051.000000	19.934369
2050.000000	20.016347
2049.000000	20.124870
2048.000000	20.237297
2047.000000	20.367486
2046.000000	20.535442
2045.000000	20.678123
2044.000000	20.849008
2043.000000	21.034141
2042.000000	21.205416
2041.000000	21.383132
2040.000000	21.566411
2039.000000	21.739052
2038.000000	21.902520
2037.000000	22.072234
2036.000000	22.232383
2035.000000	22.388141
2034.000000	22.545753
2033.000000	22.695168
2032.000000	22.837262
2031.000000	22.969403
2030.000000	23.084465
2029.000000	23.219826
2028.000000	23.345037
2027.000000	23.459415
2026.000000	23.573306
2025.000000	23.670704
2024.000000	23.753364
2023.000000	23.854958
2022.000000	23.942499
2021.000000	24.022232
2020.000000	24.117678
2019.000000	24.186481
2018.000000	24.245427
2017.000000	24.296467
2016.000000	24.363904
2015.000000	24.401282
2014.000000	24.447443
2013.000000	24.469206
2012.000000	24.491165
2011.000000	24.526493
2010.000000	24.537716
2009.000000	24.528250
2008.000000	24.527274
2007.000000	24.521614
2006.000000	24.519564
2005.000000	24.478087
2004.000000	24.441197
2003.000000	24.408894
2002.000000	24.351803
2001.000000	24.287684
2000.000000	24.236838
1999.000000	24.174574
1998.000000	24.104698
1997.000000	24.034919
1996.000000	23.968556
1995.000000	23.871549
1994.000000	23.780105
1993.000000	23.694126
1992.000000	23.605902
1991.000000	23.501088
1990.000000	23.403495
1989.000000	23.317711
1988.000000	23.192109
1987.000000	23.100958
1986.000000	22.990385
1985.000000	22.879813
1984.000000	22.783684
1983.000000	22.655350
1982.000000	22.557855
1981.000000	22.458603
1980.000000	22.341394
1979.000000	22.235018
1978.000000	22.146404
1977.000000	22.036027
1976.000000	21.931408
1975.000000	21.826691
1974.000000	21.732709
1973.000000	21.632384
1972.000000	21.547478
1971.000000	21.445884
1970.000000	21.365468
1969.000000	21.245624
1968.000000	21.164037
1967.000000	21.052195
1966.000000	20.979879
1965.000000	20.888533
1964.000000	20.815338
1963.000000	20.696763
1962.000000	20.591070
1961.000000	20.515924
1960.000000	20.409255
1959.000000	20.316347
1958.000000	20.189379
1957.000000	20.105547
1956.000000	20.011370
1955.000000	19.919731
1954.000000	19.816868
1953.000000	19.697805
1952.000000	19.619243
1951.000000	19.524676
1950.000000	19.434402
1949.000000	19.351546
1948.000000	19.262932
1947.000000	19.204377
1946.000000	19.122399
1945.000000	19.057695
1944.000000	19.000115
1943.000000	18.931215
1942.000000	18.877539
1941.000000	18.858118
1940.000000	18.826888
1939.000000	18.786680
1938.000000	18.777604
1937.000000	18.746765
1936.000000	18.726075
1935.000000	18.738860
1934.000000	18.730564
1933.000000	18.764039
1932.000000	18.817910
1931.000000	18.861436
1930.000000	18.930824
1929.000000	18.999139
1928.000000	19.077506
1927.000000	19.175684
1926.000000	19.273862
1925.000000	19.373309
1924.000000	19.483199
1923.000000	19.639347
1922.000000	19.794226
1921.000000	19.971552
1920.000000	20.159028
1919.000000	20.349919
1918.000000	20.537004
1917.000000	20.728676
1916.000000	20.956750
1915.000000	21.217517
1914.000000	21.530107
1913.000000	21.891395
1912.000000	22.213743
1911.000000	22.533749
1910.000000	22.827113
1909.000000	23.138336
1908.000000	23.530365
1907.000000	23.974217
1906.000000	24.518198
1905.000000	25.118685
1904.000000	25.634560
1903.000000	26.156095
1902.000000	26.723694
1901.000000	27.310909
1900.000000	27.988104
1899.000000	28.671643
1898.000000	29.299944
1897.000000	29.974797
1896.000000	30.544250
1895.000000	31.134588
1894.000000	31.778114
1893.000000	32.463898
1892.000000	33.218874
1891.000000	33.956675
1890.000000	34.619524
1889.000000	35.219914
1888.000000	35.840115
1887.000000	36.379412
1886.000000	36.939106
1885.000000	37.491675
1884.000000	38.038877
1883.000000	38.550555
1882.000000	38.977328
1881.000000	39.382240
1880.000000	39.768706
1879.000000	40.139851
1878.000000	40.520560
1877.000000	40.864184
1876.000000	41.199610
1875.000000	41.551431
1874.000000	41.866167
1873.000000	42.181587
1872.000000	42.466850
1871.000000	42.694826
1870.000000	42.903577
1869.000000	43.085392
1868.000000	43.156635
1867.000000	43.225828
1866.000000	43.279992
1865.000000	43.314832
1864.000000	43.372119
1863.000000	43.461124
1862.000000	43.581553
1861.000000	43.717109
1860.000000	43.853056
1859.000000	43.975730
1858.000000	44.035066
1857.000000	44.048241
1856.000000	44.083179
1855.000000	44.136758
1854.000000	44.166133
1853.000000	44.157350
1852.000000	44.161937
1851.000000	44.181943
1850.000000	44.233862
1849.000000	44.301982
1848.000000	44.321208
1847.000000	44.303348
1846.000000	44.228787
1845.000000	44.117142
1844.000000	44.057903
1843.000000	44.059269
1842.000000	44.082301
1841.000000	44.081423
1840.000000	44.042971
1839.000000	44.013889
1838.000000	43.984903
1837.000000	43.928788
1836.000000	43.848371
1835.000000	43.746387
1834.000000	43.632692
1833.000000	43.567305
1832.000000	43.536465
1831.000000	43.513824
1830.000000	43.488450
1829.000000	43.446778
1828.000000	43.407057
1827.000000	43.376218
1826.000000	43.347233
1825.000000	43.301365
1824.000000	43.269745
1823.000000	43.285359
1822.000000	43.347331
1821.000000	43.398177
1820.000000	43.420037
1819.000000	43.387832
1818.000000	43.340695
1817.000000	43.320786
1816.000000	43.309758
1815.000000	43.283700
1814.000000	43.257546
1813.000000	43.245639
1812.000000	43.227877
1811.000000	43.187669
1810.000000	43.139263
1809.000000	43.096225
1808.000000	43.060994
1807.000000	43.043232
1806.000000	43.024787
1805.000000	42.978723
1804.000000	42.943395
1803.000000	42.935002
1802.000000	42.920558
1801.000000	42.888743
1800.000000	42.834872
1799.000000	42.800129
1798.000000	42.776999
1797.000000	42.740793
1796.000000	42.702243
1795.000000	42.673942
1794.000000	42.651203
1793.000000	42.636271
1792.000000	42.607676
1791.000000	42.592257
1790.000000	42.604065
1789.000000	42.595282
1788.000000	42.586499
1787.000000	42.598600
1786.000000	42.608262
1785.000000	42.602699
1784.000000	42.586206
1783.000000	42.579960
1782.000000	42.581033
1781.000000	42.567858
1780.000000	42.545119
1779.000000	42.516037
1778.000000	42.452309
1777.000000	42.399804
1776.000000	42.344957
1775.000000	42.290695
1774.000000	42.227358
1773.000000	42.163239
1772.000000	42.098438
1771.000000	42.050032
1770.000000	42.002992
1769.000000	41.947755
1768.000000	41.889492
1767.000000	41.843916
1766.000000	41.798438
1765.000000	41.770527
1764.000000	41.740858
1763.000000	41.707677
1762.000000	41.699967
1761.000000	41.696844
1760.000000	41.687085
1759.000000	41.692843
1758.000000	41.689330
1757.000000	41.684157
1756.000000	41.719876
1755.000000	41.723097
1754.000000	41.709531
1753.000000	41.701724
1752.000000	41.683279
1751.000000	41.667469
1750.000000	41.616721
1749.000000	41.581587
1748.000000	41.515127
1747.000000	41.419388
1746.000000	41.336825
1745.000000	41.250943
1744.000000	41.149057
1743.000000	41.035947
1742.000000	40.911614
1741.000000	40.782304
1740.000000	40.655921
1739.000000	40.544568
1738.000000	40.432141
1737.000000	40.335817
1736.000000	40.230710
1735.000000	40.153709
1734.000000	40.048797
1733.000000	39.967210
1732.000000	39.883573
1731.000000	39.789591
1730.000000	39.703905
1729.000000	39.640762
1728.000000	39.555954
1727.000000	39.462851
1726.000000	39.415421
1725.000000	39.379117
1724.000000	39.377848
1723.000000	39.415226
1722.000000	39.528336
1721.000000	39.689559
1720.000000	39.923684
1719.000000	40.194406
1718.000000	40.502603
1717.000000	40.814509
1716.000000	41.121828
1715.000000	41.419876
1714.000000	41.696747
1713.000000	41.938874
1712.000000	42.168607
1711.000000	42.378236
1710.000000	42.582595
1709.000000	42.719713
1708.000000	42.854488
1707.000000	42.999803
1706.000000	43.088418
1705.000000	43.164247
1704.000000	43.235002
1703.000000	43.287409
1702.000000	43.306830
1701.000000	43.311514
1700.000000	43.347526
1699.000000	43.332204
1698.000000	43.303609
1697.000000	43.290532
1696.000000	43.223486
1695.000000	43.125698
1694.000000	42.974625
1693.000000	42.827162
1692.000000	42.676089
1691.000000	42.518477
1690.000000	42.392289
1689.000000	42.320266
1688.000000	42.298796
1687.000000	42.358620
1686.000000	42.474657
1685.000000	42.658522
1684.000000	42.911580
1683.000000	43.144436
1682.000000	43.400812
1681.000000	43.697493
1680.000000	43.945769
1679.000000	44.188091
1678.000000	44.402990
1677.000000	44.611155
1676.000000	44.811318
1675.000000	45.015579
1674.000000	45.190368
1673.000000	45.388871
1672.000000	45.589912
1671.000000	45.787342
1670.000000	45.999899
1669.000000	46.230705
1668.000000	46.456632
1667.000000	46.660210
1666.000000	46.854127
1665.000000	47.072051
1664.000000	47.272214
1663.000000	47.469253
1662.000000	47.629403
1661.000000	47.805460
1660.000000	47.974393
1659.000000	48.099897
1658.000000	48.237795
1657.000000	48.344757
1656.000000	48.441374
1655.000000	48.539747
1654.000000	48.607476
1653.000000	48.671887
1652.000000	48.728589
1651.000000	48.776897
1650.000000	48.791926
1649.000000	48.811640
1648.000000	48.834184
1647.000000	48.849701
1646.000000	48.830963
1645.000000	48.838771
1644.000000	48.815544
1643.000000	48.810957
1642.000000	48.810859
1641.000000	48.807151
1640.000000	48.798270
1639.000000	48.789096
1638.000000	48.765576
1637.000000	48.758159
1636.000000	48.748302
1635.000000	48.720586
1634.000000	48.671497
1633.000000	48.637730
1632.000000	48.599766
1631.000000	48.565804
1630.000000	48.536722
1629.000000	48.474750
1628.000000	48.409949
1627.000000	48.366325
1626.000000	48.320944
1625.000000	48.266390
1624.000000	48.207249
1623.000000	48.157184
1622.000000	48.111511
1621.000000	48.071205
1620.000000	48.017334
1619.000000	47.954289
1618.000000	47.916032
1617.000000	47.887633
1616.000000	47.836202
1615.000000	47.781745
1614.000000	47.721433
1613.000000	47.674783
1612.000000	47.610470
1611.000000	47.550938
1610.000000	47.478622
1609.000000	47.402988
1608.000000	47.310275
1607.000000	47.231518
1606.000000	47.138219
1605.000000	47.051167
1604.000000	46.966456
1603.000000	46.866326
1602.000000	46.756144
1601.000000	46.668506
1600.000000	46.576866
1599.000000	46.485129
1598.000000	46.393880
1597.000000	46.312585
1596.000000	46.240562
1595.000000	46.151265
1594.000000	46.073776
1593.000000	46.020198
1592.000000	45.963789
1591.000000	45.897134
1590.000000	45.846776
1589.000000	45.794759
1588.000000	45.733568
1587.000000	45.663790
1586.000000	45.605820
1585.000000	45.554486
1584.000000	45.504811
1583.000000	45.462846
1582.000000	45.422345
1581.000000	45.375794
1580.000000	45.333439
1579.000000	45.318019
1578.000000	45.301428
1577.000000	45.283178
1576.000000	45.257902
1575.000000	45.253315
1574.000000	45.256340
1573.000000	45.255755
1572.000000	45.271174
1571.000000	45.286301
1570.000000	45.296158
1569.000000	45.313920
1568.000000	45.336854
1567.000000	45.365449
1566.000000	45.395898
1565.000000	45.412879
1564.000000	45.432495
1563.000000	45.445768
1562.000000	45.450745
1561.000000	45.450355
1560.000000	45.424297
1559.000000	45.384089
1558.000000	45.346809
1557.000000	45.312944
1556.000000	45.265221
1555.000000	45.205397
1554.000000	45.137375
1553.000000	45.057056
1552.000000	44.973810
1551.000000	44.880218
1550.000000	44.779893
1549.000000	44.667857
1548.000000	44.576900
1547.000000	44.495899
1546.000000	44.418410
1545.000000	44.330284
1544.000000	44.258456
1543.000000	44.206927
1542.000000	44.135782
1541.000000	44.074786
1540.000000	44.033895
1539.000000	43.981781
1538.000000	43.922151
1537.000000	43.872574
1536.000000	43.826511
1535.000000	43.771176
1534.000000	43.693980
1533.000000	43.630057
1532.000000	43.570428
1531.000000	43.493329
1530.000000	43.421599
1529.000000	43.335424
1528.000000	43.256862
1527.000000	43.181131
1526.000000	43.075828
1525.000000	42.989654
1524.000000	42.895672
1523.000000	42.806765
1522.000000	42.729960
1521.000000	42.621632
1520.000000	42.560051
1519.000000	42.468412
1518.000000	42.365061
1517.000000	42.283571
1516.000000	42.201398
1515.000000	42.095803
1514.000000	41.993331
1513.000000	41.895445
1512.000000	41.799316
1511.000000	41.692550
1510.000000	41.572316
1509.000000	41.472186
1508.000000	41.377228
1507.000000	41.281685
1506.000000	41.189655
1505.000000	41.101041
1504.000000	41.011744
1503.000000	40.939916
1502.000000	40.864574
1501.000000	40.801041
1500.000000	40.745706
1499.000000	40.710280
1498.000000	40.670853
1497.000000	40.632792
1496.000000	40.616591
1495.000000	40.612590
1494.000000	40.615518
1493.000000	40.610345
1492.000000	40.638550
1491.000000	40.665485
1490.000000	40.683735
1489.000000	40.720723
1488.000000	40.751074
1487.000000	40.805921
1486.000000	40.839883
1485.000000	40.854327
1484.000000	40.880775
1483.000000	40.933865
1482.000000	40.989200
1481.000000	41.047268
1480.000000	41.105140
1479.000000	41.156181
1478.000000	41.209954
1477.000000	41.285198
1476.000000	41.352830
1475.000000	41.435979
1474.000000	41.535133
1473.000000	41.647072
1472.000000	41.742030
1471.000000	41.840598
1470.000000	41.939459
1469.000000	42.014606
1468.000000	42.137377
1467.000000	42.247267
1466.000000	42.362328
1465.000000	42.455334
1464.000000	42.575568
1463.000000	42.678333
1462.000000	42.808034
1461.000000	42.922998
1460.000000	43.050844
1459.000000	43.156049
1458.000000	43.278821
1457.000000	43.399640
1456.000000	43.499478
1455.000000	43.611124
1454.000000	43.752926
1453.000000	43.872086
1452.000000	44.022477
1451.000000	44.148859
1450.000000	44.232008
1449.000000	44.330772
1448.000000	44.437929
1447.000000	44.575534
1446.000000	44.742905
1445.000000	44.844792
1444.000000	44.920524
1443.000000	45.039782
1442.000000	45.172118
1441.000000	45.283276
1440.000000	45.438253
1439.000000	45.575663
1438.000000	45.742059
1437.000000	45.851558
1436.000000	46.007999
1435.000000	46.156535
1434.000000	46.319222
1433.000000	46.497621
1432.000000	46.675337
1431.000000	46.842123
1430.000000	47.005005
1429.000000	47.214049
1428.000000	47.456859
1427.000000	47.638089
1426.000000	47.863137
1425.000000	48.128492
1424.000000	48.410144
1423.000000	48.653442
1422.000000	48.909135
1421.000000	49.217918
1420.000000	49.589551
1419.000000	49.906532
1418.000000	50.222049
1417.000000	50.464664
1416.000000	50.841469
1415.000000	51.273219
1414.000000	51.720681
1413.000000	52.073186
1412.000000	52.405391
1411.000000	52.873738
1410.000000	53.390784
1409.000000	53.875820
1408.000000	54.363588
1407.000000	54.790555
1406.000000	55.271394
1405.000000	55.742084
1404.000000	56.145239
1403.000000	56.544393
1402.000000	56.987170
1401.000000	57.611275
1400.000000	58.031802
1399.000000	58.314625
1398.000000	58.562804
1397.000000	58.963324
1396.000000	59.483297
1395.000000	59.852002
1394.000000	60.106036
1393.000000	60.410720
1392.000000	60.753465
1391.000000	61.001546
1390.000000	61.238696
1389.000000	61.621064
1388.000000	61.999821
1387.000000	62.313776
1386.000000	62.617778
1385.000000	62.965012
1384.000000	63.273990
1383.000000	63.555545
1382.000000	63.840613
1381.000000	64.018329
1380.000000	64.106748
1379.000000	64.176625
1378.000000	64.216443
1377.000000	64.304764
1376.000000	64.400502
1375.000000	64.495167
1374.000000	64.636969
1373.000000	64.824445
1372.000000	64.992206
1371.000000	65.168068
1370.000000	65.304503
1369.000000	65.469044
1368.000000	65.618361
1367.000000	65.703364
1366.000000	65.824086
1365.000000	65.951835
1364.000000	66.034984
1363.000000	66.162244
1362.000000	66.319759
1361.000000	66.370410
1360.000000	66.331763
1359.000000	66.413936
1358.000000	66.447508
1357.000000	66.489375
1356.000000	66.599167
1355.000000	66.773077
1354.000000	66.916831
1353.000000	67.029648
1352.000000	67.247670
1351.000000	67.441586
1350.000000	67.631794
1349.000000	67.854013
1348.000000	68.105704
1347.000000	68.351443
1346.000000	68.535307
1345.000000	68.746595
1344.000000	68.943635
1343.000000	69.110128
1342.000000	69.277206
1341.000000	69.472782
1340.000000	69.650596
1339.000000	69.807329
1338.000000	69.949815
1337.000000	70.098156
1336.000000	70.222684
1335.000000	70.337941
1334.000000	70.459248
1333.000000	70.571285
1332.000000	70.681662
1331.000000	70.779157
1330.000000	70.873627
1329.000000	70.965852
1328.000000	71.050269
1327.000000	71.123854
1326.000000	71.190998
1325.000000	71.262728
1324.000000	71.323919
1323.000000	71.385988
1322.000000	71.450887
1321.000000	71.489729
1320.000000	71.544478
1319.000000	71.592006
1318.000000	71.636703
1317.000000	71.687549
1316.000000	71.733125
1315.000000	71.777237
1314.000000	71.821934
1313.000000	71.863997
1312.000000	71.906840
1311.000000	71.940314
1310.000000	71.968714
1309.000000	71.993502
1308.000000	72.026488
1307.000000	72.065525
1306.000000	72.093437
1305.000000	72.111101
1304.000000	72.130425
1303.000000	72.143502
1302.000000	72.157067
1301.000000	72.175415
1300.000000	72.182637
1299.000000	72.184101
1298.000000	72.189468
1297.000000	72.194933
1296.000000	72.186931
1295.000000	72.176586
1294.000000	72.175805
1293.000000	72.176879
1292.000000	72.171121
1291.000000	72.157555
1290.000000	72.143014
1289.000000	72.119982
1288.000000	72.098902
1287.000000	72.067965
1286.000000	72.025122
1285.000000	71.994673
1284.000000	71.981205
1283.000000	71.947048
1282.000000	71.906937
1281.000000	71.876489
1280.000000	71.843307
1279.000000	71.827692
1278.000000	71.806612
1277.000000	71.791095
1276.000000	71.784654
1275.000000	71.775578
1274.000000	71.776456
1273.000000	71.780457
1272.000000	71.779481
1271.000000	71.791485
1270.000000	71.779091
1269.000000	71.779872
1268.000000	71.785825
1267.000000	71.799878
1266.000000	71.797146
1265.000000	71.800854
1264.000000	71.803196
1263.000000	71.802025
1262.000000	71.799683
1261.000000	71.798512
1260.000000	71.801147
1259.000000	71.820861
1258.000000	71.836671
1257.000000	71.833841
1256.000000	71.835597
1255.000000	71.838623
1254.000000	71.823886
1253.000000	71.811687
1252.000000	71.791388
1251.000000	71.765916
1250.000000	71.738005
1249.000000	71.689208
1248.000000	71.630360
1247.000000	71.604107
1246.000000	71.577367
1245.000000	71.513737
1244.000000	71.441713
1243.000000	71.388135
1242.000000	71.344121
1241.000000	71.301668
1240.000000	71.248090
1239.000000	71.191388
1238.000000	71.142592
1237.000000	71.094674
1236.000000	71.043243
1235.000000	71.001083
1234.000000	70.964681
1233.000000	70.924277
1232.000000	70.868161
1231.000000	70.817316
1230.000000	70.787452
1229.000000	70.746268
1228.000000	70.697569
1227.000000	70.658630
1226.000000	70.614518
1225.000000	70.573920
1224.000000	70.542397
1223.000000	70.502872
1222.000000	70.470179
1221.000000	70.436802
1220.000000	70.395227
1219.000000	70.374147
1218.000000	70.327498
1217.000000	70.288852
1216.000000	70.262111
1215.000000	70.234102
1214.000000	70.204531
1213.000000	70.172228
1212.000000	70.116405
1211.000000	70.072977
1210.000000	70.027303
1209.000000	69.996757
1208.000000	69.953816
1207.000000	69.888819
1206.000000	69.843146
1205.000000	69.793569
1204.000000	69.755410
1203.000000	69.709542
1202.000000	69.635664
1201.000000	69.586185
1200.000000	69.540511
1199.000000	69.473172
1198.000000	69.405736
1197.000000	69.338006
1196.000000	69.253101
1195.000000	69.168976
1194.000000	69.091780
1193.000000	69.016146
1192.000000	68.927629
1191.000000	68.852288
1190.000000	68.770603
1189.000000	68.725808
1188.000000	68.685697
1187.000000	68.696042
1186.000000	68.679451
1185.000000	68.671546
1184.000000	68.682282
1183.000000	68.722880
1182.000000	68.770798
1181.000000	68.829158
1180.000000	68.911429
1179.000000	68.971449
1178.000000	69.039373
1177.000000	69.091975
1176.000000	69.130134
1175.000000	69.239633
1174.000000	69.319952
1173.000000	69.397636
1172.000000	69.495521
1171.000000	69.570082
1170.000000	69.702613
1169.000000	69.817381
1168.000000	69.930491
1167.000000	70.081174
1166.000000	70.237323
1165.000000	70.386444
1164.000000	70.540543
1163.000000	70.705572
1162.000000	70.876164
1161.000000	71.019918
1160.000000	71.168552
1159.000000	71.328018
1158.000000	71.473724
1157.000000	71.597081
1156.000000	71.724049
1155.000000	71.832669
1154.000000	71.962175
1153.000000	72.050984
1152.000000	72.143014
1151.000000	72.198544
1150.000000	72.269787
1149.000000	72.313313
1148.000000	72.378895
1147.000000	72.437061
1146.000000	72.519917
1145.000000	72.575154
1144.000000	72.599845
1143.000000	72.661719
1142.000000	72.729155
1141.000000	72.819624
1140.000000	72.915362
1139.000000	72.989728
1138.000000	73.086247
1137.000000	73.229025
1136.000000	73.370827
1135.000000	73.536442
1134.000000	73.653455
1133.000000	73.694151
1132.000000	73.763930
1131.000000	73.860059
1130.000000	73.957651
1129.000000	74.057391
1128.000000	74.141028
1127.000000	74.214320
1126.000000	74.290442
1125.000000	74.349291
1124.000000	74.400917
1123.000000	74.439369
1122.000000	74.466207
1121.000000	74.469232
1120.000000	74.474892
1119.000000	74.478796
1118.000000	74.490312
1117.000000	74.502316
1116.000000	74.505146
1115.000000	74.507000
1114.000000	74.517248
1113.000000	74.503097
1112.000000	74.499974
1111.000000	74.530227
1110.000000	74.517736
1109.000000	74.502023
1108.000000	74.503975
1107.000000	74.510416
1106.000000	74.497632
1105.000000	74.496753
1104.000000	74.488555
1103.000000	74.486799
1102.000000	74.481919
1101.000000	74.469134
1100.000000	74.467866
1099.000000	74.463474
1098.000000	74.451665
1097.000000	74.434782
1096.000000	74.417410
1095.000000	74.403455
1094.000000	74.400039
1093.000000	74.362466
1092.000000	74.338848
1091.000000	74.336506
1090.000000	74.324405
1089.000000	74.305472
1088.000000	74.278048
1087.000000	74.252284
1086.000000	74.229252
1085.000000	74.219297
1084.000000	74.180260
1083.000000	74.133318
1082.000000	74.125120
1081.000000	74.102577
1080.000000	74.076227
1079.000000	74.045582
1078.000000	74.000592
1077.000000	73.975218
1076.000000	73.954919
1075.000000	73.913540
1074.000000	73.889239
1073.000000	73.856838
1072.000000	73.824047
1071.000000	73.798185
1070.000000	73.763930
1069.000000	73.736311
1068.000000	73.702544
1067.000000	73.651113
1066.000000	73.597339
1065.000000	73.579870
1064.000000	73.565231
1063.000000	73.527073
1062.000000	73.497600
1061.000000	73.471445
1060.000000	73.441094
1059.000000	73.406546
1058.000000	73.377366
1057.000000	73.358433
1056.000000	73.330131
1055.000000	73.310710
1054.000000	73.284653
1053.000000	73.258303
1052.000000	73.232733
1051.000000	73.205212
1050.000000	73.180521
1049.000000	73.169591
1048.000000	73.164223
1047.000000	73.142363
1046.000000	73.121673
1045.000000	73.108888
1044.000000	73.090443
1043.000000	73.066436
1042.000000	73.051797
1041.000000	73.046136
1040.000000	73.031595
1039.000000	73.033742
1038.000000	73.034523
1037.000000	73.022519
1036.000000	73.007685
1035.000000	72.997535
1034.000000	72.986410
1033.000000	72.954887
1032.000000	72.939663
1031.000000	72.942493
1030.000000	72.933905
1029.000000	72.921510
1028.000000	72.913020
1027.000000	72.896820
1026.000000	72.872909
1025.000000	72.869201
1024.000000	72.868030
1023.000000	72.857392
1022.000000	72.835629
1021.000000	72.826162
1020.000000	72.836995
1019.000000	72.826748
1018.000000	72.820502
1017.000000	72.833384
1016.000000	72.842460
1015.000000	72.863540
1014.000000	72.871445
1013.000000	72.854660
1012.000000	72.856514
1011.000000	72.873592
1010.000000	72.875740
1009.000000	72.882473
1008.000000	72.887743
1007.000000	72.896624
1006.000000	72.916143
1005.000000	72.931563
1004.000000	72.935173
1003.000000	72.934588
1002.000000	72.940346
1001.000000	72.946982
1000.000000	72.965525
999.000000	72.970697
998.000000	72.966110
997.000000	72.978602
996.000000	72.996754
995.000000	73.021836
994.000000	73.017054
993.000000	72.999487
992.000000	73.012662
991.000000	73.029643
990.000000	73.052285
989.000000	73.070144
988.000000	73.089175
987.000000	73.101666
986.000000	73.113573
985.000000	73.158953
984.000000	73.201113
983.000000	73.236247
982.000000	73.266110
981.000000	73.302122
980.000000	73.353846
979.000000	73.399031
978.000000	73.440606
977.000000	73.498283
976.000000	73.558010
975.000000	73.603781
974.000000	73.644769
973.000000	73.710352
972.000000	73.776129
971.000000	73.838881
970.000000	73.887482
969.000000	73.954919
968.000000	74.027918
967.000000	74.098575
966.000000	74.148835
965.000000	74.211685
964.000000	74.278341
963.000000	74.366272
962.000000	74.428926
961.000000	74.509440
960.000000	74.571412
959.000000	74.639531
958.000000	74.718972
957.000000	74.782309
956.000000	74.846232
955.000000	74.918353
954.000000	74.969004
953.000000	75.016629
952.000000	75.093142
951.000000	75.155211
950.000000	75.203324
949.000000	75.246265
948.000000	75.289986
947.000000	75.354202
946.000000	75.422615
945.000000	75.463701
944.000000	75.500396
943.000000	75.543727
942.000000	75.586961
941.000000	75.617507
940.000000	75.674208
939.000000	75.727299
938.000000	75.777852
937.000000	75.792881
936.000000	75.836505
935.000000	75.899940
934.000000	75.951957
933.000000	75.993629
932.000000	76.048476
931.000000	76.071020
930.000000	76.121866
929.000000	76.173687
928.000000	76.196036
927.000000	76.282503
926.000000	76.311293
925.000000	76.377461
924.000000	76.427916
923.000000	76.484130
922.000000	76.554006
921.000000	76.615099
920.000000	76.702249
919.000000	76.760512
918.000000	76.823362
917.000000	76.919588
916.000000	76.988976
915.000000	77.048703
914.000000	77.150102
913.000000	77.223199
912.000000	77.321572
911.000000	77.381494
910.000000	77.479087
909.000000	77.564773
908.000000	77.648507
907.000000	77.735462
906.000000	77.827492
905.000000	77.900199
904.000000	77.979737
903.000000	78.063081
902.000000	78.180387
901.000000	78.248214
900.000000	78.323751
899.000000	78.403777
898.000000	78.473848
897.000000	78.539333
896.000000	78.618188
895.000000	78.680354
894.000000	78.748474
893.000000	78.847628
892.000000	78.924629
891.000000	78.979085
890.000000	79.040276
889.000000	79.093366
888.000000	79.203451
887.000000	79.272449
886.000000	79.320367
885.000000	79.425572
884.000000	79.475929
883.000000	79.550100
882.000000	79.641251
881.000000	79.711128
880.000000	79.794569
879.000000	79.910510
878.000000	80.006931
877.000000	80.100034
876.000000	80.196749
875.000000	80.293073
874.000000	80.407451
873.000000	80.500945
872.000000	80.582825
871.000000	80.684419
870.000000	80.752148
869.000000	80.789722
868.000000	80.832955
867.000000	80.830808
866.000000	80.796455
865.000000	80.773131
864.000000	80.776254
863.000000	80.786306
862.000000	80.823098
861.000000	80.869162
860.000000	80.882435
859.000000	80.876384
858.000000	80.605467
857.000000	80.815200
856.000000	80.248900
855.000000	80.752300
854.000000	79.855400
853.000000	80.590000
852.000000	80.323300
851.000000	80.489900
850.000000	80.686100
849.000000	80.788000
848.000000	80.556300
847.000000	80.562800
846.000000	80.387100
845.000000	80.492600
844.000000	80.446700
843.000000	80.303800
842.000000	80.289100
841.000000	80.177500
840.000000	80.068000
839.000000	80.198400
838.000000	80.047900
837.000000	80.079200
836.000000	79.877400
835.000000	79.674400
834.000000	79.655200
833.000000	79.723300
832.000000	79.636800
831.000000	79.612000
830.000000	79.410400
829.000000	79.094500
828.000000	79.176300
827.000000	78.959800
826.000000	78.793400
825.000000	78.892900
824.000000	78.630700
823.000000	78.565700
822.000000	78.379200
821.000000	78.316400
820.000000	78.283300
819.000000	78.334000
818.000000	78.280900
817.000000	78.058300
816.000000	78.218700
815.000000	78.276900
814.000000	78.395600
813.000000	78.305100
812.000000	78.258200
811.000000	78.343100
810.000000	78.406600
809.000000	78.494200
808.000000	78.555000
807.000000	78.596000
806.000000	78.638500
805.000000	78.702500
804.000000	78.867300
803.000000	78.998000
802.000000	79.121700
801.000000	79.181700
800.000000	79.351300
799.000000	79.369300
798.000000	79.541500
797.000000	79.632000
796.000000	79.716600
795.000000	79.794100
794.000000	79.667100
793.000000	79.722200
792.000000	79.739700
791.000000	79.745700
790.000000	79.800700
789.000000	79.757300
788.000000	79.668100
787.000000	79.666900
786.000000	79.628500
785.000000	79.535700
784.000000	79.488600
783.000000	79.497700
782.000000	79.420600
781.000000	79.392200
780.000000	79.369100
779.000000	79.168400
778.000000	79.198900
777.000000	79.153100
776.000000	79.098800
775.000000	79.077200
774.000000	79.061900
773.000000	78.962300
772.000000	78.947200
771.000000	78.908400
770.000000	78.949600
769.000000	79.047800
768.000000	79.031300
767.000000	79.019600
766.000000	79.150800
765.000000	79.144800
764.000000	79.100700
763.000000	79.191300
762.000000	79.199200
761.000000	79.225600
760.000000	79.294800
759.000000	79.257600
758.000000	79.186200
757.000000	79.138800
756.000000	79.159400
755.000000	79.173400
754.000000	79.123000
753.000000	79.159500
752.000000	79.137500
751.000000	79.147900
750.000000	79.184700
749.000000	79.222600
748.000000	79.202600
747.000000	79.151300
746.000000	79.154100
745.000000	79.209300
744.000000	79.242000
743.000000	79.238600
742.000000	79.277200
741.000000	79.325100
740.000000	79.324800
739.000000	79.329100
738.000000	79.242400
737.000000	79.218600
736.000000	79.290500
735.000000	79.282900
734.000000	79.250000
733.000000	79.281200
732.000000	79.295200
731.000000	79.295300
730.000000	79.211800
729.000000	79.114100
728.000000	79.083400
727.000000	78.964500
726.000000	78.848600
725.000000	78.810100
724.000000	78.622400
723.000000	78.420400
722.000000	78.181500
721.000000	77.962700
720.000000	77.741900
719.000000	77.436300
718.000000	77.209500
717.000000	77.020900
716.000000	76.769200
715.000000	76.488300
714.000000	76.242000
713.000000	75.941700
712.000000	75.633700
711.000000	75.311900
710.000000	74.973500
709.000000	74.637900
708.000000	74.335800
707.000000	74.050000
706.000000	73.742100
705.000000	73.435700
704.000000	73.151100
703.000000	72.805100
702.000000	72.449100
701.000000	72.194800
700.000000	71.996000
699.000000	71.737000
698.000000	71.472500
697.000000	71.260400
696.000000	71.109900
695.000000	70.985900
694.000000	70.863000
693.000000	70.776000
692.000000	70.674000
691.000000	70.585500
690.000000	70.502400
689.000000	70.479700
688.000000	70.403300
687.000000	70.342000
686.000000	70.343500
685.000000	70.341200
684.000000	70.280600
683.000000	70.264600
682.000000	70.220000
681.000000	70.262300
680.000000	70.272400
679.000000	70.226600
678.000000	70.279800
677.000000	70.274300
676.000000	70.243700
675.000000	70.203800
674.000000	70.177100
673.000000	70.154700
672.000000	70.058600
671.000000	70.005200
670.000000	69.896600
669.000000	69.756700
668.000000	69.579700
667.000000	69.409500
666.000000	69.221800
665.000000	68.988500
664.000000	68.752600
663.000000	68.449400
662.000000	68.178200
661.000000	67.946600
660.000000	67.632800
659.000000	67.263700
658.000000	66.925600
657.000000	66.571600
656.000000	66.160900
655.000000	65.669200
654.000000	65.210300
653.000000	64.684700
652.000000	64.055800
651.000000	63.388200
650.000000	62.705100
649.000000	61.947700
648.000000	61.161800
647.000000	60.338500
646.000000	59.523700
645.000000	58.669500
644.000000	57.790300
643.000000	56.931600
642.000000	56.091300
641.000000	55.287800
640.000000	54.474900
639.000000	53.781400
638.000000	53.193700
637.000000	52.600300
636.000000	52.114200
635.000000	51.691600
634.000000	51.440600
633.000000	51.208800
632.000000	51.181800
631.000000	51.233000
630.000000	51.408000
629.000000	51.674900
628.000000	52.089000
627.000000	52.644800
626.000000	53.269200
625.000000	54.019400
624.000000	54.885800
623.000000	55.863800
622.000000	56.828700
621.000000	57.893800
620.000000	58.987300
619.000000	60.051100
618.000000	61.075900
617.000000	62.133300
616.000000	63.189100
615.000000	64.171500
614.000000	65.126500
613.000000	66.072400
612.000000	66.974400
611.000000	67.877200
610.000000	68.708500
609.000000	69.484100
608.000000	70.278200
607.000000	71.038200
606.000000	71.751700
605.000000	72.462000
604.000000	73.091200
603.000000	73.739000
602.000000	74.385000
601.000000	74.928800
600.000000	75.445000
599.000000	75.948600
598.000000	76.443500
597.000000	76.869000
596.000000	77.271700
595.000000	77.670000
594.000000	78.039500
593.000000	78.338700
592.000000	78.602800
591.000000	79.000000
590.000000	79.216900
589.000000	79.381300
588.000000	79.630000
587.000000	79.831500
586.000000	80.003100
585.000000	80.144600
584.000000	80.321200
583.000000	80.431900
582.000000	80.476300
581.000000	80.606000
580.000000	80.624400
579.000000	80.639800
578.000000	80.738000
577.000000	80.741800
576.000000	80.729300
575.000000	80.725300
574.000000	80.712700
573.000000	80.633600
572.000000	80.575500
571.000000	80.550300
570.000000	80.445100
569.000000	80.346300
568.000000	80.245800
567.000000	80.102800
566.000000	79.971000
565.000000	79.854600
564.000000	79.694700
563.000000	79.528000
562.000000	79.362100
561.000000	79.137000
560.000000	78.906400
559.000000	78.783200
558.000000	78.588200
557.000000	78.329200
556.000000	78.072700
555.000000	77.825600
554.000000	77.527400
553.000000	77.210800
552.000000	76.905300
551.000000	76.583600
550.000000	76.251100
549.000000	75.844000
548.000000	75.488000
547.000000	75.085000
546.000000	74.629200
545.000000	74.145300
544.000000	73.646800
543.000000	73.074700
542.000000	72.485800
541.000000	71.841800
540.000000	71.135700
539.000000	70.388900
538.000000	69.595200
537.000000	68.769500
536.000000	67.900700
535.000000	66.968900
534.000000	65.991300
533.000000	65.005300
532.000000	63.961600
531.000000	62.905600
530.000000	61.775900
529.000000	60.672200
528.000000	59.509300
527.000000	58.334500
526.000000	57.146600
525.000000	55.884400
524.000000	54.642200
523.000000	53.379200
522.000000	52.094400
521.000000	50.783600
520.000000	49.521700
519.000000	48.247600
518.000000	47.001700
517.000000	45.767600
516.000000	44.568300
515.000000	43.382400
514.000000	42.235800
513.000000	41.079700
512.000000	40.003900
511.000000	38.955600
510.000000	37.922900
509.000000	36.947400
508.000000	36.028900
507.000000	35.136300
506.000000	34.265400
505.000000	33.422300
504.000000	32.642500
503.000000	31.884200
502.000000	31.186200
501.000000	30.535000
500.000000	29.890700
499.000000	29.298400
498.000000	28.768800
497.000000	28.302900
496.000000	27.847100
495.000000	27.439000
494.000000	27.093600
493.000000	26.812500
492.000000	26.568100
491.000000	26.347500
490.000000	26.166300
489.000000	26.023400
488.000000	25.917800
487.000000	25.824000
486.000000	25.730600
485.000000	25.663300
484.000000	25.607700
483.000000	25.555500
482.000000	25.489600
481.000000	25.432600
480.000000	25.378100
479.000000	25.349000
478.000000	25.320800
477.000000	25.294900
476.000000	25.262800
475.000000	25.220900
474.000000	25.168600
473.000000	25.112200
472.000000	25.043900
471.000000	24.951500
470.000000	24.845700
469.000000	24.743000
468.000000	24.635700
467.000000	24.526300
466.000000	24.394100
465.000000	24.246700
464.000000	24.092200
463.000000	23.930800
462.000000	23.749700
461.000000	23.595100
460.000000	23.421800
459.000000	23.239100
458.000000	23.051100
457.000000	22.850300
456.000000	22.651000
455.000000	22.442300
454.000000	22.238000
453.000000	22.024600
452.000000	21.780000
451.000000	21.537500
450.000000	21.298100
449.000000	21.034200
448.000000	20.777100
447.000000	20.507300
446.000000	20.237900
445.000000	19.983500
444.000000	19.699000
443.000000	19.380200
442.000000	19.069200
441.000000	18.756700
440.000000	18.428500
439.000000	18.098600
438.000000	17.748600
437.000000	17.403800
436.000000	17.068800
435.000000	16.718300
434.000000	16.347600
433.000000	15.978800
432.000000	15.602400
431.000000	15.217100
430.000000	14.830500
429.000000	14.453800
428.000000	14.075800
427.000000	13.696100
426.000000	13.316300
425.000000	12.951400
424.000000	12.575800
423.000000	12.196400
422.000000	11.840600
421.000000	11.477900
420.000000	11.120600
419.000000	10.799200
418.000000	10.494900
417.000000	10.182000
416.000000	9.880700
415.000000	9.614900
414.000000	9.353300
413.000000	9.093100
412.000000	8.849600
411.000000	8.651500
410.000000	8.441300
409.000000	8.258500
408.000000	8.089300
407.000000	7.927100
406.000000	7.784200
405.000000	7.643600
404.000000	7.509600
403.000000	7.413900
402.000000	7.309000
401.000000	7.215100
400.000000	7.122600
399.000000	7.048100
398.000000	6.982700
397.000000	6.916600
396.000000	6.843700
395.000000	6.805900
394.000000	6.771400
393.000000	6.719600
392.000000	6.682100
391.000000	6.639000
390.000000	6.611400
389.000000	6.593100
388.000000	6.561000
387.000000	6.524500
386.000000	6.500700
385.000000	6.465800
384.000000	6.451500
383.000000	6.416400
382.000000	6.396400
381.000000	6.385400
380.000000	6.370900
379.000000	6.371900
378.000000	6.350400
377.000000	6.338500
376.000000	6.322500
375.000000	6.272300
374.000000	6.089500
373.000000	6.150500
372.000000	6.175700
371.000000	6.147300
370.000000	6.129000
369.000000	6.197100
368.000000	6.260000
367.000000	6.225200
366.000000	6.253000
365.000000	6.254800
364.000000	6.244500
363.000000	6.218000
362.000000	6.120600
361.000000	6.202200
360.000000	6.250200
359.000000	6.312900
358.000000	6.229800
357.000000	6.263500
356.000000	6.415800
355.000000	6.217600
354.000000	6.183800
353.000000	6.171300
352.000000	6.183000
351.000000	6.244900
350.000000	6.249700
349.000000	6.211200
348.000000	6.208200
347.000000	6.289700
346.000000	6.249100
345.000000	6.116600
344.000000	6.175200
343.000000	6.047400
342.000000	6.053100
341.000000	6.222000
340.000000	6.219600
339.000000	6.116900
338.000000	6.114400
337.000000	6.055300
336.000000	6.281700
335.000000	6.355500
334.000000	6.336400
333.000000	6.195800
332.000000	6.230100
331.000000	6.238800
330.000000	6.217800
329.000000	6.284300
328.000000	6.454400
327.000000	6.507000
326.000000	6.387700
325.000000	6.054000
324.000000	6.484200
323.000000	6.597400
322.000000	6.394200
321.000000	6.185000
320.000000	6.380000
319.000000	6.462600
318.000000	6.752400
317.000000	6.860100
316.000000	6.068200
315.000000	5.975200
314.000000	6.031200
313.000000	6.046600
312.000000	6.030400
311.000000	5.975800
310.000000	6.001800
309.000000	5.974600
308.000000	6.025800
307.000000	6.009600
306.000000	6.043100
305.000000	5.990900
304.000000	5.990800
303.000000	6.072500
302.000000	6.034800
301.000000	6.019000
300.000000	5.986100
299.000000	6.024200
298.000000	6.068600
297.000000	6.088600
296.000000	5.983600
295.000000	5.978200
294.000000	6.049700
293.000000	6.041500
292.000000	5.989900
291.000000	6.060200
290.000000	6.007200
289.000000	5.984400
288.000000	5.991800
287.000000	5.997900
286.000000	6.048000
285.000000	6.032100
284.000000	6.015900
283.000000	6.054200
282.000000	6.064300
281.000000	6.089300
280.000000	6.088000
279.000000	6.042000
278.000000	6.068400
277.000000	6.098900
276.000000	6.123300
275.000000	6.138600
274.000000	6.145900
273.000000	6.116400
272.000000	6.163100
271.000000	6.197600
270.000000	6.173500
269.000000	6.196900
268.000000	6.206200
267.000000	6.255600
266.000000	6.256400
265.000000	6.259900
264.000000	6.335700
263.000000	6.274600
262.000000	6.391900
261.000000	6.430400
260.000000	6.486200
259.000000	6.439600
258.000000	6.466300
257.000000	6.463700
256.000000	6.513500
255.000000	6.544500
254.000000	6.560400
253.000000	6.546800
252.000000	6.600800
251.000000	6.602200
250.000000	6.602000
