PE UV       SUBTECH     SPECTRUM    ASCII       PEDS        4.00        
   -1
CICIMAUCR0223-2.ASC
24/06/14
12:25:51.00
24/06/14
12:25:51.00
Vinicio Soto Monge
C. resplendens. Sex M. Ventral 
250,000000
1
Lambda 1050
1050L1511233
PerkinElmer UV WinLab 6.3.2.0749 / 2.02.05 Lambda 900 UV/VIS/NIR, Aug  7 2015 09:38:08

0
0
3350/servo 860,8/2
0
0
UV/VIS
1
1
1
DoubleDePol,CommonBeamDepol,RBeamAtt,SBeamAtt,60mm sphere, WB InGaAs Detector
0
0
0
0
Program
Program
3350/servo 860,8/2
3350/0,2 860,8/0,2
3350/0,2 860,8/0,2
0
15.00
 
 
 
0
 
860,8
319,2
860,8
Front
100
on
S:100 R:100
0
0
0
0
 
0
 
 
 
0
 
 
0
0
0
0
0
 
 
 
 
0
0


0
0
#HDR
-1
-1
#GR
nm
%R
1.0
0.0
2500,000000
-1,000000
2251
8
55,741500
4,289200
#DATA
2482.000000	6.493155
2481.000000	6.489821
2480.000000	6.481774
2479.000000	6.491431
2478.000000	6.462115
2477.000000	6.497524
2476.000000	6.483613
2475.000000	6.493615
2474.000000	6.530633
2473.000000	6.562477
2472.000000	6.506606
2471.000000	6.540864
2470.000000	6.566271
2469.000000	6.562362
2468.000000	6.541209
2467.000000	6.506376
2466.000000	6.546727
2465.000000	6.513848
2464.000000	6.549371
2463.000000	6.543393
2462.000000	6.584665
2461.000000	6.616164
2460.000000	6.584550
2459.000000	6.628005
2458.000000	6.632259
2457.000000	6.676864
2456.000000	6.716641
2455.000000	6.748600
2454.000000	6.757682
2453.000000	6.798149
2452.000000	6.817232
2451.000000	6.861837
2450.000000	6.869885
2449.000000	6.933689
2448.000000	6.945070
2447.000000	6.985536
2446.000000	7.017956
2445.000000	7.053939
2444.000000	7.075436
2443.000000	7.118202
2442.000000	7.154070
2441.000000	7.187524
2440.000000	7.247419
2439.000000	7.279953
2438.000000	7.302716
2437.000000	7.329157
2436.000000	7.390891
2435.000000	7.394685
2434.000000	7.434692
2433.000000	7.458029
2432.000000	7.478722
2431.000000	7.511371
2430.000000	7.545975
2429.000000	7.577359
2428.000000	7.617481
2427.000000	7.643348
2426.000000	7.654384
2425.000000	7.675767
2424.000000	7.705887
2423.000000	7.722786
2422.000000	7.741410
2421.000000	7.757964
2420.000000	7.797051
2419.000000	7.792913
2418.000000	7.811996
2417.000000	7.821538
2416.000000	7.868213
2415.000000	7.889136
2414.000000	7.886377
2413.000000	7.889481
2412.000000	7.921900
2411.000000	7.951560
2410.000000	7.971448
2409.000000	7.979611
2408.000000	7.990302
2407.000000	8.000879
2406.000000	8.012605
2405.000000	8.028010
2404.000000	8.051232
2403.000000	8.071580
2402.000000	8.092273
2401.000000	8.127566
2400.000000	8.153778
2399.000000	8.142741
2398.000000	8.156537
2397.000000	8.179184
2396.000000	8.188841
2395.000000	8.205740
2394.000000	8.239769
2393.000000	8.250001
2392.000000	8.253794
2391.000000	8.275637
2390.000000	8.292307
2389.000000	8.291847
2388.000000	8.303803
2387.000000	8.313805
2386.000000	8.320012
2385.000000	8.329899
2384.000000	8.347718
2383.000000	8.358870
2382.000000	8.362893
2381.000000	8.358065
2380.000000	8.362203
2379.000000	8.345879
2378.000000	8.340476
2377.000000	8.371975
2376.000000	8.353696
2375.000000	8.331164
2374.000000	8.344959
2373.000000	8.330014
2372.000000	8.322427
2371.000000	8.324956
2370.000000	8.312770
2369.000000	8.303113
2368.000000	8.292537
2367.000000	8.260232
2366.000000	8.243218
2365.000000	8.229423
2364.000000	8.202751
2363.000000	8.175850
2362.000000	8.146880
2361.000000	8.128601
2360.000000	8.111127
2359.000000	8.100206
2358.000000	8.080432
2357.000000	8.042610
2356.000000	8.011110
2355.000000	7.999269
2354.000000	7.984324
2353.000000	7.970069
2352.000000	7.967540
2351.000000	7.980875
2350.000000	7.980415
2349.000000	7.972598
2348.000000	7.991912
2347.000000	8.022951
2346.000000	8.037666
2345.000000	8.052037
2344.000000	8.066292
2343.000000	8.097676
2342.000000	8.132165
2341.000000	8.151249
2340.000000	8.155502
2339.000000	8.158376
2338.000000	8.178380
2337.000000	8.204821
2336.000000	8.212638
2335.000000	8.203556
2334.000000	8.201717
2333.000000	8.202866
2332.000000	8.207810
2331.000000	8.178150
2330.000000	8.143891
2329.000000	8.126992
2328.000000	8.112736
2327.000000	8.105494
2326.000000	8.083076
2325.000000	8.051462
2324.000000	8.002143
2323.000000	7.948916
2322.000000	7.918336
2321.000000	7.886377
2320.000000	7.846945
2319.000000	7.799006
2318.000000	7.730489
2317.000000	7.710600
2316.000000	7.668984
2315.000000	7.627368
2314.000000	7.546205
2313.000000	7.490908
2312.000000	7.455730
2311.000000	7.427679
2310.000000	7.391121
2309.000000	7.351115
2308.000000	7.329272
2307.000000	7.309843
2306.000000	7.292829
2305.000000	7.286966
2304.000000	7.297198
2303.000000	7.298117
2302.000000	7.321110
2301.000000	7.321799
2300.000000	7.365025
2299.000000	7.394340
2298.000000	7.449867
2297.000000	7.496771
2296.000000	7.535858
2295.000000	7.573451
2294.000000	7.615527
2293.000000	7.632771
2292.000000	7.665305
2291.000000	7.695425
2290.000000	7.718762
2289.000000	7.726005
2288.000000	7.751986
2287.000000	7.782336
2286.000000	7.764402
2285.000000	7.759114
2284.000000	7.761183
2283.000000	7.727959
2282.000000	7.714624
2281.000000	7.685883
2280.000000	7.656453
2279.000000	7.633576
2278.000000	7.615987
2277.000000	7.598283
2276.000000	7.582993
2275.000000	7.553332
2274.000000	7.525742
2273.000000	7.531950
2272.000000	7.503899
2271.000000	7.490678
2270.000000	7.522523
2269.000000	7.512291
2268.000000	7.561725
2267.000000	7.572531
2266.000000	7.600927
2265.000000	7.648636
2264.000000	7.725660
2263.000000	7.786820
2262.000000	7.860740
2261.000000	7.947306
2260.000000	8.068706
2259.000000	8.171827
2258.000000	8.291732
2257.000000	8.415316
2256.000000	8.540164
2255.000000	8.661334
2254.000000	8.794575
2253.000000	8.933103
2252.000000	9.060021
2251.000000	9.179352
2250.000000	9.323859
2249.000000	9.444453
2248.000000	9.543435
2247.000000	9.635520
2246.000000	9.752436
2245.000000	9.868662
2244.000000	9.935915
2243.000000	10.017998
2242.000000	10.108932
2241.000000	10.186072
2240.000000	10.242633
2239.000000	10.340006
2238.000000	10.380932
2237.000000	10.427032
2236.000000	10.482213
2235.000000	10.504861
2234.000000	10.562916
2233.000000	10.597750
2232.000000	10.647758
2231.000000	10.662473
2230.000000	10.685121
2229.000000	10.721104
2228.000000	10.719954
2227.000000	10.746050
2226.000000	10.721104
2225.000000	10.734554
2224.000000	10.754098
2223.000000	10.754213
2222.000000	10.708688
2221.000000	10.733175
2220.000000	10.734209
2219.000000	10.669946
2218.000000	10.689719
2217.000000	10.673854
2216.000000	10.641435
2215.000000	10.642125
2214.000000	10.614534
2213.000000	10.615339
2212.000000	10.592462
2211.000000	10.571768
2210.000000	10.562571
2209.000000	10.535785
2208.000000	10.543373
2207.000000	10.504746
2206.000000	10.507620
2205.000000	10.479339
2204.000000	10.471982
2203.000000	10.462900
2202.000000	10.447725
2201.000000	10.461750
2200.000000	10.442781
2199.000000	10.426802
2198.000000	10.393118
2197.000000	10.400360
2196.000000	10.415190
2195.000000	10.418869
2194.000000	10.405764
2193.000000	10.410477
2192.000000	10.401280
2191.000000	10.383231
2190.000000	10.381162
2189.000000	10.390704
2188.000000	10.371965
2187.000000	10.379897
2186.000000	10.350007
2185.000000	10.339316
2184.000000	10.327590
2183.000000	10.341040
2182.000000	10.319887
2181.000000	10.315978
2180.000000	10.299769
2179.000000	10.301493
2178.000000	10.281375
2177.000000	10.278041
2176.000000	10.270339
2175.000000	10.269994
2174.000000	10.263441
2173.000000	10.271833
2172.000000	10.268154
2171.000000	10.285169
2170.000000	10.276662
2169.000000	10.295285
2168.000000	10.298159
2167.000000	10.317013
2166.000000	10.305287
2165.000000	10.320692
2164.000000	10.337476
2163.000000	10.353456
2162.000000	10.358514
2161.000000	10.360699
2160.000000	10.379093
2159.000000	10.407603
2158.000000	10.433010
2157.000000	10.462210
2156.000000	10.475315
2155.000000	10.514862
2154.000000	10.517621
2153.000000	10.553489
2152.000000	10.586024
2151.000000	10.596370
2150.000000	10.620972
2149.000000	10.649253
2148.000000	10.674889
2147.000000	10.716965
2146.000000	10.726392
2145.000000	10.740762
2144.000000	10.764559
2143.000000	10.810889
2142.000000	10.815027
2141.000000	10.816292
2140.000000	10.841354
2139.000000	10.869174
2138.000000	10.895961
2137.000000	10.916424
2136.000000	10.931599
2135.000000	10.944474
2134.000000	10.955166
2133.000000	10.983102
2132.000000	10.975974
2131.000000	10.982297
2130.000000	10.986206
2129.000000	10.975169
2128.000000	10.994483
2127.000000	11.001840
2126.000000	10.989195
2125.000000	11.001725
2124.000000	10.993103
2123.000000	11.001381
2122.000000	10.996322
2121.000000	10.965857
2120.000000	10.961604
2119.000000	10.952522
2118.000000	10.944474
2117.000000	10.942290
2116.000000	10.935737
2115.000000	10.908721
2114.000000	10.873428
2113.000000	10.882165
2112.000000	10.870899
2111.000000	10.831007
2110.000000	10.823650
2109.000000	10.809049
2108.000000	10.773526
2107.000000	10.762490
2106.000000	10.757087
2105.000000	10.728806
2104.000000	10.707538
2103.000000	10.687305
2102.000000	10.672015
2101.000000	10.663623
2100.000000	10.639251
2099.000000	10.616603
2098.000000	10.607522
2097.000000	10.597635
2096.000000	10.586713
2095.000000	10.568664
2094.000000	10.549351
2093.000000	10.531877
2092.000000	10.517392
2091.000000	10.502102
2090.000000	10.488996
2089.000000	10.487616
2088.000000	10.469223
2087.000000	10.457611
2086.000000	10.453358
2085.000000	10.427721
2084.000000	10.405649
2083.000000	10.400245
2082.000000	10.396337
2081.000000	10.374724
2080.000000	10.361618
2079.000000	10.347363
2078.000000	10.306322
2077.000000	10.273788
2076.000000	10.263211
2075.000000	10.253439
2074.000000	10.220445
2073.000000	10.192280
2072.000000	10.166183
2071.000000	10.129970
2070.000000	10.109737
2069.000000	10.079272
2068.000000	10.045703
2067.000000	10.036162
2066.000000	10.003053
2065.000000	9.973048
2064.000000	9.949136
2063.000000	9.911313
2062.000000	9.895678
2061.000000	9.884412
2060.000000	9.865903
2059.000000	9.855557
2058.000000	9.842336
2057.000000	9.824632
2056.000000	9.813251
2055.000000	9.820493
2054.000000	9.826701
2053.000000	9.821643
2052.000000	9.835553
2051.000000	9.860040
2050.000000	9.896253
2049.000000	9.907634
2048.000000	9.945227
2047.000000	9.996040
2046.000000	10.031908
2045.000000	10.069041
2044.000000	10.130085
2043.000000	10.200787
2042.000000	10.234011
2041.000000	10.281145
2040.000000	10.338166
2039.000000	10.386105
2038.000000	10.429676
2037.000000	10.454048
2036.000000	10.487386
2035.000000	10.528543
2034.000000	10.561192
2033.000000	10.590507
2032.000000	10.635342
2031.000000	10.681672
2030.000000	10.704549
2029.000000	10.713286
2028.000000	10.728921
2027.000000	10.745591
2026.000000	10.766973
2025.000000	10.793760
2024.000000	10.812728
2023.000000	10.825029
2022.000000	10.835836
2021.000000	10.841124
2020.000000	10.852160
2019.000000	10.860207
2018.000000	10.852275
2017.000000	10.853080
2016.000000	10.860322
2015.000000	10.852505
2014.000000	10.851585
2013.000000	10.840204
2012.000000	10.858253
2011.000000	10.852275
2010.000000	10.813993
2009.000000	10.819856
2008.000000	10.797093
2007.000000	10.788701
2006.000000	10.772262
2005.000000	10.745246
2004.000000	10.707423
2003.000000	10.691444
2002.000000	10.658909
2001.000000	10.621087
2000.000000	10.576252
1999.000000	10.567515
1998.000000	10.509689
1997.000000	10.498308
1996.000000	10.457496
1995.000000	10.417260
1994.000000	10.379093
1993.000000	10.327590
1992.000000	10.288158
1991.000000	10.261372
1990.000000	10.199867
1989.000000	10.165264
1988.000000	10.117325
1987.000000	10.069041
1986.000000	10.022021
1985.000000	9.980175
1984.000000	9.933386
1983.000000	9.874870
1982.000000	9.837738
1981.000000	9.796236
1980.000000	9.731743
1979.000000	9.682309
1978.000000	9.657822
1977.000000	9.625518
1976.000000	9.552632
1975.000000	9.527226
1974.000000	9.453535
1973.000000	9.407091
1972.000000	9.370303
1971.000000	9.325468
1970.000000	9.290175
1969.000000	9.262699
1968.000000	9.199355
1967.000000	9.180501
1966.000000	9.135436
1965.000000	9.089566
1964.000000	9.042087
1963.000000	9.033120
1962.000000	8.971156
1961.000000	8.916664
1960.000000	8.904133
1959.000000	8.874243
1958.000000	8.838835
1957.000000	8.788252
1956.000000	8.759971
1955.000000	8.727897
1954.000000	8.702375
1953.000000	8.676739
1952.000000	8.632478
1951.000000	8.569824
1950.000000	8.573158
1949.000000	8.528553
1948.000000	8.504641
1947.000000	8.486247
1946.000000	8.468428
1945.000000	8.472452
1944.000000	8.426927
1943.000000	8.404394
1942.000000	8.396577
1941.000000	8.354731
1940.000000	8.382322
1939.000000	8.371975
1938.000000	8.350707
1937.000000	8.348868
1936.000000	8.352891
1935.000000	8.344959
1934.000000	8.358065
1933.000000	8.362433
1932.000000	8.394163
1931.000000	8.399796
1930.000000	8.416006
1929.000000	8.468313
1928.000000	8.475441
1927.000000	8.529013
1926.000000	8.569939
1925.000000	8.603048
1924.000000	8.649723
1923.000000	8.712377
1922.000000	8.765374
1921.000000	8.811474
1920.000000	8.880106
1919.000000	8.964603
1918.000000	9.037029
1917.000000	9.101408
1916.000000	9.181766
1915.000000	9.253962
1914.000000	9.361451
1913.000000	9.457099
1912.000000	9.571141
1911.000000	9.675182
1910.000000	9.763932
1909.000000	9.886826
1908.000000	10.008111
1907.000000	10.125257
1906.000000	10.229757
1905.000000	10.395187
1904.000000	10.561192
1903.000000	10.728001
1902.000000	10.888603
1901.000000	11.043112
1900.000000	11.194171
1899.000000	11.404207
1898.000000	11.597457
1897.000000	11.811056
1896.000000	12.015688
1895.000000	12.190660
1894.000000	12.407248
1893.000000	12.616593
1892.000000	12.882845
1891.000000	13.150706
1890.000000	13.441099
1889.000000	13.728618
1888.000000	14.045568
1887.000000	14.335042
1886.000000	14.654635
1885.000000	15.060795
1884.000000	15.464656
1883.000000	15.903235
1882.000000	16.382855
1881.000000	16.819825
1880.000000	17.305079
1879.000000	17.762167
1878.000000	18.213047
1877.000000	18.657374
1876.000000	19.118026
1875.000000	19.574079
1874.000000	19.997368
1873.000000	20.435717
1872.000000	20.873147
1871.000000	21.256889
1870.000000	21.634653
1869.000000	21.990345
1868.000000	22.314997
1867.000000	22.554807
1866.000000	22.778638
1865.000000	22.943378
1864.000000	23.131800
1863.000000	23.288148
1862.000000	23.435529
1861.000000	23.598085
1860.000000	23.773172
1859.000000	23.905608
1858.000000	24.027353
1857.000000	24.127829
1856.000000	24.202784
1855.000000	24.270037
1854.000000	24.333496
1853.000000	24.348211
1852.000000	24.352924
1851.000000	24.368214
1850.000000	24.393851
1849.000000	24.407186
1848.000000	24.421786
1847.000000	24.422591
1846.000000	24.409485
1845.000000	24.360397
1844.000000	24.306250
1843.000000	24.254172
1842.000000	24.264749
1841.000000	24.287281
1840.000000	24.276015
1839.000000	24.262679
1838.000000	24.229570
1837.000000	24.189449
1836.000000	24.151741
1835.000000	24.127024
1834.000000	24.070693
1833.000000	23.997692
1832.000000	23.928026
1831.000000	23.864797
1830.000000	23.813869
1829.000000	23.753973
1828.000000	23.695228
1827.000000	23.626366
1826.000000	23.556584
1825.000000	23.493700
1824.000000	23.427252
1823.000000	23.373450
1822.000000	23.338157
1821.000000	23.320913
1820.000000	23.307002
1819.000000	23.281021
1818.000000	23.221471
1817.000000	23.197329
1816.000000	23.184223
1815.000000	23.156862
1814.000000	23.142837
1813.000000	23.132260
1812.000000	23.112142
1811.000000	23.084321
1810.000000	23.045924
1809.000000	22.999250
1808.000000	22.967060
1807.000000	22.933032
1806.000000	22.883943
1805.000000	22.816230
1804.000000	22.778523
1803.000000	22.757370
1802.000000	22.698854
1801.000000	22.639649
1800.000000	22.591595
1799.000000	22.537678
1798.000000	22.471000
1797.000000	22.415129
1796.000000	22.368454
1795.000000	22.316492
1794.000000	22.273496
1793.000000	22.228086
1792.000000	22.174399
1791.000000	22.120137
1790.000000	22.067025
1789.000000	22.014027
1788.000000	21.947120
1787.000000	21.905044
1786.000000	21.855840
1785.000000	21.782264
1784.000000	21.697882
1783.000000	21.624767
1782.000000	21.569240
1781.000000	21.495780
1780.000000	21.430941
1779.000000	21.361734
1778.000000	21.290113
1777.000000	21.199523
1776.000000	21.106634
1775.000000	21.029725
1774.000000	20.948332
1773.000000	20.845901
1772.000000	20.717489
1771.000000	20.606091
1770.000000	20.505269
1769.000000	20.400769
1768.000000	20.302132
1767.000000	20.195217
1766.000000	20.097845
1765.000000	20.021740
1764.000000	19.955867
1763.000000	19.920344
1762.000000	19.923448
1761.000000	19.932070
1760.000000	19.952418
1759.000000	20.005415
1758.000000	20.062092
1757.000000	20.146703
1756.000000	20.222923
1755.000000	20.278794
1754.000000	20.330987
1753.000000	20.358233
1752.000000	20.379961
1751.000000	20.385134
1750.000000	20.368235
1749.000000	20.369384
1748.000000	20.347312
1747.000000	20.293050
1746.000000	20.217060
1745.000000	20.133253
1744.000000	20.036570
1743.000000	19.902984
1742.000000	19.772388
1741.000000	19.609142
1740.000000	19.406580
1739.000000	19.220112
1738.000000	19.039852
1737.000000	18.836944
1736.000000	18.669445
1735.000000	18.552759
1734.000000	18.447569
1733.000000	18.398480
1732.000000	18.390203
1731.000000	18.410206
1730.000000	18.472630
1729.000000	18.537239
1728.000000	18.629553
1727.000000	18.737502
1726.000000	18.829127
1725.000000	18.920176
1724.000000	19.002604
1723.000000	19.061694
1722.000000	19.105610
1721.000000	19.153894
1720.000000	19.188727
1719.000000	19.217008
1718.000000	19.260578
1717.000000	19.314150
1716.000000	19.378069
1715.000000	19.462221
1714.000000	19.533267
1713.000000	19.595577
1712.000000	19.666968
1711.000000	19.710883
1710.000000	19.792276
1709.000000	19.792046
1708.000000	19.816648
1707.000000	19.787333
1706.000000	19.780550
1705.000000	19.733531
1704.000000	19.671796
1703.000000	19.615465
1702.000000	19.537751
1701.000000	19.436815
1700.000000	19.313691
1699.000000	19.189187
1698.000000	19.045140
1697.000000	18.899253
1696.000000	18.788430
1695.000000	18.732559
1694.000000	18.711406
1693.000000	18.746814
1692.000000	18.815101
1691.000000	18.936961
1690.000000	19.091469
1689.000000	19.233102
1688.000000	19.347604
1687.000000	19.443022
1686.000000	19.507516
1685.000000	19.540970
1684.000000	19.592013
1683.000000	19.717436
1682.000000	19.887580
1681.000000	20.195332
1680.000000	20.564245
1679.000000	21.055476
1678.000000	21.538890
1677.000000	22.045412
1676.000000	22.527446
1675.000000	22.977752
1674.000000	23.372990
1673.000000	23.733510
1672.000000	24.029422
1671.000000	24.322804
1670.000000	24.524677
1669.000000	24.741725
1668.000000	24.930607
1667.000000	25.058789
1666.000000	25.172142
1665.000000	25.313775
1664.000000	25.434599
1663.000000	25.533007
1662.000000	25.584395
1661.000000	25.666937
1660.000000	25.717405
1659.000000	25.792590
1658.000000	25.840529
1657.000000	25.859498
1656.000000	25.889158
1655.000000	25.913415
1654.000000	25.917669
1653.000000	25.902379
1652.000000	25.894446
1651.000000	25.863637
1650.000000	25.862257
1649.000000	25.823400
1648.000000	25.785348
1647.000000	25.733500
1646.000000	25.687515
1645.000000	25.644979
1644.000000	25.585199
1643.000000	25.515992
1642.000000	25.478860
1641.000000	25.395283
1640.000000	25.329065
1639.000000	25.273653
1638.000000	25.219736
1637.000000	25.167888
1636.000000	25.097647
1635.000000	25.035222
1634.000000	24.958773
1633.000000	24.873241
1632.000000	24.770580
1631.000000	24.697235
1630.000000	24.621935
1629.000000	24.522378
1628.000000	24.455470
1627.000000	24.380400
1626.000000	24.277049
1625.000000	24.191633
1624.000000	24.134152
1623.000000	24.015397
1622.000000	23.914460
1621.000000	23.841919
1620.000000	23.771793
1619.000000	23.689480
1618.000000	23.612341
1617.000000	23.551411
1616.000000	23.467834
1615.000000	23.386671
1614.000000	23.322062
1613.000000	23.236990
1612.000000	23.149505
1611.000000	23.069031
1610.000000	23.035922
1609.000000	22.943263
1608.000000	22.872677
1607.000000	22.804159
1606.000000	22.719318
1605.000000	22.634131
1604.000000	22.573891
1603.000000	22.486865
1602.000000	22.407082
1601.000000	22.346612
1600.000000	22.258321
1599.000000	22.187505
1598.000000	22.114159
1597.000000	22.030812
1596.000000	21.961835
1595.000000	21.903434
1594.000000	21.855725
1593.000000	21.774677
1592.000000	21.713862
1591.000000	21.646609
1590.000000	21.584185
1589.000000	21.535671
1588.000000	21.481065
1587.000000	21.421055
1586.000000	21.374380
1585.000000	21.339317
1584.000000	21.281721
1583.000000	21.227114
1582.000000	21.182164
1581.000000	21.144342
1580.000000	21.118130
1579.000000	21.083182
1578.000000	21.037082
1577.000000	20.996616
1576.000000	20.957529
1575.000000	20.935801
1574.000000	20.926029
1573.000000	20.906486
1572.000000	20.893610
1571.000000	20.899358
1570.000000	20.919476
1569.000000	20.892690
1568.000000	20.889931
1567.000000	20.879585
1566.000000	20.883723
1565.000000	20.885103
1564.000000	20.896369
1563.000000	20.878550
1562.000000	20.855903
1561.000000	20.866709
1560.000000	20.862570
1559.000000	20.872457
1558.000000	20.865789
1557.000000	20.853373
1556.000000	20.815091
1555.000000	20.797847
1554.000000	20.787155
1553.000000	20.775429
1552.000000	20.736802
1551.000000	20.703348
1550.000000	20.698290
1549.000000	20.647477
1548.000000	20.619771
1547.000000	20.593675
1546.000000	20.548265
1545.000000	20.521709
1544.000000	20.489749
1543.000000	20.466757
1542.000000	20.436177
1541.000000	20.415829
1540.000000	20.396975
1539.000000	20.376167
1538.000000	20.358003
1537.000000	20.332712
1536.000000	20.297073
1535.000000	20.263734
1534.000000	20.239133
1533.000000	20.223038
1532.000000	20.187515
1531.000000	20.144519
1530.000000	20.106352
1529.000000	20.083359
1528.000000	20.042433
1527.000000	19.995874
1526.000000	19.949889
1525.000000	19.909077
1524.000000	19.863553
1523.000000	19.810325
1522.000000	19.756293
1521.000000	19.704905
1520.000000	19.657771
1519.000000	19.610982
1518.000000	19.553386
1517.000000	19.506481
1516.000000	19.468774
1515.000000	19.405545
1514.000000	19.344385
1513.000000	19.288169
1512.000000	19.228964
1511.000000	19.177576
1510.000000	19.124234
1509.000000	19.059050
1508.000000	18.984095
1507.000000	18.934432
1506.000000	18.898334
1505.000000	18.832116
1504.000000	18.758770
1503.000000	18.695886
1502.000000	18.643578
1501.000000	18.599203
1500.000000	18.545631
1499.000000	18.490104
1498.000000	18.450788
1497.000000	18.404458
1496.000000	18.353645
1495.000000	18.314443
1494.000000	18.270068
1493.000000	18.220059
1492.000000	18.182122
1491.000000	18.148898
1490.000000	18.114065
1489.000000	18.076127
1488.000000	18.041639
1487.000000	18.017727
1486.000000	17.991055
1485.000000	17.954728
1484.000000	17.922653
1483.000000	17.901845
1482.000000	17.879083
1481.000000	17.853446
1480.000000	17.847123
1479.000000	17.835742
1478.000000	17.812290
1477.000000	17.791137
1476.000000	17.791252
1475.000000	17.783320
1474.000000	17.777227
1473.000000	17.778146
1472.000000	17.763316
1471.000000	17.765845
1470.000000	17.781595
1469.000000	17.784124
1468.000000	17.777916
1467.000000	17.785734
1466.000000	17.782515
1465.000000	17.799184
1464.000000	17.807806
1463.000000	17.815394
1462.000000	17.847928
1461.000000	17.887245
1460.000000	17.914261
1459.000000	17.962775
1458.000000	17.985997
1457.000000	18.033246
1456.000000	18.096016
1455.000000	18.168212
1454.000000	18.212587
1453.000000	18.256962
1452.000000	18.325364
1451.000000	18.405952
1450.000000	18.485161
1449.000000	18.541722
1448.000000	18.610469
1447.000000	18.690598
1446.000000	18.771186
1445.000000	18.859936
1444.000000	18.937421
1443.000000	19.022952
1442.000000	19.139753
1441.000000	19.236206
1440.000000	19.322772
1439.000000	19.422559
1438.000000	19.530278
1437.000000	19.639722
1436.000000	19.749511
1435.000000	19.833778
1434.000000	19.952188
1433.000000	20.076692
1432.000000	20.218899
1431.000000	20.345127
1430.000000	20.488255
1429.000000	20.624370
1428.000000	20.768302
1427.000000	20.925224
1426.000000	21.099277
1425.000000	21.271374
1424.000000	21.470143
1423.000000	21.708919
1422.000000	21.897111
1421.000000	22.109331
1420.000000	22.332356
1419.000000	22.596309
1418.000000	22.843591
1417.000000	23.077883
1416.000000	23.336087
1415.000000	23.600270
1414.000000	23.901125
1413.000000	24.207498
1412.000000	24.497776
1411.000000	24.794492
1410.000000	25.130296
1409.000000	25.530478
1408.000000	25.939741
1407.000000	26.360501
1406.000000	26.781261
1405.000000	27.204781
1404.000000	27.663363
1403.000000	28.143673
1402.000000	28.590300
1401.000000	29.021636
1400.000000	29.569314
1399.000000	30.065489
1398.000000	30.446472
1397.000000	30.738705
1396.000000	31.170272
1395.000000	31.629659
1394.000000	32.064329
1393.000000	32.387602
1392.000000	32.743868
1391.000000	33.191529
1390.000000	33.613784
1389.000000	33.967636
1388.000000	34.471283
1387.000000	35.062992
1386.000000	35.649986
1385.000000	36.239050
1384.000000	36.870880
1383.000000	37.545476
1382.000000	38.190756
1381.000000	38.866272
1380.000000	39.365436
1379.000000	39.696410
1378.000000	39.988413
1377.000000	40.245583
1376.000000	40.478725
1375.000000	40.695658
1374.000000	41.018241
1373.000000	41.339674
1372.000000	41.707896
1371.000000	42.141992
1370.000000	42.557694
1369.000000	42.916719
1368.000000	43.279998
1367.000000	43.638104
1366.000000	43.920220
1365.000000	44.176815
1364.000000	44.430651
1363.000000	44.633788
1362.000000	44.851296
1361.000000	45.077196
1360.000000	45.283552
1359.000000	45.324018
1358.000000	45.450246
1357.000000	45.570267
1356.000000	45.764552
1355.000000	46.048278
1354.000000	46.432020
1353.000000	46.894971
1352.000000	47.327917
1351.000000	47.893069
1350.000000	48.425802
1349.000000	48.911285
1348.000000	49.372972
1347.000000	49.843740
1346.000000	50.265075
1345.000000	50.642724
1344.000000	51.052793
1343.000000	51.434811
1342.000000	51.820852
1341.000000	52.156886
1340.000000	52.528327
1339.000000	52.884823
1338.000000	53.201198
1337.000000	53.546428
1336.000000	53.882002
1335.000000	54.222059
1334.000000	54.540158
1333.000000	54.823768
1332.000000	55.133705
1331.000000	55.402486
1330.000000	55.688626
1329.000000	55.963959
1328.000000	56.220899
1327.000000	56.472435
1326.000000	56.703968
1325.000000	56.939295
1324.000000	57.160481
1323.000000	57.376149
1322.000000	57.575838
1321.000000	57.759662
1320.000000	57.942681
1319.000000	58.120642
1318.000000	58.292395
1317.000000	58.455066
1316.000000	58.613368
1315.000000	58.776039
1314.000000	58.898703
1313.000000	59.057005
1312.000000	59.180014
1311.000000	59.297735
1310.000000	59.437644
1309.000000	59.528923
1308.000000	59.641011
1307.000000	59.731371
1306.000000	59.816673
1305.000000	59.890708
1304.000000	59.967158
1303.000000	60.018775
1302.000000	60.073612
1301.000000	60.102123
1300.000000	60.142934
1299.000000	60.170870
1298.000000	60.193632
1297.000000	60.224672
1296.000000	60.239617
1295.000000	60.259160
1294.000000	60.244330
1293.000000	60.265368
1292.000000	60.266288
1291.000000	60.251803
1290.000000	60.230765
1289.000000	60.209957
1288.000000	60.187884
1287.000000	60.142474
1286.000000	60.096260
1285.000000	60.051080
1284.000000	59.987621
1283.000000	59.931634
1282.000000	59.855760
1281.000000	59.793335
1280.000000	59.714587
1279.000000	59.648024
1278.000000	59.576518
1277.000000	59.509265
1276.000000	59.446726
1275.000000	59.400856
1274.000000	59.348203
1273.000000	59.298885
1272.000000	59.256579
1271.000000	59.200363
1270.000000	59.150814
1269.000000	59.108738
1268.000000	59.064478
1267.000000	59.025506
1266.000000	58.964806
1265.000000	58.903761
1264.000000	58.842832
1263.000000	58.770406
1262.000000	58.714419
1261.000000	58.658663
1260.000000	58.599228
1259.000000	58.540827
1258.000000	58.472540
1257.000000	58.397470
1256.000000	58.318721
1255.000000	58.256527
1254.000000	58.174099
1253.000000	58.073163
1252.000000	57.979009
1251.000000	57.891178
1250.000000	57.789782
1249.000000	57.693444
1248.000000	57.576528
1247.000000	57.446161
1246.000000	57.326371
1245.000000	57.204626
1244.000000	57.058280
1243.000000	56.902737
1242.000000	56.759839
1241.000000	56.610734
1240.000000	56.452777
1239.000000	56.285967
1238.000000	56.129389
1237.000000	55.968098
1236.000000	55.789102
1235.000000	55.611716
1234.000000	55.445137
1233.000000	55.254530
1232.000000	55.068752
1231.000000	54.884813
1230.000000	54.676617
1229.000000	54.471985
1228.000000	54.260916
1227.000000	54.040189
1226.000000	53.843260
1225.000000	53.648399
1224.000000	53.427098
1223.000000	53.195105
1222.000000	52.966101
1221.000000	52.754802
1220.000000	52.536949
1219.000000	52.318637
1218.000000	52.108832
1217.000000	51.914316
1216.000000	51.735666
1215.000000	51.540001
1214.000000	51.354452
1213.000000	51.181205
1212.000000	51.003014
1211.000000	50.819191
1210.000000	50.659854
1209.000000	50.501206
1208.000000	50.343479
1207.000000	50.214722
1206.000000	50.075158
1205.000000	49.956058
1204.000000	49.865583
1203.000000	49.776257
1202.000000	49.706821
1201.000000	49.630026
1200.000000	49.559784
1199.000000	49.469080
1198.000000	49.366879
1197.000000	49.235707
1196.000000	49.059701
1195.000000	48.847366
1194.000000	48.578586
1193.000000	48.246001
1192.000000	47.865593
1191.000000	47.437705
1190.000000	46.966477
1189.000000	46.501687
1188.000000	46.083456
1187.000000	45.759609
1186.000000	45.570152
1185.000000	45.487034
1184.000000	45.523132
1183.000000	45.690746
1182.000000	46.006776
1181.000000	46.460990
1180.000000	46.939116
1179.000000	47.446902
1178.000000	47.942043
1177.000000	48.367631
1176.000000	48.777010
1175.000000	49.156843
1174.000000	49.474483
1173.000000	49.779936
1172.000000	50.101484
1171.000000	50.423607
1170.000000	50.768377
1169.000000	51.098778
1168.000000	51.436420
1167.000000	51.789468
1166.000000	52.147229
1165.000000	52.515451
1164.000000	52.889997
1163.000000	53.247298
1162.000000	53.636903
1161.000000	54.020301
1160.000000	54.398985
1159.000000	54.750193
1158.000000	55.110253
1157.000000	55.447091
1156.000000	55.767604
1155.000000	56.054319
1154.000000	56.321720
1153.000000	56.511062
1152.000000	56.667755
1151.000000	56.785361
1150.000000	56.867789
1149.000000	56.951826
1148.000000	57.031609
1147.000000	57.103920
1146.000000	57.217042
1145.000000	57.391094
1144.000000	57.624352
1143.000000	57.877383
1142.000000	58.198816
1141.000000	58.568763
1140.000000	58.917557
1139.000000	59.309231
1138.000000	59.693778
1137.000000	60.090397
1136.000000	60.515295
1135.000000	60.949851
1134.000000	61.429586
1133.000000	61.848852
1132.000000	62.186839
1131.000000	62.516435
1130.000000	62.842121
1129.000000	63.122283
1128.000000	63.339791
1127.000000	63.540169
1126.000000	63.670651
1125.000000	63.774231
1124.000000	63.874018
1123.000000	63.952997
1122.000000	64.001166
1121.000000	64.043127
1120.000000	64.056577
1119.000000	64.061406
1118.000000	64.064969
1117.000000	64.081409
1116.000000	64.042552
1115.000000	64.003810
1114.000000	63.969551
1113.000000	63.934948
1112.000000	63.902643
1111.000000	63.867810
1110.000000	63.825619
1109.000000	63.783658
1108.000000	63.744456
1107.000000	63.694448
1106.000000	63.660649
1105.000000	63.599259
1104.000000	63.572703
1103.000000	63.509819
1102.000000	63.471307
1101.000000	63.428426
1100.000000	63.363243
1099.000000	63.312890
1098.000000	63.264721
1097.000000	63.196893
1096.000000	63.143666
1095.000000	63.056985
1094.000000	63.013184
1093.000000	62.943173
1092.000000	62.851433
1091.000000	62.797861
1090.000000	62.707386
1089.000000	62.638064
1088.000000	62.542416
1087.000000	62.465851
1086.000000	62.368939
1085.000000	62.275935
1084.000000	62.173619
1083.000000	62.107746
1082.000000	61.981288
1081.000000	61.902884
1080.000000	61.791486
1079.000000	61.717335
1078.000000	61.621342
1077.000000	61.501207
1076.000000	61.425333
1075.000000	61.340491
1074.000000	61.225759
1073.000000	61.144711
1072.000000	61.020782
1071.000000	60.935940
1070.000000	60.832705
1069.000000	60.738666
1068.000000	60.625429
1067.000000	60.518169
1066.000000	60.431948
1065.000000	60.303421
1064.000000	60.209152
1063.000000	60.106606
1062.000000	59.992564
1061.000000	59.893927
1060.000000	59.777816
1059.000000	59.660555
1058.000000	59.562607
1057.000000	59.449140
1056.000000	59.324061
1055.000000	59.217262
1054.000000	59.086780
1053.000000	58.983775
1052.000000	58.855477
1051.000000	58.745919
1050.000000	58.656708
1049.000000	58.534389
1048.000000	58.411955
1047.000000	58.314812
1046.000000	58.215945
1045.000000	58.103742
1044.000000	57.992689
1043.000000	57.912676
1042.000000	57.797484
1041.000000	57.692984
1040.000000	57.594347
1039.000000	57.494215
1038.000000	57.402361
1037.000000	57.298665
1036.000000	57.191061
1035.000000	57.068167
1034.000000	56.959298
1033.000000	56.834220
1032.000000	56.719603
1031.000000	56.604296
1030.000000	56.490254
1029.000000	56.370579
1028.000000	56.270332
1027.000000	56.117893
1026.000000	56.008794
1025.000000	55.895097
1024.000000	55.775192
1023.000000	55.631145
1022.000000	55.495375
1021.000000	55.375815
1020.000000	55.252461
1019.000000	55.139109
1018.000000	55.009892
1017.000000	54.896769
1016.000000	54.798937
1015.000000	54.692022
1014.000000	54.588902
1013.000000	54.491184
1012.000000	54.399904
1011.000000	54.318971
1010.000000	54.248960
1009.000000	54.171131
1008.000000	54.100084
1007.000000	54.047087
1006.000000	54.005011
1005.000000	53.943966
1004.000000	53.880622
1003.000000	53.820842
1002.000000	53.755199
1001.000000	53.685877
1000.000000	53.626672
999.000000	53.574019
998.000000	53.521022
997.000000	53.466760
996.000000	53.432386
995.000000	53.374331
994.000000	53.314550
993.000000	53.282706
992.000000	53.238101
991.000000	53.184069
990.000000	53.146017
989.000000	53.100377
988.000000	53.070947
987.000000	53.031745
986.000000	52.993347
985.000000	52.968746
984.000000	52.932762
983.000000	52.890686
982.000000	52.867809
981.000000	52.857577
980.000000	52.831136
979.000000	52.797912
978.000000	52.776185
977.000000	52.769402
976.000000	52.742846
975.000000	52.732499
974.000000	52.722153
973.000000	52.702264
972.000000	52.674788
971.000000	52.664787
970.000000	52.659498
969.000000	52.654670
968.000000	52.638460
967.000000	52.626619
966.000000	52.612019
965.000000	52.599373
964.000000	52.606961
963.000000	52.602017
962.000000	52.607766
961.000000	52.607996
960.000000	52.605811
959.000000	52.616273
958.000000	52.629838
957.000000	52.640760
956.000000	52.653980
955.000000	52.655590
954.000000	52.652256
953.000000	52.665476
952.000000	52.690538
951.000000	52.695481
950.000000	52.699965
949.000000	52.711001
948.000000	52.715945
947.000000	52.737213
946.000000	52.751238
945.000000	52.739167
944.000000	52.738592
943.000000	52.747099
942.000000	52.736063
941.000000	52.720083
940.000000	52.733419
939.000000	52.732959
938.000000	52.711461
937.000000	52.708357
936.000000	52.735028
935.000000	52.728016
934.000000	52.716979
933.000000	52.721463
932.000000	52.712611
931.000000	52.716864
930.000000	52.741926
929.000000	52.744340
928.000000	52.711576
927.000000	52.722153
926.000000	52.738822
925.000000	52.729740
924.000000	52.718129
923.000000	52.711691
922.000000	52.699735
921.000000	52.733189
920.000000	52.731235
919.000000	52.707437
918.000000	52.676973
917.000000	52.651221
916.000000	52.679617
915.000000	52.659383
914.000000	52.627884
913.000000	52.599603
912.000000	52.573047
911.000000	52.571553
910.000000	52.561091
909.000000	52.543847
908.000000	52.557527
907.000000	52.562011
906.000000	52.533500
905.000000	52.512577
904.000000	52.515106
903.000000	52.543387
902.000000	52.550860
901.000000	52.572012
900.000000	52.592131
899.000000	52.633172
898.000000	52.644094
897.000000	52.623745
896.000000	52.620986
895.000000	52.636276
894.000000	52.662372
893.000000	52.677432
892.000000	52.634322
891.000000	52.611329
890.000000	52.601673
889.000000	52.567989
888.000000	52.548790
887.000000	52.536489
886.000000	52.476479
885.000000	52.407847
884.000000	52.326109
883.000000	52.263455
882.000000	52.194708
881.000000	52.112625
880.000000	52.039854
879.000000	51.953633
878.000000	51.845684
877.000000	51.685197
876.000000	51.607138
875.000000	51.446537
874.000000	51.259609
873.000000	51.066358
872.000000	50.884489
871.000000	50.769757
870.000000	50.791140
869.000000	50.855518
868.000000	50.921507
867.000000	50.974734
866.000000	51.041871
865.000000	51.105905
864.000000	51.154764
863.000000	51.226730
862.000000	51.315021
861.000000	51.340427
860.000000	51.414003
859.000000	51.472173
858.000000	51.542300
857.000000	51.193400
856.000000	51.541900
855.000000	51.891600
854.000000	51.797200
853.000000	52.083700
852.000000	51.876400
851.000000	52.275900
850.000000	52.140900
849.000000	52.257400
848.000000	52.504400
847.000000	52.360900
846.000000	52.084600
845.000000	52.234800
844.000000	52.680500
843.000000	52.457100
842.000000	52.601300
841.000000	52.967500
840.000000	52.576800
839.000000	52.720000
838.000000	52.880900
837.000000	53.029800
836.000000	52.861900
835.000000	53.040500
834.000000	52.798900
833.000000	52.853400
832.000000	52.860000
831.000000	53.046300
830.000000	53.097900
829.000000	52.915000
828.000000	52.868800
827.000000	52.872900
826.000000	53.075600
825.000000	52.927700
824.000000	53.049200
823.000000	53.075700
822.000000	52.947800
821.000000	53.048100
820.000000	53.008900
819.000000	53.038800
818.000000	53.026200
817.000000	52.827900
816.000000	52.813300
815.000000	53.015000
814.000000	52.765400
813.000000	52.857000
812.000000	52.792100
811.000000	52.806800
810.000000	52.646600
809.000000	52.668000
808.000000	52.684500
807.000000	52.648000
806.000000	52.532800
805.000000	52.628000
804.000000	52.617300
803.000000	52.557600
802.000000	52.483200
801.000000	52.533900
800.000000	52.216700
799.000000	52.420400
798.000000	52.315000
797.000000	52.169300
796.000000	52.278400
795.000000	52.010200
794.000000	52.049200
793.000000	52.044900
792.000000	51.983300
791.000000	52.187300
790.000000	52.017300
789.000000	51.936000
788.000000	51.992000
787.000000	51.871900
786.000000	51.882400
785.000000	51.847600
784.000000	51.911500
783.000000	51.708200
782.000000	51.649800
781.000000	51.678500
780.000000	51.564800
779.000000	51.579900
778.000000	51.454600
777.000000	51.343000
776.000000	51.305300
775.000000	51.327200
774.000000	51.334300
773.000000	51.176400
772.000000	51.208400
771.000000	51.108200
770.000000	51.085100
769.000000	51.075000
768.000000	51.059300
767.000000	51.007000
766.000000	50.934400
765.000000	50.896500
764.000000	50.812700
763.000000	50.710100
762.000000	50.724800
761.000000	50.603700
760.000000	50.549500
759.000000	50.392400
758.000000	50.387300
757.000000	50.215200
756.000000	50.204300
755.000000	50.141100
754.000000	50.047400
753.000000	49.866900
752.000000	49.891400
751.000000	49.790900
750.000000	49.773300
749.000000	49.698700
748.000000	49.704400
747.000000	49.648700
746.000000	49.497500
745.000000	49.417600
744.000000	49.376100
743.000000	49.238800
742.000000	49.138500
741.000000	48.982300
740.000000	48.912700
739.000000	48.863300
738.000000	48.706500
737.000000	48.628900
736.000000	48.567800
735.000000	48.391500
734.000000	48.317100
733.000000	48.294700
732.000000	48.163100
731.000000	48.068500
730.000000	47.934700
729.000000	47.841400
728.000000	47.790400
727.000000	47.662700
726.000000	47.471800
725.000000	47.363800
724.000000	47.300100
723.000000	47.117200
722.000000	46.929000
721.000000	46.767900
720.000000	46.661900
719.000000	46.503800
718.000000	46.429500
717.000000	46.284300
716.000000	46.136900
715.000000	46.015800
714.000000	45.830000
713.000000	45.701100
712.000000	45.511800
711.000000	45.330500
710.000000	45.191900
709.000000	45.033200
708.000000	44.853700
707.000000	44.586700
706.000000	44.412100
705.000000	44.242400
704.000000	44.031500
703.000000	43.903400
702.000000	43.656200
701.000000	43.453500
700.000000	43.236600
699.000000	43.084200
698.000000	42.895100
697.000000	42.685000
696.000000	42.457200
695.000000	42.261600
694.000000	42.042100
693.000000	41.811100
692.000000	41.600200
691.000000	41.360800
690.000000	41.106700
689.000000	40.857500
688.000000	40.601900
687.000000	40.319200
686.000000	40.059600
685.000000	39.816700
684.000000	39.536000
683.000000	39.273100
682.000000	38.988200
681.000000	38.715500
680.000000	38.465000
679.000000	38.199700
678.000000	37.906100
677.000000	37.594000
676.000000	37.336600
675.000000	37.055300
674.000000	36.786200
673.000000	36.522000
672.000000	36.222300
671.000000	35.988300
670.000000	35.754400
669.000000	35.497600
668.000000	35.228400
667.000000	34.983300
666.000000	34.748800
665.000000	34.541400
664.000000	34.339400
663.000000	34.175200
662.000000	33.954000
661.000000	33.741600
660.000000	33.570200
659.000000	33.380600
658.000000	33.206300
657.000000	33.003800
656.000000	32.842800
655.000000	32.669500
654.000000	32.487000
653.000000	32.338700
652.000000	32.200100
651.000000	32.049200
650.000000	31.908000
649.000000	31.775900
648.000000	31.638300
647.000000	31.473400
646.000000	31.366500
645.000000	31.269400
644.000000	31.139900
643.000000	31.019000
642.000000	30.892300
641.000000	30.782000
640.000000	30.688900
639.000000	30.615900
638.000000	30.561700
637.000000	30.501400
636.000000	30.439100
635.000000	30.375100
634.000000	30.334500
633.000000	30.298100
632.000000	30.252600
631.000000	30.197700
630.000000	30.143500
629.000000	30.110800
628.000000	30.056700
627.000000	30.015600
626.000000	29.986600
625.000000	29.973600
624.000000	29.972700
623.000000	29.957300
622.000000	29.919600
621.000000	29.884600
620.000000	29.859800
619.000000	29.826700
618.000000	29.786200
617.000000	29.749200
616.000000	29.699800
615.000000	29.663700
614.000000	29.646100
613.000000	29.602400
612.000000	29.587500
611.000000	29.546200
610.000000	29.508900
609.000000	29.508900
608.000000	29.510000
607.000000	29.512000
606.000000	29.554500
605.000000	29.612500
604.000000	29.681900
603.000000	29.767900
602.000000	29.848000
601.000000	29.980400
600.000000	30.120800
599.000000	30.263500
598.000000	30.424100
597.000000	30.585600
596.000000	30.771100
595.000000	30.939000
594.000000	31.130000
593.000000	31.308000
592.000000	31.515100
591.000000	31.722200
590.000000	31.895500
589.000000	32.089100
588.000000	32.276800
587.000000	32.434500
586.000000	32.598700
585.000000	32.768900
584.000000	32.946800
583.000000	33.119600
582.000000	33.283400
581.000000	33.451200
580.000000	33.596100
579.000000	33.716900
578.000000	33.842000
577.000000	33.950400
576.000000	34.052300
575.000000	34.157900
574.000000	34.245800
573.000000	34.338200
572.000000	34.378400
571.000000	34.446700
570.000000	34.499300
569.000000	34.526600
568.000000	34.547500
567.000000	34.595200
566.000000	34.600300
565.000000	34.592600
564.000000	34.579900
563.000000	34.558900
562.000000	34.548400
561.000000	34.480300
560.000000	34.429600
559.000000	34.304200
558.000000	34.213600
557.000000	34.118600
556.000000	34.033600
555.000000	33.911600
554.000000	33.793700
553.000000	33.674200
552.000000	33.524700
551.000000	33.349500
550.000000	33.169100
549.000000	32.998900
548.000000	32.799600
547.000000	32.583600
546.000000	32.350900
545.000000	32.151100
544.000000	31.904100
543.000000	31.647400
542.000000	31.399400
541.000000	31.114100
540.000000	30.843600
539.000000	30.573500
538.000000	30.269100
537.000000	29.959600
536.000000	29.658100
535.000000	29.318600
534.000000	28.994100
533.000000	28.663100
532.000000	28.296600
531.000000	27.937200
530.000000	27.572500
529.000000	27.177000
528.000000	26.772400
527.000000	26.353200
526.000000	25.935500
525.000000	25.494500
524.000000	25.057000
523.000000	24.568200
522.000000	24.081400
521.000000	23.582900
520.000000	23.105800
519.000000	22.604300
518.000000	22.103400
517.000000	21.581400
516.000000	21.076900
515.000000	20.587400
514.000000	20.075900
513.000000	19.574900
512.000000	19.073900
511.000000	18.595100
510.000000	18.114100
509.000000	17.675100
508.000000	17.231800
507.000000	16.805900
506.000000	16.395500
505.000000	15.968300
504.000000	15.607900
503.000000	15.194900
502.000000	14.863400
501.000000	14.518500
500.000000	14.189500
499.000000	13.880800
498.000000	13.567300
497.000000	13.314200
496.000000	13.022900
495.000000	12.774000
494.000000	12.526300
493.000000	12.282900
492.000000	12.040700
491.000000	11.833700
490.000000	11.618100
489.000000	11.434100
488.000000	11.245900
487.000000	11.077800
486.000000	10.899600
485.000000	10.748800
484.000000	10.578700
483.000000	10.409800
482.000000	10.263700
481.000000	10.109000
480.000000	9.951200
479.000000	9.822100
478.000000	9.653100
477.000000	9.535100
476.000000	9.380500
475.000000	9.250900
474.000000	9.122100
473.000000	9.000900
472.000000	8.881700
471.000000	8.760800
470.000000	8.647100
469.000000	8.524800
468.000000	8.414600
467.000000	8.307700
466.000000	8.215900
465.000000	8.112000
464.000000	8.022500
463.000000	7.910000
462.000000	7.820900
461.000000	7.730600
460.000000	7.633900
459.000000	7.552500
458.000000	7.463100
457.000000	7.384300
456.000000	7.301300
455.000000	7.242800
454.000000	7.159300
453.000000	7.084000
452.000000	6.985500
451.000000	6.925800
450.000000	6.880100
449.000000	6.782600
448.000000	6.718200
447.000000	6.665700
446.000000	6.590700
445.000000	6.520000
444.000000	6.465600
443.000000	6.416700
442.000000	6.366300
441.000000	6.300300
440.000000	6.229900
439.000000	6.170100
438.000000	6.115400
437.000000	6.062000
436.000000	6.015300
435.000000	5.965900
434.000000	5.915700
433.000000	5.878300
432.000000	5.828300
431.000000	5.803400
430.000000	5.742600
429.000000	5.707000
428.000000	5.672500
427.000000	5.630600
426.000000	5.602400
425.000000	5.576000
424.000000	5.519600
423.000000	5.509100
422.000000	5.480800
421.000000	5.435200
420.000000	5.417300
419.000000	5.374300
418.000000	5.346500
417.000000	5.334700
416.000000	5.304700
415.000000	5.279100
414.000000	5.270900
413.000000	5.242100
412.000000	5.228800
411.000000	5.210800
410.000000	5.206700
409.000000	5.168300
408.000000	5.158100
407.000000	5.139800
406.000000	5.140700
405.000000	5.118600
404.000000	5.082600
403.000000	5.090000
402.000000	5.074000
401.000000	5.054100
400.000000	5.046000
399.000000	5.033300
398.000000	5.013700
397.000000	4.997900
396.000000	5.004100
395.000000	4.997300
394.000000	4.997200
393.000000	4.994100
392.000000	4.991500
391.000000	4.976900
390.000000	4.964700
389.000000	4.954500
388.000000	4.943000
387.000000	4.939300
386.000000	4.934400
385.000000	4.923600
384.000000	4.918200
383.000000	4.919400
382.000000	4.921000
381.000000	4.899500
380.000000	4.879700
379.000000	4.891100
378.000000	4.890000
377.000000	4.896200
376.000000	4.837500
375.000000	4.665300
374.000000	4.532100
373.000000	4.461800
372.000000	4.289200
371.000000	4.457600
370.000000	4.638700
369.000000	4.657700
368.000000	4.753800
367.000000	4.703300
366.000000	4.700100
365.000000	4.784100
364.000000	4.699600
363.000000	4.713900
362.000000	4.787000
361.000000	4.712900
360.000000	4.629300
359.000000	4.672900
358.000000	4.753600
357.000000	4.960100
356.000000	5.020200
355.000000	4.921900
354.000000	4.879400
353.000000	4.778900
352.000000	4.889300
351.000000	4.888300
350.000000	4.693100
349.000000	4.761100
348.000000	4.774900
347.000000	4.859700
346.000000	4.861500
345.000000	4.984500
344.000000	4.923000
343.000000	4.925200
342.000000	5.122900
341.000000	5.005900
340.000000	4.962700
339.000000	5.027200
338.000000	4.994700
337.000000	4.860000
336.000000	4.798000
335.000000	4.918300
334.000000	4.978700
333.000000	4.813600
332.000000	4.965100
331.000000	5.011100
330.000000	5.043600
329.000000	5.218000
328.000000	5.291000
327.000000	4.927000
326.000000	4.807400
325.000000	5.127700
324.000000	5.405400
323.000000	5.576900
322.000000	5.577300
321.000000	5.365100
320.000000	5.302500
319.000000	5.443800
318.000000	5.445500
317.000000	5.041500
316.000000	4.757200
315.000000	4.792800
314.000000	4.828900
313.000000	4.845900
312.000000	4.857700
311.000000	4.874800
310.000000	4.879700
309.000000	4.864500
308.000000	4.869800
307.000000	4.875400
306.000000	4.850400
305.000000	4.834300
304.000000	4.831100
303.000000	4.862100
302.000000	4.897200
301.000000	4.858500
300.000000	4.835100
299.000000	4.878400
298.000000	4.878000
297.000000	4.880300
296.000000	4.888100
295.000000	4.910300
294.000000	4.921500
293.000000	4.942200
292.000000	4.916000
291.000000	4.868500
290.000000	4.902200
289.000000	4.911500
288.000000	4.921200
287.000000	4.930100
286.000000	4.921000
285.000000	4.961000
284.000000	5.006800
283.000000	4.963300
282.000000	4.984700
281.000000	5.003400
280.000000	5.003900
279.000000	5.017200
278.000000	5.026800
277.000000	5.045300
276.000000	5.013600
275.000000	5.012500
274.000000	5.026000
273.000000	5.016200
272.000000	5.057600
271.000000	5.075100
270.000000	5.066400
269.000000	5.052300
268.000000	5.080600
267.000000	5.123900
266.000000	5.175200
265.000000	5.208300
264.000000	5.199500
263.000000	5.250900
262.000000	5.264300
261.000000	5.280600
260.000000	5.325200
259.000000	5.334700
258.000000	5.334600
257.000000	5.337100
256.000000	5.341700
255.000000	5.342800
254.000000	5.335400
253.000000	5.379400
252.000000	5.428900
251.000000	5.449700
250.000000	5.442400
