PE UV       SUBTECH     SPECTRUM    ASCII       PEDS        4.00        
   -1
CICIMAUCR0238-2.ASC
24/06/20
13:42:30.00
24/06/20
13:42:30.00
Vinicio Soto Monge
C. cupreomarginata. Sex M. Ventral 
250,000000
1
Lambda 1050
1050L1511233
PerkinElmer UV WinLab 6.3.2.0749 / 2.02.05 Lambda 900 UV/VIS/NIR, Aug  7 2015 09:38:08

0
0
3350/servo 860,8/2
0
0
UV/VIS
1
1
1
DoubleDePol,CommonBeamDepol,RBeamAtt,SBeamAtt,60mm sphere, WB InGaAs Detector
0
0
0
0
Program
Program
3350/servo 860,8/2
3350/0,2 860,8/0,2
3350/0,2 860,8/0,2
0
15.00
 
 
 
0
 
860,8
319,2
860,8
Front
100
on
S:100 R:100
0
0
0
0
 
0
 
 
 
0
 
 
0
0
0
0
0
 
 
 
 
0
0


0
0
#HDR
-1
-1
#GR
nm
%R
1.0
0.0
2500,000000
-1,000000
2251
8
57,805200
3,677600
#DATA
2482.000000	6.163883
2481.000000	6.195690
2480.000000	6.216895
2479.000000	6.206744
2478.000000	6.185651
2477.000000	6.167492
2476.000000	6.177079
2475.000000	6.160950
2474.000000	6.159258
2473.000000	6.180914
2472.000000	6.142452
2471.000000	6.139971
2470.000000	6.070829
2469.000000	6.121811
2468.000000	6.105682
2467.000000	6.108840
2466.000000	6.074776
2465.000000	6.127225
2464.000000	6.100380
2463.000000	6.121360
2462.000000	6.105682
2461.000000	6.097673
2460.000000	6.109742
2459.000000	6.115495
2458.000000	6.109517
2457.000000	6.154634
2456.000000	6.170424
2455.000000	6.162980
2454.000000	6.158468
2453.000000	6.196028
2452.000000	6.220617
2451.000000	6.228400
2450.000000	6.239792
2449.000000	6.228513
2448.000000	6.290097
2447.000000	6.293707
2446.000000	6.323371
2445.000000	6.352584
2444.000000	6.333071
2443.000000	6.381572
2442.000000	6.376384
2441.000000	6.382587
2440.000000	6.430411
2439.000000	6.452406
2438.000000	6.478686
2437.000000	6.490642
2436.000000	6.489514
2435.000000	6.518728
2434.000000	6.527751
2433.000000	6.563619
2432.000000	6.612458
2431.000000	6.599713
2430.000000	6.592832
2429.000000	6.624076
2428.000000	6.615391
2427.000000	6.633776
2426.000000	6.655432
2425.000000	6.662989
2424.000000	6.669757
2423.000000	6.680810
2422.000000	6.694007
2421.000000	6.700211
2420.000000	6.715889
2419.000000	6.726153
2418.000000	6.737545
2417.000000	6.749163
2416.000000	6.758637
2415.000000	6.765856
2414.000000	6.797663
2413.000000	6.805897
2412.000000	6.809958
2411.000000	6.809732
2410.000000	6.830486
2409.000000	6.826200
2408.000000	6.830712
2407.000000	6.833419
2406.000000	6.840637
2405.000000	6.850901
2404.000000	6.871881
2403.000000	6.887221
2402.000000	6.885190
2401.000000	6.894778
2400.000000	6.903350
2399.000000	6.903801
2398.000000	6.921397
2397.000000	6.948467
2396.000000	6.977229
2395.000000	6.978582
2394.000000	6.998096
2393.000000	7.010052
2392.000000	7.014450
2391.000000	7.019639
2390.000000	7.022008
2389.000000	7.030805
2388.000000	7.057086
2387.000000	7.041633
2386.000000	7.064982
2385.000000	7.086299
2384.000000	7.067350
2383.000000	7.065884
2382.000000	7.065433
2381.000000	7.066109
2380.000000	7.064418
2379.000000	7.055958
2378.000000	7.056296
2377.000000	7.062387
2376.000000	7.066561
2375.000000	7.069268
2374.000000	7.052687
2373.000000	7.052800
2372.000000	7.055620
2371.000000	7.045920
2370.000000	7.029903
2369.000000	7.007232
2368.000000	6.990313
2367.000000	6.989636
2366.000000	6.987268
2365.000000	6.971815
2364.000000	6.952527
2363.000000	6.937639
2362.000000	6.918464
2361.000000	6.907298
2360.000000	6.901771
2359.000000	6.888574
2358.000000	6.874137
2357.000000	6.853383
2356.000000	6.831163
2355.000000	6.818643
2354.000000	6.807815
2353.000000	6.803867
2352.000000	6.808943
2351.000000	6.798453
2350.000000	6.804882
2349.000000	6.827215
2348.000000	6.832291
2347.000000	6.838156
2346.000000	6.844134
2345.000000	6.865790
2344.000000	6.886205
2343.000000	6.904929
2342.000000	6.921848
2341.000000	6.925119
2340.000000	6.953655
2339.000000	6.949933
2338.000000	6.938541
2337.000000	6.963694
2336.000000	6.973958
2335.000000	6.985012
2334.000000	6.994035
2333.000000	6.975086
2332.000000	6.955009
2331.000000	6.942827
2330.000000	6.948016
2329.000000	6.934368
2328.000000	6.907298
2327.000000	6.893650
2326.000000	6.872332
2325.000000	6.859022
2324.000000	6.839509
2323.000000	6.830599
2322.000000	6.799242
2321.000000	6.760216
2320.000000	6.742169
2319.000000	6.720401
2318.000000	6.691075
2317.000000	6.641446
2316.000000	6.622497
2315.000000	6.597344
2314.000000	6.557528
2313.000000	6.527864
2312.000000	6.511283
2311.000000	6.491883
2310.000000	6.455677
2309.000000	6.458835
2308.000000	6.431990
2307.000000	6.407176
2306.000000	6.425110
2305.000000	6.404582
2304.000000	6.411236
2303.000000	6.417327
2302.000000	6.421501
2301.000000	6.444397
2300.000000	6.456353
2299.000000	6.479701
2298.000000	6.498312
2297.000000	6.522788
2296.000000	6.542414
2295.000000	6.573094
2294.000000	6.593735
2293.000000	6.621482
2292.000000	6.660733
2291.000000	6.662876
2290.000000	6.685886
2289.000000	6.689721
2288.000000	6.689608
2287.000000	6.700436
2286.000000	6.695586
2285.000000	6.696376
2284.000000	6.694458
2283.000000	6.692654
2282.000000	6.675396
2281.000000	6.684758
2280.000000	6.658139
2279.000000	6.650920
2278.000000	6.624301
2277.000000	6.610653
2276.000000	6.597118
2275.000000	6.599600
2274.000000	6.590238
2273.000000	6.573770
2272.000000	6.585501
2271.000000	6.563168
2270.000000	6.588321
2269.000000	6.600502
2268.000000	6.603999
2267.000000	6.614037
2266.000000	6.650356
2265.000000	6.683630
2264.000000	6.740365
2263.000000	6.746907
2262.000000	6.818192
2261.000000	6.860940
2260.000000	6.938992
2259.000000	7.006781
2258.000000	7.071411
2257.000000	7.162321
2256.000000	7.223793
2255.000000	7.330044
2254.000000	7.428173
2253.000000	7.513670
2252.000000	7.600633
2251.000000	7.685566
2250.000000	7.779071
2249.000000	7.849566
2248.000000	7.920287
2247.000000	7.987962
2246.000000	8.075038
2245.000000	8.160309
2244.000000	8.222007
2243.000000	8.303104
2242.000000	8.332882
2241.000000	8.402587
2240.000000	8.470714
2239.000000	8.487520
2238.000000	8.548654
2237.000000	8.591402
2236.000000	8.623209
2235.000000	8.658175
2234.000000	8.713218
2233.000000	8.742544
2232.000000	8.761155
2231.000000	8.764538
2230.000000	8.805144
2229.000000	8.823416
2228.000000	8.824093
2227.000000	8.847102
2226.000000	8.850599
2225.000000	8.871127
2224.000000	8.883196
2223.000000	8.885790
2222.000000	8.870450
2221.000000	8.848682
2220.000000	8.846087
2219.000000	8.839997
2218.000000	8.845749
2217.000000	8.833906
2216.000000	8.833793
2215.000000	8.807399
2214.000000	8.834019
2213.000000	8.815408
2212.000000	8.774351
2211.000000	8.788338
2210.000000	8.772659
2209.000000	8.770516
2208.000000	8.771306
2207.000000	8.757545
2206.000000	8.759688
2205.000000	8.721790
2204.000000	8.760252
2203.000000	8.728332
2202.000000	8.724610
2201.000000	8.729122
2200.000000	8.722805
2199.000000	8.721226
2198.000000	8.733408
2197.000000	8.721339
2196.000000	8.737017
2195.000000	8.708480
2194.000000	8.716489
2193.000000	8.710285
2192.000000	8.700134
2191.000000	8.685358
2190.000000	8.664604
2189.000000	8.672500
2188.000000	8.684456
2187.000000	8.645430
2186.000000	8.649941
2185.000000	8.651746
2184.000000	8.649264
2183.000000	8.639790
2182.000000	8.631669
2181.000000	8.626480
2180.000000	8.622871
2179.000000	8.626932
2178.000000	8.599523
2177.000000	8.613848
2176.000000	8.598169
2175.000000	8.582604
2174.000000	8.595914
2173.000000	8.595350
2172.000000	8.605050
2171.000000	8.575837
2170.000000	8.616103
2169.000000	8.587793
2168.000000	8.602004
2167.000000	8.619938
2166.000000	8.634714
2165.000000	8.624676
2164.000000	8.635053
2163.000000	8.657160
2162.000000	8.653325
2161.000000	8.651520
2160.000000	8.678027
2159.000000	8.681185
2158.000000	8.698780
2157.000000	8.727655
2156.000000	8.730024
2155.000000	8.750101
2154.000000	8.763410
2153.000000	8.789127
2152.000000	8.812024
2151.000000	8.824318
2150.000000	8.824093
2149.000000	8.846764
2148.000000	8.869999
2147.000000	8.896054
2146.000000	8.897633
2145.000000	8.897521
2144.000000	8.933163
2143.000000	8.948954
2142.000000	8.951097
2141.000000	8.979070
2140.000000	8.972189
2139.000000	8.969031
2138.000000	8.995876
2137.000000	9.026555
2136.000000	9.030954
2135.000000	9.035015
2134.000000	9.039865
2133.000000	9.048775
2132.000000	9.056896
2131.000000	9.056445
2130.000000	9.067612
2129.000000	9.088591
2128.000000	9.096712
2127.000000	9.094795
2126.000000	9.085771
2125.000000	9.085771
2124.000000	9.084982
2123.000000	9.078214
2122.000000	9.069755
2121.000000	9.063100
2120.000000	9.039752
2119.000000	9.025427
2118.000000	9.033097
2117.000000	9.028473
2116.000000	9.008283
2115.000000	9.006478
2114.000000	9.000162
2113.000000	8.976588
2112.000000	8.970836
2111.000000	8.978054
2110.000000	8.955722
2109.000000	8.932599
2108.000000	8.937675
2107.000000	8.915455
2106.000000	8.879474
2105.000000	8.872706
2104.000000	8.865149
2103.000000	8.853193
2102.000000	8.840673
2101.000000	8.835259
2100.000000	8.813941
2099.000000	8.792736
2098.000000	8.795443
2097.000000	8.788676
2096.000000	8.772434
2095.000000	8.749424
2094.000000	8.741078
2093.000000	8.729911
2092.000000	8.722016
2091.000000	8.723144
2090.000000	8.703292
2089.000000	8.688967
2088.000000	8.691449
2087.000000	8.692238
2086.000000	8.675432
2085.000000	8.653212
2084.000000	8.644189
2083.000000	8.641933
2082.000000	8.626706
2081.000000	8.608659
2080.000000	8.584409
2079.000000	8.581476
2078.000000	8.578205
2077.000000	8.562865
2076.000000	8.554180
2075.000000	8.527223
2074.000000	8.501732
2073.000000	8.489099
2072.000000	8.478045
2071.000000	8.471391
2070.000000	8.443982
2069.000000	8.428078
2068.000000	8.401798
2067.000000	8.383751
2066.000000	8.389616
2065.000000	8.360854
2064.000000	8.337168
2063.000000	8.334461
2062.000000	8.322166
2061.000000	8.308518
2060.000000	8.288667
2059.000000	8.290923
2058.000000	8.287765
2057.000000	8.282802
2056.000000	8.286975
2055.000000	8.277049
2054.000000	8.280771
2053.000000	8.300285
2052.000000	8.310549
2051.000000	8.339198
2050.000000	8.368637
2049.000000	8.395256
2048.000000	8.420296
2047.000000	8.429996
2046.000000	8.458420
2045.000000	8.511094
2044.000000	8.531396
2043.000000	8.580010
2042.000000	8.630203
2041.000000	8.673064
2040.000000	8.709608
2039.000000	8.749763
2038.000000	8.793639
2037.000000	8.828266
2036.000000	8.846990
2035.000000	8.884437
2034.000000	8.921320
2033.000000	8.946021
2032.000000	8.972415
2031.000000	8.998470
2030.000000	9.020013
2029.000000	9.043925
2028.000000	9.063100
2027.000000	9.078778
2026.000000	9.075846
2025.000000	9.072462
2024.000000	9.113405
2023.000000	9.136077
2022.000000	9.146566
2021.000000	9.147243
2020.000000	9.144311
2019.000000	9.145100
2018.000000	9.162809
2017.000000	9.151304
2016.000000	9.164952
2015.000000	9.173524
2014.000000	9.176231
2013.000000	9.169238
2012.000000	9.166643
2011.000000	9.177359
2010.000000	9.165403
2009.000000	9.144649
2008.000000	9.146792
2007.000000	9.136077
2006.000000	9.104833
2005.000000	9.089945
2004.000000	9.075846
2003.000000	9.054077
2002.000000	9.024187
2001.000000	9.012005
2000.000000	8.987078
1999.000000	8.957301
1998.000000	8.934065
1997.000000	8.933050
1996.000000	8.905303
1995.000000	8.862104
1994.000000	8.831086
1993.000000	8.794090
1992.000000	8.751906
1991.000000	8.733295
1990.000000	8.707353
1989.000000	8.673966
1988.000000	8.636293
1987.000000	8.603132
1986.000000	8.569407
1985.000000	8.533539
1984.000000	8.501168
1983.000000	8.478271
1982.000000	8.443982
1981.000000	8.392436
1980.000000	8.374728
1979.000000	8.335927
1978.000000	8.299382
1977.000000	8.261484
1976.000000	8.235091
1975.000000	8.185687
1974.000000	8.151286
1973.000000	8.133239
1972.000000	8.103800
1971.000000	8.080790
1970.000000	8.046389
1969.000000	8.031500
1968.000000	7.996647
1967.000000	7.960215
1966.000000	7.939349
1965.000000	7.904721
1964.000000	7.882388
1963.000000	7.861296
1962.000000	7.851145
1961.000000	7.797230
1960.000000	7.774559
1959.000000	7.759106
1958.000000	7.732375
1957.000000	7.726171
1956.000000	7.710606
1955.000000	7.668760
1954.000000	7.645073
1953.000000	7.618003
1952.000000	7.593753
1951.000000	7.582135
1950.000000	7.559802
1949.000000	7.581233
1948.000000	7.512768
1947.000000	7.494044
1946.000000	7.509497
1945.000000	7.494382
1944.000000	7.452988
1943.000000	7.458740
1942.000000	7.456484
1941.000000	7.439678
1940.000000	7.455356
1939.000000	7.425015
1938.000000	7.418248
1937.000000	7.439452
1936.000000	7.450393
1935.000000	7.455920
1934.000000	7.442723
1933.000000	7.452988
1932.000000	7.487840
1931.000000	7.486713
1930.000000	7.480171
1929.000000	7.511301
1928.000000	7.506790
1927.000000	7.547282
1926.000000	7.589354
1925.000000	7.627139
1924.000000	7.645750
1923.000000	7.654435
1922.000000	7.727299
1921.000000	7.768243
1920.000000	7.852724
1919.000000	7.878779
1918.000000	7.953673
1917.000000	7.987060
1916.000000	8.022590
1915.000000	8.073797
1914.000000	8.134254
1913.000000	8.222007
1912.000000	8.294758
1911.000000	8.390180
1910.000000	8.471391
1909.000000	8.522260
1908.000000	8.593658
1907.000000	8.676899
1906.000000	8.786871
1905.000000	8.886467
1904.000000	9.031180
1903.000000	9.130099
1902.000000	9.258231
1901.000000	9.352977
1900.000000	9.464641
1899.000000	9.634845
1898.000000	9.779671
1897.000000	9.912540
1896.000000	10.070788
1895.000000	10.182340
1894.000000	10.322202
1893.000000	10.449545
1892.000000	10.635314
1891.000000	10.878720
1890.000000	11.082536
1889.000000	11.291315
1888.000000	11.515321
1887.000000	11.757261
1886.000000	12.006870
1885.000000	12.289190
1884.000000	12.606362
1883.000000	12.973727
1882.000000	13.367373
1881.000000	13.771396
1880.000000	14.167072
1879.000000	14.565455
1878.000000	14.954927
1877.000000	15.384441
1876.000000	15.766018
1875.000000	16.164739
1874.000000	16.552971
1873.000000	16.952933
1872.000000	17.330449
1871.000000	17.678640
1870.000000	18.042621
1869.000000	18.368929
1868.000000	18.694336
1867.000000	18.925222
1866.000000	19.113924
1865.000000	19.278149
1864.000000	19.425005
1863.000000	19.573778
1862.000000	19.684879
1861.000000	19.803424
1860.000000	19.943851
1859.000000	20.053823
1858.000000	20.171015
1857.000000	20.268467
1856.000000	20.315276
1855.000000	20.334789
1854.000000	20.359491
1853.000000	20.399758
1852.000000	20.404608
1851.000000	20.397502
1850.000000	20.373703
1849.000000	20.357009
1848.000000	20.342234
1847.000000	20.331969
1846.000000	20.348663
1845.000000	20.320465
1844.000000	20.257752
1843.000000	20.192445
1842.000000	20.155788
1841.000000	20.166277
1840.000000	20.146087
1839.000000	20.138643
1838.000000	20.123191
1837.000000	20.086195
1836.000000	20.049650
1835.000000	20.019760
1834.000000	19.959078
1833.000000	19.891176
1832.000000	19.815154
1831.000000	19.747704
1830.000000	19.681946
1829.000000	19.628032
1828.000000	19.571071
1827.000000	19.499110
1826.000000	19.437412
1825.000000	19.374474
1824.000000	19.304768
1823.000000	19.244199
1822.000000	19.197390
1821.000000	19.156446
1820.000000	19.143475
1819.000000	19.141783
1818.000000	19.114600
1817.000000	19.057979
1816.000000	19.031472
1815.000000	19.016696
1814.000000	19.001921
1813.000000	19.000003
1812.000000	18.981280
1811.000000	18.969324
1810.000000	18.955337
1809.000000	18.907062
1808.000000	18.848072
1807.000000	18.818971
1806.000000	18.779268
1805.000000	18.735167
1804.000000	18.693321
1803.000000	18.650459
1802.000000	18.604440
1801.000000	18.540600
1800.000000	18.501461
1799.000000	18.449012
1798.000000	18.377614
1797.000000	18.344115
1796.000000	18.307796
1795.000000	18.255911
1794.000000	18.211809
1793.000000	18.159361
1792.000000	18.097212
1791.000000	18.037996
1790.000000	17.993105
1789.000000	17.936709
1788.000000	17.872304
1787.000000	17.820645
1786.000000	17.759624
1785.000000	17.684054
1784.000000	17.619762
1783.000000	17.541484
1782.000000	17.471665
1781.000000	17.408614
1780.000000	17.334171
1779.000000	17.255555
1778.000000	17.177277
1777.000000	17.081403
1776.000000	16.995907
1775.000000	16.919208
1774.000000	16.815552
1773.000000	16.705353
1772.000000	16.588839
1771.000000	16.493980
1770.000000	16.400363
1769.000000	16.287796
1768.000000	16.170604
1767.000000	16.071121
1766.000000	15.976601
1765.000000	15.890992
1764.000000	15.843055
1763.000000	15.804706
1762.000000	15.789366
1761.000000	15.793539
1760.000000	15.804367
1759.000000	15.860651
1758.000000	15.933853
1757.000000	15.992279
1756.000000	16.049240
1755.000000	16.090409
1754.000000	16.143421
1753.000000	16.175793
1752.000000	16.186508
1751.000000	16.176469
1750.000000	16.159325
1749.000000	16.146579
1748.000000	16.121652
1747.000000	16.068527
1746.000000	16.011680
1745.000000	15.923476
1744.000000	15.832001
1743.000000	15.704433
1742.000000	15.560397
1741.000000	15.407902
1740.000000	15.223148
1739.000000	15.029145
1738.000000	14.847661
1737.000000	14.670126
1736.000000	14.531617
1735.000000	14.418148
1734.000000	14.311333
1733.000000	14.278736
1732.000000	14.280315
1731.000000	14.307160
1730.000000	14.345509
1729.000000	14.421080
1728.000000	14.532068
1727.000000	14.621513
1726.000000	14.718965
1725.000000	14.800740
1724.000000	14.882289
1723.000000	14.935188
1722.000000	14.960228
1721.000000	14.989329
1720.000000	15.002413
1719.000000	15.036025
1718.000000	15.039747
1717.000000	15.079563
1716.000000	15.122537
1715.000000	15.156374
1714.000000	15.216380
1713.000000	15.266460
1712.000000	15.333007
1711.000000	15.362221
1710.000000	15.401924
1709.000000	15.423805
1708.000000	15.410157
1707.000000	15.397863
1706.000000	15.392336
1705.000000	15.371019
1704.000000	15.292515
1703.000000	15.240518
1702.000000	15.179948
1701.000000	15.076630
1700.000000	14.979516
1699.000000	14.854091
1698.000000	14.726748
1697.000000	14.603691
1696.000000	14.508833
1695.000000	14.449955
1694.000000	14.433262
1693.000000	14.477251
1692.000000	14.564665
1691.000000	14.688962
1690.000000	14.824877
1689.000000	14.961469
1688.000000	15.079563
1687.000000	15.143516
1686.000000	15.202958
1685.000000	15.227095
1684.000000	15.255632
1683.000000	15.356919
1682.000000	15.493624
1681.000000	15.759589
1680.000000	16.116238
1679.000000	16.565378
1678.000000	17.017337
1677.000000	17.526031
1676.000000	18.043298
1675.000000	18.457923
1674.000000	18.854614
1673.000000	19.228295
1672.000000	19.559341
1671.000000	19.823839
1670.000000	20.013556
1669.000000	20.246586
1668.000000	20.431114
1667.000000	20.592407
1666.000000	20.710614
1665.000000	20.824647
1664.000000	20.934732
1663.000000	21.008047
1662.000000	21.098394
1661.000000	21.137984
1660.000000	21.200359
1659.000000	21.260703
1658.000000	21.275704
1657.000000	21.289465
1656.000000	21.325107
1655.000000	21.343831
1654.000000	21.333003
1653.000000	21.331987
1652.000000	21.312474
1651.000000	21.264425
1650.000000	21.246265
1649.000000	21.198328
1648.000000	21.193478
1647.000000	21.149940
1646.000000	21.086325
1645.000000	21.049217
1644.000000	20.972179
1643.000000	20.916122
1642.000000	20.850928
1641.000000	20.793855
1640.000000	20.727081
1639.000000	20.665948
1638.000000	20.604814
1637.000000	20.518641
1636.000000	20.480743
1635.000000	20.402916
1634.000000	20.328134
1633.000000	20.248954
1632.000000	20.154998
1631.000000	20.108866
1630.000000	20.026415
1629.000000	19.914299
1628.000000	19.844706
1627.000000	19.777933
1626.000000	19.686007
1625.000000	19.621377
1624.000000	19.537798
1623.000000	19.439668
1622.000000	19.372106
1621.000000	19.288865
1620.000000	19.208669
1619.000000	19.153852
1618.000000	19.064859
1617.000000	18.976994
1616.000000	18.910784
1615.000000	18.834537
1614.000000	18.767200
1613.000000	18.710803
1612.000000	18.647188
1611.000000	18.573760
1610.000000	18.492776
1609.000000	18.443598
1608.000000	18.379645
1607.000000	18.309826
1606.000000	18.256137
1605.000000	18.178423
1604.000000	18.112101
1603.000000	18.030665
1602.000000	17.986337
1601.000000	17.919451
1600.000000	17.840046
1599.000000	17.780040
1598.000000	17.720598
1597.000000	17.643899
1596.000000	17.581638
1595.000000	17.536070
1594.000000	17.489035
1593.000000	17.427338
1592.000000	17.374213
1591.000000	17.329772
1590.000000	17.256796
1589.000000	17.207167
1588.000000	17.171750
1587.000000	17.136333
1586.000000	17.086028
1585.000000	17.048581
1584.000000	16.994215
1583.000000	16.964550
1582.000000	16.953046
1581.000000	16.899808
1580.000000	16.878039
1579.000000	16.836193
1578.000000	16.824237
1577.000000	16.792993
1576.000000	16.775849
1575.000000	16.753967
1574.000000	16.733100
1573.000000	16.738740
1572.000000	16.735807
1571.000000	16.722047
1570.000000	16.726220
1569.000000	16.728927
1568.000000	16.732987
1567.000000	16.742800
1566.000000	16.749681
1565.000000	16.758027
1564.000000	16.752049
1563.000000	16.770322
1562.000000	16.782165
1561.000000	16.777202
1560.000000	16.779120
1559.000000	16.766825
1558.000000	16.763780
1557.000000	16.783970
1556.000000	16.781714
1555.000000	16.765585
1554.000000	16.749681
1553.000000	16.738853
1552.000000	16.720693
1551.000000	16.703774
1550.000000	16.691141
1549.000000	16.680426
1548.000000	16.657529
1547.000000	16.616135
1546.000000	16.618842
1545.000000	16.599554
1544.000000	16.569213
1543.000000	16.562671
1542.000000	16.551053
1541.000000	16.529735
1540.000000	16.526803
1539.000000	16.519584
1538.000000	16.506049
1537.000000	16.481460
1536.000000	16.471986
1535.000000	16.457210
1534.000000	16.434313
1533.000000	16.403521
1532.000000	16.393144
1531.000000	16.378368
1530.000000	16.347124
1529.000000	16.309903
1528.000000	16.282720
1527.000000	16.256778
1526.000000	16.238505
1525.000000	16.209969
1524.000000	16.167784
1523.000000	16.127518
1522.000000	16.088717
1521.000000	16.065820
1520.000000	16.028486
1519.000000	15.981000
1518.000000	15.949531
1517.000000	15.914001
1516.000000	15.884111
1515.000000	15.845649
1514.000000	15.800983
1513.000000	15.762408
1512.000000	15.713456
1511.000000	15.678942
1510.000000	15.645668
1509.000000	15.590400
1508.000000	15.547990
1507.000000	15.518551
1506.000000	15.479863
1505.000000	15.429445
1504.000000	15.381734
1503.000000	15.339662
1502.000000	15.298493
1501.000000	15.268829
1500.000000	15.237923
1499.000000	15.194724
1498.000000	15.150509
1497.000000	15.122650
1496.000000	15.088135
1495.000000	15.053057
1494.000000	15.040085
1493.000000	15.008729
1492.000000	14.980080
1491.000000	14.959326
1490.000000	14.929098
1489.000000	14.902027
1488.000000	14.887928
1487.000000	14.871235
1486.000000	14.855331
1485.000000	14.839089
1484.000000	14.816982
1483.000000	14.803447
1482.000000	14.789461
1481.000000	14.781227
1480.000000	14.775362
1479.000000	14.757202
1478.000000	14.747389
1477.000000	14.762616
1476.000000	14.759232
1475.000000	14.761714
1474.000000	14.754157
1473.000000	14.758330
1472.000000	14.760135
1471.000000	14.759909
1470.000000	14.760135
1469.000000	14.757991
1468.000000	14.764533
1467.000000	14.776038
1466.000000	14.771865
1465.000000	14.784385
1464.000000	14.803898
1463.000000	14.819689
1462.000000	14.833562
1461.000000	14.856121
1460.000000	14.896049
1459.000000	14.908231
1458.000000	14.948724
1457.000000	15.000382
1456.000000	15.047755
1455.000000	15.104264
1454.000000	15.171601
1453.000000	15.210064
1452.000000	15.268716
1451.000000	15.351844
1450.000000	15.423467
1449.000000	15.487195
1448.000000	15.542237
1447.000000	15.608108
1446.000000	15.702290
1445.000000	15.786884
1444.000000	15.880615
1443.000000	15.935206
1442.000000	16.015627
1441.000000	16.093793
1440.000000	16.188764
1439.000000	16.278772
1438.000000	16.388068
1437.000000	16.486423
1436.000000	16.575304
1435.000000	16.672192
1434.000000	16.767615
1433.000000	16.878264
1432.000000	16.991621
1431.000000	17.102834
1430.000000	17.244614
1429.000000	17.344548
1428.000000	17.489712
1427.000000	17.646042
1426.000000	17.786244
1425.000000	17.938175
1424.000000	18.124283
1423.000000	18.312195
1422.000000	18.483301
1421.000000	18.688696
1420.000000	18.899167
1419.000000	19.127120
1418.000000	19.339396
1417.000000	19.587426
1416.000000	19.772406
1415.000000	20.001375
1414.000000	20.282454
1413.000000	20.548531
1412.000000	20.818556
1411.000000	21.044028
1410.000000	21.335710
1409.000000	21.686832
1408.000000	22.045061
1407.000000	22.479538
1406.000000	22.838782
1405.000000	23.228029
1404.000000	23.683485
1403.000000	24.123714
1402.000000	24.549956
1401.000000	24.946083
1400.000000	25.403795
1399.000000	25.880795
1398.000000	26.269703
1397.000000	26.538826
1396.000000	26.874383
1395.000000	27.298934
1394.000000	27.672052
1393.000000	27.963959
1392.000000	28.223494
1391.000000	28.578452
1390.000000	28.960142
1389.000000	29.272577
1388.000000	29.677389
1387.000000	30.172097
1386.000000	30.657330
1385.000000	31.233925
1384.000000	31.806911
1383.000000	32.446106
1382.000000	33.113273
1381.000000	33.770740
1380.000000	34.282367
1379.000000	34.657063
1378.000000	34.932051
1377.000000	35.158990
1376.000000	35.418864
1375.000000	35.629109
1374.000000	35.899698
1373.000000	36.230180
1372.000000	36.613561
1371.000000	37.053678
1370.000000	37.532030
1369.000000	37.951393
1368.000000	38.336918
1367.000000	38.744324
1366.000000	39.058451
1365.000000	39.343477
1364.000000	39.617902
1363.000000	39.850818
1362.000000	40.118813
1361.000000	40.326577
1360.000000	40.560621
1359.000000	40.674429
1358.000000	40.766354
1357.000000	40.900690
1356.000000	41.089054
1355.000000	41.361109
1354.000000	41.808444
1353.000000	42.373985
1352.000000	42.888996
1351.000000	43.542064
1350.000000	44.205848
1349.000000	44.763494
1348.000000	45.323959
1347.000000	45.833443
1346.000000	46.313037
1345.000000	46.731948
1344.000000	47.172402
1343.000000	47.636543
1342.000000	48.030076
1341.000000	48.435114
1340.000000	48.848949
1339.000000	49.235264
1338.000000	49.629248
1337.000000	50.016126
1336.000000	50.381686
1335.000000	50.750292
1334.000000	51.094647
1333.000000	51.430431
1332.000000	51.772079
1331.000000	52.105381
1330.000000	52.417365
1329.000000	52.734763
1328.000000	53.024865
1327.000000	53.327487
1326.000000	53.589504
1325.000000	53.853664
1324.000000	54.091430
1323.000000	54.337092
1322.000000	54.567302
1321.000000	54.794466
1320.000000	55.005952
1319.000000	55.215746
1318.000000	55.418659
1317.000000	55.605782
1316.000000	55.764481
1315.000000	55.943144
1314.000000	56.119439
1313.000000	56.285469
1312.000000	56.432889
1311.000000	56.569030
1310.000000	56.712502
1309.000000	56.848191
1308.000000	56.953878
1307.000000	57.057872
1306.000000	57.152054
1305.000000	57.238115
1304.000000	57.320566
1303.000000	57.379556
1302.000000	57.462120
1301.000000	57.505207
1300.000000	57.547504
1299.000000	57.593411
1298.000000	57.628940
1297.000000	57.646423
1296.000000	57.672253
1295.000000	57.712294
1294.000000	57.718949
1293.000000	57.713535
1292.000000	57.731469
1291.000000	57.722220
1290.000000	57.714212
1289.000000	57.693796
1288.000000	57.655447
1287.000000	57.634129
1286.000000	57.597246
1285.000000	57.540398
1284.000000	57.469113
1283.000000	57.411589
1282.000000	57.362525
1281.000000	57.288871
1280.000000	57.194802
1279.000000	57.124984
1278.000000	57.057647
1277.000000	56.977677
1276.000000	56.915415
1275.000000	56.860598
1274.000000	56.803638
1273.000000	56.719720
1272.000000	56.670430
1271.000000	56.629712
1270.000000	56.578730
1269.000000	56.525379
1268.000000	56.467516
1267.000000	56.411346
1266.000000	56.359010
1265.000000	56.300696
1264.000000	56.240691
1263.000000	56.182828
1262.000000	56.124627
1261.000000	56.051763
1260.000000	55.976080
1259.000000	55.900283
1258.000000	55.836781
1257.000000	55.769331
1256.000000	55.675713
1255.000000	55.582547
1254.000000	55.510698
1253.000000	55.416742
1252.000000	55.311845
1251.000000	55.206384
1250.000000	55.098329
1249.000000	54.990612
1248.000000	54.868119
1247.000000	54.738972
1246.000000	54.622006
1245.000000	54.478647
1244.000000	54.319384
1243.000000	54.159444
1242.000000	54.002099
1241.000000	53.827270
1240.000000	53.652442
1239.000000	53.468026
1238.000000	53.260827
1237.000000	53.073366
1236.000000	52.899214
1235.000000	52.697203
1234.000000	52.495868
1233.000000	52.281563
1232.000000	52.048872
1231.000000	51.821256
1230.000000	51.594205
1229.000000	51.367831
1228.000000	51.121718
1227.000000	50.871544
1226.000000	50.618438
1225.000000	50.368602
1224.000000	50.130949
1223.000000	49.876827
1222.000000	49.625187
1221.000000	49.378848
1220.000000	49.132510
1219.000000	48.885607
1218.000000	48.643554
1217.000000	48.424511
1216.000000	48.211672
1215.000000	48.003570
1214.000000	47.803589
1213.000000	47.605864
1212.000000	47.411071
1211.000000	47.230265
1210.000000	47.059835
1209.000000	46.889180
1208.000000	46.722360
1207.000000	46.588363
1206.000000	46.469592
1205.000000	46.360184
1204.000000	46.280214
1203.000000	46.219419
1202.000000	46.166858
1201.000000	46.129185
1200.000000	46.074142
1199.000000	46.004549
1198.000000	45.905405
1197.000000	45.773663
1196.000000	45.623085
1195.000000	45.405508
1194.000000	45.112361
1193.000000	44.769359
1192.000000	44.320107
1191.000000	43.807014
1190.000000	43.254105
1189.000000	42.714167
1188.000000	42.222843
1187.000000	41.841943
1186.000000	41.601019
1185.000000	41.494768
1184.000000	41.552518
1183.000000	41.771561
1182.000000	42.171974
1181.000000	42.683375
1180.000000	43.271249
1179.000000	43.907173
1178.000000	44.529900
1177.000000	45.113376
1176.000000	45.624777
1175.000000	46.064329
1174.000000	46.468916
1173.000000	46.880383
1172.000000	47.277074
1171.000000	47.675795
1170.000000	48.099218
1169.000000	48.522641
1168.000000	48.943921
1167.000000	49.375014
1166.000000	49.802159
1165.000000	50.264382
1164.000000	50.708672
1163.000000	51.181159
1162.000000	51.660527
1161.000000	52.145760
1160.000000	52.627384
1159.000000	53.076411
1158.000000	53.527581
1157.000000	53.947846
1156.000000	54.366982
1155.000000	54.729272
1154.000000	55.028285
1153.000000	55.281842
1152.000000	55.475056
1151.000000	55.615257
1150.000000	55.710679
1149.000000	55.783881
1148.000000	55.860580
1147.000000	55.937730
1146.000000	56.055711
1145.000000	56.253549
1144.000000	56.508122
1143.000000	56.857891
1142.000000	57.289435
1141.000000	57.730792
1140.000000	58.197866
1139.000000	58.682535
1138.000000	59.180852
1137.000000	59.701389
1136.000000	60.234559
1135.000000	60.778557
1134.000000	61.383689
1133.000000	61.929491
1132.000000	62.390023
1131.000000	62.825628
1130.000000	63.264954
1129.000000	63.635929
1128.000000	63.963704
1127.000000	64.239256
1126.000000	64.430213
1125.000000	64.602786
1124.000000	64.732497
1123.000000	64.848222
1122.000000	64.957292
1121.000000	65.024629
1120.000000	65.105614
1119.000000	65.142385
1118.000000	65.179493
1117.000000	65.182539
1116.000000	65.199909
1115.000000	65.198330
1114.000000	65.199683
1113.000000	65.180960
1112.000000	65.160432
1111.000000	65.118134
1110.000000	65.083056
1109.000000	65.077642
1108.000000	65.054068
1107.000000	65.036924
1106.000000	65.003650
1105.000000	64.975114
1104.000000	64.955375
1103.000000	64.897851
1102.000000	64.889617
1101.000000	64.848109
1100.000000	64.821603
1099.000000	64.792954
1098.000000	64.742987
1097.000000	64.710954
1096.000000	64.668431
1095.000000	64.620494
1094.000000	64.588574
1093.000000	64.502400
1092.000000	64.429875
1091.000000	64.380923
1090.000000	64.305690
1089.000000	64.226059
1088.000000	64.157932
1087.000000	64.088565
1086.000000	63.997316
1085.000000	63.917910
1084.000000	63.832977
1083.000000	63.753684
1082.000000	63.671909
1081.000000	63.576713
1080.000000	63.483997
1079.000000	63.426811
1078.000000	63.333758
1077.000000	63.259427
1076.000000	63.163892
1075.000000	63.068357
1074.000000	63.012525
1073.000000	62.916087
1072.000000	62.852923
1071.000000	62.757839
1070.000000	62.639294
1069.000000	62.565528
1068.000000	62.473715
1067.000000	62.382240
1066.000000	62.290991
1065.000000	62.194779
1064.000000	62.095071
1063.000000	61.980699
1062.000000	61.908174
1061.000000	61.798878
1060.000000	61.694432
1059.000000	61.603747
1058.000000	61.489488
1057.000000	61.377598
1056.000000	61.264016
1055.000000	61.145133
1054.000000	61.041025
1053.000000	60.940527
1052.000000	60.842510
1051.000000	60.736373
1050.000000	60.620648
1049.000000	60.525000
1048.000000	60.437811
1047.000000	60.346900
1046.000000	60.244936
1045.000000	60.148724
1044.000000	60.070559
1043.000000	59.972542
1042.000000	59.860990
1041.000000	59.781021
1040.000000	59.695862
1039.000000	59.576979
1038.000000	59.488663
1037.000000	59.390420
1036.000000	59.300299
1035.000000	59.185364
1034.000000	59.086219
1033.000000	58.958876
1032.000000	58.856799
1031.000000	58.726524
1030.000000	58.636628
1029.000000	58.517858
1028.000000	58.381605
1027.000000	58.261142
1026.000000	58.132108
1025.000000	58.010968
1024.000000	57.876858
1023.000000	57.749177
1022.000000	57.615293
1021.000000	57.481182
1020.000000	57.382940
1019.000000	57.240370
1018.000000	57.089792
1017.000000	56.973052
1016.000000	56.863644
1015.000000	56.748370
1014.000000	56.653962
1013.000000	56.535643
1012.000000	56.456914
1011.000000	56.383599
1010.000000	56.273739
1009.000000	56.229299
1008.000000	56.173015
1007.000000	56.093835
1006.000000	56.048831
1005.000000	55.997736
1004.000000	55.942806
1003.000000	55.875807
1002.000000	55.808470
1001.000000	55.766850
1000.000000	55.711130
999.000000	55.664660
998.000000	55.589765
997.000000	55.517240
996.000000	55.474040
995.000000	55.432646
994.000000	55.368918
993.000000	55.319966
992.000000	55.267405
991.000000	55.213941
990.000000	55.167245
989.000000	55.110961
988.000000	55.063589
987.000000	55.013734
986.000000	54.985311
985.000000	54.946510
984.000000	54.896769
983.000000	54.864961
982.000000	54.820183
981.000000	54.773599
980.000000	54.721038
979.000000	54.696900
978.000000	54.666446
977.000000	54.624488
976.000000	54.574295
975.000000	54.521959
974.000000	54.492408
973.000000	54.453381
972.000000	54.421574
971.000000	54.375442
970.000000	54.310361
969.000000	54.257912
968.000000	54.223510
967.000000	54.182454
966.000000	54.139593
965.000000	54.111169
964.000000	54.065488
963.000000	54.033342
962.000000	53.999730
961.000000	53.969953
960.000000	53.949537
959.000000	53.946266
958.000000	53.923370
957.000000	53.868778
956.000000	53.856371
955.000000	53.832459
954.000000	53.783394
953.000000	53.755196
952.000000	53.717636
951.000000	53.661917
950.000000	53.625710
949.000000	53.576984
948.000000	53.513820
947.000000	53.473779
946.000000	53.436896
945.000000	53.383207
944.000000	53.325118
943.000000	53.277633
942.000000	53.219432
941.000000	53.143748
940.000000	53.080923
939.000000	53.014262
938.000000	52.943993
937.000000	52.885341
936.000000	52.824433
935.000000	52.777849
934.000000	52.729123
933.000000	52.671373
932.000000	52.613511
931.000000	52.553731
930.000000	52.530044
929.000000	52.477483
928.000000	52.399543
927.000000	52.335590
926.000000	52.284495
925.000000	52.227761
924.000000	52.160875
923.000000	52.105945
922.000000	52.051240
921.000000	51.978489
920.000000	51.928973
919.000000	51.877653
918.000000	51.784825
917.000000	51.706095
916.000000	51.631652
915.000000	51.579542
914.000000	51.511303
913.000000	51.427836
912.000000	51.340648
911.000000	51.264400
910.000000	51.186348
909.000000	51.117883
908.000000	51.069608
907.000000	51.005541
906.000000	51.001819
905.000000	50.981065
904.000000	50.938092
903.000000	50.910457
902.000000	50.894892
901.000000	50.883274
900.000000	50.876507
899.000000	50.890380
898.000000	50.874815
897.000000	50.869288
896.000000	50.867822
895.000000	50.874138
894.000000	50.876845
893.000000	50.852144
892.000000	50.825637
891.000000	50.798003
890.000000	50.725703
889.000000	50.691753
888.000000	50.669645
887.000000	50.646861
886.000000	50.579750
885.000000	50.503728
884.000000	50.420712
883.000000	50.360820
882.000000	50.261788
881.000000	50.186894
880.000000	50.075116
879.000000	49.969317
878.000000	49.847276
877.000000	49.701548
876.000000	49.577589
875.000000	49.401294
874.000000	49.240791
873.000000	49.037087
872.000000	48.851882
871.000000	48.716080
870.000000	48.676490
869.000000	48.716080
868.000000	48.758039
867.000000	48.797516
866.000000	48.820075
865.000000	48.804848
864.000000	48.821541
863.000000	48.859890
862.000000	48.881998
861.000000	48.910873
860.000000	48.931062
859.000000	48.942680
858.000000	48.955200
857.000000	48.616900
856.000000	49.096700
855.000000	49.152000
854.000000	49.186300
853.000000	49.272000
852.000000	49.589800
851.000000	49.214800
850.000000	49.663700
849.000000	49.863500
848.000000	49.954300
847.000000	49.691200
846.000000	49.981200
845.000000	49.946700
844.000000	49.950000
843.000000	49.954400
842.000000	50.214000
841.000000	50.311800
840.000000	50.051000
839.000000	50.100500
838.000000	50.079700
837.000000	50.216100
836.000000	50.250700
835.000000	50.199000
834.000000	50.300400
833.000000	50.083100
832.000000	50.029700
831.000000	50.175100
830.000000	50.175200
829.000000	50.205500
828.000000	50.048200
827.000000	50.116800
826.000000	50.186100
825.000000	50.183500
824.000000	50.102400
823.000000	50.064200
822.000000	50.086800
821.000000	50.061800
820.000000	50.181800
819.000000	49.833000
818.000000	49.970500
817.000000	49.852100
816.000000	49.903000
815.000000	49.861300
814.000000	49.869700
813.000000	49.900200
812.000000	49.505600
811.000000	49.710400
810.000000	49.418300
809.000000	49.452400
808.000000	49.756900
807.000000	49.457600
806.000000	49.404900
805.000000	49.309300
804.000000	49.280100
803.000000	49.230200
802.000000	49.159500
801.000000	49.183800
800.000000	49.000700
799.000000	48.879400
798.000000	48.919700
797.000000	48.761500
796.000000	48.776500
795.000000	48.651400
794.000000	48.619200
793.000000	48.426100
792.000000	48.437000
791.000000	48.261200
790.000000	48.297700
789.000000	48.178900
788.000000	48.060000
787.000000	47.946000
786.000000	47.944800
785.000000	47.814600
784.000000	47.678700
783.000000	47.627200
782.000000	47.485800
781.000000	47.378600
780.000000	47.266300
779.000000	47.099100
778.000000	47.105500
777.000000	46.980500
776.000000	46.875800
775.000000	46.712100
774.000000	46.624700
773.000000	46.511800
772.000000	46.343200
771.000000	46.331800
770.000000	46.113800
769.000000	46.099200
768.000000	46.020500
767.000000	45.929100
766.000000	45.773000
765.000000	45.610000
764.000000	45.477600
763.000000	45.364600
762.000000	45.350400
761.000000	45.126300
760.000000	45.025400
759.000000	44.946400
758.000000	44.815500
757.000000	44.706300
756.000000	44.602100
755.000000	44.488000
754.000000	44.335700
753.000000	44.269800
752.000000	44.135900
751.000000	44.009300
750.000000	43.921300
749.000000	43.732200
748.000000	43.625100
747.000000	43.563500
746.000000	43.386600
745.000000	43.181800
744.000000	43.061800
743.000000	42.941100
742.000000	42.787100
741.000000	42.636400
740.000000	42.509200
739.000000	42.427400
738.000000	42.269000
737.000000	42.128000
736.000000	41.997700
735.000000	41.796900
734.000000	41.690200
733.000000	41.549400
732.000000	41.420700
731.000000	41.236700
730.000000	41.091900
729.000000	40.949100
728.000000	40.796100
727.000000	40.634800
726.000000	40.474500
725.000000	40.342600
724.000000	40.171100
723.000000	40.020300
722.000000	39.867500
721.000000	39.679100
720.000000	39.536600
719.000000	39.335900
718.000000	39.202200
717.000000	39.052900
716.000000	38.839800
715.000000	38.657400
714.000000	38.503200
713.000000	38.342300
712.000000	38.167200
711.000000	38.016200
710.000000	37.860400
709.000000	37.675300
708.000000	37.467700
707.000000	37.313400
706.000000	37.168200
705.000000	36.950100
704.000000	36.773900
703.000000	36.612000
702.000000	36.403300
701.000000	36.213400
700.000000	36.022300
699.000000	35.860600
698.000000	35.701100
697.000000	35.511200
696.000000	35.334900
695.000000	35.143900
694.000000	34.959100
693.000000	34.785300
692.000000	34.558100
691.000000	34.379200
690.000000	34.172500
689.000000	33.939100
688.000000	33.756800
687.000000	33.578900
686.000000	33.349100
685.000000	33.187900
684.000000	33.013600
683.000000	32.777800
682.000000	32.555200
681.000000	32.357800
680.000000	32.145600
679.000000	31.908600
678.000000	31.699400
677.000000	31.521500
676.000000	31.318900
675.000000	31.119800
674.000000	30.925100
673.000000	30.733700
672.000000	30.521700
671.000000	30.302400
670.000000	30.128600
669.000000	29.935100
668.000000	29.747700
667.000000	29.565900
666.000000	29.379900
665.000000	29.183300
664.000000	29.007100
663.000000	28.837700
662.000000	28.640300
661.000000	28.468700
660.000000	28.296900
659.000000	28.117100
658.000000	27.931000
657.000000	27.747300
656.000000	27.572000
655.000000	27.367000
654.000000	27.190900
653.000000	27.037100
652.000000	26.852400
651.000000	26.660700
650.000000	26.516600
649.000000	26.389500
648.000000	26.196800
647.000000	26.001500
646.000000	25.842800
645.000000	25.707400
644.000000	25.578400
643.000000	25.423600
642.000000	25.266000
641.000000	25.140000
640.000000	25.014600
639.000000	24.880000
638.000000	24.784600
637.000000	24.706300
636.000000	24.609000
635.000000	24.525700
634.000000	24.461600
633.000000	24.382400
632.000000	24.311700
631.000000	24.271300
630.000000	24.230300
629.000000	24.187400
628.000000	24.135600
627.000000	24.109800
626.000000	24.084400
625.000000	24.060800
624.000000	24.053600
623.000000	24.045200
622.000000	24.042500
621.000000	24.038100
620.000000	24.040000
619.000000	24.058200
618.000000	24.103400
617.000000	24.154900
616.000000	24.207900
615.000000	24.263300
614.000000	24.332800
613.000000	24.401900
612.000000	24.461700
611.000000	24.574700
610.000000	24.662700
609.000000	24.761600
608.000000	24.897200
607.000000	25.007600
606.000000	25.134400
605.000000	25.239800
604.000000	25.353700
603.000000	25.464100
602.000000	25.599900
601.000000	25.734400
600.000000	25.858600
599.000000	25.964900
598.000000	26.067500
597.000000	26.202500
596.000000	26.326800
595.000000	26.429000
594.000000	26.537300
593.000000	26.667800
592.000000	26.812900
591.000000	26.924600
590.000000	27.014400
589.000000	27.114100
588.000000	27.251500
587.000000	27.377500
586.000000	27.492600
585.000000	27.583700
584.000000	27.681800
583.000000	27.777900
582.000000	27.901700
581.000000	27.979700
580.000000	28.065300
579.000000	28.177200
578.000000	28.259300
577.000000	28.349300
576.000000	28.439700
575.000000	28.491600
574.000000	28.560000
573.000000	28.617400
572.000000	28.677100
571.000000	28.723700
570.000000	28.778100
569.000000	28.805900
568.000000	28.830400
567.000000	28.870400
566.000000	28.895000
565.000000	28.918900
564.000000	28.935500
563.000000	28.954100
562.000000	28.926100
561.000000	28.921200
560.000000	28.913200
559.000000	28.883200
558.000000	28.830800
557.000000	28.806800
556.000000	28.750800
555.000000	28.684200
554.000000	28.623800
553.000000	28.564800
552.000000	28.468400
551.000000	28.367000
550.000000	28.282700
549.000000	28.176900
548.000000	28.047500
547.000000	27.919700
546.000000	27.759400
545.000000	27.603500
544.000000	27.451300
543.000000	27.260800
542.000000	27.070200
541.000000	26.883000
540.000000	26.668500
539.000000	26.443100
538.000000	26.197300
537.000000	25.975000
536.000000	25.729100
535.000000	25.438000
534.000000	25.168300
533.000000	24.868100
532.000000	24.576700
531.000000	24.270200
530.000000	23.953800
529.000000	23.635500
528.000000	23.280300
527.000000	22.931900
526.000000	22.565200
525.000000	22.205400
524.000000	21.834400
523.000000	21.459800
522.000000	21.036600
521.000000	20.650800
520.000000	20.253100
519.000000	19.867200
518.000000	19.470600
517.000000	19.056600
516.000000	18.686500
515.000000	18.285100
514.000000	17.891300
513.000000	17.519800
512.000000	17.142000
511.000000	16.756400
510.000000	16.375100
509.000000	16.010200
508.000000	15.670500
507.000000	15.324700
506.000000	14.964300
505.000000	14.649800
504.000000	14.324300
503.000000	13.983200
502.000000	13.687900
501.000000	13.386600
500.000000	13.080600
499.000000	12.814100
498.000000	12.570200
497.000000	12.312700
496.000000	12.078300
495.000000	11.843300
494.000000	11.619700
493.000000	11.375600
492.000000	11.182800
491.000000	10.975000
490.000000	10.809900
489.000000	10.622100
488.000000	10.445900
487.000000	10.283400
486.000000	10.128800
485.000000	9.980400
484.000000	9.839000
483.000000	9.690500
482.000000	9.554100
481.000000	9.405500
480.000000	9.269900
479.000000	9.147000
478.000000	9.024500
477.000000	8.905800
476.000000	8.794600
475.000000	8.692600
474.000000	8.591700
473.000000	8.475000
472.000000	8.371200
471.000000	8.290000
470.000000	8.203200
469.000000	8.111800
468.000000	8.039400
467.000000	7.969600
466.000000	7.883500
465.000000	7.814700
464.000000	7.743500
463.000000	7.675200
462.000000	7.618800
461.000000	7.548800
460.000000	7.486900
459.000000	7.445200
458.000000	7.375100
457.000000	7.326800
456.000000	7.273900
455.000000	7.218800
454.000000	7.167300
453.000000	7.119500
452.000000	7.061100
451.000000	7.021200
450.000000	6.965900
449.000000	6.917000
448.000000	6.859200
447.000000	6.825900
446.000000	6.764800
445.000000	6.715200
444.000000	6.669200
443.000000	6.604600
442.000000	6.551400
441.000000	6.502300
440.000000	6.443500
439.000000	6.401300
438.000000	6.346000
437.000000	6.286800
436.000000	6.225600
435.000000	6.193400
434.000000	6.144800
433.000000	6.089500
432.000000	6.039800
431.000000	6.001700
430.000000	5.934400
429.000000	5.905500
428.000000	5.859800
427.000000	5.811400
426.000000	5.781800
425.000000	5.742000
424.000000	5.687500
423.000000	5.633900
422.000000	5.588900
421.000000	5.564400
420.000000	5.529200
419.000000	5.495900
418.000000	5.459000
417.000000	5.416400
416.000000	5.386700
415.000000	5.343500
414.000000	5.321300
413.000000	5.279200
412.000000	5.254900
411.000000	5.220600
410.000000	5.157200
409.000000	5.114400
408.000000	5.098700
407.000000	5.081900
406.000000	5.035500
405.000000	4.990900
404.000000	4.961000
403.000000	4.936500
402.000000	4.893400
401.000000	4.858000
400.000000	4.838400
399.000000	4.820300
398.000000	4.782700
397.000000	4.751900
396.000000	4.721500
395.000000	4.702200
394.000000	4.673300
393.000000	4.646700
392.000000	4.612500
391.000000	4.587200
390.000000	4.582900
389.000000	4.541500
388.000000	4.521700
387.000000	4.507400
386.000000	4.490100
385.000000	4.462000
384.000000	4.433600
383.000000	4.413700
382.000000	4.383600
381.000000	4.369800
380.000000	4.376800
379.000000	4.366200
378.000000	4.352800
377.000000	4.317500
376.000000	4.303900
375.000000	4.101000
374.000000	3.677600
373.000000	3.792800
372.000000	4.085000
371.000000	4.249400
370.000000	4.041800
369.000000	4.065200
368.000000	4.134700
367.000000	4.137200
366.000000	4.147100
365.000000	4.090300
364.000000	4.161800
363.000000	4.151000
362.000000	4.097500
361.000000	4.052400
360.000000	4.066600
359.000000	4.150600
358.000000	4.096200
357.000000	4.097000
356.000000	4.283400
355.000000	4.258000
354.000000	4.128700
353.000000	4.235700
352.000000	4.292200
351.000000	4.299900
350.000000	4.261000
349.000000	4.165400
348.000000	4.237400
347.000000	4.327600
346.000000	4.033200
345.000000	4.204600
344.000000	4.419000
343.000000	4.334800
342.000000	4.238500
341.000000	4.263100
340.000000	4.390200
339.000000	4.253600
338.000000	4.361400
337.000000	4.407200
336.000000	4.200000
335.000000	4.168600
334.000000	4.447000
333.000000	4.519800
332.000000	4.508700
331.000000	4.431600
330.000000	4.368800
329.000000	4.557300
328.000000	4.619500
327.000000	4.488000
326.000000	4.371700
325.000000	4.288600
324.000000	4.798400
323.000000	5.125000
322.000000	4.964500
321.000000	4.855100
320.000000	4.988600
319.000000	5.111900
318.000000	5.241400
317.000000	5.219600
316.000000	4.543600
315.000000	4.087900
314.000000	4.090600
313.000000	4.090200
312.000000	4.072700
311.000000	4.097700
310.000000	4.108700
309.000000	4.119000
308.000000	4.102700
307.000000	4.116500
306.000000	4.090300
305.000000	4.077900
304.000000	4.109700
303.000000	4.140600
302.000000	4.141200
301.000000	4.101000
300.000000	4.090300
299.000000	4.109400
298.000000	4.114200
297.000000	4.079800
296.000000	4.094600
295.000000	4.142200
294.000000	4.153100
293.000000	4.181500
292.000000	4.152800
291.000000	4.140300
290.000000	4.153400
289.000000	4.171200
288.000000	4.191000
287.000000	4.220800
286.000000	4.231800
285.000000	4.245900
284.000000	4.176500
283.000000	4.167400
282.000000	4.169100
281.000000	4.143700
280.000000	4.172600
279.000000	4.216000
278.000000	4.264500
277.000000	4.227800
276.000000	4.237400
275.000000	4.303000
274.000000	4.277300
273.000000	4.271700
272.000000	4.258400
271.000000	4.282100
270.000000	4.305900
269.000000	4.349900
268.000000	4.357500
267.000000	4.316200
266.000000	4.344100
265.000000	4.397400
264.000000	4.427000
263.000000	4.440100
262.000000	4.441500
261.000000	4.417900
260.000000	4.427200
259.000000	4.470600
258.000000	4.454800
257.000000	4.475700
256.000000	4.496200
255.000000	4.527500
254.000000	4.508300
253.000000	4.536800
252.000000	4.546800
251.000000	4.538400
250.000000	4.567600
