PE UV       SUBTECH     SPECTRUM    ASCII       PEDS        4.00        
   -1
CICIMAUCR0212-3.ASC
24/06/06
17:34:18.00
24/06/06
17:34:18.00
Vinicio Soto Monge
C. resplendens. Sex F. Dorsal
250,000000
1
Lambda 1050
1050L1511233
PerkinElmer UV WinLab 6.3.2.0749 / 2.02.05 Lambda 900 UV/VIS/NIR, Aug  7 2015 09:38:08

0
0
3350/servo 860,8/2
0
0
UV/VIS
1
1
1
DoubleDePol,CommonBeamDepol,RBeamAtt,SBeamAtt,60mm sphere, WB InGaAs Detector
0
0
0
0
Program
Program
3350/servo 860,8/2
3350/0,2 860,8/0,2
3350/0,2 860,8/0,2
0
15.00
 
 
 
0
 
860,8
319,2
860,8
Front
100
on
S:100 R:100
0
0
0
0
 
0
 
 
 
0
 
 
0
0
0
0
0
 
 
 
 
0
0


0
0
#HDR
-1
-1
#GR
nm
%R
1.0
0.0
2500,000000
-1,000000
2251
8
89,566500
5,313500
#DATA
2500.000000	7.293007
2499.000000	7.235762
2498.000000	7.308518
2497.000000	7.256518
2496.000000	7.160216
2495.000000	7.174053
2494.000000	7.158877
2493.000000	7.220809
2492.000000	7.173719
2491.000000	7.106765
2490.000000	7.124731
2489.000000	7.123057
2488.000000	7.054207
2487.000000	7.017048
2486.000000	7.049743
2485.000000	6.991271
2484.000000	7.021958
2483.000000	6.943734
2482.000000	6.967502
2481.000000	7.065477
2480.000000	7.012919
2479.000000	7.066482
2478.000000	7.053537
2477.000000	7.021176
2476.000000	7.051529
2475.000000	7.023743
2474.000000	6.959803
2473.000000	7.025417
2472.000000	7.046507
2471.000000	7.005331
2470.000000	6.998635
2469.000000	7.011245
2468.000000	6.993502
2467.000000	6.977322
2466.000000	7.010018
2465.000000	6.962034
2464.000000	7.015597
2463.000000	7.025863
2462.000000	7.040481
2461.000000	7.040593
2460.000000	7.038361
2459.000000	7.075074
2458.000000	7.114576
2457.000000	7.099847
2456.000000	7.141358
2455.000000	7.167581
2454.000000	7.223934
2453.000000	7.270131
2452.000000	7.310303
2451.000000	7.358175
2450.000000	7.403703
2449.000000	7.441197
2448.000000	7.488511
2447.000000	7.526786
2446.000000	7.578675
2445.000000	7.653551
2444.000000	7.650315
2443.000000	7.714925
2442.000000	7.764024
2441.000000	7.806428
2440.000000	7.844480
2439.000000	7.901948
2438.000000	7.951717
2437.000000	7.986867
2436.000000	8.032172
2435.000000	8.068439
2434.000000	8.092765
2433.000000	8.162173
2432.000000	8.182259
2431.000000	8.233814
2430.000000	8.273539
2429.000000	8.298089
2428.000000	8.359016
2427.000000	8.398407
2426.000000	8.397514
2425.000000	8.417266
2424.000000	8.455429
2423.000000	8.500288
2422.000000	8.531868
2421.000000	8.533765
2420.000000	8.557310
2419.000000	8.585653
2418.000000	8.620916
2417.000000	8.647585
2416.000000	8.672246
2415.000000	8.705946
2414.000000	8.742436
2413.000000	8.759174
2412.000000	8.782943
2411.000000	8.796445
2410.000000	8.812625
2409.000000	8.845209
2408.000000	8.865853
2407.000000	8.876789
2406.000000	8.901450
2405.000000	8.920643
2404.000000	8.960704
2403.000000	8.998086
2402.000000	9.009915
2401.000000	9.043949
2400.000000	9.071846
2399.000000	9.112576
2398.000000	9.189350
2397.000000	9.249273
2396.000000	9.266234
2395.000000	9.288329
2394.000000	9.319797
2393.000000	9.347360
2392.000000	9.370793
2391.000000	9.407952
2390.000000	9.459953
2389.000000	9.481266
2388.000000	9.505927
2387.000000	9.538846
2386.000000	9.565293
2385.000000	9.581250
2384.000000	9.579130
2383.000000	9.591070
2382.000000	9.608143
2381.000000	9.642624
2380.000000	9.661371
2379.000000	9.669517
2378.000000	9.661036
2377.000000	9.664272
2376.000000	9.673311
2375.000000	9.671525
2374.000000	9.663379
2373.000000	9.671079
2372.000000	9.657131
2371.000000	9.650100
2370.000000	9.639723
2369.000000	9.622761
2368.000000	9.600890
2367.000000	9.586718
2366.000000	9.574778
2365.000000	9.526237
2364.000000	9.473790
2363.000000	9.433060
2362.000000	9.397798
2361.000000	9.366441
2360.000000	9.325600
2359.000000	9.279848
2358.000000	9.224612
2357.000000	9.182654
2356.000000	9.152748
2355.000000	9.113692
2354.000000	9.095392
2353.000000	9.066602
2352.000000	9.054885
2351.000000	9.074190
2350.000000	9.080885
2349.000000	9.101418
2348.000000	9.118825
2347.000000	9.138911
2346.000000	9.180423
2345.000000	9.237110
2344.000000	9.287771
2343.000000	9.339772
2342.000000	9.390879
2341.000000	9.425583
2340.000000	9.471781
2339.000000	9.521996
2338.000000	9.554803
2337.000000	9.584709
2336.000000	9.618855
2335.000000	9.640615
2334.000000	9.626444
2333.000000	9.621422
2332.000000	9.601894
2331.000000	9.588615
2330.000000	9.577679
2329.000000	9.543198
2328.000000	9.491979
2327.000000	9.457275
2326.000000	9.408399
2325.000000	9.353497
2324.000000	9.295471
2323.000000	9.203410
2322.000000	9.126525
2321.000000	9.044730
2320.000000	8.964275
2319.000000	8.883708
2318.000000	8.788969
2317.000000	8.675817
2316.000000	8.580074
2315.000000	8.493258
2314.000000	8.404879
2313.000000	8.306012
2312.000000	8.232809
2311.000000	8.133272
2310.000000	8.056164
2309.000000	7.988764
2308.000000	7.942566
2307.000000	7.874832
2306.000000	7.823724
2305.000000	7.828857
2304.000000	7.836668
2303.000000	7.840686
2302.000000	7.878068
2301.000000	7.903957
2300.000000	7.957742
2299.000000	8.031056
2298.000000	8.111177
2297.000000	8.183375
2296.000000	8.253118
2295.000000	8.341832
2294.000000	8.417266
2293.000000	8.478751
2292.000000	8.563224
2291.000000	8.639439
2290.000000	8.703045
2289.000000	8.717328
2288.000000	8.748350
2287.000000	8.772342
2286.000000	8.785509
2285.000000	8.779930
2284.000000	8.772677
2283.000000	8.753706
2282.000000	8.703380
2281.000000	8.677603
2280.000000	8.627722
2279.000000	8.587885
2278.000000	8.528855
2277.000000	8.479867
2276.000000	8.436905
2275.000000	8.398407
2274.000000	8.354553
2273.000000	8.346518
2272.000000	8.299651
2271.000000	8.282243
2270.000000	8.256689
2269.000000	8.273762
2268.000000	8.306346
2267.000000	8.352544
2266.000000	8.372295
2265.000000	8.452863
2264.000000	8.547936
2263.000000	8.649706
2262.000000	8.770110
2261.000000	8.915287
2260.000000	9.097847
2259.000000	9.281299
2258.000000	9.465198
2257.000000	9.679560
2256.000000	9.906643
2255.000000	10.130491
2254.000000	10.380004
2253.000000	10.588005
2252.000000	10.812857
2251.000000	11.041057
2250.000000	11.235779
2249.000000	11.447910
2248.000000	11.650332
2247.000000	11.827759
2246.000000	11.985322
2245.000000	12.150362
2244.000000	12.289291
2243.000000	12.421523
2242.000000	12.549851
2241.000000	12.666908
2240.000000	12.813982
2239.000000	12.915081
2238.000000	12.982927
2237.000000	13.110474
2236.000000	13.186131
2235.000000	13.262123
2234.000000	13.333205
2233.000000	13.401051
2232.000000	13.476597
2231.000000	13.534846
2230.000000	13.552924
2229.000000	13.571113
2228.000000	13.635723
2227.000000	13.643646
2226.000000	13.687835
2225.000000	13.703792
2224.000000	13.718410
2223.000000	13.746307
2222.000000	13.720642
2221.000000	13.717964
2220.000000	13.709483
2219.000000	13.702007
2218.000000	13.723990
2217.000000	13.670204
2216.000000	13.663508
2215.000000	13.658933
2214.000000	13.628581
2213.000000	13.613517
2212.000000	13.613293
2211.000000	13.587851
2210.000000	13.578254
2209.000000	13.564417
2208.000000	13.538417
2207.000000	13.538417
2206.000000	13.551027
2205.000000	13.524915
2204.000000	13.491885
2203.000000	13.489541
2202.000000	13.484297
2201.000000	13.443455
2200.000000	13.472914
2199.000000	13.447137
2198.000000	13.465996
2197.000000	13.458296
2196.000000	13.454949
2195.000000	13.429395
2194.000000	13.403729
2193.000000	13.423927
2192.000000	13.426940
2191.000000	13.399601
2190.000000	13.385317
2189.000000	13.373377
2188.000000	13.375721
2187.000000	13.352398
2186.000000	13.366459
2185.000000	13.353849
2184.000000	13.335102
2183.000000	13.321488
2182.000000	13.305531
2181.000000	13.302630
2180.000000	13.303299
2179.000000	13.283325
2178.000000	13.262569
2177.000000	13.225187
2176.000000	13.216929
2175.000000	13.231771
2174.000000	13.209676
2173.000000	13.218045
2172.000000	13.204655
2171.000000	13.198071
2170.000000	13.207779
2169.000000	13.229204
2168.000000	13.231994
2167.000000	13.250406
2166.000000	13.245496
2165.000000	13.242706
2164.000000	13.255093
2163.000000	13.263239
2162.000000	13.281539
2161.000000	13.297050
2160.000000	13.335325
2159.000000	13.333205
2158.000000	13.336776
2157.000000	13.350836
2156.000000	13.383643
2155.000000	13.386545
2154.000000	13.393575
2153.000000	13.436202
2152.000000	13.452047
2151.000000	13.463876
2150.000000	13.490099
2149.000000	13.512194
2148.000000	13.530718
2147.000000	13.524245
2146.000000	13.566091
2145.000000	13.592538
2144.000000	13.589860
2143.000000	13.617199
2142.000000	13.622220
2141.000000	13.629920
2140.000000	13.638736
2139.000000	13.662727
2138.000000	13.668642
2137.000000	13.685603
2136.000000	13.681251
2135.000000	13.685268
2134.000000	13.686161
2133.000000	13.694307
2132.000000	13.715509
2131.000000	13.696650
2130.000000	13.694307
2129.000000	13.686049
2128.000000	13.693191
2127.000000	13.680024
2126.000000	13.661723
2125.000000	13.645766
2124.000000	13.638289
2123.000000	13.617869
2122.000000	13.596109
2121.000000	13.570890
2120.000000	13.550134
2119.000000	13.514314
2118.000000	13.486305
2117.000000	13.474365
2116.000000	13.442562
2115.000000	13.422253
2114.000000	13.390115
2113.000000	13.360991
2112.000000	13.321935
2111.000000	13.292810
2110.000000	13.261453
2109.000000	13.240252
2108.000000	13.207444
2107.000000	13.175753
2106.000000	13.151092
2105.000000	13.120851
2104.000000	13.081014
2103.000000	13.059477
2102.000000	13.044301
2101.000000	13.010044
2100.000000	12.971992
2099.000000	12.930369
2098.000000	12.902918
2097.000000	12.882051
2096.000000	12.852703
2095.000000	12.819450
2094.000000	12.794007
2093.000000	12.761200
2092.000000	12.729509
2091.000000	12.706633
2090.000000	12.684873
2089.000000	12.665345
2088.000000	12.638006
2087.000000	12.623946
2086.000000	12.590581
2085.000000	12.551859
2084.000000	12.533447
2083.000000	12.506666
2082.000000	12.489481
2081.000000	12.469395
2080.000000	12.434579
2079.000000	12.403223
2078.000000	12.368965
2077.000000	12.332252
2076.000000	12.305583
2075.000000	12.302012
2074.000000	12.271325
2073.000000	12.216311
2072.000000	12.195444
2071.000000	12.170114
2070.000000	12.136637
2069.000000	12.104499
2068.000000	12.072920
2067.000000	12.028730
2066.000000	12.004962
2065.000000	11.989897
2064.000000	11.960103
2063.000000	11.937116
2062.000000	11.905201
2061.000000	11.882884
2060.000000	11.875407
2059.000000	11.873510
2058.000000	11.862463
2057.000000	11.851527
2056.000000	11.852755
2055.000000	11.850076
2054.000000	11.839922
2053.000000	11.851304
2052.000000	11.876300
2051.000000	11.904755
2050.000000	11.943253
2049.000000	11.961107
2048.000000	12.014559
2047.000000	12.057186
2046.000000	12.099813
2045.000000	12.164757
2044.000000	12.222784
2043.000000	12.297548
2042.000000	12.346759
2041.000000	12.380124
2040.000000	12.446073
2039.000000	12.506777
2038.000000	12.549516
2037.000000	12.609886
2036.000000	12.666573
2035.000000	12.694024
2034.000000	12.753947
2033.000000	12.788316
2032.000000	12.825029
2031.000000	12.852368
2030.000000	12.878034
2029.000000	12.910060
2028.000000	12.934833
2027.000000	12.941416
2026.000000	12.934163
2025.000000	12.971880
2024.000000	12.981700
2023.000000	12.986387
2022.000000	12.986498
2021.000000	12.996207
2020.000000	13.004129
2019.000000	13.012275
2018.000000	13.004129
2017.000000	12.997992
2016.000000	12.982704
2015.000000	12.981477
2014.000000	12.963399
2013.000000	12.934163
2012.000000	12.943313
2011.000000	12.931597
2010.000000	12.903922
2009.000000	12.860961
2008.000000	12.810523
2007.000000	12.789432
2006.000000	12.757295
2005.000000	12.721586
2004.000000	12.694358
2003.000000	12.630864
2002.000000	12.603637
2001.000000	12.553756
2000.000000	12.506331
1999.000000	12.445403
1998.000000	12.401884
1997.000000	12.338836
1996.000000	12.276904
1995.000000	12.213633
1994.000000	12.152371
1993.000000	12.122577
1992.000000	12.023486
1991.000000	11.969365
1990.000000	11.917365
1989.000000	11.838583
1988.000000	11.768505
1987.000000	11.690839
1986.000000	11.622770
1985.000000	11.544769
1984.000000	11.481721
1983.000000	11.399146
1982.000000	11.332639
1981.000000	11.237676
1980.000000	11.186345
1979.000000	11.111469
1978.000000	11.021529
1977.000000	10.960824
1976.000000	10.898781
1975.000000	10.811518
1974.000000	10.730951
1973.000000	10.685757
1972.000000	10.569482
1971.000000	10.533438
1970.000000	10.449300
1969.000000	10.387145
1968.000000	10.322201
1967.000000	10.255582
1966.000000	10.207264
1965.000000	10.135401
1964.000000	10.083623
1963.000000	10.005511
1962.000000	9.940008
1961.000000	9.904300
1960.000000	9.847948
1959.000000	9.775415
1958.000000	9.722410
1957.000000	9.648873
1956.000000	9.617182
1955.000000	9.562615
1954.000000	9.502803
1953.000000	9.436296
1952.000000	9.378493
1951.000000	9.369343
1950.000000	9.276501
1949.000000	9.238784
1948.000000	9.219367
1947.000000	9.176294
1946.000000	9.134225
1945.000000	9.085349
1944.000000	9.051984
1943.000000	9.029443
1942.000000	9.011254
1941.000000	8.984584
1940.000000	8.966953
1939.000000	8.969185
1938.000000	8.944747
1937.000000	8.949322
1936.000000	8.937940
1935.000000	8.938386
1934.000000	8.960481
1933.000000	8.971082
1932.000000	8.998867
1931.000000	9.009022
1930.000000	9.057452
1929.000000	9.081443
1928.000000	9.133332
1927.000000	9.205865
1926.000000	9.221822
1925.000000	9.297368
1924.000000	9.356845
1923.000000	9.442322
1922.000000	9.526460
1921.000000	9.604126
1920.000000	9.704667
1919.000000	9.806325
1918.000000	9.887562
1917.000000	10.019013
1916.000000	10.124465
1915.000000	10.261608
1914.000000	10.397300
1913.000000	10.555756
1912.000000	10.697251
1911.000000	10.849124
1910.000000	10.986824
1909.000000	11.153873
1908.000000	11.326947
1907.000000	11.498906
1906.000000	11.676890
1905.000000	11.891699
1904.000000	12.105838
1903.000000	12.302904
1902.000000	12.522846
1901.000000	12.732633
1900.000000	12.968532
1899.000000	13.229651
1898.000000	13.464322
1897.000000	13.709037
1896.000000	13.986335
1895.000000	14.266089
1894.000000	14.570950
1893.000000	14.861304
1892.000000	15.173753
1891.000000	15.510640
1890.000000	15.871519
1889.000000	16.218449
1888.000000	16.565379
1887.000000	16.998902
1886.000000	17.437781
1885.000000	17.897751
1884.000000	18.360733
1883.000000	18.894575
1882.000000	19.446271
1881.000000	20.007340
1880.000000	20.570306
1879.000000	21.137178
1878.000000	21.686865
1877.000000	22.243136
1876.000000	22.786128
1875.000000	23.288055
1874.000000	23.778712
1873.000000	24.244707
1872.000000	24.709810
1871.000000	25.137642
1870.000000	25.534340
1869.000000	25.864421
1868.000000	26.198071
1867.000000	26.529491
1866.000000	26.813373
1865.000000	27.046705
1864.000000	27.272003
1863.000000	27.489490
1862.000000	27.667475
1861.000000	27.865545
1860.000000	28.035607
1859.000000	28.187033
1858.000000	28.314021
1857.000000	28.389902
1856.000000	28.480177
1855.000000	28.554495
1854.000000	28.613637
1853.000000	28.668651
1852.000000	28.704024
1851.000000	28.703132
1850.000000	28.740514
1849.000000	28.774102
1848.000000	28.794746
1847.000000	28.769639
1846.000000	28.721655
1845.000000	28.677243
1844.000000	28.643097
1843.000000	28.643543
1842.000000	28.666977
1841.000000	28.684831
1840.000000	28.668762
1839.000000	28.636736
1838.000000	28.615534
1837.000000	28.591543
1836.000000	28.542890
1835.000000	28.504169
1834.000000	28.453172
1833.000000	28.389790
1832.000000	28.357206
1831.000000	28.313240
1830.000000	28.252647
1829.000000	28.181453
1828.000000	28.123204
1827.000000	28.040182
1826.000000	27.955263
1825.000000	27.891322
1824.000000	27.806849
1823.000000	27.772257
1822.000000	27.772591
1821.000000	27.771141
1820.000000	27.715235
1819.000000	27.639131
1818.000000	27.575302
1817.000000	27.537027
1816.000000	27.532452
1815.000000	27.529886
1814.000000	27.507791
1813.000000	27.488486
1812.000000	27.472975
1811.000000	27.432803
1810.000000	27.405017
1809.000000	27.367858
1808.000000	27.326570
1807.000000	27.287180
1806.000000	27.245334
1805.000000	27.196011
1804.000000	27.130843
1803.000000	27.076388
1802.000000	27.025727
1801.000000	26.979194
1800.000000	26.920721
1799.000000	26.858566
1798.000000	26.806008
1797.000000	26.747982
1796.000000	26.684041
1795.000000	26.630367
1794.000000	26.573568
1793.000000	26.512083
1792.000000	26.449816
1791.000000	26.395361
1790.000000	26.348382
1789.000000	26.287454
1788.000000	26.229093
1787.000000	26.167273
1786.000000	26.094629
1785.000000	26.020757
1784.000000	25.956370
1783.000000	25.868215
1782.000000	25.783295
1781.000000	25.721587
1780.000000	25.653294
1779.000000	25.587903
1778.000000	25.508787
1777.000000	25.415833
1776.000000	25.340734
1775.000000	25.258827
1774.000000	25.160071
1773.000000	25.074594
1772.000000	24.970035
1771.000000	24.851081
1770.000000	24.732239
1769.000000	24.621208
1768.000000	24.516091
1767.000000	24.420013
1766.000000	24.321592
1765.000000	24.241136
1764.000000	24.172286
1763.000000	24.124860
1762.000000	24.115822
1761.000000	24.137024
1760.000000	24.175522
1759.000000	24.228303
1758.000000	24.307197
1757.000000	24.406734
1756.000000	24.481276
1755.000000	24.558160
1754.000000	24.626230
1753.000000	24.679346
1752.000000	24.728668
1751.000000	24.754445
1750.000000	24.769733
1749.000000	24.759467
1748.000000	24.738488
1747.000000	24.695973
1746.000000	24.661269
1745.000000	24.601345
1744.000000	24.504709
1743.000000	24.394683
1742.000000	24.256759
1741.000000	24.098525
1740.000000	23.912172
1739.000000	23.709526
1738.000000	23.491593
1737.000000	23.265849
1736.000000	23.088534
1735.000000	22.932309
1734.000000	22.809338
1733.000000	22.743836
1732.000000	22.711921
1731.000000	22.729218
1730.000000	22.792377
1729.000000	22.893476
1728.000000	23.015555
1727.000000	23.128036
1726.000000	23.254690
1725.000000	23.358133
1724.000000	23.473069
1723.000000	23.569594
1722.000000	23.617577
1721.000000	23.673930
1720.000000	23.704951
1719.000000	23.739879
1718.000000	23.764205
1717.000000	23.784514
1716.000000	23.827811
1715.000000	23.881262
1714.000000	23.936610
1713.000000	24.007804
1712.000000	24.076208
1711.000000	24.133006
1710.000000	24.178088
1709.000000	24.187127
1708.000000	24.175075
1707.000000	24.148517
1706.000000	24.144612
1705.000000	24.099865
1704.000000	24.029006
1703.000000	23.961606
1702.000000	23.877245
1701.000000	23.778600
1700.000000	23.637663
1699.000000	23.497731
1698.000000	23.316399
1697.000000	23.145891
1696.000000	22.998147
1695.000000	22.891803
1694.000000	22.850626
1693.000000	22.880755
1692.000000	22.947039
1691.000000	23.088422
1690.000000	23.257926
1689.000000	23.408906
1688.000000	23.579414
1687.000000	23.687543
1686.000000	23.765879
1685.000000	23.802034
1684.000000	23.840978
1683.000000	23.918198
1682.000000	24.046190
1681.000000	24.295034
1680.000000	24.630693
1679.000000	25.079839
1678.000000	25.598281
1677.000000	26.123418
1676.000000	26.674445
1675.000000	27.138097
1674.000000	27.564032
1673.000000	27.934507
1672.000000	28.267488
1671.000000	28.548693
1670.000000	28.788944
1669.000000	28.970276
1668.000000	29.133642
1667.000000	29.280047
1666.000000	29.399670
1665.000000	29.506237
1664.000000	29.591714
1663.000000	29.660453
1662.000000	29.738677
1661.000000	29.783759
1660.000000	29.802060
1659.000000	29.827167
1658.000000	29.859416
1657.000000	29.895683
1656.000000	29.909408
1655.000000	29.875820
1654.000000	29.875262
1653.000000	29.858189
1652.000000	29.830961
1651.000000	29.805296
1650.000000	29.778626
1649.000000	29.736669
1648.000000	29.704308
1647.000000	29.637243
1646.000000	29.626419
1645.000000	29.560470
1644.000000	29.502890
1643.000000	29.457808
1642.000000	29.404133
1641.000000	29.335841
1640.000000	29.265428
1639.000000	29.201376
1638.000000	29.124045
1637.000000	29.059547
1636.000000	28.986456
1635.000000	28.930215
1634.000000	28.850318
1633.000000	28.780240
1632.000000	28.712840
1631.000000	28.616985
1630.000000	28.540658
1629.000000	28.455516
1628.000000	28.372940
1627.000000	28.273179
1626.000000	28.199308
1625.000000	28.108586
1624.000000	28.033710
1623.000000	27.932498
1622.000000	27.858627
1621.000000	27.770137
1620.000000	27.717801
1619.000000	27.620942
1618.000000	27.569053
1617.000000	27.462597
1616.000000	27.390511
1615.000000	27.343644
1614.000000	27.251583
1613.000000	27.182844
1612.000000	27.110646
1611.000000	27.048379
1610.000000	26.998276
1609.000000	26.905434
1608.000000	26.835356
1607.000000	26.752445
1606.000000	26.708145
1605.000000	26.632376
1604.000000	26.555379
1603.000000	26.483516
1602.000000	26.418013
1601.000000	26.343695
1600.000000	26.288347
1599.000000	26.198964
1598.000000	26.130114
1597.000000	26.066954
1596.000000	26.019752
1595.000000	25.970876
1594.000000	25.876361
1593.000000	25.792222
1592.000000	25.755956
1591.000000	25.698265
1590.000000	25.639122
1589.000000	25.579757
1588.000000	25.516375
1587.000000	25.460580
1586.000000	25.417284
1585.000000	25.354236
1584.000000	25.296544
1583.000000	25.259050
1582.000000	25.217874
1581.000000	25.157170
1580.000000	25.133067
1579.000000	25.084191
1578.000000	25.053838
1577.000000	25.004516
1576.000000	24.979632
1575.000000	24.935777
1574.000000	24.917030
1573.000000	24.889356
1572.000000	24.863802
1571.000000	24.842154
1570.000000	24.833785
1569.000000	24.819613
1568.000000	24.813029
1567.000000	24.805665
1566.000000	24.792162
1565.000000	24.762145
1564.000000	24.759690
1563.000000	24.767278
1562.000000	24.745630
1561.000000	24.743510
1560.000000	24.729896
1559.000000	24.709252
1558.000000	24.692960
1557.000000	24.685595
1556.000000	24.664505
1555.000000	24.646427
1554.000000	24.617526
1553.000000	24.592976
1552.000000	24.563293
1551.000000	24.552469
1550.000000	24.515645
1549.000000	24.477482
1548.000000	24.457284
1547.000000	24.414099
1546.000000	24.388210
1545.000000	24.360759
1544.000000	24.337214
1543.000000	24.314115
1542.000000	24.290570
1541.000000	24.264123
1540.000000	24.238346
1539.000000	24.214578
1538.000000	24.187015
1537.000000	24.149522
1536.000000	24.120955
1535.000000	24.105444
1534.000000	24.071744
1533.000000	24.034920
1532.000000	23.999100
1531.000000	23.968859
1530.000000	23.927013
1529.000000	23.880034
1528.000000	23.850910
1527.000000	23.817656
1526.000000	23.765544
1525.000000	23.714548
1524.000000	23.665560
1523.000000	23.633646
1522.000000	23.585551
1521.000000	23.530761
1520.000000	23.487576
1519.000000	23.429773
1518.000000	23.379781
1517.000000	23.327111
1516.000000	23.248552
1515.000000	23.196217
1514.000000	23.155487
1513.000000	23.097015
1512.000000	23.033632
1511.000000	22.971142
1510.000000	22.903743
1509.000000	22.837905
1508.000000	22.795725
1507.000000	22.752540
1506.000000	22.686144
1505.000000	22.613053
1504.000000	22.545877
1503.000000	22.478923
1502.000000	22.428262
1501.000000	22.367111
1500.000000	22.300604
1499.000000	22.252286
1498.000000	22.202852
1497.000000	22.148955
1496.000000	22.106440
1495.000000	22.041272
1494.000000	21.979005
1493.000000	21.936713
1492.000000	21.888730
1491.000000	21.852240
1490.000000	21.805819
1489.000000	21.761853
1488.000000	21.721123
1487.000000	21.668118
1486.000000	21.629285
1485.000000	21.593130
1484.000000	21.552735
1483.000000	21.525954
1482.000000	21.496383
1481.000000	21.474735
1480.000000	21.449181
1479.000000	21.406889
1478.000000	21.363369
1477.000000	21.343618
1476.000000	21.336030
1475.000000	21.325875
1474.000000	21.312038
1473.000000	21.304003
1472.000000	21.305901
1471.000000	21.294853
1470.000000	21.279677
1469.000000	21.270527
1468.000000	21.249437
1467.000000	21.233814
1466.000000	21.247651
1465.000000	21.256690
1464.000000	21.245754
1463.000000	21.260595
1462.000000	21.256801
1461.000000	21.272201
1460.000000	21.314158
1459.000000	21.346854
1458.000000	21.376313
1457.000000	21.406219
1456.000000	21.450297
1455.000000	21.492366
1454.000000	21.559765
1453.000000	21.611096
1452.000000	21.683294
1451.000000	21.781827
1450.000000	21.851124
1449.000000	21.906361
1448.000000	21.962378
1447.000000	22.049194
1446.000000	22.135006
1445.000000	22.235883
1444.000000	22.314330
1443.000000	22.400142
1442.000000	22.479370
1441.000000	22.576899
1440.000000	22.688488
1439.000000	22.771510
1438.000000	22.882318
1437.000000	23.017229
1436.000000	23.115092
1435.000000	23.227797
1434.000000	23.348090
1433.000000	23.479318
1432.000000	23.600950
1431.000000	23.733964
1430.000000	23.867983
1429.000000	24.001666
1428.000000	24.149856
1427.000000	24.308871
1426.000000	24.496786
1425.000000	24.685595
1424.000000	24.881322
1423.000000	25.100706
1422.000000	25.269986
1421.000000	25.457790
1420.000000	25.711655
1419.000000	25.984044
1418.000000	26.227419
1417.000000	26.457851
1416.000000	26.688728
1415.000000	26.950069
1414.000000	27.231162
1413.000000	27.535688
1412.000000	27.807630
1411.000000	28.077341
1410.000000	28.402288
1409.000000	28.772428
1408.000000	29.141341
1407.000000	29.536813
1406.000000	29.931280
1405.000000	30.333335
1404.000000	30.762282
1403.000000	31.154852
1402.000000	31.628659
1401.000000	32.057049
1400.000000	32.550272
1399.000000	32.960362
1398.000000	33.343558
1397.000000	33.639269
1396.000000	34.059624
1395.000000	34.484778
1394.000000	34.873331
1393.000000	35.163574
1392.000000	35.466538
1391.000000	35.858884
1390.000000	36.225119
1389.000000	36.610882
1388.000000	37.029452
1387.000000	37.528925
1386.000000	38.032637
1385.000000	38.535457
1384.000000	39.101213
1383.000000	39.748763
1382.000000	40.384151
1381.000000	40.978362
1380.000000	41.450160
1379.000000	41.704025
1378.000000	42.101282
1377.000000	42.345661
1376.000000	42.603655
1375.000000	42.831296
1374.000000	43.071659
1373.000000	43.347172
1372.000000	43.676136
1371.000000	44.070492
1370.000000	44.458486
1369.000000	44.827176
1368.000000	45.146767
1367.000000	45.477963
1366.000000	45.742987
1365.000000	46.010019
1364.000000	46.270579
1363.000000	46.472332
1362.000000	46.663038
1361.000000	46.912104
1360.000000	47.071788
1359.000000	47.181703
1358.000000	47.248322
1357.000000	47.365044
1356.000000	47.514238
1355.000000	47.733734
1354.000000	48.037032
1353.000000	48.462298
1352.000000	48.824181
1351.000000	49.341507
1350.000000	49.866087
1349.000000	50.352168
1348.000000	50.804661
1347.000000	51.231154
1346.000000	51.605200
1345.000000	51.954474
1344.000000	52.289575
1343.000000	52.670986
1342.000000	52.996380
1341.000000	53.319095
1340.000000	53.663347
1339.000000	53.977916
1338.000000	54.307550
1337.000000	54.634617
1336.000000	54.934122
1335.000000	55.235300
1334.000000	55.518290
1333.000000	55.804292
1332.000000	56.096767
1331.000000	56.379980
1330.000000	56.656609
1329.000000	56.926096
1328.000000	57.164115
1327.000000	57.412401
1326.000000	57.646180
1325.000000	57.877280
1324.000000	58.093874
1323.000000	58.299644
1322.000000	58.516685
1321.000000	58.700360
1320.000000	58.897761
1319.000000	59.094158
1318.000000	59.270357
1317.000000	59.422787
1316.000000	59.595750
1315.000000	59.757219
1314.000000	59.906748
1313.000000	60.042775
1312.000000	60.202794
1311.000000	60.346967
1310.000000	60.488350
1309.000000	60.601055
1308.000000	60.726035
1307.000000	60.840078
1306.000000	60.936156
1305.000000	61.030561
1304.000000	61.112355
1303.000000	61.194039
1302.000000	61.261885
1301.000000	61.311876
1300.000000	61.357851
1299.000000	61.405611
1298.000000	61.448908
1297.000000	61.505260
1296.000000	61.557819
1295.000000	61.591630
1294.000000	61.610488
1293.000000	61.632472
1292.000000	61.658249
1291.000000	61.680566
1290.000000	61.676661
1289.000000	61.668850
1288.000000	61.655124
1287.000000	61.651553
1286.000000	61.636712
1285.000000	61.611158
1284.000000	61.580248
1283.000000	61.537175
1282.000000	61.500797
1281.000000	61.449354
1280.000000	61.407285
1279.000000	61.358297
1278.000000	61.297816
1277.000000	61.251284
1276.000000	61.203077
1275.000000	61.153309
1274.000000	61.104879
1273.000000	61.071402
1272.000000	61.022303
1271.000000	60.983917
1270.000000	60.952560
1269.000000	60.897324
1268.000000	60.860164
1267.000000	60.820662
1266.000000	60.771563
1265.000000	60.721794
1264.000000	60.653725
1263.000000	60.601613
1262.000000	60.553072
1261.000000	60.505312
1260.000000	60.452418
1259.000000	60.390710
1258.000000	60.324872
1257.000000	60.278005
1256.000000	60.209043
1255.000000	60.137403
1254.000000	60.076029
1253.000000	59.987762
1252.000000	59.905186
1251.000000	59.838791
1250.000000	59.746842
1249.000000	59.658128
1248.000000	59.577896
1247.000000	59.462401
1246.000000	59.357508
1245.000000	59.272923
1244.000000	59.144596
1243.000000	59.026646
1242.000000	58.911598
1241.000000	58.771666
1240.000000	58.623252
1239.000000	58.484547
1238.000000	58.337696
1237.000000	58.175781
1236.000000	58.025917
1235.000000	57.888551
1234.000000	57.734223
1233.000000	57.569072
1232.000000	57.399568
1231.000000	57.222253
1230.000000	57.049290
1229.000000	56.873315
1228.000000	56.698455
1227.000000	56.521698
1226.000000	56.334340
1225.000000	56.161154
1224.000000	55.971453
1223.000000	55.775949
1222.000000	55.593166
1221.000000	55.408486
1220.000000	55.217111
1219.000000	55.049282
1218.000000	54.877546
1217.000000	54.699562
1216.000000	54.535080
1215.000000	54.386220
1214.000000	54.233232
1213.000000	54.088836
1212.000000	53.960508
1211.000000	53.819348
1210.000000	53.679974
1209.000000	53.547629
1208.000000	53.437045
1207.000000	53.335164
1206.000000	53.227034
1205.000000	53.143677
1204.000000	53.079848
1203.000000	53.035213
1202.000000	52.981650
1201.000000	52.949736
1200.000000	52.914920
1199.000000	52.859125
1198.000000	52.796859
1197.000000	52.708815
1196.000000	52.557947
1195.000000	52.387662
1194.000000	52.181111
1193.000000	51.892877
1192.000000	51.551861
1191.000000	51.145566
1190.000000	50.692849
1189.000000	50.238347
1188.000000	49.807168
1187.000000	49.471955
1186.000000	49.223558
1185.000000	49.081616
1184.000000	49.096904
1183.000000	49.225566
1182.000000	49.499071
1181.000000	49.911169
1180.000000	50.404615
1179.000000	50.918594
1178.000000	51.444624
1177.000000	51.932714
1176.000000	52.366014
1175.000000	52.770301
1174.000000	53.135308
1173.000000	53.455234
1172.000000	53.777056
1171.000000	54.111600
1170.000000	54.461096
1169.000000	54.824318
1168.000000	55.163884
1167.000000	55.532573
1166.000000	55.912199
1165.000000	56.299078
1164.000000	56.673570
1163.000000	57.071943
1162.000000	57.491071
1161.000000	57.903392
1160.000000	58.277885
1159.000000	58.682395
1158.000000	59.085900
1157.000000	59.449457
1156.000000	59.802301
1155.000000	60.134278
1154.000000	60.425749
1153.000000	60.676154
1152.000000	60.873332
1151.000000	61.027548
1150.000000	61.130768
1149.000000	61.224837
1148.000000	61.316675
1147.000000	61.428264
1146.000000	61.546102
1145.000000	61.736584
1144.000000	61.977281
1143.000000	62.252125
1142.000000	62.609544
1141.000000	63.006243
1140.000000	63.436195
1139.000000	63.840147
1138.000000	64.289293
1137.000000	64.748370
1136.000000	65.195730
1135.000000	65.700335
1134.000000	66.209738
1133.000000	66.710550
1132.000000	67.131017
1131.000000	67.525484
1130.000000	67.896071
1129.000000	68.239876
1128.000000	68.538600
1127.000000	68.802842
1126.000000	69.003368
1125.000000	69.186485
1124.000000	69.309456
1123.000000	69.430977
1122.000000	69.545132
1121.000000	69.613201
1120.000000	69.696447
1119.000000	69.775228
1118.000000	69.809040
1117.000000	69.862937
1116.000000	69.902440
1115.000000	69.911255
1114.000000	69.953548
1113.000000	69.943839
1112.000000	69.951427
1111.000000	69.990595
1110.000000	69.985239
1109.000000	70.000638
1108.000000	70.015145
1107.000000	70.030098
1106.000000	70.037909
1105.000000	70.054647
1104.000000	70.040029
1103.000000	70.054647
1102.000000	70.060003
1101.000000	70.056433
1100.000000	70.061566
1099.000000	70.053866
1098.000000	70.044939
1097.000000	70.043377
1096.000000	70.049960
1095.000000	70.049068
1094.000000	70.027754
1093.000000	70.004097
1092.000000	69.989814
1091.000000	69.954998
1090.000000	69.928440
1089.000000	69.884362
1088.000000	69.852894
1087.000000	69.815735
1086.000000	69.764070
1085.000000	69.720996
1084.000000	69.679039
1083.000000	69.632506
1082.000000	69.579501
1081.000000	69.541003
1080.000000	69.481192
1079.000000	69.455638
1078.000000	69.397165
1077.000000	69.324744
1076.000000	69.273413
1075.000000	69.240271
1074.000000	69.184700
1073.000000	69.118304
1072.000000	69.062733
1071.000000	69.032269
1070.000000	68.956612
1069.000000	68.927710
1068.000000	68.904723
1067.000000	68.864551
1066.000000	68.806302
1065.000000	68.758318
1064.000000	68.694155
1063.000000	68.658000
1062.000000	68.618386
1061.000000	68.564600
1060.000000	68.519853
1059.000000	68.486711
1058.000000	68.405363
1057.000000	68.372890
1056.000000	68.336066
1055.000000	68.288752
1054.000000	68.223584
1053.000000	68.185644
1052.000000	68.151275
1051.000000	68.099944
1050.000000	68.058990
1049.000000	68.001522
1048.000000	67.955548
1047.000000	67.926423
1046.000000	67.885916
1045.000000	67.858688
1044.000000	67.825770
1043.000000	67.781804
1042.000000	67.722661
1041.000000	67.694764
1040.000000	67.671330
1039.000000	67.594780
1038.000000	67.554050
1037.000000	67.507072
1036.000000	67.455852
1035.000000	67.385328
1034.000000	67.315808
1033.000000	67.269164
1032.000000	67.202992
1031.000000	67.121309
1030.000000	67.063282
1029.000000	66.994990
1028.000000	66.907839
1027.000000	66.830285
1026.000000	66.751391
1025.000000	66.658438
1024.000000	66.572849
1023.000000	66.510694
1022.000000	66.425105
1021.000000	66.306151
1020.000000	66.243438
1019.000000	66.158854
1018.000000	66.065677
1017.000000	65.997050
1016.000000	65.925856
1015.000000	65.882225
1014.000000	65.830336
1013.000000	65.773091
1012.000000	65.729683
1011.000000	65.729236
1010.000000	65.697992
1009.000000	65.684489
1008.000000	65.674781
1007.000000	65.679468
1006.000000	65.700000
1005.000000	65.697880
1004.000000	65.732138
1003.000000	65.740395
1002.000000	65.736155
1001.000000	65.753563
1000.000000	65.771082
999.000000	65.790387
998.000000	65.802997
997.000000	65.807460
996.000000	65.830559
995.000000	65.858903
994.000000	65.886800
993.000000	65.903204
992.000000	65.929315
991.000000	65.960784
990.000000	65.999616
989.000000	66.043248
988.000000	66.060432
987.000000	66.101274
986.000000	66.169120
985.000000	66.218108
984.000000	66.253370
983.000000	66.309053
982.000000	66.368976
981.000000	66.422539
980.000000	66.456573
979.000000	66.512144
978.000000	66.568943
977.000000	66.618935
976.000000	66.653528
975.000000	66.728069
974.000000	66.807632
973.000000	66.854723
972.000000	66.901367
971.000000	66.977805
970.000000	67.057145
969.000000	67.106244
968.000000	67.142845
967.000000	67.198305
966.000000	67.288580
965.000000	67.379972
964.000000	67.451835
963.000000	67.528497
962.000000	67.632609
961.000000	67.723777
960.000000	67.803117
959.000000	67.898191
958.000000	67.984561
957.000000	68.083763
956.000000	68.181850
955.000000	68.247129
954.000000	68.341199
953.000000	68.427904
952.000000	68.503226
951.000000	68.607562
950.000000	68.694824
949.000000	68.769143
948.000000	68.889212
947.000000	68.984732
946.000000	69.047669
945.000000	69.133927
944.000000	69.240941
943.000000	69.327980
942.000000	69.405311
941.000000	69.518685
940.000000	69.602712
939.000000	69.665871
938.000000	69.738850
937.000000	69.819083
936.000000	69.936698
935.000000	70.032664
934.000000	70.115798
933.000000	70.210983
932.000000	70.306169
931.000000	70.428024
930.000000	70.520754
929.000000	70.590163
928.000000	70.701975
927.000000	70.797830
926.000000	70.863555
925.000000	70.947470
924.000000	71.027145
923.000000	71.124785
922.000000	71.218074
921.000000	71.277439
920.000000	71.340152
919.000000	71.409337
918.000000	71.466805
917.000000	71.502848
916.000000	71.550832
915.000000	71.596025
914.000000	71.635639
913.000000	71.687640
912.000000	71.782825
911.000000	71.827795
910.000000	71.864731
909.000000	71.872877
908.000000	71.897427
907.000000	71.958913
906.000000	72.003436
905.000000	72.060458
904.000000	72.139910
903.000000	72.209541
902.000000	72.273705
901.000000	72.364538
900.000000	72.455372
899.000000	72.530806
898.000000	72.556694
897.000000	72.625656
896.000000	72.719726
895.000000	72.792817
894.000000	72.868028
893.000000	72.929960
892.000000	72.954286
891.000000	72.976269
890.000000	73.019342
889.000000	73.010304
888.000000	73.038312
887.000000	73.079042
886.000000	73.075695
885.000000	73.035411
884.000000	73.017222
883.000000	72.959084
882.000000	72.929960
881.000000	72.853856
880.000000	72.775186
879.000000	72.676541
878.000000	72.588274
877.000000	72.406273
876.000000	72.193249
875.000000	71.986698
874.000000	71.833933
873.000000	71.572703
872.000000	71.258022
871.000000	70.933299
870.000000	70.751743
869.000000	70.778971
868.000000	70.905736
867.000000	71.049463
866.000000	71.222314
865.000000	71.365036
864.000000	71.486891
863.000000	71.624592
862.000000	71.746112
861.000000	71.910818
860.000000	72.052312
859.000000	72.181979
858.000000	72.316667
857.000000	71.425800
856.000000	72.697100
855.000000	72.827100
854.000000	73.079600
853.000000	73.498600
852.000000	73.678900
851.000000	73.617800
850.000000	73.799400
849.000000	73.644100
848.000000	74.331000
847.000000	74.364100
846.000000	74.330200
845.000000	74.609700
844.000000	74.664200
843.000000	74.842200
842.000000	75.086400
841.000000	75.275500
840.000000	75.517900
839.000000	75.377500
838.000000	75.815800
837.000000	75.881800
836.000000	76.172800
835.000000	76.383600
834.000000	76.549900
833.000000	76.630400
832.000000	76.970400
831.000000	77.037400
830.000000	77.107600
829.000000	77.232400
828.000000	77.361900
827.000000	77.537800
826.000000	77.584900
825.000000	77.807000
824.000000	78.078300
823.000000	78.108000
822.000000	78.169400
821.000000	78.346300
820.000000	78.395400
819.000000	78.526100
818.000000	78.766000
817.000000	78.991400
816.000000	79.074900
815.000000	78.921900
814.000000	79.181200
813.000000	79.310900
812.000000	79.368200
811.000000	79.565700
810.000000	79.927900
809.000000	79.992500
808.000000	80.121200
807.000000	80.265200
806.000000	80.671600
805.000000	80.665600
804.000000	80.823800
803.000000	80.996100
802.000000	81.331000
801.000000	81.529700
800.000000	81.453100
799.000000	81.799400
798.000000	81.985300
797.000000	82.270100
796.000000	82.412400
795.000000	82.636200
794.000000	82.711400
793.000000	83.209100
792.000000	83.373900
791.000000	83.598400
790.000000	83.627500
789.000000	83.971300
788.000000	84.083400
787.000000	84.544500
786.000000	84.643600
785.000000	84.882700
784.000000	85.130400
783.000000	85.414000
782.000000	85.576200
781.000000	85.789400
780.000000	86.095600
779.000000	86.269700
778.000000	86.474400
777.000000	86.882700
776.000000	87.079200
775.000000	87.132800
774.000000	87.428600
773.000000	87.591300
772.000000	87.778400
771.000000	87.864700
770.000000	87.989900
769.000000	88.119500
768.000000	88.418400
767.000000	88.532000
766.000000	88.528100
765.000000	88.614200
764.000000	88.668300
763.000000	88.803500
762.000000	88.927000
761.000000	88.783000
760.000000	88.906800
759.000000	88.826000
758.000000	88.882400
757.000000	88.949300
756.000000	88.968900
755.000000	88.816400
754.000000	89.022400
753.000000	89.020300
752.000000	88.871400
751.000000	88.918300
750.000000	88.936800
749.000000	89.001900
748.000000	88.986600
747.000000	89.079700
746.000000	89.000100
745.000000	89.002100
744.000000	89.049500
743.000000	88.976800
742.000000	89.087900
741.000000	89.133400
740.000000	89.146100
739.000000	89.134900
738.000000	89.101100
737.000000	89.201300
736.000000	89.278700
735.000000	89.259500
734.000000	89.348800
733.000000	89.355600
732.000000	89.414400
731.000000	89.340000
730.000000	89.343900
729.000000	89.453400
728.000000	89.394500
727.000000	89.424700
726.000000	89.405600
725.000000	89.380100
724.000000	89.320700
723.000000	89.391700
722.000000	89.263700
721.000000	89.174900
720.000000	89.070500
719.000000	89.070400
718.000000	88.900000
717.000000	88.850000
716.000000	88.685100
715.000000	88.568900
714.000000	88.547200
713.000000	88.302700
712.000000	88.104600
711.000000	87.924100
710.000000	87.657400
709.000000	87.393000
708.000000	87.176000
707.000000	86.901300
706.000000	86.656700
705.000000	86.434000
704.000000	86.060100
703.000000	85.691200
702.000000	85.483800
701.000000	85.185700
700.000000	84.843500
699.000000	84.410400
698.000000	84.084100
697.000000	83.667400
696.000000	83.317500
695.000000	82.986100
694.000000	82.662800
693.000000	82.243300
692.000000	81.829700
691.000000	81.494000
690.000000	81.186800
689.000000	80.799700
688.000000	80.477100
687.000000	80.169600
686.000000	79.863400
685.000000	79.477800
684.000000	79.190300
683.000000	78.902400
682.000000	78.607800
681.000000	78.368500
680.000000	78.078000
679.000000	77.806000
678.000000	77.586300
677.000000	77.361100
676.000000	77.175700
675.000000	77.012200
674.000000	76.826400
673.000000	76.656000
672.000000	76.469000
671.000000	76.302600
670.000000	76.191100
669.000000	76.096600
668.000000	76.023300
667.000000	75.958700
666.000000	75.872100
665.000000	75.809800
664.000000	75.779800
663.000000	75.737600
662.000000	75.713600
661.000000	75.622900
660.000000	75.532400
659.000000	75.547300
658.000000	75.472900
657.000000	75.391600
656.000000	75.351300
655.000000	75.282800
654.000000	75.173300
653.000000	75.007600
652.000000	74.866800
651.000000	74.652300
650.000000	74.461500
649.000000	74.216700
648.000000	73.924500
647.000000	73.610300
646.000000	73.238500
645.000000	72.850100
644.000000	72.401900
643.000000	71.930300
642.000000	71.450500
641.000000	70.937200
640.000000	70.389500
639.000000	69.825600
638.000000	69.239800
637.000000	68.673400
636.000000	68.066900
635.000000	67.496400
634.000000	66.970600
633.000000	66.436000
632.000000	65.953400
631.000000	65.493000
630.000000	65.063200
629.000000	64.724700
628.000000	64.426700
627.000000	64.205000
626.000000	64.015300
625.000000	63.877100
624.000000	63.809700
623.000000	63.806700
622.000000	63.856800
621.000000	63.958800
620.000000	64.107200
619.000000	64.259100
618.000000	64.522100
617.000000	64.836000
616.000000	65.127400
615.000000	65.490200
614.000000	65.883700
613.000000	66.298800
612.000000	66.758000
611.000000	67.311900
610.000000	67.884600
609.000000	68.456000
608.000000	69.092900
607.000000	69.731300
606.000000	70.429900
605.000000	71.168500
604.000000	71.924500
603.000000	72.753500
602.000000	73.564400
601.000000	74.381800
600.000000	75.175900
599.000000	76.008700
598.000000	76.831500
597.000000	77.645700
596.000000	78.514300
595.000000	79.327400
594.000000	80.084300
593.000000	80.878400
592.000000	81.670000
591.000000	82.412400
590.000000	83.115100
589.000000	83.800700
588.000000	84.405100
587.000000	85.008800
586.000000	85.579000
585.000000	86.080300
584.000000	86.548100
583.000000	87.002900
582.000000	87.441300
581.000000	87.714000
580.000000	88.020200
579.000000	88.237600
578.000000	88.460200
577.000000	88.696000
576.000000	88.852600
575.000000	89.022000
574.000000	89.134600
573.000000	89.233300
572.000000	89.352100
571.000000	89.393300
570.000000	89.458300
569.000000	89.500200
568.000000	89.510900
567.000000	89.566500
566.000000	89.546400
565.000000	89.518900
564.000000	89.489200
563.000000	89.418300
562.000000	89.384100
561.000000	89.256500
560.000000	89.156600
559.000000	88.987100
558.000000	88.781200
557.000000	88.569700
556.000000	88.367200
555.000000	88.134300
554.000000	87.874500
553.000000	87.655100
552.000000	87.382200
551.000000	87.030200
550.000000	86.664700
549.000000	86.346100
548.000000	85.969400
547.000000	85.592200
546.000000	85.202800
545.000000	84.812600
544.000000	84.418300
543.000000	84.007400
542.000000	83.579000
541.000000	83.050400
540.000000	82.508600
539.000000	81.989900
538.000000	81.423000
537.000000	80.834100
536.000000	80.191800
535.000000	79.534900
534.000000	78.791600
533.000000	78.031300
532.000000	77.237100
531.000000	76.424400
530.000000	75.573300
529.000000	74.684400
528.000000	73.792500
527.000000	72.838300
526.000000	71.870300
525.000000	70.860100
524.000000	69.830900
523.000000	68.733300
522.000000	67.606700
521.000000	66.468000
520.000000	65.300200
519.000000	64.094000
518.000000	62.911900
517.000000	61.693200
516.000000	60.466400
515.000000	59.197900
514.000000	57.952300
513.000000	56.701700
512.000000	55.458300
511.000000	54.273700
510.000000	53.158200
509.000000	52.001600
508.000000	50.886800
507.000000	49.809900
506.000000	48.815900
505.000000	47.920800
504.000000	46.903700
503.000000	46.012400
502.000000	45.132100
501.000000	44.283200
500.000000	43.480800
499.000000	42.713100
498.000000	41.935100
497.000000	41.166800
496.000000	40.470100
495.000000	39.753200
494.000000	39.042000
493.000000	38.317800
492.000000	37.659100
491.000000	37.017000
490.000000	36.349400
489.000000	35.746100
488.000000	35.119200
487.000000	34.571600
486.000000	34.050800
485.000000	33.500500
484.000000	32.972700
483.000000	32.502700
482.000000	32.022500
481.000000	31.564900
480.000000	31.114600
479.000000	30.670900
478.000000	30.279600
477.000000	29.923300
476.000000	29.542000
475.000000	29.250700
474.000000	28.930100
473.000000	28.689400
472.000000	28.462400
471.000000	28.219800
470.000000	28.042800
469.000000	27.886200
468.000000	27.743200
467.000000	27.611200
466.000000	27.487000
465.000000	27.361100
464.000000	27.234400
463.000000	27.135300
462.000000	27.049100
461.000000	26.927200
460.000000	26.832600
459.000000	26.725900
458.000000	26.584400
457.000000	26.491300
456.000000	26.396700
455.000000	26.197900
454.000000	26.052100
453.000000	25.941100
452.000000	25.804600
451.000000	25.599500
450.000000	25.465500
449.000000	25.330500
448.000000	25.162500
447.000000	25.003700
446.000000	24.830400
445.000000	24.670500
444.000000	24.521100
443.000000	24.353500
442.000000	24.201800
441.000000	24.085600
440.000000	23.904100
439.000000	23.734500
438.000000	23.619700
437.000000	23.460900
436.000000	23.323300
435.000000	23.213200
434.000000	23.130000
433.000000	22.981700
432.000000	22.837800
431.000000	22.718800
430.000000	22.568400
429.000000	22.427200
428.000000	22.294900
427.000000	22.158000
426.000000	21.998100
425.000000	21.833600
424.000000	21.618000
423.000000	21.468700
422.000000	21.248800
421.000000	21.050100
420.000000	20.782700
419.000000	20.569500
418.000000	20.334000
417.000000	20.037400
416.000000	19.778800
415.000000	19.489800
414.000000	19.211500
413.000000	18.931400
412.000000	18.578400
411.000000	18.281100
410.000000	17.948900
409.000000	17.616200
408.000000	17.283400
407.000000	16.922800
406.000000	16.627500
405.000000	16.281900
404.000000	15.930400
403.000000	15.603500
402.000000	15.239100
401.000000	14.900500
400.000000	14.564200
399.000000	14.227500
398.000000	13.911100
397.000000	13.607400
396.000000	13.248200
395.000000	12.914000
394.000000	12.588700
393.000000	12.278900
392.000000	11.962000
391.000000	11.632700
390.000000	11.329300
389.000000	11.030600
388.000000	10.754500
387.000000	10.477600
386.000000	10.164700
385.000000	9.911700
384.000000	9.629700
383.000000	9.383500
382.000000	9.173600
381.000000	8.922100
380.000000	8.705500
379.000000	8.513900
378.000000	8.297900
377.000000	8.120900
376.000000	7.896100
375.000000	7.525100
374.000000	7.136700
373.000000	6.991200
372.000000	7.044300
371.000000	7.112400
370.000000	6.946600
369.000000	6.743300
368.000000	6.719700
367.000000	6.719500
366.000000	6.752000
365.000000	6.625200
364.000000	6.464500
363.000000	6.413700
362.000000	6.437900
361.000000	6.343700
360.000000	6.211900
359.000000	6.262100
358.000000	6.208000
357.000000	6.096500
356.000000	6.053400
355.000000	5.926400
354.000000	5.903300
353.000000	6.058900
352.000000	6.029300
351.000000	6.101100
350.000000	6.008700
349.000000	5.765500
348.000000	5.709400
347.000000	5.876900
346.000000	6.021900
345.000000	5.942500
344.000000	5.837400
343.000000	5.816200
342.000000	5.873800
341.000000	5.983500
340.000000	5.989500
339.000000	5.853300
338.000000	5.962600
337.000000	5.974100
336.000000	5.735900
335.000000	5.652000
334.000000	5.753500
333.000000	5.718400
332.000000	5.634700
331.000000	5.778600
330.000000	5.767500
329.000000	5.848200
328.000000	6.074800
327.000000	6.060000
326.000000	5.976200
325.000000	6.409300
324.000000	6.312600
323.000000	6.198400
322.000000	6.435600
321.000000	6.479600
320.000000	6.257300
319.000000	6.104100
318.000000	6.072400
317.000000	6.486700
316.000000	6.012900
315.000000	5.322000
314.000000	5.345300
313.000000	5.362500
312.000000	5.430900
311.000000	5.464400
310.000000	5.425800
309.000000	5.413400
308.000000	5.395600
307.000000	5.386100
306.000000	5.367000
305.000000	5.313500
304.000000	5.340200
303.000000	5.400600
302.000000	5.425500
301.000000	5.436800
300.000000	5.428800
299.000000	5.457100
298.000000	5.469400
297.000000	5.468900
296.000000	5.472700
295.000000	5.502900
294.000000	5.476500
293.000000	5.481900
292.000000	5.522800
291.000000	5.560800
290.000000	5.570800
289.000000	5.521600
288.000000	5.503500
287.000000	5.549500
286.000000	5.574100
285.000000	5.573100
284.000000	5.591200
283.000000	5.625900
282.000000	5.600200
281.000000	5.617400
280.000000	5.622600
279.000000	5.624300
278.000000	5.662800
277.000000	5.695700
276.000000	5.725300
275.000000	5.738700
274.000000	5.761600
273.000000	5.748800
272.000000	5.795200
271.000000	5.810600
270.000000	5.831800
269.000000	5.849400
268.000000	5.835100
267.000000	5.874100
266.000000	5.875700
265.000000	5.921500
264.000000	5.910100
263.000000	5.906600
262.000000	5.962800
261.000000	5.991500
260.000000	5.983900
259.000000	5.995800
258.000000	6.022200
257.000000	6.047200
256.000000	6.081700
255.000000	6.091300
254.000000	6.078600
253.000000	6.063300
252.000000	6.066600
251.000000	6.108800
250.000000	6.113700
