PE UV       SUBTECH     SPECTRUM    ASCII       PEDS        4.00        
   -1
CICIMAUCR0223-3.Sample.ASC
24/06/13
17:08:03.00
24/06/13
17:08:03.00
Vinicio Soto Monge
C. resplendens. Sex M. Dorsal.
250,000000
1
Lambda 1050
1050L1511233
PerkinElmer UV WinLab 6.3.2.0749 / 2.02.05 Lambda 900 UV/VIS/NIR, Aug  7 2015 09:38:08

0
0
3350/servo 860,8/2
0
0
UV/VIS
1
1
1
DoubleDePol,CommonBeamDepol,RBeamAtt,SBeamAtt,60mm sphere, WB InGaAs Detector
0
0
0
0
Program
Program
3350/servo 860,8/2
3350/0,2 860,8/0,2
3350/0,2 860,8/0,2
0
15.00
 
 
 
0
 
860,8
319,2
860,8
Front
100
on
S:100 R:100
0
0
0
0
 
0
 
 
 
0
 
 
0
0
0
0
0
 
 
 
 
0
0


0
0
#HDR
-1
-1
#GR
nm
%R
1.0
0.0
2500,000000
-1,000000
2251
8
86,421400
5,728600
#DATA
2500.000000	8.885395
2499.000000	8.868616
2498.000000	8.824148
2497.000000	8.767533
2496.000000	8.655640
2495.000000	8.765989
2494.000000	8.732534
2493.000000	8.642053
2492.000000	8.688683
2491.000000	8.635156
2490.000000	8.671287
2489.000000	8.620539
2488.000000	8.549924
2487.000000	8.553012
2486.000000	8.665419
2485.000000	8.627642
2484.000000	8.534381
2483.000000	8.616524
2482.000000	8.572570
2481.000000	8.586055
2480.000000	8.547454
2479.000000	8.577614
2478.000000	8.553218
2477.000000	8.597275
2476.000000	8.600981
2475.000000	8.542204
2474.000000	8.566291
2473.000000	8.627847
2472.000000	8.624862
2471.000000	8.643288
2470.000000	8.595114
2469.000000	8.595319
2468.000000	8.607672
2467.000000	8.652552
2466.000000	8.606334
2465.000000	8.701138
2464.000000	8.711432
2463.000000	8.699594
2462.000000	8.775253
2461.000000	8.807266
2460.000000	8.873454
2459.000000	8.865425
2458.000000	8.892395
2457.000000	8.965171
2456.000000	9.035477
2455.000000	9.077166
2454.000000	9.093018
2453.000000	9.155501
2452.000000	9.227557
2451.000000	9.308259
2450.000000	9.340993
2449.000000	9.426739
2448.000000	9.499413
2447.000000	9.556440
2446.000000	9.619952
2445.000000	9.700963
2444.000000	9.771680
2443.000000	9.830766
2442.000000	9.908380
2441.000000	9.987024
2440.000000	10.035404
2439.000000	10.114460
2438.000000	10.187339
2437.000000	10.233249
2436.000000	10.309731
2435.000000	10.375816
2434.000000	10.441078
2433.000000	10.502531
2432.000000	10.562440
2431.000000	10.611438
2430.000000	10.661054
2429.000000	10.716742
2428.000000	10.767696
2427.000000	10.808562
2426.000000	10.869089
2425.000000	10.919219
2424.000000	10.977687
2423.000000	11.004965
2422.000000	11.047066
2421.000000	11.094108
2420.000000	11.120151
2419.000000	11.164208
2418.000000	11.210736
2417.000000	11.237396
2416.000000	11.272189
2415.000000	11.306158
2414.000000	11.336730
2413.000000	11.364832
2412.000000	11.405492
2411.000000	11.444093
2410.000000	11.461284
2409.000000	11.486812
2408.000000	11.514399
2407.000000	11.553412
2406.000000	11.587278
2405.000000	11.617645
2404.000000	11.657996
2403.000000	11.679098
2402.000000	11.709567
2401.000000	11.731390
2400.000000	11.751668
2399.000000	11.768962
2398.000000	11.792019
2397.000000	11.805401
2396.000000	11.814460
2395.000000	11.842664
2394.000000	11.872928
2393.000000	11.898456
2392.000000	11.922749
2391.000000	11.941484
2390.000000	11.951880
2389.000000	11.965056
2388.000000	11.978438
2387.000000	11.994290
2386.000000	12.010554
2385.000000	12.010142
2384.000000	12.007569
2383.000000	11.998099
2382.000000	11.997790
2381.000000	11.998099
2380.000000	11.995216
2379.000000	12.011995
2378.000000	12.009525
2377.000000	11.995114
2376.000000	11.983585
2375.000000	11.968865
2374.000000	11.952395
2373.000000	11.930984
2372.000000	11.901338
2371.000000	11.881471
2370.000000	11.863972
2369.000000	11.830209
2368.000000	11.782549
2367.000000	11.745080
2366.000000	11.711214
2365.000000	11.665510
2364.000000	11.644614
2363.000000	11.616821
2362.000000	11.557838
2361.000000	11.499782
2360.000000	11.449755
2359.000000	11.384596
2358.000000	11.341774
2357.000000	11.305746
2356.000000	11.261998
2355.000000	11.244190
2354.000000	11.215059
2353.000000	11.162150
2352.000000	11.133842
2351.000000	11.126019
2350.000000	11.130342
2349.000000	11.137239
2348.000000	11.142077
2347.000000	11.163591
2346.000000	11.197354
2345.000000	11.212692
2344.000000	11.235955
2343.000000	11.265704
2342.000000	11.298850
2341.000000	11.332510
2340.000000	11.369052
2339.000000	11.394169
2338.000000	11.408374
2337.000000	11.426697
2336.000000	11.423609
2335.000000	11.410639
2334.000000	11.410124
2333.000000	11.397051
2332.000000	11.361023
2331.000000	11.331275
2330.000000	11.301938
2329.000000	11.260557
2328.000000	11.207133
2327.000000	11.178825
2326.000000	11.138268
2325.000000	11.069712
2324.000000	10.999098
2323.000000	10.932807
2322.000000	10.851487
2321.000000	10.766358
2320.000000	10.684214
2319.000000	10.611747
2318.000000	10.495531
2317.000000	10.393727
2316.000000	10.293775
2315.000000	10.177354
2314.000000	10.060521
2313.000000	9.977554
2312.000000	9.889543
2311.000000	9.784547
2310.000000	9.713109
2309.000000	9.631378
2308.000000	9.560557
2307.000000	9.514647
2306.000000	9.471620
2305.000000	9.459164
2304.000000	9.469252
2303.000000	9.474708
2302.000000	9.511971
2301.000000	9.546558
2300.000000	9.599158
2299.000000	9.657523
2298.000000	9.715374
2297.000000	9.802047
2296.000000	9.889337
2295.000000	9.953055
2294.000000	10.037875
2293.000000	10.106328
2292.000000	10.160472
2291.000000	10.217808
2290.000000	10.259292
2289.000000	10.303760
2288.000000	10.315701
2287.000000	10.328053
2286.000000	10.327642
2285.000000	10.326303
2284.000000	10.287599
2283.000000	10.263924
2282.000000	10.217293
2281.000000	10.182707
2280.000000	10.141944
2279.000000	10.091916
2278.000000	10.033963
2277.000000	9.983627
2276.000000	9.936791
2275.000000	9.901689
2274.000000	9.853824
2273.000000	9.813267
2272.000000	9.790209
2271.000000	9.782900
2270.000000	9.780533
2269.000000	9.796694
2268.000000	9.821502
2267.000000	9.864941
2266.000000	9.918468
2265.000000	9.988465
2264.000000	10.092740
2263.000000	10.229234
2262.000000	10.371698
2261.000000	10.531456
2260.000000	10.712831
2259.000000	10.908411
2258.000000	11.110578
2257.000000	11.334260
2256.000000	11.545692
2255.000000	11.775652
2254.000000	12.016524
2253.000000	12.242882
2252.000000	12.452667
2251.000000	12.662864
2250.000000	12.891281
2249.000000	13.086963
2248.000000	13.298704
2247.000000	13.458256
2246.000000	13.628616
2245.000000	13.779728
2244.000000	13.933824
2243.000000	14.049113
2242.000000	14.181490
2241.000000	14.312837
2240.000000	14.405892
2239.000000	14.497917
2238.000000	14.573884
2237.000000	14.652837
2236.000000	14.732407
2235.000000	14.797463
2234.000000	14.841314
2233.000000	14.886194
2232.000000	14.953515
2231.000000	14.971220
2230.000000	15.002513
2229.000000	15.033188
2228.000000	15.047496
2227.000000	15.060260
2226.000000	15.050996
2225.000000	15.037820
2224.000000	15.028453
2223.000000	15.017130
2222.000000	14.999528
2221.000000	14.959588
2220.000000	14.954236
2219.000000	14.944765
2218.000000	14.877342
2217.000000	14.827623
2216.000000	14.792007
2215.000000	14.758450
2214.000000	14.739612
2213.000000	14.711099
2212.000000	14.655822
2211.000000	14.649234
2210.000000	14.630088
2209.000000	14.583457
2208.000000	14.547327
2207.000000	14.542283
2206.000000	14.498535
2205.000000	14.484638
2204.000000	14.457051
2203.000000	14.412583
2202.000000	14.400951
2201.000000	14.387157
2200.000000	14.351335
2199.000000	14.352262
2198.000000	14.328071
2197.000000	14.290191
2196.000000	14.298220
2195.000000	14.277941
2194.000000	14.259824
2193.000000	14.283397
2192.000000	14.248810
2191.000000	14.214532
2190.000000	14.209488
2189.000000	14.191680
2188.000000	14.181695
2187.000000	14.164299
2186.000000	14.151123
2185.000000	14.138771
2184.000000	14.121169
2183.000000	14.114272
2182.000000	14.088538
2181.000000	14.054363
2180.000000	14.060024
2179.000000	14.055598
2178.000000	14.028834
2177.000000	14.029761
2176.000000	14.013085
2175.000000	14.019261
2174.000000	14.006497
2173.000000	14.013703
2172.000000	14.013085
2171.000000	14.034290
2170.000000	14.030378
2169.000000	14.023791
2168.000000	14.026982
2167.000000	14.056524
2166.000000	14.074024
2165.000000	14.097287
2164.000000	14.130948
2163.000000	14.126007
2162.000000	14.151020
2161.000000	14.172019
2160.000000	14.202386
2159.000000	14.239443
2158.000000	14.289882
2157.000000	14.328792
2156.000000	14.354629
2155.000000	14.414641
2154.000000	14.450257
2153.000000	14.498123
2152.000000	14.547018
2151.000000	14.580369
2150.000000	14.633794
2149.000000	14.688350
2148.000000	14.697100
2147.000000	14.770905
2146.000000	14.828138
2145.000000	14.868283
2144.000000	14.915737
2143.000000	14.954750
2142.000000	15.001072
2141.000000	15.041320
2140.000000	15.072201
2139.000000	15.114817
2138.000000	15.157844
2137.000000	15.185329
2136.000000	15.214254
2135.000000	15.232679
2134.000000	15.270045
2133.000000	15.282604
2132.000000	15.295574
2131.000000	15.314205
2130.000000	15.328308
2129.000000	15.347454
2128.000000	15.353630
2127.000000	15.349924
2126.000000	15.349410
2125.000000	15.355483
2124.000000	15.350439
2123.000000	15.334793
2122.000000	15.338498
2121.000000	15.338190
2120.000000	15.316985
2119.000000	15.292383
2118.000000	15.287236
2117.000000	15.274472
2116.000000	15.232474
2115.000000	15.183784
2114.000000	15.173491
2113.000000	15.162579
2112.000000	15.133243
2111.000000	15.104420
2110.000000	15.074569
2109.000000	15.032982
2108.000000	15.013424
2107.000000	14.984808
2106.000000	14.939927
2105.000000	14.904826
2104.000000	14.876004
2103.000000	14.842343
2102.000000	14.814447
2101.000000	14.796845
2100.000000	14.762053
2099.000000	14.716452
2098.000000	14.690615
2097.000000	14.673939
2096.000000	14.635646
2095.000000	14.603736
2094.000000	14.596119
2093.000000	14.567502
2092.000000	14.539709
2091.000000	14.523137
2090.000000	14.498741
2089.000000	14.481756
2088.000000	14.456331
2087.000000	14.425964
2086.000000	14.410421
2085.000000	14.391480
2084.000000	14.357511
2083.000000	14.321278
2082.000000	14.287411
2081.000000	14.256016
2080.000000	14.225546
2079.000000	14.184578
2078.000000	14.142888
2077.000000	14.104287
2076.000000	14.067744
2075.000000	14.032334
2074.000000	13.978395
2073.000000	13.930015
2072.000000	13.878444
2071.000000	13.830167
2070.000000	13.784051
2069.000000	13.716216
2068.000000	13.657850
2067.000000	13.615852
2066.000000	13.560472
2065.000000	13.496857
2064.000000	13.445698
2063.000000	13.394641
2062.000000	13.340702
2061.000000	13.299631
2060.000000	13.266691
2059.000000	13.243324
2058.000000	13.203899
2057.000000	13.174460
2056.000000	13.151196
2055.000000	13.128138
2054.000000	13.144299
2053.000000	13.152225
2052.000000	13.167151
2051.000000	13.181048
2050.000000	13.219031
2049.000000	13.268750
2048.000000	13.315483
2047.000000	13.378480
2046.000000	13.447860
2045.000000	13.517239
2044.000000	13.589089
2043.000000	13.680702
2042.000000	13.763566
2041.000000	13.835005
2040.000000	13.906031
2039.000000	13.986630
2038.000000	14.071656
2037.000000	14.150506
2036.000000	14.219576
2035.000000	14.275162
2034.000000	14.327351
2033.000000	14.387878
2032.000000	14.443155
2031.000000	14.494005
2030.000000	14.527254
2029.000000	14.558135
2028.000000	14.602398
2027.000000	14.644396
2026.000000	14.682174
2025.000000	14.704820
2024.000000	14.728392
2023.000000	14.750318
2022.000000	14.772038
2021.000000	14.788096
2020.000000	14.805183
2019.000000	14.806418
2018.000000	14.805286
2017.000000	14.822065
2016.000000	14.836270
2015.000000	14.839255
2014.000000	14.805698
2013.000000	14.799007
2012.000000	14.803433
2011.000000	14.791184
2010.000000	14.770391
2009.000000	14.748877
2008.000000	14.711511
2007.000000	14.662204
2006.000000	14.632867
2005.000000	14.598898
2004.000000	14.565958
2003.000000	14.516034
2002.000000	14.470742
2001.000000	14.419170
2000.000000	14.385201
1999.000000	14.315101
1998.000000	14.270736
1997.000000	14.209385
1996.000000	14.144947
1995.000000	14.078553
1994.000000	13.979528
1993.000000	13.932897
1992.000000	13.858680
1991.000000	13.801653
1990.000000	13.731553
1989.000000	13.665056
1988.000000	13.561193
1987.000000	13.488622
1986.000000	13.421096
1985.000000	13.324541
1984.000000	13.246721
1983.000000	13.171269
1982.000000	13.082125
1981.000000	13.011820
1980.000000	12.910736
1979.000000	12.833945
1978.000000	12.732758
1977.000000	12.670584
1976.000000	12.592867
1975.000000	12.506400
1974.000000	12.425080
1973.000000	12.322555
1972.000000	12.254617
1971.000000	12.186061
1970.000000	12.085492
1969.000000	12.023318
1968.000000	11.933660
1967.000000	11.891868
1966.000000	11.806328
1965.000000	11.750639
1964.000000	11.668187
1963.000000	11.601895
1962.000000	11.511929
1961.000000	11.467151
1960.000000	11.388713
1959.000000	11.317378
1958.000000	11.225456
1957.000000	11.190766
1956.000000	11.122519
1955.000000	11.044184
1954.000000	10.987878
1953.000000	10.903984
1952.000000	10.872794
1951.000000	10.806503
1950.000000	10.719522
1949.000000	10.702949
1948.000000	10.634805
1947.000000	10.595895
1946.000000	10.555441
1945.000000	10.528162
1944.000000	10.453121
1943.000000	10.412873
1942.000000	10.395065
1941.000000	10.360890
1940.000000	10.361508
1939.000000	10.334435
1938.000000	10.314672
1937.000000	10.328568
1936.000000	10.316319
1935.000000	10.304893
1934.000000	10.330524
1933.000000	10.328362
1932.000000	10.342567
1931.000000	10.373757
1930.000000	10.446122
1929.000000	10.472885
1928.000000	10.514678
1927.000000	10.592086
1926.000000	10.644584
1925.000000	10.741035
1924.000000	10.805577
1923.000000	10.895029
1922.000000	10.993436
1921.000000	11.086697
1920.000000	11.217530
1919.000000	11.364523
1918.000000	11.474563
1917.000000	11.621556
1916.000000	11.761035
1915.000000	11.888162
1914.000000	12.035156
1913.000000	12.211589
1912.000000	12.411081
1911.000000	12.619219
1910.000000	12.790711
1909.000000	12.974145
1908.000000	13.134726
1907.000000	13.357687
1906.000000	13.599177
1905.000000	13.865474
1904.000000	14.134139
1903.000000	14.410215
1902.000000	14.661792
1901.000000	14.931384
1900.000000	15.223621
1899.000000	15.559606
1898.000000	15.886019
1897.000000	16.244753
1896.000000	16.553872
1895.000000	16.872461
1894.000000	17.168096
1893.000000	17.504905
1892.000000	17.865595
1891.000000	18.297003
1890.000000	18.741278
1889.000000	19.148907
1888.000000	19.583094
1887.000000	20.038074
1886.000000	20.474938
1885.000000	20.948756
1884.000000	21.431529
1883.000000	21.994902
1882.000000	22.576803
1881.000000	23.082737
1880.000000	23.614714
1879.000000	24.108810
1878.000000	24.575731
1877.000000	25.072607
1876.000000	25.536234
1875.000000	25.972788
1874.000000	26.419946
1873.000000	26.857015
1872.000000	27.266394
1871.000000	27.665480
1870.000000	28.021744
1869.000000	28.354950
1868.000000	28.684348
1867.000000	28.929852
1866.000000	29.135931
1865.000000	29.306703
1864.000000	29.455755
1863.000000	29.585147
1862.000000	29.706921
1861.000000	29.842077
1860.000000	29.991850
1859.000000	30.131741
1858.000000	30.244971
1857.000000	30.347187
1856.000000	30.421714
1855.000000	30.471226
1854.000000	30.529488
1853.000000	30.589192
1852.000000	30.603912
1851.000000	30.614617
1850.000000	30.628822
1849.000000	30.618837
1848.000000	30.636748
1847.000000	30.687084
1846.000000	30.721157
1845.000000	30.685335
1844.000000	30.610088
1843.000000	30.555737
1842.000000	30.531959
1841.000000	30.555634
1840.000000	30.576530
1839.000000	30.583530
1838.000000	30.557796
1837.000000	30.523312
1836.000000	30.494181
1835.000000	30.475755
1834.000000	30.440448
1833.000000	30.382083
1832.000000	30.300248
1831.000000	30.238177
1830.000000	30.188459
1829.000000	30.171063
1828.000000	30.121962
1827.000000	30.048877
1826.000000	30.000497
1825.000000	29.964263
1824.000000	29.892722
1823.000000	29.840945
1822.000000	29.803990
1821.000000	29.800696
1820.000000	29.809858
1819.000000	29.794623
1818.000000	29.763433
1817.000000	29.725964
1816.000000	29.708362
1815.000000	29.708980
1814.000000	29.694877
1813.000000	29.669040
1812.000000	29.656791
1811.000000	29.637645
1810.000000	29.609543
1809.000000	29.573721
1808.000000	29.541708
1807.000000	29.502900
1806.000000	29.468108
1805.000000	29.430639
1804.000000	29.377215
1803.000000	29.340569
1802.000000	29.298056
1801.000000	29.248132
1800.000000	29.207163
1799.000000	29.156004
1798.000000	29.100418
1797.000000	29.041744
1796.000000	28.989658
1795.000000	28.956924
1794.000000	28.921926
1793.000000	28.865516
1792.000000	28.800975
1791.000000	28.754653
1790.000000	28.713685
1789.000000	28.666745
1788.000000	28.635556
1787.000000	28.603439
1786.000000	28.546104
1785.000000	28.480533
1784.000000	28.427315
1783.000000	28.367302
1782.000000	28.302761
1781.000000	28.250469
1780.000000	28.190972
1779.000000	28.125504
1778.000000	28.057154
1777.000000	28.004039
1776.000000	27.919425
1775.000000	27.834708
1774.000000	27.740418
1773.000000	27.653333
1772.000000	27.559867
1771.000000	27.469488
1770.000000	27.392080
1769.000000	27.288629
1768.000000	27.183324
1767.000000	27.109725
1766.000000	27.025728
1765.000000	26.936585
1764.000000	26.870191
1763.000000	26.847030
1762.000000	26.833648
1761.000000	26.838692
1760.000000	26.861029
1759.000000	26.900145
1758.000000	26.957687
1757.000000	27.030154
1756.000000	27.101387
1755.000000	27.154708
1754.000000	27.209367
1753.000000	27.249410
1752.000000	27.293158
1751.000000	27.314569
1750.000000	27.303863
1749.000000	27.285438
1748.000000	27.262174
1747.000000	27.219661
1746.000000	27.172104
1745.000000	27.092122
1744.000000	27.007714
1743.000000	26.894381
1742.000000	26.757578
1741.000000	26.604305
1740.000000	26.426122
1739.000000	26.238571
1738.000000	26.044226
1737.000000	25.870778
1736.000000	25.703918
1735.000000	25.556821
1734.000000	25.454811
1733.000000	25.387593
1732.000000	25.359697
1731.000000	25.339007
1730.000000	25.369579
1729.000000	25.432782
1728.000000	25.505970
1727.000000	25.593672
1726.000000	25.676331
1725.000000	25.740151
1724.000000	25.797384
1723.000000	25.853588
1722.000000	25.905159
1721.000000	25.955495
1720.000000	26.006552
1719.000000	26.075416
1718.000000	26.147884
1717.000000	26.227454
1716.000000	26.302392
1715.000000	26.417887
1714.000000	26.527000
1713.000000	26.626745
1712.000000	26.712903
1711.000000	26.784856
1710.000000	26.855883
1709.000000	26.906219
1708.000000	26.934114
1707.000000	26.931541
1706.000000	26.921042
1705.000000	26.902513
1704.000000	26.864220
1703.000000	26.815325
1702.000000	26.749343
1701.000000	26.668641
1700.000000	26.554999
1699.000000	26.436827
1698.000000	26.290348
1697.000000	26.163530
1696.000000	26.046594
1695.000000	25.968362
1694.000000	25.908762
1693.000000	25.911438
1692.000000	25.954877
1691.000000	26.044844
1690.000000	26.163839
1689.000000	26.276143
1688.000000	26.360963
1687.000000	26.446812
1686.000000	26.480884
1685.000000	26.556028
1684.000000	26.609040
1683.000000	26.706315
1682.000000	26.881411
1681.000000	27.144311
1680.000000	27.463724
1679.000000	27.878456
1678.000000	28.317790
1677.000000	28.749815
1676.000000	29.181223
1675.000000	29.574750
1674.000000	29.911456
1673.000000	30.232207
1672.000000	30.518268
1671.000000	30.734744
1670.000000	30.950397
1669.000000	31.140212
1668.000000	31.310778
1667.000000	31.436773
1666.000000	31.565855
1665.000000	31.688762
1664.000000	31.789846
1663.000000	31.872092
1662.000000	31.967823
1661.000000	32.065716
1660.000000	32.129949
1659.000000	32.180593
1658.000000	32.235562
1657.000000	32.276016
1656.000000	32.320176
1655.000000	32.345498
1654.000000	32.347763
1653.000000	32.366291
1652.000000	32.347351
1651.000000	32.320176
1650.000000	32.348792
1649.000000	32.328411
1648.000000	32.285692
1647.000000	32.255017
1646.000000	32.223518
1645.000000	32.188622
1644.000000	32.146213
1643.000000	32.118831
1642.000000	32.063554
1641.000000	32.007351
1640.000000	31.976676
1639.000000	31.923766
1638.000000	31.871783
1637.000000	31.822168
1636.000000	31.755465
1635.000000	31.693703
1634.000000	31.632147
1633.000000	31.573061
1632.000000	31.506358
1631.000000	31.449434
1630.000000	31.377481
1629.000000	31.282676
1628.000000	31.220400
1627.000000	31.144844
1626.000000	31.060024
1625.000000	30.984263
1624.000000	30.910045
1623.000000	30.831814
1622.000000	30.775507
1621.000000	30.692643
1620.000000	30.621823
1619.000000	30.546370
1618.000000	30.488520
1617.000000	30.406170
1616.000000	30.341114
1615.000000	30.253309
1614.000000	30.203797
1613.000000	30.146358
1612.000000	30.062773
1611.000000	30.002041
1610.000000	29.921338
1609.000000	29.879031
1608.000000	29.794314
1607.000000	29.717729
1606.000000	29.652159
1605.000000	29.587823
1604.000000	29.501974
1603.000000	29.421786
1602.000000	29.346848
1601.000000	29.283131
1600.000000	29.202222
1599.000000	29.124196
1598.000000	29.070257
1597.000000	28.996246
1596.000000	28.928411
1595.000000	28.854399
1594.000000	28.797475
1593.000000	28.724287
1592.000000	28.672613
1591.000000	28.608174
1590.000000	28.554339
1589.000000	28.498650
1588.000000	28.450681
1587.000000	28.384596
1586.000000	28.329834
1585.000000	28.274762
1584.000000	28.228132
1583.000000	28.173576
1582.000000	28.127563
1581.000000	28.078565
1580.000000	28.041302
1579.000000	28.003009
1578.000000	27.961835
1577.000000	27.923233
1576.000000	27.903264
1575.000000	27.877632
1574.000000	27.854781
1573.000000	27.827296
1572.000000	27.798989
1571.000000	27.799092
1570.000000	27.799915
1569.000000	27.770887
1568.000000	27.762652
1567.000000	27.761932
1566.000000	27.766255
1565.000000	27.751947
1564.000000	27.756064
1563.000000	27.746594
1562.000000	27.736712
1561.000000	27.735477
1560.000000	27.713757
1559.000000	27.715816
1558.000000	27.693376
1557.000000	27.666818
1556.000000	27.653333
1555.000000	27.636863
1554.000000	27.609894
1553.000000	27.585189
1552.000000	27.537015
1551.000000	27.479679
1550.000000	27.453121
1549.000000	27.420902
1548.000000	27.368919
1547.000000	27.314363
1546.000000	27.282555
1545.000000	27.236337
1544.000000	27.195780
1543.000000	27.175707
1542.000000	27.139782
1541.000000	27.100872
1540.000000	27.068653
1539.000000	27.047242
1538.000000	27.021302
1537.000000	26.978892
1536.000000	26.966540
1535.000000	26.924850
1534.000000	26.870191
1533.000000	26.849706
1532.000000	26.811105
1531.000000	26.758504
1530.000000	26.712698
1529.000000	26.673993
1528.000000	26.629628
1527.000000	26.582791
1526.000000	26.536676
1525.000000	26.489840
1524.000000	26.443518
1523.000000	26.386285
1522.000000	26.325038
1521.000000	26.266673
1520.000000	26.219631
1519.000000	26.165177
1518.000000	26.112268
1517.000000	26.054726
1516.000000	25.979273
1515.000000	25.918026
1514.000000	25.852455
1513.000000	25.784414
1512.000000	25.720285
1511.000000	25.659861
1510.000000	25.598099
1509.000000	25.520073
1508.000000	25.436797
1507.000000	25.378535
1506.000000	25.315126
1505.000000	25.246055
1504.000000	25.175852
1503.000000	25.106679
1502.000000	25.033491
1501.000000	24.968847
1500.000000	24.918716
1499.000000	24.864469
1498.000000	24.802089
1497.000000	24.732092
1496.000000	24.670330
1495.000000	24.640170
1494.000000	24.602289
1493.000000	24.548762
1492.000000	24.515513
1491.000000	24.471559
1490.000000	24.420297
1489.000000	24.383754
1488.000000	24.352976
1487.000000	24.302640
1486.000000	24.279376
1485.000000	24.242731
1484.000000	24.205571
1483.000000	24.187866
1482.000000	24.156676
1481.000000	24.124354
1480.000000	24.104796
1479.000000	24.091826
1478.000000	24.067018
1477.000000	24.052916
1476.000000	24.045092
1475.000000	24.043857
1474.000000	24.043754
1473.000000	24.046328
1472.000000	24.043034
1471.000000	24.050651
1470.000000	24.067018
1469.000000	24.071650
1468.000000	24.069385
1467.000000	24.083900
1466.000000	24.090385
1465.000000	24.091723
1464.000000	24.103560
1463.000000	24.133721
1462.000000	24.158837
1461.000000	24.185292
1460.000000	24.211232
1459.000000	24.250348
1458.000000	24.292449
1457.000000	24.341550
1456.000000	24.393945
1455.000000	24.451589
1454.000000	24.517675
1453.000000	24.588804
1452.000000	24.656742
1451.000000	24.740430
1450.000000	24.824426
1449.000000	24.894835
1448.000000	24.941362
1447.000000	25.036167
1446.000000	25.145692
1445.000000	25.235761
1444.000000	25.325625
1443.000000	25.396446
1442.000000	25.494133
1441.000000	25.602834
1440.000000	25.707520
1439.000000	25.816839
1438.000000	25.925746
1437.000000	26.043300
1436.000000	26.150457
1435.000000	26.270893
1434.000000	26.392564
1433.000000	26.523500
1432.000000	26.651553
1431.000000	26.804105
1430.000000	26.934732
1429.000000	27.074314
1428.000000	27.234793
1427.000000	27.407520
1426.000000	27.587351
1425.000000	27.785195
1424.000000	27.992510
1423.000000	28.212280
1422.000000	28.449652
1421.000000	28.643379
1420.000000	28.863457
1419.000000	29.124196
1418.000000	29.397802
1417.000000	29.638571
1416.000000	29.861429
1415.000000	30.151711
1414.000000	30.444051
1413.000000	30.753993
1412.000000	31.037893
1411.000000	31.300690
1410.000000	31.633896
1409.000000	32.009718
1408.000000	32.392952
1407.000000	32.778759
1406.000000	33.147581
1405.000000	33.561798
1404.000000	33.975501
1403.000000	34.367793
1402.000000	34.776658
1401.000000	35.129319
1400.000000	35.616415
1399.000000	36.065322
1398.000000	36.388853
1397.000000	36.651547
1396.000000	36.947490
1395.000000	37.384560
1394.000000	37.766867
1393.000000	38.031414
1392.000000	38.313358
1391.000000	38.676621
1390.000000	39.019195
1389.000000	39.324917
1388.000000	39.701871
1387.000000	40.164160
1386.000000	40.591450
1385.000000	41.006285
1384.000000	41.446340
1383.000000	41.968744
1382.000000	42.472001
1381.000000	42.950657
1380.000000	43.360242
1379.000000	43.533176
1378.000000	43.827163
1377.000000	44.005141
1376.000000	44.198971
1375.000000	44.353582
1374.000000	44.525692
1373.000000	44.743197
1372.000000	45.002598
1371.000000	45.282894
1370.000000	45.610748
1369.000000	45.848943
1368.000000	46.114108
1367.000000	46.361362
1366.000000	46.595749
1365.000000	46.768683
1364.000000	46.967866
1363.000000	47.124329
1362.000000	47.289749
1361.000000	47.420478
1360.000000	47.598971
1359.000000	47.658777
1358.000000	47.676482
1357.000000	47.786110
1356.000000	47.877415
1355.000000	48.059510
1354.000000	48.318601
1353.000000	48.642029
1352.000000	48.928604
1351.000000	49.309367
1350.000000	49.714732
1349.000000	50.067805
1348.000000	50.406467
1347.000000	50.747393
1346.000000	51.065159
1345.000000	51.338971
1344.000000	51.639443
1343.000000	51.925401
1342.000000	52.205801
1341.000000	52.452437
1340.000000	52.723367
1339.000000	52.987708
1338.000000	53.238050
1337.000000	53.472746
1336.000000	53.715677
1335.000000	53.938123
1334.000000	54.163040
1333.000000	54.382501
1332.000000	54.615755
1331.000000	54.838922
1330.000000	55.031414
1329.000000	55.229876
1328.000000	55.416500
1327.000000	55.590875
1326.000000	55.774205
1325.000000	55.933654
1324.000000	56.101338
1323.000000	56.251317
1322.000000	56.415707
1321.000000	56.546745
1320.000000	56.687975
1319.000000	56.824160
1318.000000	56.939552
1317.000000	57.077178
1316.000000	57.179703
1315.000000	57.292831
1314.000000	57.402561
1313.000000	57.512704
1312.000000	57.597421
1311.000000	57.696034
1310.000000	57.767678
1309.000000	57.858777
1308.000000	57.938244
1307.000000	58.019770
1306.000000	58.079576
1305.000000	58.133618
1304.000000	58.181792
1303.000000	58.230893
1302.000000	58.276494
1301.000000	58.311390
1300.000000	58.343197
1299.000000	58.360182
1298.000000	58.395592
1297.000000	58.417929
1296.000000	58.433370
1295.000000	58.457251
1294.000000	58.458898
1293.000000	58.463427
1292.000000	58.459001
1291.000000	58.445928
1290.000000	58.445105
1289.000000	58.425238
1288.000000	58.402386
1287.000000	58.380254
1286.000000	58.353388
1285.000000	58.313448
1284.000000	58.277832
1283.000000	58.226364
1282.000000	58.186013
1281.000000	58.147411
1280.000000	58.092032
1279.000000	58.054048
1278.000000	58.018946
1277.000000	57.977463
1276.000000	57.940612
1275.000000	57.899952
1274.000000	57.865880
1273.000000	57.831087
1272.000000	57.805147
1271.000000	57.784765
1270.000000	57.751929
1269.000000	57.721151
1268.000000	57.693563
1267.000000	57.675550
1266.000000	57.644463
1265.000000	57.621405
1264.000000	57.579407
1263.000000	57.550584
1262.000000	57.521659
1261.000000	57.487999
1260.000000	57.461647
1259.000000	57.441163
1258.000000	57.409767
1257.000000	57.358813
1256.000000	57.318256
1255.000000	57.294478
1254.000000	57.255774
1253.000000	57.200702
1252.000000	57.164160
1251.000000	57.104148
1250.000000	57.031886
1249.000000	56.986079
1248.000000	56.917832
1247.000000	56.838983
1246.000000	56.770736
1245.000000	56.671814
1244.000000	56.582670
1243.000000	56.500012
1242.000000	56.404075
1241.000000	56.298565
1240.000000	56.180702
1239.000000	56.066546
1238.000000	55.962477
1237.000000	55.853261
1236.000000	55.738589
1235.000000	55.632359
1234.000000	55.514393
1233.000000	55.386546
1232.000000	55.262095
1231.000000	55.137336
1230.000000	55.009488
1229.000000	54.872171
1228.000000	54.720854
1227.000000	54.578081
1226.000000	54.448174
1225.000000	54.312813
1224.000000	54.168084
1223.000000	54.023663
1222.000000	53.879964
1221.000000	53.737499
1220.000000	53.593285
1219.000000	53.451850
1218.000000	53.319370
1217.000000	53.199140
1216.000000	53.080557
1215.000000	52.960945
1214.000000	52.834332
1213.000000	52.713999
1212.000000	52.610239
1211.000000	52.496185
1210.000000	52.381411
1209.000000	52.290003
1208.000000	52.197875
1207.000000	52.089791
1206.000000	52.002398
1205.000000	51.939092
1204.000000	51.880521
1203.000000	51.802186
1202.000000	51.754938
1201.000000	51.724880
1200.000000	51.686485
1199.000000	51.636046
1198.000000	51.576549
1197.000000	51.497184
1196.000000	51.398262
1195.000000	51.274326
1194.000000	51.110245
1193.000000	50.906739
1192.000000	50.659074
1191.000000	50.382483
1190.000000	50.071614
1189.000000	49.751481
1188.000000	49.460787
1187.000000	49.238341
1186.000000	49.089289
1185.000000	49.012807
1184.000000	49.026085
1183.000000	49.129640
1182.000000	49.331499
1181.000000	49.608707
1180.000000	49.934193
1179.000000	50.296016
1178.000000	50.648883
1177.000000	50.963869
1176.000000	51.251886
1175.000000	51.504184
1174.000000	51.728689
1173.000000	51.957415
1172.000000	52.184081
1171.000000	52.400763
1170.000000	52.614151
1169.000000	52.846891
1168.000000	53.094145
1167.000000	53.344384
1166.000000	53.590506
1165.000000	53.846406
1164.000000	54.085425
1163.000000	54.337312
1162.000000	54.610712
1161.000000	54.888744
1160.000000	55.153909
1159.000000	55.419485
1158.000000	55.666945
1157.000000	55.925419
1156.000000	56.138087
1155.000000	56.351886
1154.000000	56.520291
1153.000000	56.690033
1152.000000	56.818498
1151.000000	56.920817
1150.000000	56.989785
1149.000000	57.041768
1148.000000	57.089428
1147.000000	57.161895
1146.000000	57.242392
1145.000000	57.342446
1144.000000	57.494690
1143.000000	57.686049
1142.000000	57.901804
1141.000000	58.149882
1140.000000	58.407944
1139.000000	58.699564
1138.000000	58.965244
1137.000000	59.248114
1136.000000	59.575144
1135.000000	59.907115
1134.000000	60.257614
1133.000000	60.588762
1132.000000	60.848986
1131.000000	61.111783
1130.000000	61.354302
1129.000000	61.582616
1128.000000	61.781901
1127.000000	61.959673
1126.000000	62.086079
1125.000000	62.196530
1124.000000	62.287732
1123.000000	62.381302
1122.000000	62.428241
1121.000000	62.505547
1120.000000	62.550736
1119.000000	62.568132
1118.000000	62.588925
1117.000000	62.616512
1116.000000	62.618880
1115.000000	62.615277
1114.000000	62.597469
1113.000000	62.580793
1112.000000	62.579867
1111.000000	62.553000
1110.000000	62.548574
1109.000000	62.528090
1108.000000	62.516355
1107.000000	62.498856
1106.000000	62.474563
1105.000000	62.455313
1104.000000	62.434108
1103.000000	62.406830
1102.000000	62.368641
1101.000000	62.341671
1100.000000	62.338377
1099.000000	62.307599
1098.000000	62.269410
1097.000000	62.243264
1096.000000	62.221029
1095.000000	62.159679
1094.000000	62.138989
1093.000000	62.119534
1092.000000	62.047581
1091.000000	62.026582
1090.000000	61.987260
1089.000000	61.939497
1088.000000	61.909028
1087.000000	61.852825
1086.000000	61.818135
1085.000000	61.762755
1084.000000	61.715095
1083.000000	61.651892
1082.000000	61.608556
1081.000000	61.570572
1080.000000	61.521677
1079.000000	61.493987
1078.000000	61.443342
1077.000000	61.379110
1076.000000	61.340715
1075.000000	61.287393
1074.000000	61.227381
1073.000000	61.156561
1072.000000	61.123106
1071.000000	61.084505
1070.000000	61.026655
1069.000000	60.974569
1068.000000	60.912704
1067.000000	60.854441
1066.000000	60.779606
1065.000000	60.732153
1064.000000	60.660920
1063.000000	60.598644
1062.000000	60.534411
1061.000000	60.464311
1060.000000	60.398432
1059.000000	60.317935
1058.000000	60.249585
1057.000000	60.174647
1056.000000	60.089519
1055.000000	60.030227
1054.000000	59.933467
1053.000000	59.872116
1052.000000	59.777929
1051.000000	59.688065
1050.000000	59.642362
1049.000000	59.576482
1048.000000	59.493824
1047.000000	59.420018
1046.000000	59.351565
1045.000000	59.292994
1044.000000	59.211468
1043.000000	59.169779
1042.000000	59.116252
1041.000000	59.034211
1040.000000	58.981508
1039.000000	58.927260
1038.000000	58.875689
1037.000000	58.809912
1036.000000	58.755562
1035.000000	58.709343
1034.000000	58.650052
1033.000000	58.591275
1032.000000	58.549997
1031.000000	58.499146
1030.000000	58.429973
1029.000000	58.364505
1028.000000	58.321375
1027.000000	58.259818
1026.000000	58.180866
1025.000000	58.133103
1024.000000	58.072885
1023.000000	58.000933
1022.000000	57.929906
1021.000000	57.868865
1020.000000	57.799382
1019.000000	57.717651
1018.000000	57.650742
1017.000000	57.579407
1016.000000	57.527218
1015.000000	57.450015
1014.000000	57.383827
1013.000000	57.312183
1012.000000	57.257524
1011.000000	57.211202
1010.000000	57.144602
1009.000000	57.076149
1008.000000	57.023034
1007.000000	56.975168
1006.000000	56.897657
1005.000000	56.841968
1004.000000	56.794720
1003.000000	56.728223
1002.000000	56.663167
1001.000000	56.587097
1000.000000	56.545201
999.000000	56.477160
998.000000	56.392134
997.000000	56.343445
996.000000	56.298256
995.000000	56.251935
994.000000	56.197687
993.000000	56.137366
992.000000	56.090221
991.000000	56.054811
990.000000	56.013636
989.000000	55.971123
988.000000	55.939933
987.000000	55.902464
986.000000	55.895671
985.000000	55.870245
984.000000	55.856864
983.000000	55.851614
982.000000	55.842967
981.000000	55.839982
980.000000	55.845540
979.000000	55.832879
978.000000	55.840291
977.000000	55.853878
976.000000	55.860775
975.000000	55.876010
974.000000	55.891656
973.000000	55.881054
972.000000	55.902053
971.000000	55.925625
970.000000	55.940963
969.000000	55.947139
968.000000	55.969270
967.000000	56.004269
966.000000	56.019504
965.000000	56.031238
964.000000	56.053164
963.000000	56.085898
962.000000	56.090221
961.000000	56.095265
960.000000	56.113073
959.000000	56.126764
958.000000	56.151468
957.000000	56.169688
956.000000	56.181732
955.000000	56.196246
954.000000	56.201084
953.000000	56.210142
952.000000	56.227642
951.000000	56.245758
950.000000	56.254405
949.000000	56.261817
948.000000	56.268199
947.000000	56.281992
946.000000	56.308241
945.000000	56.316167
944.000000	56.311638
943.000000	56.329343
942.000000	56.347666
941.000000	56.361974
940.000000	56.386267
939.000000	56.426618
938.000000	56.441956
937.000000	56.462955
936.000000	56.507938
935.000000	56.558995
934.000000	56.626933
933.000000	56.690239
932.000000	56.749428
931.000000	56.824057
930.000000	56.890451
929.000000	56.966933
928.000000	57.035180
927.000000	57.107648
926.000000	57.200188
925.000000	57.286655
924.000000	57.381665
923.000000	57.489749
922.000000	57.607097
921.000000	57.714563
920.000000	57.825117
919.000000	57.957287
918.000000	58.065268
917.000000	58.183748
916.000000	58.311596
915.000000	58.437178
914.000000	58.576246
913.000000	58.701005
912.000000	58.840176
911.000000	58.991904
910.000000	59.126237
909.000000	59.272510
908.000000	59.436385
907.000000	59.593467
906.000000	59.765886
905.000000	59.931305
904.000000	60.105886
903.000000	60.279334
902.000000	60.463488
901.000000	60.641054
900.000000	60.835192
899.000000	61.030978
898.000000	61.215029
897.000000	61.394345
896.000000	61.583439
895.000000	61.784578
894.000000	61.976040
893.000000	62.149900
892.000000	62.349597
891.000000	62.534163
890.000000	62.702053
889.000000	62.889501
888.000000	63.100727
887.000000	63.289924
886.000000	63.469858
885.000000	63.653497
884.000000	63.823960
883.000000	63.998335
882.000000	64.180945
881.000000	64.363554
880.000000	64.537620
879.000000	64.715598
878.000000	64.880503
877.000000	65.035319
876.000000	65.184578
875.000000	65.305837
874.000000	65.423391
873.000000	65.503784
872.000000	65.583252
871.000000	65.634308
870.000000	65.688144
869.000000	65.806007
868.000000	66.011777
867.000000	66.230724
866.000000	66.460890
865.000000	66.667072
864.000000	66.884989
863.000000	67.098480
862.000000	67.302398
861.000000	67.507139
860.000000	67.743791
859.000000	67.942355
858.000000	68.160067
857.000000	67.433800
856.000000	68.350000
855.000000	68.696400
854.000000	68.694700
853.000000	68.560200
852.000000	69.312600
851.000000	69.045200
850.000000	69.641400
849.000000	69.667300
848.000000	69.646200
847.000000	70.016800
846.000000	70.216600
845.000000	70.322900
844.000000	70.453500
843.000000	70.712600
842.000000	70.777900
841.000000	70.833000
840.000000	70.995600
839.000000	71.040400
838.000000	71.319100
837.000000	71.139500
836.000000	71.390300
835.000000	71.339800
834.000000	71.527100
833.000000	71.726300
832.000000	71.989800
831.000000	72.088700
830.000000	72.076800
829.000000	72.350600
828.000000	72.321500
827.000000	72.598100
826.000000	72.699100
825.000000	72.931600
824.000000	73.151000
823.000000	73.315100
822.000000	73.379800
821.000000	73.648800
820.000000	73.838800
819.000000	73.708700
818.000000	74.393900
817.000000	74.707900
816.000000	75.107200
815.000000	75.205500
814.000000	75.490100
813.000000	75.893800
812.000000	76.154900
811.000000	76.646600
810.000000	76.960800
809.000000	77.221100
808.000000	77.461000
807.000000	78.203300
806.000000	78.489200
805.000000	78.547600
804.000000	79.007700
803.000000	79.301900
802.000000	79.506100
801.000000	79.929400
800.000000	80.218900
799.000000	80.463500
798.000000	80.553100
797.000000	80.712500
796.000000	80.683600
795.000000	80.905200
794.000000	81.051100
793.000000	81.127000
792.000000	81.128400
791.000000	81.056900
790.000000	81.193300
789.000000	80.951000
788.000000	81.128800
787.000000	81.141000
786.000000	80.989100
785.000000	81.243400
784.000000	81.213200
783.000000	81.285200
782.000000	81.236200
781.000000	81.323900
780.000000	81.454500
779.000000	81.543400
778.000000	81.665900
777.000000	81.807000
776.000000	82.208600
775.000000	82.394500
774.000000	82.580600
773.000000	82.997800
772.000000	83.266000
771.000000	83.552300
770.000000	83.874000
769.000000	84.036900
768.000000	84.439100
767.000000	84.739500
766.000000	84.857600
765.000000	85.287100
764.000000	85.489000
763.000000	85.759000
762.000000	85.849800
761.000000	86.033900
760.000000	86.152400
759.000000	86.211000
758.000000	86.318500
757.000000	86.264900
756.000000	86.421400
755.000000	86.416500
754.000000	86.361300
753.000000	86.358500
752.000000	86.180800
751.000000	86.292600
750.000000	86.079400
749.000000	86.062500
748.000000	86.047600
747.000000	85.937200
746.000000	85.818400
745.000000	85.743800
744.000000	85.660000
743.000000	85.628300
742.000000	85.571400
741.000000	85.525900
740.000000	85.468700
739.000000	85.476600
738.000000	85.510600
737.000000	85.527900
736.000000	85.502400
735.000000	85.495000
734.000000	85.594000
733.000000	85.622400
732.000000	85.739100
731.000000	85.597100
730.000000	85.702900
729.000000	85.746700
728.000000	85.738600
727.000000	85.704500
726.000000	85.762700
725.000000	85.670600
724.000000	85.683400
723.000000	85.567100
722.000000	85.398800
721.000000	85.186300
720.000000	85.007700
719.000000	84.835300
718.000000	84.538500
717.000000	84.283500
716.000000	83.917200
715.000000	83.566600
714.000000	83.389600
713.000000	83.043800
712.000000	82.775400
711.000000	82.427600
710.000000	82.177400
709.000000	81.906500
708.000000	81.607200
707.000000	81.398600
706.000000	81.151700
705.000000	80.877500
704.000000	80.639100
703.000000	80.384100
702.000000	80.278900
701.000000	80.202200
700.000000	80.116000
699.000000	80.008200
698.000000	79.941200
697.000000	79.938500
696.000000	79.948000
695.000000	79.932800
694.000000	79.926400
693.000000	79.913900
692.000000	79.915400
691.000000	79.883000
690.000000	79.827900
689.000000	79.823700
688.000000	79.812900
687.000000	79.768600
686.000000	79.759900
685.000000	79.714600
684.000000	79.604900
683.000000	79.483500
682.000000	79.424200
681.000000	79.306300
680.000000	79.305400
679.000000	79.208100
678.000000	79.061700
677.000000	78.938900
676.000000	78.781400
675.000000	78.617500
674.000000	78.471200
673.000000	78.344900
672.000000	78.147900
671.000000	77.951700
670.000000	77.830000
669.000000	77.614200
668.000000	77.447500
667.000000	77.228300
666.000000	76.995800
665.000000	76.799700
664.000000	76.545800
663.000000	76.261700
662.000000	75.992800
661.000000	75.679600
660.000000	75.288200
659.000000	74.892300
658.000000	74.403400
657.000000	73.942800
656.000000	73.441800
655.000000	72.855100
654.000000	72.284000
653.000000	71.662000
652.000000	71.005500
651.000000	70.342600
650.000000	69.630600
649.000000	68.883900
648.000000	68.148000
647.000000	67.417500
646.000000	66.667200
645.000000	65.837000
644.000000	65.033500
643.000000	64.249100
642.000000	63.402600
641.000000	62.557100
640.000000	61.767200
639.000000	60.990200
638.000000	60.288000
637.000000	59.627700
636.000000	59.021300
635.000000	58.507900
634.000000	58.078000
633.000000	57.744600
632.000000	57.498600
631.000000	57.364400
630.000000	57.294200
629.000000	57.332200
628.000000	57.482700
627.000000	57.699600
626.000000	57.993200
625.000000	58.367900
624.000000	58.795200
623.000000	59.292000
622.000000	59.863000
621.000000	60.445900
620.000000	61.085900
619.000000	61.826500
618.000000	62.600800
617.000000	63.400900
616.000000	64.269500
615.000000	65.112000
614.000000	65.997500
613.000000	66.871300
612.000000	67.740100
611.000000	68.598600
610.000000	69.449600
609.000000	70.350300
608.000000	71.192000
607.000000	71.956700
606.000000	72.754900
605.000000	73.546700
604.000000	74.275400
603.000000	75.040800
602.000000	75.795700
601.000000	76.515100
600.000000	77.191300
599.000000	77.834600
598.000000	78.502600
597.000000	79.094400
596.000000	79.611600
595.000000	80.174900
594.000000	80.683700
593.000000	81.158100
592.000000	81.618500
591.000000	82.041500
590.000000	82.392400
589.000000	82.740800
588.000000	83.070400
587.000000	83.416000
586.000000	83.711600
585.000000	83.953500
584.000000	84.258700
583.000000	84.544500
582.000000	84.773600
581.000000	84.965000
580.000000	85.161100
579.000000	85.371100
578.000000	85.532200
577.000000	85.690800
576.000000	85.824200
575.000000	85.905300
574.000000	86.029700
573.000000	86.085200
572.000000	86.143000
571.000000	86.168600
570.000000	86.213500
569.000000	86.223500
568.000000	86.184500
567.000000	86.160500
566.000000	86.131900
565.000000	86.077300
564.000000	85.989600
563.000000	85.928500
562.000000	85.852200
561.000000	85.726500
560.000000	85.616600
559.000000	85.459700
558.000000	85.305300
557.000000	85.136400
556.000000	84.968700
555.000000	84.758000
554.000000	84.559200
553.000000	84.379400
552.000000	84.139000
551.000000	83.875100
550.000000	83.589500
549.000000	83.344000
548.000000	83.067300
547.000000	82.769900
546.000000	82.380200
545.000000	82.025100
544.000000	81.703800
543.000000	81.332400
542.000000	80.875600
541.000000	80.431100
540.000000	79.970100
539.000000	79.464100
538.000000	78.927800
537.000000	78.388400
536.000000	77.839400
535.000000	77.231300
534.000000	76.646500
533.000000	75.928100
532.000000	75.270300
531.000000	74.507900
530.000000	73.757900
529.000000	72.992600
528.000000	72.220000
527.000000	71.377800
526.000000	70.543600
525.000000	69.693200
524.000000	68.807100
523.000000	67.943000
522.000000	67.010200
521.000000	66.066900
520.000000	65.066500
519.000000	64.070500
518.000000	63.040800
517.000000	61.948700
516.000000	60.891200
515.000000	59.728800
514.000000	58.584100
513.000000	57.406600
512.000000	56.216400
511.000000	54.972200
510.000000	53.748200
509.000000	52.615000
508.000000	51.350200
507.000000	50.142400
506.000000	48.896700
505.000000	47.686100
504.000000	46.496300
503.000000	45.313500
502.000000	44.137400
501.000000	42.979500
500.000000	41.916300
499.000000	40.826300
498.000000	39.893500
497.000000	38.934200
496.000000	38.071900
495.000000	37.289200
494.000000	36.573800
493.000000	35.864100
492.000000	35.248900
491.000000	34.650600
490.000000	34.140500
489.000000	33.634700
488.000000	33.189100
487.000000	32.818700
486.000000	32.430300
485.000000	32.081400
484.000000	31.770400
483.000000	31.439600
482.000000	31.128300
481.000000	30.847800
480.000000	30.560400
479.000000	30.284800
478.000000	30.016400
477.000000	29.747200
476.000000	29.455000
475.000000	29.180800
474.000000	28.878200
473.000000	28.586800
472.000000	28.291000
471.000000	28.002300
470.000000	27.701500
469.000000	27.440300
468.000000	27.118900
467.000000	26.875700
466.000000	26.593100
465.000000	26.303600
464.000000	26.050500
463.000000	25.787500
462.000000	25.553000
461.000000	25.323400
460.000000	25.117400
459.000000	24.946500
458.000000	24.760800
457.000000	24.617200
456.000000	24.476700
455.000000	24.370000
454.000000	24.295900
453.000000	24.192900
452.000000	24.132800
451.000000	24.066500
450.000000	23.996700
449.000000	23.981100
448.000000	23.961500
447.000000	23.949800
446.000000	23.956200
445.000000	23.953800
444.000000	23.980400
443.000000	23.944600
442.000000	23.952100
441.000000	23.923700
440.000000	23.917900
439.000000	23.877200
438.000000	23.909900
437.000000	23.851800
436.000000	23.830800
435.000000	23.766400
434.000000	23.720400
433.000000	23.696400
432.000000	23.605800
431.000000	23.562200
430.000000	23.464500
429.000000	23.336400
428.000000	23.227500
427.000000	23.093000
426.000000	23.002700
425.000000	22.825200
424.000000	22.660700
423.000000	22.472600
422.000000	22.304200
421.000000	22.117700
420.000000	21.882400
419.000000	21.625500
418.000000	21.396200
417.000000	21.146000
416.000000	20.891900
415.000000	20.597900
414.000000	20.305300
413.000000	19.971000
412.000000	19.660800
411.000000	19.313200
410.000000	18.942400
409.000000	18.572300
408.000000	18.209000
407.000000	17.818800
406.000000	17.433800
405.000000	17.042000
404.000000	16.609000
403.000000	16.154400
402.000000	15.735500
401.000000	15.335500
400.000000	14.919200
399.000000	14.473400
398.000000	14.066900
397.000000	13.659900
396.000000	13.258900
395.000000	12.828300
394.000000	12.432800
393.000000	12.060500
392.000000	11.636900
391.000000	11.289400
390.000000	10.952000
389.000000	10.596400
388.000000	10.261400
387.000000	9.941400
386.000000	9.659000
385.000000	9.376000
384.000000	9.095000
383.000000	8.850100
382.000000	8.641700
381.000000	8.404100
380.000000	8.199300
379.000000	8.026800
378.000000	7.876000
377.000000	7.707700
376.000000	7.577500
375.000000	7.262700
374.000000	6.881100
373.000000	7.040200
372.000000	6.934500
371.000000	6.815400
370.000000	6.787200
369.000000	6.815700
368.000000	6.825700
367.000000	6.703700
366.000000	6.581000
365.000000	6.546600
364.000000	6.406000
363.000000	6.353300
362.000000	6.383700
361.000000	6.385200
360.000000	6.322300
359.000000	6.271600
358.000000	6.178500
357.000000	6.233000
356.000000	6.216500
355.000000	6.107900
354.000000	5.984100
353.000000	5.995400
352.000000	6.218500
351.000000	6.215700
350.000000	6.017400
349.000000	6.037700
348.000000	6.157300
347.000000	6.005600
346.000000	5.879200
345.000000	5.898200
344.000000	6.015600
343.000000	6.040900
342.000000	6.000200
341.000000	5.909100
340.000000	5.757300
339.000000	5.827300
338.000000	6.041100
337.000000	6.088900
336.000000	6.025200
335.000000	5.965200
334.000000	5.928000
333.000000	6.032200
332.000000	5.851700
331.000000	5.728600
330.000000	5.813400
329.000000	5.978700
328.000000	6.438200
327.000000	6.541100
326.000000	6.427900
325.000000	6.513600
324.000000	6.543500
323.000000	6.631300
322.000000	6.512400
321.000000	6.732100
320.000000	6.558200
319.000000	6.158600
318.000000	6.557000
317.000000	7.010600
316.000000	6.427600
315.000000	5.865200
314.000000	5.862000
313.000000	5.883500
312.000000	5.876900
311.000000	5.907100
310.000000	5.898400
309.000000	5.875100
308.000000	5.898700
307.000000	5.919300
306.000000	5.899500
305.000000	5.875400
304.000000	5.865500
303.000000	5.864400
302.000000	5.886500
301.000000	5.882000
300.000000	5.912700
299.000000	5.926000
298.000000	5.915800
297.000000	5.933200
296.000000	5.957500
295.000000	5.917800
294.000000	5.925900
293.000000	5.951400
292.000000	5.966300
291.000000	5.952800
290.000000	5.924900
289.000000	5.952500
288.000000	5.971700
287.000000	5.961800
286.000000	5.960600
285.000000	5.980800
284.000000	5.969600
283.000000	5.980800
282.000000	5.980600
281.000000	5.968800
280.000000	6.000800
279.000000	6.022400
278.000000	6.012600
277.000000	6.006600
276.000000	6.027700
275.000000	6.041600
274.000000	6.076300
273.000000	6.050700
272.000000	6.081200
271.000000	6.076300
270.000000	6.081800
269.000000	6.108400
268.000000	6.187600
267.000000	6.218000
266.000000	6.200800
265.000000	6.215500
264.000000	6.231300
263.000000	6.279900
262.000000	6.323400
261.000000	6.324700
260.000000	6.357900
259.000000	6.368700
258.000000	6.362400
257.000000	6.383000
256.000000	6.456200
255.000000	6.443400
254.000000	6.457200
253.000000	6.486200
252.000000	6.491400
251.000000	6.492000
250.000000	6.537700
