PE UV       SUBTECH     SPECTRUM    ASCII       PEDS        4.00        
   -1
CICIMAUCR0247-1.Sample.ASC
24/06/24
15:55:28.00
24/06/24
15:55:28.00
Vinicio Soto Monge
C. resplendens. Sex M.Dorsal.  
250,000000
1
Lambda 1050
1050L1511233
PerkinElmer UV WinLab 6.3.2.0749 / 2.02.05 Lambda 900 UV/VIS/NIR, Aug  7 2015 09:38:08

0
0
3350/servo 860,8/2
0
0
UV/VIS
1
1
1
DoubleDePol,CommonBeamDepol,RBeamAtt,SBeamAtt,60mm sphere, WB InGaAs Detector
0
0
0
0
Program
Program
3350/servo 860,8/2
3350/0,2 860,8/0,2
3350/0,2 860,8/0,2
0
15.00
 
 
 
0
 
860,8
319,2
860,8
Front
100
on
S:100 R:100
0
0
0
0
 
0
 
 
 
0
 
 
0
0
0
0
0
 
 
 
 
0
0


0
0
#HDR
-1
-1
#GR
nm
%R
1.0
0.0
2500,000000
-1,000000
2251
8
91,138500
5,778400
#DATA
2482.000000	10.955001
2481.000000	10.887928
2480.000000	10.967045
2479.000000	11.043150
2478.000000	10.994974
2477.000000	10.964345
2476.000000	11.000892
2475.000000	11.058101
2474.000000	11.044811
2473.000000	11.112091
2472.000000	11.067030
2471.000000	11.109599
2470.000000	11.117179
2469.000000	11.161824
2468.000000	11.158917
2467.000000	11.208235
2466.000000	11.203355
2465.000000	11.299810
2464.000000	11.376123
2463.000000	11.322860
2462.000000	11.390763
2461.000000	11.429387
2460.000000	11.463234
2459.000000	11.510891
2458.000000	11.569761
2457.000000	11.663828
2456.000000	11.673795
2455.000000	11.736715
2454.000000	11.828498
2453.000000	11.850198
2452.000000	11.950079
2451.000000	11.990987
2450.000000	12.082147
2449.000000	12.153477
2448.000000	12.243391
2447.000000	12.315031
2446.000000	12.391344
2445.000000	12.462570
2444.000000	12.538052
2443.000000	12.615818
2442.000000	12.696596
2441.000000	12.781423
2440.000000	12.846003
2439.000000	12.942355
2438.000000	12.997591
2437.000000	13.072657
2436.000000	13.160184
2435.000000	13.226529
2434.000000	13.292356
2433.000000	13.364515
2432.000000	13.432418
2431.000000	13.525032
2430.000000	13.596984
2429.000000	13.649001
2428.000000	13.724795
2427.000000	13.777955
2426.000000	13.833295
2425.000000	13.895591
2424.000000	13.967231
2423.000000	14.030047
2422.000000	14.085387
2421.000000	14.125879
2420.000000	14.177170
2419.000000	14.226072
2418.000000	14.287123
2417.000000	14.342359
2416.000000	14.390119
2415.000000	14.429262
2414.000000	14.470689
2413.000000	14.515854
2412.000000	14.569013
2411.000000	14.624664
2410.000000	14.683534
2409.000000	14.715202
2408.000000	14.755383
2407.000000	14.791722
2406.000000	14.813733
2405.000000	14.863986
2404.000000	14.898145
2403.000000	14.940299
2402.000000	14.970408
2401.000000	14.998753
2400.000000	15.043503
2399.000000	15.081400
2398.000000	15.115351
2397.000000	15.151691
2396.000000	15.173598
2395.000000	15.202566
2394.000000	15.236517
2393.000000	15.270053
2392.000000	15.294037
2391.000000	15.318644
2390.000000	15.364121
2389.000000	15.395165
2388.000000	15.394542
2387.000000	15.395580
2386.000000	15.417488
2385.000000	15.435346
2384.000000	15.452893
2383.000000	15.463068
2382.000000	15.483314
2381.000000	15.497538
2380.000000	15.499304
2379.000000	15.502003
2378.000000	15.502418
2377.000000	15.507091
2376.000000	15.505014
2375.000000	15.501692
2374.000000	15.507610
2373.000000	15.517266
2372.000000	15.505741
2371.000000	15.502107
2370.000000	15.495150
2369.000000	15.478642
2368.000000	15.478642
2367.000000	15.469817
2366.000000	15.455489
2365.000000	15.442822
2364.000000	15.425898
2363.000000	15.413750
2362.000000	15.403263
2361.000000	15.391427
2360.000000	15.355711
2359.000000	15.329754
2358.000000	15.315426
2357.000000	15.294245
2356.000000	15.267354
2355.000000	15.255621
2354.000000	15.250845
2353.000000	15.230911
2352.000000	15.205784
2351.000000	15.205265
2350.000000	15.225719
2349.000000	15.228626
2348.000000	15.232676
2347.000000	15.254272
2346.000000	15.284278
2345.000000	15.316360
2344.000000	15.334841
2343.000000	15.339306
2342.000000	15.355815
2341.000000	15.401498
2340.000000	15.443133
2339.000000	15.458499
2338.000000	15.475216
2337.000000	15.498161
2336.000000	15.513216
2335.000000	15.539900
2334.000000	15.548725
2333.000000	15.554332
2332.000000	15.566687
2331.000000	15.563676
2330.000000	15.573540
2329.000000	15.553086
2328.000000	15.539381
2327.000000	15.531178
2326.000000	15.516643
2325.000000	15.507610
2324.000000	15.479784
2323.000000	15.450712
2322.000000	15.410531
2321.000000	15.353115
2320.000000	15.308989
2319.000000	15.265693
2318.000000	15.201839
2317.000000	15.136116
2316.000000	15.074651
2315.000000	15.004048
2314.000000	14.928047
2313.000000	14.855783
2312.000000	14.787465
2311.000000	14.717693
2310.000000	14.643249
2309.000000	14.584587
2308.000000	14.535165
2307.000000	14.505471
2306.000000	14.467989
2305.000000	14.425109
2304.000000	14.423448
2303.000000	14.433934
2302.000000	14.448574
2301.000000	14.472869
2300.000000	14.510662
2299.000000	14.551051
2298.000000	14.600992
2297.000000	14.673567
2296.000000	14.732645
2295.000000	14.776875
2294.000000	14.844155
2293.000000	14.927736
2292.000000	14.979130
2291.000000	15.027306
2290.000000	15.083891
2289.000000	15.136220
2288.000000	15.171314
2287.000000	15.196855
2286.000000	15.228211
2285.000000	15.239632
2284.000000	15.247419
2283.000000	15.244200
2282.000000	15.215752
2281.000000	15.228523
2280.000000	15.203708
2279.000000	15.193637
2278.000000	15.161139
2277.000000	15.118985
2276.000000	15.086487
2275.000000	15.074859
2274.000000	15.037585
2273.000000	15.024606
2272.000000	15.004360
2271.000000	14.991901
2270.000000	15.004568
2269.000000	14.997300
2268.000000	15.009759
2267.000000	15.071328
2266.000000	15.140996
2265.000000	15.208172
2264.000000	15.289158
2263.000000	15.416138
2262.000000	15.547064
2261.000000	15.691591
2260.000000	15.842140
2259.000000	16.032144
2258.000000	16.183316
2257.000000	16.390140
2256.000000	16.571526
2255.000000	16.765371
2254.000000	16.964926
2253.000000	17.182133
2252.000000	17.369540
2251.000000	17.555910
2250.000000	17.738334
2249.000000	17.921589
2248.000000	18.091554
2247.000000	18.266710
2246.000000	18.413314
2245.000000	18.536972
2244.000000	18.681188
2243.000000	18.804534
2242.000000	18.898290
2241.000000	19.030462
2240.000000	19.102933
2239.000000	19.187241
2238.000000	19.252548
2237.000000	19.337582
2236.000000	19.362189
2235.000000	19.418879
2234.000000	19.450131
2233.000000	19.504225
2232.000000	19.526340
2231.000000	19.558422
2230.000000	19.560499
2229.000000	19.551985
2228.000000	19.564652
2227.000000	19.563510
2226.000000	19.533608
2225.000000	19.517930
2224.000000	19.498618
2223.000000	19.449300
2222.000000	19.426562
2221.000000	19.378802
2220.000000	19.342254
2219.000000	19.297505
2218.000000	19.243100
2217.000000	19.186825
2216.000000	19.131797
2215.000000	19.103660
2214.000000	19.033161
2213.000000	19.000871
2212.000000	18.931930
2211.000000	18.889153
2210.000000	18.870568
2209.000000	18.809310
2208.000000	18.789998
2207.000000	18.750752
2206.000000	18.721369
2205.000000	18.685756
2204.000000	18.660422
2203.000000	18.625017
2202.000000	18.585459
2201.000000	18.590650
2200.000000	18.558879
2199.000000	18.536245
2198.000000	18.516829
2197.000000	18.490873
2196.000000	18.465643
2195.000000	18.451314
2194.000000	18.450692
2193.000000	18.425773
2192.000000	18.420686
2191.000000	18.381750
2190.000000	18.396494
2189.000000	18.371887
2188.000000	18.336586
2187.000000	18.341985
2186.000000	18.335028
2185.000000	18.325684
2184.000000	18.292355
2183.000000	18.278442
2182.000000	18.261830
2181.000000	18.254562
2180.000000	18.217081
2179.000000	18.198288
2178.000000	18.201922
2177.000000	18.179911
2176.000000	18.171293
2175.000000	18.156030
2174.000000	18.153746
2173.000000	18.159041
2172.000000	18.151566
2171.000000	18.155096
2170.000000	18.154161
2169.000000	18.162052
2168.000000	18.180430
2167.000000	18.189359
2166.000000	18.212512
2165.000000	18.228294
2164.000000	18.251759
2163.000000	18.269306
2162.000000	18.290590
2161.000000	18.320389
2160.000000	18.348526
2159.000000	18.398674
2158.000000	18.426707
2157.000000	18.487965
2156.000000	18.510288
2155.000000	18.567393
2154.000000	18.642979
2153.000000	18.681914
2152.000000	18.734555
2151.000000	18.785638
2150.000000	18.835994
2149.000000	18.894241
2148.000000	18.958925
2147.000000	19.013538
2146.000000	19.060364
2145.000000	19.121622
2144.000000	19.172186
2143.000000	19.204787
2142.000000	19.257947
2141.000000	19.305188
2140.000000	19.356167
2139.000000	19.400294
2138.000000	19.466432
2137.000000	19.495503
2136.000000	19.517411
2135.000000	19.568701
2134.000000	19.607636
2133.000000	19.632243
2132.000000	19.661211
2131.000000	19.680315
2130.000000	19.699523
2129.000000	19.715824
2128.000000	19.736278
2127.000000	19.737316
2126.000000	19.751437
2125.000000	19.763377
2124.000000	19.769918
2123.000000	19.760470
2122.000000	19.759951
2121.000000	19.763689
2120.000000	19.766284
2119.000000	19.753617
2118.000000	19.741262
2117.000000	19.719977
2116.000000	19.709387
2115.000000	19.695993
2114.000000	19.667649
2113.000000	19.637954
2112.000000	19.608052
2111.000000	19.588740
2110.000000	19.567975
2109.000000	19.540045
2108.000000	19.506924
2107.000000	19.481590
2106.000000	19.453765
2105.000000	19.428223
2104.000000	19.399879
2103.000000	19.370807
2102.000000	19.339763
2101.000000	19.317440
2100.000000	19.284630
2099.000000	19.249641
2098.000000	19.214443
2097.000000	19.166579
2096.000000	19.144775
2095.000000	19.141557
2094.000000	19.117677
2093.000000	19.088190
2092.000000	19.061921
2091.000000	19.051227
2090.000000	19.031500
2089.000000	18.998587
2088.000000	18.968581
2087.000000	18.953630
2086.000000	18.929127
2085.000000	18.890191
2084.000000	18.856863
2083.000000	18.819485
2082.000000	18.774217
2081.000000	18.732271
2080.000000	18.690013
2079.000000	18.650247
2078.000000	18.602591
2077.000000	18.539048
2076.000000	18.476752
2075.000000	18.402412
2074.000000	18.339493
2073.000000	18.277819
2072.000000	18.206386
2071.000000	18.136719
2070.000000	18.071100
2069.000000	17.991049
2068.000000	17.908299
2067.000000	17.833543
2066.000000	17.757334
2065.000000	17.678426
2064.000000	17.595364
2063.000000	17.522166
2062.000000	17.450837
2061.000000	17.380027
2060.000000	17.310151
2059.000000	17.248582
2058.000000	17.198849
2057.000000	17.155345
2056.000000	17.121290
2055.000000	17.091907
2054.000000	17.062731
2053.000000	17.052972
2052.000000	17.062628
2051.000000	17.087650
2050.000000	17.106650
2049.000000	17.124197
2048.000000	17.159602
2047.000000	17.204871
2046.000000	17.261353
2045.000000	17.301534
2044.000000	17.362169
2043.000000	17.424880
2042.000000	17.478247
2041.000000	17.538467
2040.000000	17.587577
2039.000000	17.635338
2038.000000	17.688289
2037.000000	17.728990
2036.000000	17.757957
2035.000000	17.798138
2034.000000	17.837800
2033.000000	17.857216
2032.000000	17.873621
2031.000000	17.891375
2030.000000	17.912452
2029.000000	17.922627
2028.000000	17.931972
2027.000000	17.936228
2026.000000	17.942458
2025.000000	17.945261
2024.000000	17.929480
2023.000000	17.920343
2022.000000	17.910895
2021.000000	17.893556
2020.000000	17.872167
2019.000000	17.853271
2018.000000	17.845484
2017.000000	17.818073
2016.000000	17.801669
2015.000000	17.759722
2014.000000	17.724110
2013.000000	17.688186
2012.000000	17.641567
2011.000000	17.611873
2010.000000	17.559129
2009.000000	17.528396
2008.000000	17.469007
2007.000000	17.427061
2006.000000	17.369229
2005.000000	17.314720
2004.000000	17.258861
2003.000000	17.177460
2002.000000	17.127831
2001.000000	17.057125
2000.000000	16.984550
1999.000000	16.911352
1998.000000	16.847602
1997.000000	16.756545
1996.000000	16.675560
1995.000000	16.600078
1994.000000	16.528334
1993.000000	16.441949
1992.000000	16.365844
1991.000000	16.265963
1990.000000	16.162239
1989.000000	16.078866
1988.000000	16.003592
1987.000000	15.928213
1986.000000	15.822517
1985.000000	15.737067
1984.000000	15.648503
1983.000000	15.552671
1982.000000	15.439499
1981.000000	15.357268
1980.000000	15.288742
1979.000000	15.202773
1978.000000	15.099258
1977.000000	15.028552
1976.000000	14.929397
1975.000000	14.840002
1974.000000	14.744792
1973.000000	14.686338
1972.000000	14.591336
1971.000000	14.487613
1970.000000	14.406316
1969.000000	14.326473
1968.000000	14.250679
1967.000000	14.168656
1966.000000	14.080818
1965.000000	14.008035
1964.000000	13.949685
1963.000000	13.870153
1962.000000	13.787299
1961.000000	13.725211
1960.000000	13.653258
1959.000000	13.553584
1958.000000	13.505201
1957.000000	13.435222
1956.000000	13.329733
1955.000000	13.288929
1954.000000	13.232966
1953.000000	13.181157
1952.000000	13.116265
1951.000000	13.043897
1950.000000	12.980044
1949.000000	12.907780
1948.000000	12.869779
1947.000000	12.841850
1946.000000	12.787652
1945.000000	12.734493
1944.000000	12.705214
1943.000000	12.671574
1942.000000	12.629524
1941.000000	12.625474
1940.000000	12.606059
1939.000000	12.585086
1938.000000	12.593392
1937.000000	12.583424
1936.000000	12.605851
1935.000000	12.598895
1934.000000	12.614988
1933.000000	12.644059
1932.000000	12.651846
1931.000000	12.700957
1930.000000	12.768652
1929.000000	12.805510
1928.000000	12.879435
1927.000000	12.949726
1926.000000	13.037045
1925.000000	13.122598
1924.000000	13.191955
1923.000000	13.283011
1922.000000	13.389122
1921.000000	13.545694
1920.000000	13.692090
1919.000000	13.847207
1918.000000	13.953422
1917.000000	14.119753
1916.000000	14.246422
1915.000000	14.380982
1914.000000	14.545340
1913.000000	14.791514
1912.000000	15.035508
1911.000000	15.243474
1910.000000	15.423925
1909.000000	15.632306
1908.000000	15.816599
1907.000000	16.054778
1906.000000	16.336046
1905.000000	16.674003
1904.000000	17.009572
1903.000000	17.307140
1902.000000	17.617376
1901.000000	17.952633
1900.000000	18.314574
1899.000000	18.735593
1898.000000	19.160765
1897.000000	19.539941
1896.000000	19.927216
1895.000000	20.295698
1894.000000	20.676744
1893.000000	21.095790
1892.000000	21.577963
1891.000000	22.184313
1890.000000	22.731170
1889.000000	23.246256
1888.000000	23.797577
1887.000000	24.286084
1886.000000	24.807296
1885.000000	25.350623
1884.000000	25.977219
1883.000000	26.550033
1882.000000	27.109557
1881.000000	27.660671
1880.000000	28.183232
1879.000000	28.655542
1878.000000	29.167513
1877.000000	29.677823
1876.000000	30.148783
1875.000000	30.645180
1874.000000	31.111571
1873.000000	31.570279
1872.000000	32.051517
1871.000000	32.465164
1870.000000	32.877669
1869.000000	33.250305
1868.000000	33.581513
1867.000000	33.851359
1866.000000	34.090992
1865.000000	34.282242
1864.000000	34.468196
1863.000000	34.631827
1862.000000	34.841350
1861.000000	35.057726
1860.000000	35.283031
1859.000000	35.457252
1858.000000	35.621818
1857.000000	35.769253
1856.000000	35.885124
1855.000000	35.980852
1854.000000	36.097762
1853.000000	36.177708
1852.000000	36.224119
1851.000000	36.303755
1850.000000	36.363870
1849.000000	36.437380
1848.000000	36.496146
1847.000000	36.568825
1846.000000	36.589902
1845.000000	36.549928
1844.000000	36.538404
1843.000000	36.532693
1842.000000	36.568929
1841.000000	36.624788
1840.000000	36.635067
1839.000000	36.644100
1838.000000	36.629356
1837.000000	36.613367
1836.000000	36.604957
1835.000000	36.589175
1834.000000	36.532589
1833.000000	36.468009
1832.000000	36.420560
1831.000000	36.395018
1830.000000	36.387647
1829.000000	36.339783
1828.000000	36.281847
1827.000000	36.255786
1826.000000	36.231179
1825.000000	36.170337
1824.000000	36.116554
1823.000000	36.074920
1822.000000	36.090909
1821.000000	36.106483
1820.000000	36.091947
1819.000000	36.074297
1818.000000	36.040657
1817.000000	35.987393
1816.000000	35.957284
1815.000000	35.942748
1814.000000	35.918037
1813.000000	35.918971
1812.000000	35.907135
1811.000000	35.872561
1810.000000	35.832276
1809.000000	35.794794
1808.000000	35.756586
1807.000000	35.718585
1806.000000	35.699585
1805.000000	35.665114
1804.000000	35.612993
1803.000000	35.576965
1802.000000	35.552773
1801.000000	35.528893
1800.000000	35.481237
1799.000000	35.423924
1798.000000	35.368584
1797.000000	35.327884
1796.000000	35.287495
1795.000000	35.256036
1794.000000	35.231013
1793.000000	35.193532
1792.000000	35.157504
1791.000000	35.115661
1790.000000	35.078284
1789.000000	35.065305
1788.000000	35.032392
1787.000000	34.988473
1786.000000	34.971342
1785.000000	34.943412
1784.000000	34.903231
1783.000000	34.875406
1782.000000	34.829306
1781.000000	34.789022
1780.000000	34.771994
1779.000000	34.740846
1778.000000	34.697031
1777.000000	34.649789
1776.000000	34.606494
1775.000000	34.543678
1774.000000	34.498410
1773.000000	34.466119
1772.000000	34.418047
1771.000000	34.363227
1770.000000	34.297608
1769.000000	34.246733
1768.000000	34.191601
1767.000000	34.138337
1766.000000	34.084347
1765.000000	34.047073
1764.000000	34.007723
1763.000000	33.990280
1762.000000	33.985296
1761.000000	33.996821
1760.000000	34.011565
1759.000000	34.044789
1758.000000	34.093796
1757.000000	34.135742
1756.000000	34.178415
1755.000000	34.226071
1754.000000	34.268536
1753.000000	34.309237
1752.000000	34.353882
1751.000000	34.372883
1750.000000	34.377970
1749.000000	34.375167
1748.000000	34.371221
1747.000000	34.351183
1746.000000	34.323461
1745.000000	34.282657
1744.000000	34.225864
1743.000000	34.161179
1742.000000	34.088604
1741.000000	33.995160
1740.000000	33.888737
1739.000000	33.788752
1738.000000	33.676722
1737.000000	33.561163
1736.000000	33.470418
1735.000000	33.390575
1734.000000	33.297234
1733.000000	33.252693
1732.000000	33.226320
1731.000000	33.202025
1730.000000	33.206282
1729.000000	33.219883
1728.000000	33.259857
1727.000000	33.295054
1726.000000	33.329317
1725.000000	33.388187
1724.000000	33.416428
1723.000000	33.465434
1722.000000	33.524408
1721.000000	33.609650
1720.000000	33.689701
1719.000000	33.783664
1718.000000	33.881988
1717.000000	33.981455
1716.000000	34.087981
1715.000000	34.205513
1714.000000	34.318062
1713.000000	34.433622
1712.000000	34.534438
1711.000000	34.624144
1710.000000	34.700042
1709.000000	34.770333
1708.000000	34.810410
1707.000000	34.853187
1706.000000	34.861700
1705.000000	34.848099
1704.000000	34.837301
1703.000000	34.804803
1702.000000	34.763584
1701.000000	34.720600
1700.000000	34.633177
1699.000000	34.565067
1698.000000	34.486677
1697.000000	34.390845
1696.000000	34.320242
1695.000000	34.282345
1694.000000	34.247044
1693.000000	34.243514
1692.000000	34.244241
1691.000000	34.308925
1690.000000	34.349625
1689.000000	34.412233
1688.000000	34.492180
1687.000000	34.587182
1686.000000	34.672216
1685.000000	34.778120
1684.000000	34.886723
1683.000000	35.014015
1682.000000	35.176712
1681.000000	35.385716
1680.000000	35.641961
1679.000000	35.928939
1678.000000	36.233360
1677.000000	36.536223
1676.000000	36.836906
1675.000000	37.131256
1674.000000	37.402037
1673.000000	37.656310
1672.000000	37.874969
1671.000000	38.074629
1670.000000	38.257364
1669.000000	38.419231
1668.000000	38.573206
1667.000000	38.658968
1666.000000	38.765909
1665.000000	38.846272
1664.000000	38.975432
1663.000000	39.046450
1662.000000	39.117987
1661.000000	39.176130
1660.000000	39.239257
1659.000000	39.301553
1658.000000	39.352636
1657.000000	39.379008
1656.000000	39.390222
1655.000000	39.392194
1654.000000	39.436944
1653.000000	39.431545
1652.000000	39.445769
1651.000000	39.417528
1650.000000	39.413167
1649.000000	39.378593
1648.000000	39.361877
1647.000000	39.345991
1646.000000	39.303630
1645.000000	39.255973
1644.000000	39.219322
1643.000000	39.177376
1642.000000	39.139168
1641.000000	39.115287
1640.000000	39.060674
1639.000000	38.995990
1638.000000	38.958924
1637.000000	38.913448
1636.000000	38.874201
1635.000000	38.815020
1634.000000	38.755215
1633.000000	38.706624
1632.000000	38.639863
1631.000000	38.586600
1630.000000	38.511429
1629.000000	38.430237
1628.000000	38.374689
1627.000000	38.301491
1626.000000	38.232238
1625.000000	38.153953
1624.000000	38.095394
1623.000000	38.009218
1622.000000	37.942872
1621.000000	37.853270
1620.000000	37.784744
1619.000000	37.725562
1618.000000	37.658075
1617.000000	37.583527
1616.000000	37.521127
1615.000000	37.459454
1614.000000	37.390097
1613.000000	37.325517
1612.000000	37.261767
1611.000000	37.186181
1610.000000	37.112775
1609.000000	37.033659
1608.000000	36.960149
1607.000000	36.879372
1606.000000	36.816660
1605.000000	36.739621
1604.000000	36.654482
1603.000000	36.590317
1602.000000	36.500714
1601.000000	36.414330
1600.000000	36.352449
1599.000000	36.267311
1598.000000	36.174075
1597.000000	36.101707
1596.000000	36.036296
1595.000000	35.956661
1594.000000	35.880867
1593.000000	35.810576
1592.000000	35.740804
1591.000000	35.668437
1590.000000	35.604168
1589.000000	35.547894
1588.000000	35.481652
1587.000000	35.419667
1586.000000	35.366092
1585.000000	35.291648
1584.000000	35.230598
1583.000000	35.177335
1582.000000	35.119607
1581.000000	35.049939
1580.000000	35.000310
1579.000000	34.959090
1578.000000	34.900636
1577.000000	34.833667
1576.000000	34.806153
1575.000000	34.769710
1574.000000	34.734305
1573.000000	34.685194
1572.000000	34.649063
1571.000000	34.626428
1570.000000	34.593827
1569.000000	34.575138
1568.000000	34.565378
1567.000000	34.539629
1566.000000	34.505781
1565.000000	34.478475
1564.000000	34.460201
1563.000000	34.445562
1562.000000	34.415659
1561.000000	34.385965
1560.000000	34.360423
1559.000000	34.323669
1558.000000	34.284214
1557.000000	34.230432
1556.000000	34.173742
1555.000000	34.125463
1554.000000	34.071369
1553.000000	34.016964
1552.000000	33.951345
1551.000000	33.887076
1550.000000	33.804326
1549.000000	33.749609
1548.000000	33.689181
1547.000000	33.615672
1546.000000	33.549119
1545.000000	33.496478
1544.000000	33.445707
1543.000000	33.400438
1542.000000	33.340530
1541.000000	33.275534
1540.000000	33.235769
1539.000000	33.195691
1538.000000	33.145751
1537.000000	33.085531
1536.000000	33.031229
1535.000000	32.980250
1534.000000	32.933320
1533.000000	32.867183
1532.000000	32.802914
1531.000000	32.734595
1530.000000	32.670223
1529.000000	32.604915
1528.000000	32.542723
1527.000000	32.479389
1526.000000	32.409409
1525.000000	32.331331
1524.000000	32.252838
1523.000000	32.184624
1522.000000	32.106234
1521.000000	32.025872
1520.000000	31.944264
1519.000000	31.854661
1518.000000	31.773365
1517.000000	31.696533
1516.000000	31.614405
1515.000000	31.531863
1514.000000	31.444648
1513.000000	31.354838
1512.000000	31.268038
1511.000000	31.190064
1510.000000	31.106587
1509.000000	31.016881
1508.000000	30.912846
1507.000000	30.819817
1506.000000	30.728345
1505.000000	30.634382
1504.000000	30.545298
1503.000000	30.454761
1502.000000	30.363808
1501.000000	30.273583
1500.000000	30.194778
1499.000000	30.114000
1498.000000	30.033015
1497.000000	29.954937
1496.000000	29.884439
1495.000000	29.817159
1494.000000	29.749879
1493.000000	29.682911
1492.000000	29.630478
1491.000000	29.562264
1490.000000	29.487612
1489.000000	29.437463
1488.000000	29.381708
1487.000000	29.328756
1486.000000	29.273209
1485.000000	29.219323
1484.000000	29.174677
1483.000000	29.129616
1482.000000	29.093588
1481.000000	29.044893
1480.000000	29.007516
1479.000000	28.978859
1478.000000	28.939301
1477.000000	28.909710
1476.000000	28.892060
1475.000000	28.868906
1474.000000	28.852190
1473.000000	28.847622
1472.000000	28.855824
1471.000000	28.858939
1470.000000	28.860808
1469.000000	28.850840
1468.000000	28.861535
1467.000000	28.869529
1466.000000	28.882404
1465.000000	28.893098
1464.000000	28.916667
1463.000000	28.950930
1462.000000	28.965569
1461.000000	28.994849
1460.000000	29.023609
1459.000000	29.073757
1458.000000	29.127851
1457.000000	29.176442
1456.000000	29.252132
1455.000000	29.309341
1454.000000	29.364577
1453.000000	29.432064
1452.000000	29.507858
1451.000000	29.590504
1450.000000	29.669309
1449.000000	29.718004
1448.000000	29.804492
1447.000000	29.887658
1446.000000	29.992108
1445.000000	30.076727
1444.000000	30.171521
1443.000000	30.241500
1442.000000	30.351245
1441.000000	30.448012
1440.000000	30.546440
1439.000000	30.664595
1438.000000	30.777248
1437.000000	30.909108
1436.000000	31.018438
1435.000000	31.126626
1434.000000	31.269180
1433.000000	31.428451
1432.000000	31.564880
1431.000000	31.700063
1430.000000	31.842617
1429.000000	32.012063
1428.000000	32.182547
1427.000000	32.358119
1426.000000	32.522062
1425.000000	32.727431
1424.000000	32.954190
1423.000000	33.189669
1422.000000	33.395351
1421.000000	33.595322
1420.000000	33.870464
1419.000000	34.146436
1418.000000	34.399982
1417.000000	34.660068
1416.000000	34.898974
1415.000000	35.200281
1414.000000	35.575304
1413.000000	35.890627
1412.000000	36.190064
1411.000000	36.508605
1410.000000	36.892246
1409.000000	37.313576
1408.000000	37.700540
1407.000000	38.118963
1406.000000	38.490352
1405.000000	38.939820
1404.000000	39.404965
1403.000000	39.809268
1402.000000	40.181799
1401.000000	40.710590
1400.000000	41.228480
1399.000000	41.699543
1398.000000	42.052866
1397.000000	42.429759
1396.000000	42.955227
1395.000000	43.527938
1394.000000	43.967853
1393.000000	44.406730
1392.000000	44.901570
1391.000000	45.379589
1390.000000	45.842450
1389.000000	46.290153
1388.000000	46.883317
1387.000000	47.443464
1386.000000	47.995097
1385.000000	48.500631
1384.000000	49.069395
1383.000000	49.608673
1382.000000	50.151170
1381.000000	50.612058
1380.000000	50.923228
1379.000000	51.263261
1378.000000	51.571212
1377.000000	51.797036
1376.000000	52.020057
1375.000000	52.274329
1374.000000	52.468486
1373.000000	52.718294
1372.000000	53.000496
1371.000000	53.298894
1370.000000	53.543303
1369.000000	53.789789
1368.000000	54.059220
1367.000000	54.287120
1366.000000	54.464249
1365.000000	54.650308
1364.000000	54.853497
1363.000000	54.989822
1362.000000	55.195296
1361.000000	55.338577
1360.000000	55.484039
1359.000000	55.505739
1358.000000	55.638014
1357.000000	55.757208
1356.000000	55.885953
1355.000000	56.067339
1354.000000	56.263365
1353.000000	56.468423
1352.000000	56.662684
1351.000000	56.960979
1350.000000	57.261143
1349.000000	57.540853
1348.000000	57.820667
1347.000000	58.100377
1346.000000	58.367835
1345.000000	58.573724
1344.000000	58.862779
1343.000000	59.131172
1342.000000	59.341837
1341.000000	59.600055
1340.000000	59.832835
1339.000000	60.070807
1338.000000	60.317085
1337.000000	60.541351
1336.000000	60.788563
1335.000000	60.998813
1334.000000	61.222872
1333.000000	61.445789
1332.000000	61.672962
1331.000000	61.877398
1330.000000	62.088063
1329.000000	62.292498
1328.000000	62.490185
1327.000000	62.695036
1326.000000	62.873514
1325.000000	63.038392
1324.000000	63.226838
1323.000000	63.403863
1322.000000	63.560434
1321.000000	63.729049
1320.000000	63.887074
1319.000000	64.029525
1318.000000	64.187031
1317.000000	64.344640
1316.000000	64.457292
1315.000000	64.589153
1314.000000	64.732538
1313.000000	64.860661
1312.000000	64.990548
1311.000000	65.104966
1310.000000	65.201525
1309.000000	65.306286
1308.000000	65.417381
1307.000000	65.528684
1306.000000	65.606035
1305.000000	65.693873
1304.000000	65.776934
1303.000000	65.845979
1302.000000	65.901735
1301.000000	65.977113
1300.000000	66.033387
1299.000000	66.093088
1298.000000	66.128700
1297.000000	66.185494
1296.000000	66.239484
1295.000000	66.281534
1294.000000	66.323792
1293.000000	66.361481
1292.000000	66.383181
1291.000000	66.413913
1290.000000	66.435406
1289.000000	66.440078
1288.000000	66.451706
1287.000000	66.442777
1286.000000	66.449838
1285.000000	66.448695
1284.000000	66.432291
1283.000000	66.414848
1282.000000	66.402908
1281.000000	66.389203
1280.000000	66.361688
1279.000000	66.343311
1278.000000	66.327218
1277.000000	66.302403
1276.000000	66.290878
1275.000000	66.281119
1274.000000	66.264922
1273.000000	66.249555
1272.000000	66.245091
1271.000000	66.243845
1270.000000	66.249555
1269.000000	66.220276
1268.000000	66.191724
1267.000000	66.187882
1266.000000	66.191827
1265.000000	66.158810
1264.000000	66.128804
1263.000000	66.116449
1262.000000	66.093711
1261.000000	66.064951
1260.000000	66.049584
1259.000000	66.029857
1258.000000	65.989676
1257.000000	65.945861
1256.000000	65.919074
1255.000000	65.889171
1254.000000	65.835804
1253.000000	65.778699
1252.000000	65.743294
1251.000000	65.688370
1250.000000	65.623270
1249.000000	65.563777
1248.000000	65.485803
1247.000000	65.421638
1246.000000	65.353943
1245.000000	65.281368
1244.000000	65.184809
1243.000000	65.099359
1242.000000	65.039139
1241.000000	64.959089
1240.000000	64.873120
1239.000000	64.788916
1238.000000	64.709385
1237.000000	64.636706
1236.000000	64.548660
1235.000000	64.460096
1234.000000	64.381291
1233.000000	64.305393
1232.000000	64.218075
1231.000000	64.130030
1230.000000	64.040842
1229.000000	63.943660
1228.000000	63.845543
1227.000000	63.746908
1226.000000	63.655955
1225.000000	63.561576
1224.000000	63.464394
1223.000000	63.366589
1222.000000	63.265773
1221.000000	63.165372
1220.000000	63.063518
1219.000000	62.965609
1218.000000	62.863132
1217.000000	62.768234
1216.000000	62.676970
1215.000000	62.573247
1214.000000	62.471704
1213.000000	62.386981
1212.000000	62.304335
1211.000000	62.209956
1210.000000	62.110905
1209.000000	62.017564
1208.000000	61.936475
1207.000000	61.857359
1206.000000	61.757270
1205.000000	61.674623
1204.000000	61.599972
1203.000000	61.531342
1202.000000	61.471122
1201.000000	61.416406
1200.000000	61.353798
1199.000000	61.288075
1198.000000	61.221834
1197.000000	61.138357
1196.000000	61.041901
1195.000000	60.939424
1194.000000	60.813274
1193.000000	60.664178
1192.000000	60.491929
1191.000000	60.300368
1190.000000	60.102370
1189.000000	59.901569
1188.000000	59.733888
1187.000000	59.595279
1186.000000	59.493944
1185.000000	59.453140
1184.000000	59.467675
1183.000000	59.533086
1182.000000	59.667335
1181.000000	59.849344
1180.000000	60.070911
1179.000000	60.328609
1178.000000	60.576237
1177.000000	60.806941
1176.000000	61.025185
1175.000000	61.227129
1174.000000	61.419105
1173.000000	61.584813
1172.000000	61.759450
1171.000000	61.953607
1170.000000	62.147660
1169.000000	62.341712
1168.000000	62.546252
1167.000000	62.754529
1166.000000	62.981598
1165.000000	63.208564
1164.000000	63.440306
1163.000000	63.684300
1162.000000	63.927255
1161.000000	64.180178
1160.000000	64.424068
1159.000000	64.681870
1158.000000	64.946733
1157.000000	65.188754
1156.000000	65.414266
1155.000000	65.652446
1154.000000	65.872351
1153.000000	66.063393
1152.000000	66.249348
1151.000000	66.415990
1150.000000	66.562075
1149.000000	66.722176
1148.000000	66.869714
1147.000000	67.038641
1146.000000	67.206114
1145.000000	67.410238
1144.000000	67.622149
1143.000000	67.844962
1142.000000	68.108371
1141.000000	68.372403
1140.000000	68.652217
1139.000000	68.964010
1138.000000	69.274453
1137.000000	69.608984
1136.000000	69.928667
1135.000000	70.288324
1134.000000	70.639571
1133.000000	70.918450
1132.000000	71.195565
1131.000000	71.447761
1130.000000	71.682306
1129.000000	71.896294
1128.000000	72.071969
1127.000000	72.228229
1126.000000	72.346799
1125.000000	72.464851
1124.000000	72.552377
1123.000000	72.646859
1122.000000	72.690778
1121.000000	72.735632
1120.000000	72.754009
1119.000000	72.779031
1118.000000	72.798655
1117.000000	72.800316
1116.000000	72.829180
1115.000000	72.826999
1114.000000	72.817136
1113.000000	72.804884
1112.000000	72.798239
1111.000000	72.795332
1110.000000	72.795644
1109.000000	72.783392
1108.000000	72.770725
1107.000000	72.749544
1106.000000	72.755047
1105.000000	72.760654
1104.000000	72.761381
1103.000000	72.740304
1102.000000	72.726080
1101.000000	72.729817
1100.000000	72.712478
1099.000000	72.725872
1098.000000	72.698981
1097.000000	72.691920
1096.000000	72.655373
1095.000000	72.665341
1094.000000	72.654647
1093.000000	72.630455
1092.000000	72.601487
1091.000000	72.602110
1090.000000	72.568470
1089.000000	72.546459
1088.000000	72.542202
1087.000000	72.519256
1086.000000	72.483332
1085.000000	72.458310
1084.000000	72.441801
1083.000000	72.407953
1082.000000	72.386773
1081.000000	72.343062
1080.000000	72.318351
1079.000000	72.280246
1078.000000	72.280454
1077.000000	72.225633
1076.000000	72.203622
1075.000000	72.161364
1074.000000	72.122533
1073.000000	72.073111
1072.000000	72.061690
1071.000000	72.041132
1070.000000	71.986935
1069.000000	71.933048
1068.000000	71.906676
1067.000000	71.864730
1066.000000	71.819462
1065.000000	71.759969
1064.000000	71.715738
1063.000000	71.654688
1062.000000	71.605474
1061.000000	71.545774
1060.000000	71.512134
1059.000000	71.455548
1058.000000	71.398858
1057.000000	71.327529
1056.000000	71.289944
1055.000000	71.227024
1054.000000	71.154865
1053.000000	71.077410
1052.000000	71.004731
1051.000000	70.947730
1050.000000	70.882838
1049.000000	70.829367
1048.000000	70.775481
1047.000000	70.700725
1046.000000	70.649227
1045.000000	70.593783
1044.000000	70.539585
1043.000000	70.477497
1042.000000	70.406272
1041.000000	70.372735
1040.000000	70.325494
1039.000000	70.257176
1038.000000	70.216372
1037.000000	70.157917
1036.000000	70.105173
1035.000000	70.064680
1034.000000	69.989302
1033.000000	69.938634
1032.000000	69.917973
1031.000000	69.862945
1030.000000	69.822763
1029.000000	69.778325
1028.000000	69.728281
1027.000000	69.689865
1026.000000	69.634629
1025.000000	69.584688
1024.000000	69.563092
1023.000000	69.521146
1022.000000	69.467571
1021.000000	69.427494
1020.000000	69.382225
1019.000000	69.360214
1018.000000	69.339033
1017.000000	69.311623
1016.000000	69.261993
1015.000000	69.237698
1014.000000	69.214960
1013.000000	69.191287
1012.000000	69.173325
1011.000000	69.170833
1010.000000	69.157336
1009.000000	69.164915
1008.000000	69.136882
1007.000000	69.131587
1006.000000	69.129095
1005.000000	69.118920
1004.000000	69.113209
1003.000000	69.096701
1002.000000	69.068045
1001.000000	69.058389
1000.000000	69.052782
999.000000	69.035754
998.000000	69.015508
997.000000	68.994535
996.000000	68.997650
995.000000	68.982491
994.000000	68.964633
993.000000	68.966398
992.000000	68.967748
991.000000	68.970136
990.000000	68.974496
989.000000	68.977092
988.000000	68.990278
987.000000	69.016858
986.000000	69.047071
985.000000	69.066487
984.000000	69.083411
983.000000	69.132521
982.000000	69.177790
981.000000	69.218386
980.000000	69.257114
979.000000	69.300410
978.000000	69.357099
977.000000	69.402783
976.000000	69.438603
975.000000	69.484391
974.000000	69.545545
973.000000	69.615525
972.000000	69.656744
971.000000	69.712603
970.000000	69.772200
969.000000	69.819337
968.000000	69.883087
967.000000	69.951820
966.000000	70.012663
965.000000	70.068626
964.000000	70.132168
963.000000	70.219798
962.000000	70.295177
961.000000	70.355292
960.000000	70.437523
959.000000	70.508022
958.000000	70.587969
957.000000	70.660544
956.000000	70.727512
955.000000	70.817219
954.000000	70.889483
953.000000	70.968599
952.000000	71.050726
951.000000	71.113541
950.000000	71.192969
949.000000	71.285479
948.000000	71.358366
947.000000	71.413705
946.000000	71.494483
945.000000	71.585747
944.000000	71.662060
943.000000	71.737957
942.000000	71.826107
941.000000	71.903354
940.000000	71.980186
939.000000	72.058056
938.000000	72.139457
937.000000	72.240584
936.000000	72.320220
935.000000	72.393729
934.000000	72.479698
933.000000	72.565044
932.000000	72.665548
931.000000	72.736151
930.000000	72.788376
929.000000	72.853891
928.000000	72.954084
927.000000	73.013369
926.000000	73.067255
925.000000	73.130486
924.000000	73.190186
923.000000	73.282489
922.000000	73.345719
921.000000	73.387146
920.000000	73.442071
919.000000	73.517242
918.000000	73.566456
917.000000	73.619615
916.000000	73.686272
915.000000	73.743066
914.000000	73.799755
913.000000	73.861117
912.000000	73.917184
911.000000	73.976054
910.000000	74.030770
909.000000	74.097531
908.000000	74.159620
907.000000	74.223889
906.000000	74.292726
905.000000	74.345885
904.000000	74.419395
903.000000	74.503080
902.000000	74.561742
901.000000	74.630475
900.000000	74.724335
899.000000	74.814353
898.000000	74.892223
897.000000	74.979854
896.000000	75.051702
895.000000	75.128430
894.000000	75.211284
893.000000	75.281367
892.000000	75.348024
891.000000	75.425064
890.000000	75.503350
889.000000	75.557547
888.000000	75.619428
887.000000	75.662309
886.000000	75.726370
885.000000	75.783994
884.000000	75.837465
883.000000	75.888652
882.000000	75.930494
881.000000	75.963823
880.000000	75.977424
879.000000	75.986249
878.000000	76.011479
877.000000	75.969948
876.000000	75.902461
875.000000	75.826356
874.000000	75.726993
873.000000	75.642270
872.000000	75.657533
871.000000	75.771431
870.000000	75.942123
869.000000	76.093606
868.000000	76.233981
867.000000	76.358573
866.000000	76.501647
865.000000	76.629354
864.000000	76.769521
863.000000	76.914775
862.000000	77.075291
861.000000	77.231759
860.000000	77.392171
859.000000	77.550715
858.000000	77.724833
857.000000	77.420100
856.000000	77.712700
855.000000	78.041700
854.000000	77.504500
853.000000	78.011300
852.000000	77.751300
851.000000	78.761500
850.000000	78.804100
849.000000	78.752500
848.000000	78.926500
847.000000	79.090100
846.000000	79.799800
845.000000	80.166900
844.000000	80.406800
843.000000	80.750400
842.000000	81.544400
841.000000	81.436200
840.000000	81.578500
839.000000	81.849400
838.000000	82.483600
837.000000	82.549000
836.000000	82.737500
835.000000	83.156400
834.000000	83.494200
833.000000	83.749500
832.000000	84.091800
831.000000	84.322500
830.000000	84.692300
829.000000	85.082800
828.000000	84.825500
827.000000	84.939600
826.000000	85.400500
825.000000	85.502700
824.000000	85.991000
823.000000	86.207100
822.000000	86.078300
821.000000	86.555200
820.000000	86.327700
819.000000	86.543100
818.000000	86.648700
817.000000	86.772000
816.000000	86.866600
815.000000	87.199100
814.000000	87.276600
813.000000	87.481800
812.000000	87.640800
811.000000	87.862500
810.000000	88.087700
809.000000	88.353900
808.000000	88.674300
807.000000	88.806000
806.000000	89.319100
805.000000	89.304200
804.000000	89.487300
803.000000	89.779100
802.000000	89.961000
801.000000	90.201000
800.000000	90.265400
799.000000	90.490800
798.000000	90.632000
797.000000	90.788400
796.000000	90.879000
795.000000	90.961100
794.000000	90.994100
793.000000	91.057500
792.000000	91.060200
791.000000	90.919700
790.000000	91.088400
789.000000	90.823600
788.000000	90.882300
787.000000	91.026500
786.000000	90.872400
785.000000	90.729700
784.000000	90.676500
783.000000	90.574800
782.000000	90.358800
781.000000	90.366000
780.000000	90.241100
779.000000	90.082900
778.000000	90.034200
777.000000	90.028300
776.000000	89.894200
775.000000	89.909000
774.000000	89.833900
773.000000	89.821200
772.000000	89.735400
771.000000	89.650500
770.000000	89.721700
769.000000	89.695500
768.000000	89.682600
767.000000	89.507000
766.000000	89.672700
765.000000	89.545100
764.000000	89.375900
763.000000	89.524700
762.000000	89.458100
761.000000	89.497300
760.000000	89.180400
759.000000	89.280800
758.000000	89.168600
757.000000	88.887300
756.000000	88.824400
755.000000	88.760900
754.000000	88.528700
753.000000	88.352600
752.000000	88.160400
751.000000	87.984200
750.000000	87.696300
749.000000	87.535900
748.000000	87.437500
747.000000	87.168600
746.000000	86.979100
745.000000	86.750400
744.000000	86.566600
743.000000	86.358700
742.000000	86.018600
741.000000	85.966000
740.000000	85.941500
739.000000	85.707000
738.000000	85.588800
737.000000	85.383900
736.000000	85.226600
735.000000	85.080900
734.000000	84.961000
733.000000	84.811100
732.000000	84.645400
731.000000	84.529000
730.000000	84.456600
729.000000	84.200400
728.000000	84.040000
727.000000	83.812300
726.000000	83.620700
725.000000	83.409700
724.000000	83.161500
723.000000	82.942800
722.000000	82.639500
721.000000	82.447900
720.000000	82.199700
719.000000	81.969900
718.000000	81.795900
717.000000	81.598900
716.000000	81.431800
715.000000	81.280500
714.000000	81.113200
713.000000	80.877100
712.000000	80.799100
711.000000	80.700600
710.000000	80.539400
709.000000	80.405700
708.000000	80.336800
707.000000	80.171800
706.000000	79.993300
705.000000	79.844400
704.000000	79.685800
703.000000	79.518000
702.000000	79.365100
701.000000	79.189500
700.000000	78.999000
699.000000	78.809400
698.000000	78.724000
697.000000	78.579700
696.000000	78.504400
695.000000	78.398000
694.000000	78.312600
693.000000	78.152000
692.000000	78.103600
691.000000	77.945300
690.000000	77.759400
689.000000	77.641200
688.000000	77.587100
687.000000	77.480000
686.000000	77.236500
685.000000	77.005200
684.000000	76.705500
683.000000	76.415300
682.000000	76.105300
681.000000	75.763200
680.000000	75.385400
679.000000	75.003600
678.000000	74.571600
677.000000	74.141800
676.000000	73.661000
675.000000	73.233800
674.000000	72.734900
673.000000	72.149500
672.000000	71.572300
671.000000	70.983600
670.000000	70.394300
669.000000	69.752300
668.000000	69.094600
667.000000	68.375100
666.000000	67.657100
665.000000	66.875800
664.000000	66.033300
663.000000	65.217400
662.000000	64.358100
661.000000	63.522100
660.000000	62.742800
659.000000	61.963500
658.000000	61.199100
657.000000	60.465300
656.000000	59.833700
655.000000	59.286300
654.000000	58.740200
653.000000	58.283400
652.000000	57.927500
651.000000	57.572800
650.000000	57.303400
649.000000	57.150700
648.000000	57.071700
647.000000	57.033000
646.000000	57.095200
645.000000	57.237200
644.000000	57.471300
643.000000	57.792900
642.000000	58.212600
641.000000	58.732900
640.000000	59.345500
639.000000	60.046900
638.000000	60.812600
637.000000	61.659700
636.000000	62.571400
635.000000	63.516100
634.000000	64.539800
633.000000	65.638900
632.000000	66.812300
631.000000	67.993500
630.000000	69.165000
629.000000	70.325500
628.000000	71.451400
627.000000	72.563700
626.000000	73.643800
625.000000	74.741700
624.000000	75.856300
623.000000	76.832200
622.000000	77.808400
621.000000	78.770700
620.000000	79.653500
619.000000	80.535000
618.000000	81.355600
617.000000	82.128500
616.000000	82.860000
615.000000	83.579700
614.000000	84.321700
613.000000	84.968200
612.000000	85.595300
611.000000	86.196700
610.000000	86.737500
609.000000	87.248800
608.000000	87.680400
607.000000	88.152700
606.000000	88.545200
605.000000	88.909600
604.000000	89.238600
603.000000	89.537600
602.000000	89.790300
601.000000	90.030300
600.000000	90.201300
599.000000	90.343200
598.000000	90.511000
597.000000	90.618600
596.000000	90.688600
595.000000	90.802700
594.000000	90.890800
593.000000	90.950700
592.000000	90.979600
591.000000	90.999400
590.000000	91.009400
589.000000	91.027300
588.000000	91.062700
587.000000	91.095900
586.000000	91.138500
585.000000	91.089600
584.000000	91.048500
583.000000	91.027800
582.000000	90.999300
581.000000	90.960500
580.000000	90.869200
579.000000	90.790200
578.000000	90.681600
577.000000	90.524400
576.000000	90.446000
575.000000	90.281600
574.000000	90.067300
573.000000	89.900100
572.000000	89.680300
571.000000	89.394700
570.000000	89.122100
569.000000	88.856500
568.000000	88.548200
567.000000	88.221200
566.000000	87.874300
565.000000	87.524500
564.000000	87.122000
563.000000	86.688400
562.000000	86.243800
561.000000	85.713400
560.000000	85.209100
559.000000	84.722000
558.000000	84.184200
557.000000	83.663300
556.000000	83.089800
555.000000	82.545400
554.000000	81.967500
553.000000	81.404200
552.000000	80.853900
551.000000	80.275000
550.000000	79.723800
549.000000	79.223200
548.000000	78.671900
547.000000	78.156000
546.000000	77.646200
545.000000	77.119100
544.000000	76.597800
543.000000	76.037700
542.000000	75.462000
541.000000	74.805800
540.000000	74.196900
539.000000	73.506900
538.000000	72.780300
537.000000	72.039600
536.000000	71.148000
535.000000	70.275700
534.000000	69.320500
533.000000	68.304700
532.000000	67.170500
531.000000	65.954700
530.000000	64.706700
529.000000	63.422600
528.000000	62.061800
527.000000	60.685600
526.000000	59.204900
525.000000	57.736800
524.000000	56.225900
523.000000	54.687500
522.000000	53.133800
521.000000	51.589300
520.000000	50.087300
519.000000	48.620700
518.000000	47.188100
517.000000	45.863000
516.000000	44.587700
515.000000	43.433400
514.000000	42.309000
513.000000	41.375300
512.000000	40.518700
511.000000	39.763900
510.000000	39.177000
509.000000	38.715000
508.000000	38.382500
507.000000	38.141500
506.000000	37.992100
505.000000	37.964800
504.000000	37.945700
503.000000	38.008300
502.000000	38.048600
501.000000	38.198900
500.000000	38.340900
499.000000	38.463900
498.000000	38.591600
497.000000	38.703400
496.000000	38.781600
495.000000	38.870700
494.000000	38.977200
493.000000	39.017200
492.000000	39.038300
491.000000	38.953300
490.000000	38.902800
489.000000	38.811600
488.000000	38.746600
487.000000	38.580800
486.000000	38.483900
485.000000	38.382400
484.000000	38.153800
483.000000	37.992800
482.000000	37.810900
481.000000	37.594600
480.000000	37.398300
479.000000	37.154000
478.000000	36.945300
477.000000	36.705300
476.000000	36.417200
475.000000	36.115100
474.000000	35.825400
473.000000	35.515100
472.000000	35.186100
471.000000	34.860700
470.000000	34.534000
469.000000	34.192500
468.000000	33.894900
467.000000	33.554100
466.000000	33.207800
465.000000	32.844500
464.000000	32.506600
463.000000	32.136600
462.000000	31.768700
461.000000	31.355900
460.000000	30.937100
459.000000	30.556400
458.000000	30.099700
457.000000	29.634000
456.000000	29.187600
455.000000	28.662300
454.000000	28.191100
453.000000	27.659400
452.000000	27.098800
451.000000	26.563400
450.000000	25.918100
449.000000	25.282800
448.000000	24.659900
447.000000	23.980600
446.000000	23.308100
445.000000	22.602600
444.000000	21.889800
443.000000	21.129100
442.000000	20.393000
441.000000	19.625800
440.000000	18.878600
439.000000	18.151300
438.000000	17.421800
437.000000	16.688900
436.000000	15.967700
435.000000	15.284900
434.000000	14.633700
433.000000	14.022100
432.000000	13.430800
431.000000	12.866800
430.000000	12.342400
429.000000	11.839900
428.000000	11.389700
427.000000	10.967500
426.000000	10.584200
425.000000	10.240500
424.000000	9.930900
423.000000	9.621200
422.000000	9.357100
421.000000	9.151900
420.000000	8.955300
419.000000	8.747200
418.000000	8.561500
417.000000	8.442500
416.000000	8.316000
415.000000	8.187000
414.000000	8.086500
413.000000	7.990000
412.000000	7.936500
411.000000	7.852200
410.000000	7.787200
409.000000	7.741800
408.000000	7.684200
407.000000	7.662900
406.000000	7.636600
405.000000	7.563300
404.000000	7.521100
403.000000	7.507000
402.000000	7.493400
401.000000	7.461400
400.000000	7.412000
399.000000	7.395600
398.000000	7.374300
397.000000	7.342100
396.000000	7.303400
395.000000	7.271200
394.000000	7.255800
393.000000	7.237200
392.000000	7.219300
391.000000	7.205500
390.000000	7.159900
389.000000	7.123600
388.000000	7.116600
387.000000	7.079200
386.000000	7.054900
385.000000	7.023100
384.000000	7.013200
383.000000	6.987800
382.000000	6.945900
381.000000	6.912700
380.000000	6.894200
379.000000	6.863600
378.000000	6.859800
377.000000	6.857300
376.000000	6.863100
375.000000	6.689800
374.000000	6.444500
373.000000	6.639500
372.000000	6.640500
371.000000	6.631400
370.000000	6.537700
369.000000	6.523200
368.000000	6.516800
367.000000	6.547400
366.000000	6.749200
365.000000	6.698800
364.000000	6.631400
363.000000	6.477200
362.000000	6.375700
361.000000	6.469400
360.000000	6.613900
359.000000	6.602200
358.000000	6.442700
357.000000	6.297800
356.000000	6.223700
355.000000	6.404400
354.000000	6.537500
353.000000	6.497000
352.000000	6.392900
351.000000	6.221900
350.000000	6.137200
349.000000	6.061600
348.000000	6.245700
347.000000	6.383000
346.000000	6.372700
345.000000	6.276100
344.000000	6.195900
343.000000	6.277700
342.000000	6.446700
341.000000	6.460100
340.000000	6.651900
339.000000	6.572700
338.000000	6.077900
337.000000	5.984900
336.000000	6.017200
335.000000	6.193800
334.000000	6.337900
333.000000	6.169600
332.000000	6.107300
331.000000	6.293000
330.000000	6.437800
329.000000	6.397000
328.000000	6.387400
327.000000	6.497900
326.000000	6.286200
325.000000	6.071300
324.000000	6.122800
323.000000	6.116000
322.000000	6.347400
321.000000	6.800000
320.000000	7.088400
319.000000	6.584200
318.000000	6.249100
317.000000	6.210900
316.000000	5.971700
315.000000	5.852000
314.000000	5.810600
313.000000	5.790700
312.000000	5.814500
311.000000	5.854600
310.000000	5.851700
309.000000	5.873100
308.000000	5.873500
307.000000	5.855800
306.000000	5.851800
305.000000	5.846500
304.000000	5.796200
303.000000	5.778400
302.000000	5.798400
301.000000	5.832400
300.000000	5.880100
299.000000	5.915800
298.000000	5.910600
297.000000	5.843300
296.000000	5.852700
295.000000	5.866500
294.000000	5.886600
293.000000	5.871400
292.000000	5.875500
291.000000	5.860800
290.000000	5.903500
289.000000	5.901500
288.000000	5.901000
287.000000	5.896300
286.000000	5.885200
285.000000	5.852400
284.000000	5.856800
283.000000	5.859000
282.000000	5.867500
281.000000	5.872100
280.000000	5.885900
279.000000	5.901600
278.000000	5.885500
277.000000	5.897700
276.000000	5.912400
275.000000	5.948300
274.000000	5.934200
273.000000	5.928500
272.000000	5.929200
271.000000	5.927300
270.000000	5.961600
269.000000	5.940500
268.000000	5.940000
267.000000	6.007000
266.000000	6.033700
265.000000	6.028100
264.000000	6.095600
263.000000	6.103700
262.000000	6.132700
261.000000	6.164500
260.000000	6.205400
259.000000	6.190600
258.000000	6.174000
257.000000	6.214100
256.000000	6.230600
255.000000	6.232000
254.000000	6.230400
253.000000	6.257200
252.000000	6.201300
251.000000	6.218800
250.000000	6.259400
