PE UV       SUBTECH     SPECTRUM    ASCII       PEDS        4.00        
   -1
CICIMAUCR0214-3.Sample.ASC
24/06/12
17:27:56.00
24/06/12
17:27:56.00
Vinicio Soto Monge
C. cupreomarginata. Sex M. Dorsal.
250,000000
1
Lambda 1050
1050L1511233
PerkinElmer UV WinLab 6.3.2.0749 / 2.02.05 Lambda 900 UV/VIS/NIR, Aug  7 2015 09:38:08

0
0
3350/servo 860,8/2
0
0
UV/VIS
1
1
1
DoubleDePol,CommonBeamDepol,RBeamAtt,SBeamAtt,60mm sphere, WB InGaAs Detector
0
0
0
0
Program
Program
3350/servo 860,8/2
3350/0,2 860,8/0,2
3350/0,2 860,8/0,2
0
15.00
 
 
 
0
 
860,8
319,2
860,8
Front
100
on
S:100 R:100
0
0
0
0
 
0
 
 
 
0
 
 
0
0
0
0
0
 
 
 
 
0
0


0
0
#HDR
-1
-1
#GR
nm
%R
1.0
0.0
2500,000000
-1,000000
2251
8
71,672100
4,948700
#DATA
2500.000000	14.085123
2499.000000	13.990482
2498.000000	13.979508
2497.000000	14.129926
2496.000000	13.731228
2495.000000	13.795060
2494.000000	13.664778
2493.000000	13.737772
2492.000000	13.698104
2491.000000	13.685217
2490.000000	13.688338
2489.000000	13.600342
2488.000000	13.490599
2487.000000	13.668000
2486.000000	13.585039
2485.000000	13.584535
2484.000000	13.477612
2483.000000	13.600543
2482.000000	13.547988
2481.000000	13.488082
2480.000000	13.450428
2479.000000	13.581716
2478.000000	13.485767
2477.000000	13.527852
2476.000000	13.654911
2475.000000	13.518488
2474.000000	13.554431
2473.000000	13.596114
2472.000000	13.577890
2471.000000	13.696191
2470.000000	13.665483
2469.000000	13.659140
2468.000000	13.654609
2467.000000	13.722469
2466.000000	13.739584
2465.000000	13.708474
2464.000000	13.826170
2463.000000	13.849529
2462.000000	13.850535
2461.000000	13.880840
2460.000000	13.972863
2459.000000	14.003672
2458.000000	14.072437
2457.000000	14.120865
2456.000000	14.220741
2455.000000	14.291419
2454.000000	14.411029
2453.000000	14.534464
2452.000000	14.563158
2451.000000	14.701394
2450.000000	14.800263
2449.000000	14.886647
2448.000000	15.031931
2447.000000	15.175603
2446.000000	15.280010
2445.000000	15.354614
2444.000000	15.453484
2443.000000	15.595948
2442.000000	15.674680
2441.000000	15.789961
2440.000000	15.899502
2439.000000	15.972295
2438.000000	16.088582
2437.000000	16.166710
2436.000000	16.297697
2435.000000	16.376732
2434.000000	16.497952
2433.000000	16.610514
2432.000000	16.693375
2431.000000	16.756603
2430.000000	16.857586
2429.000000	16.935413
2428.000000	17.057036
2427.000000	17.095395
2426.000000	17.189834
2425.000000	17.263030
2424.000000	17.327466
2423.000000	17.386465
2422.000000	17.427745
2421.000000	17.492785
2420.000000	17.545642
2419.000000	17.593970
2418.000000	17.651056
2417.000000	17.723849
2416.000000	17.792413
2415.000000	17.806105
2414.000000	17.814663
2413.000000	17.895108
2412.000000	17.945650
2411.000000	17.959745
2410.000000	18.006965
2409.000000	18.037672
2408.000000	18.070897
2407.000000	18.123352
2406.000000	18.152852
2405.000000	18.175707
2404.000000	18.190507
2403.000000	18.205307
2402.000000	18.234001
2401.000000	18.267427
2400.000000	18.293604
2399.000000	18.306794
2398.000000	18.327635
2397.000000	18.365592
2396.000000	18.381600
2395.000000	18.398514
2394.000000	18.416738
2393.000000	18.450265
2392.000000	18.498491
2391.000000	18.515607
2390.000000	18.536146
2389.000000	18.573096
2388.000000	18.568867
2387.000000	18.568465
2386.000000	18.589406
2385.000000	18.591420
2384.000000	18.589910
2383.000000	18.566954
2382.000000	18.542589
2381.000000	18.542791
2380.000000	18.546214
2379.000000	18.534736
2378.000000	18.514701
2377.000000	18.495269
2376.000000	18.491242
2375.000000	18.465568
2374.000000	18.417745
2373.000000	18.388748
2372.000000	18.379385
2371.000000	18.359551
2370.000000	18.349181
2369.000000	18.328742
2368.000000	18.282127
2367.000000	18.254037
2366.000000	18.232894
2365.000000	18.201582
2364.000000	18.151543
2363.000000	18.100800
2362.000000	18.056399
2361.000000	18.024785
2360.000000	17.980485
2359.000000	17.909203
2358.000000	17.858560
2357.000000	17.817986
2356.000000	17.785566
2355.000000	17.742978
2354.000000	17.695758
2353.000000	17.652063
2352.000000	17.606756
2351.000000	17.591956
2350.000000	17.578465
2349.000000	17.578565
2348.000000	17.582593
2347.000000	17.588533
2346.000000	17.613502
2345.000000	17.631725
2344.000000	17.643807
2343.000000	17.659312
2342.000000	17.699584
2341.000000	17.721936
2340.000000	17.732708
2339.000000	17.756671
2338.000000	17.758584
2337.000000	17.759590
2336.000000	17.772075
2335.000000	17.771169
2334.000000	17.766739
2333.000000	17.757979
2332.000000	17.732205
2331.000000	17.711062
2330.000000	17.702806
2329.000000	17.676830
2328.000000	17.629007
2327.000000	17.595882
2326.000000	17.560241
2325.000000	17.544032
2324.000000	17.488053
2323.000000	17.414455
2322.000000	17.363711
2321.000000	17.304511
2320.000000	17.235544
2319.000000	17.148253
2318.000000	17.058546
2317.000000	16.947696
2316.000000	16.847115
2315.000000	16.748548
2314.000000	16.663573
2313.000000	16.548897
2312.000000	16.435429
2311.000000	16.343910
2310.000000	16.267794
2309.000000	16.189364
2308.000000	16.113148
2307.000000	16.055558
2306.000000	15.994747
2305.000000	15.952561
2304.000000	15.945211
2303.000000	15.937258
2302.000000	15.944708
2301.000000	15.985887
2300.000000	16.014984
2299.000000	16.039751
2298.000000	16.093414
2297.000000	16.163791
2296.000000	16.228730
2295.000000	16.280984
2294.000000	16.345118
2293.000000	16.420125
2292.000000	16.485166
2291.000000	16.550508
2290.000000	16.572658
2289.000000	16.609507
2288.000000	16.644343
2287.000000	16.668104
2286.000000	16.668607
2285.000000	16.662264
2284.000000	16.673742
2283.000000	16.672030
2282.000000	16.661056
2281.000000	16.622998
2280.000000	16.579403
2279.000000	16.559871
2278.000000	16.530674
2277.000000	16.497952
2276.000000	16.450430
2275.000000	16.422944
2274.000000	16.383276
2273.000000	16.368677
2272.000000	16.350051
2271.000000	16.336761
2270.000000	16.366462
2269.000000	16.386699
2268.000000	16.404520
2267.000000	16.464929
2266.000000	16.544769
2265.000000	16.631355
2264.000000	16.718444
2263.000000	16.853760
2262.000000	17.010320
2261.000000	17.182787
2260.000000	17.367336
2259.000000	17.552690
2258.000000	17.762510
2257.000000	17.988238
2256.000000	18.215878
2255.000000	18.441103
2254.000000	18.675489
2253.000000	18.918131
2252.000000	19.164599
2251.000000	19.396065
2250.000000	19.584742
2249.000000	19.819833
2248.000000	20.011732
2247.000000	20.207557
2246.000000	20.342672
2245.000000	20.533362
2244.000000	20.676934
2243.000000	20.814968
2242.000000	20.951089
2241.000000	21.040293
2240.000000	21.152150
2239.000000	21.226453
2238.000000	21.309112
2237.000000	21.376770
2236.000000	21.423889
2235.000000	21.504938
2234.000000	21.548935
2233.000000	21.589309
2232.000000	21.614882
2231.000000	21.613774
2230.000000	21.630185
2229.000000	21.630689
2228.000000	21.620520
2227.000000	21.592631
2226.000000	21.583167
2225.000000	21.557695
2224.000000	21.520040
2223.000000	21.498796
2222.000000	21.445133
2221.000000	21.394389
2220.000000	21.334383
2219.000000	21.281425
2218.000000	21.227057
2217.000000	21.163930
2216.000000	21.119529
2215.000000	21.040897
2214.000000	20.967702
2213.000000	20.934074
2212.000000	20.872961
2211.000000	20.798255
2210.000000	20.762110
2209.000000	20.702708
2208.000000	20.683982
2207.000000	20.643508
2206.000000	20.615619
2205.000000	20.571118
2204.000000	20.542927
2203.000000	20.507084
2202.000000	20.476779
2201.000000	20.452616
2200.000000	20.416471
2199.000000	20.406604
2198.000000	20.383548
2197.000000	20.359284
2196.000000	20.315790
2195.000000	20.296056
2194.000000	20.305319
2193.000000	20.279847
2192.000000	20.253367
2191.000000	20.254173
2190.000000	20.248937
2189.000000	20.233432
2188.000000	20.208665
2187.000000	20.181884
2186.000000	20.188931
2185.000000	20.167486
2184.000000	20.157921
2183.000000	20.142014
2182.000000	20.115535
2181.000000	20.097815
2180.000000	20.087747
2179.000000	20.078685
2178.000000	20.068818
2177.000000	20.076672
2176.000000	20.072443
2175.000000	20.045259
2174.000000	20.050796
2173.000000	20.066100
2172.000000	20.077980
2171.000000	20.083921
2170.000000	20.089156
2169.000000	20.107782
2168.000000	20.147652
2167.000000	20.173628
2166.000000	20.190341
2165.000000	20.207457
2164.000000	20.260818
2163.000000	20.293439
2162.000000	20.332805
2161.000000	20.376400
2160.000000	20.427445
2159.000000	20.481411
2158.000000	20.537994
2157.000000	20.596792
2156.000000	20.663845
2155.000000	20.739860
2154.000000	20.811646
2153.000000	20.893298
2152.000000	20.973340
2151.000000	21.057912
2150.000000	21.146310
2149.000000	21.221721
2148.000000	21.307602
2147.000000	21.378079
2146.000000	21.455503
2145.000000	21.551352
2144.000000	21.623842
2143.000000	21.703884
2142.000000	21.766608
2141.000000	21.832857
2140.000000	21.897998
2139.000000	21.972905
2138.000000	22.033213
2137.000000	22.088789
2136.000000	22.153326
2135.000000	22.207190
2134.000000	22.274546
2133.000000	22.319047
2132.000000	22.369388
2131.000000	22.415198
2130.000000	22.460202
2129.000000	22.500274
2128.000000	22.518195
2127.000000	22.553735
2126.000000	22.574879
2125.000000	22.597431
2124.000000	22.621091
2123.000000	22.617970
2122.000000	22.635489
2121.000000	22.654820
2120.000000	22.656732
2119.000000	22.638610
2118.000000	22.647772
2117.000000	22.644852
2116.000000	22.633676
2115.000000	22.624615
2114.000000	22.611728
2113.000000	22.588370
2112.000000	22.574576
2111.000000	22.553937
2110.000000	22.518698
2109.000000	22.493830
2108.000000	22.476311
2107.000000	22.443389
2106.000000	22.423957
2105.000000	22.398283
2104.000000	22.373214
2103.000000	22.355292
2102.000000	22.327806
2101.000000	22.286326
2100.000000	22.268404
2099.000000	22.245852
2098.000000	22.225715
2097.000000	22.203062
2096.000000	22.174469
2095.000000	22.151010
2094.000000	22.142855
2093.000000	22.125135
2092.000000	22.095937
2091.000000	22.076103
2090.000000	22.065431
2089.000000	22.055363
2088.000000	22.043180
2087.000000	22.022440
2086.000000	21.994048
2085.000000	21.974314
2084.000000	21.954480
2083.000000	21.922765
2082.000000	21.881184
2081.000000	21.838998
2080.000000	21.800739
2079.000000	21.762279
2078.000000	21.702776
2077.000000	21.643475
2076.000000	21.587798
2075.000000	21.520140
2074.000000	21.461645
2073.000000	21.388751
2072.000000	21.305286
2071.000000	21.221318
2070.000000	21.130504
2069.000000	21.051167
2068.000000	20.961157
2067.000000	20.871551
2066.000000	20.794932
2065.000000	20.699285
2064.000000	20.609175
2063.000000	20.522891
2062.000000	20.443957
2061.000000	20.369453
2060.000000	20.291526
2059.000000	20.226888
2058.000000	20.179971
2057.000000	20.136174
2056.000000	20.100130
2055.000000	20.071940
2054.000000	20.051401
2053.000000	20.059757
2052.000000	20.080900
2051.000000	20.107983
2050.000000	20.156210
2049.000000	20.224875
2048.000000	20.305118
2047.000000	20.396335
2046.000000	20.496614
2045.000000	20.605651
2044.000000	20.715193
2043.000000	20.829567
2042.000000	20.968004
2041.000000	21.081270
2040.000000	21.191919
2039.000000	21.308911
2038.000000	21.419660
2037.000000	21.534739
2036.000000	21.620419
2035.000000	21.716872
2034.000000	21.817150
2033.000000	21.906656
2032.000000	21.987302
2031.000000	22.057376
2030.000000	22.142955
2029.000000	22.206787
2028.000000	22.266995
2027.000000	22.325994
2026.000000	22.380765
2025.000000	22.425165
2024.000000	22.467351
2023.000000	22.501381
2022.000000	22.542358
2021.000000	22.572764
2020.000000	22.607701
2019.000000	22.639113
2018.000000	22.668009
2017.000000	22.679889
2016.000000	22.686534
2015.000000	22.710295
2014.000000	22.715430
2013.000000	22.706066
2012.000000	22.703449
2011.000000	22.698213
2010.000000	22.683916
2009.000000	22.659753
2008.000000	22.638408
2007.000000	22.612634
2006.000000	22.587464
2005.000000	22.548399
2004.000000	22.500072
2003.000000	22.454464
2002.000000	22.408855
2001.000000	22.358716
2000.000000	22.302133
1999.000000	22.235381
1998.000000	22.165810
1997.000000	22.099260
1996.000000	22.041368
1995.000000	21.959111
1994.000000	21.893266
1993.000000	21.812217
1992.000000	21.715362
1991.000000	21.646999
1990.000000	21.544103
1989.000000	21.467081
1988.000000	21.378985
1987.000000	21.283136
1986.000000	21.182858
1985.000000	21.090936
1984.000000	20.990657
1983.000000	20.892996
1982.000000	20.794228
1981.000000	20.708548
1980.000000	20.594677
1979.000000	20.498224
1978.000000	20.392710
1977.000000	20.309850
1976.000000	20.219538
1975.000000	20.132449
1974.000000	20.029955
1973.000000	19.932597
1972.000000	19.868765
1971.000000	19.775634
1970.000000	19.674852
1969.000000	19.597025
1968.000000	19.510440
1967.000000	19.433318
1966.000000	19.325286
1965.000000	19.236687
1964.000000	19.164901
1963.000000	19.095330
1962.000000	19.015993
1961.000000	18.935750
1960.000000	18.866683
1959.000000	18.779694
1958.000000	18.677200
1957.000000	18.610147
1956.000000	18.538864
1955.000000	18.443620
1954.000000	18.371129
1953.000000	18.299847
1952.000000	18.223329
1951.000000	18.145804
1950.000000	18.084489
1949.000000	18.005958
1948.000000	17.977465
1947.000000	17.914237
1946.000000	17.857855
1945.000000	17.777008
1944.000000	17.752744
1943.000000	17.713881
1942.000000	17.689315
1941.000000	17.655687
1940.000000	17.631222
1939.000000	17.628201
1938.000000	17.613703
1937.000000	17.637363
1936.000000	17.612596
1935.000000	17.658003
1934.000000	17.654278
1933.000000	17.693543
1932.000000	17.721231
1931.000000	17.790399
1930.000000	17.845572
1929.000000	17.917862
1928.000000	18.021463
1927.000000	18.123151
1926.000000	18.230074
1925.000000	18.333374
1924.000000	18.434256
1923.000000	18.549335
1922.000000	18.680624
1921.000000	18.848963
1920.000000	19.037942
1919.000000	19.228230
1918.000000	19.384487
1917.000000	19.541147
1916.000000	19.736973
1915.000000	19.917192
1914.000000	20.116441
1913.000000	20.370359
1912.000000	20.652267
1911.000000	20.951794
1910.000000	21.178025
1909.000000	21.397208
1908.000000	21.615486
1907.000000	21.869706
1906.000000	22.200243
1905.000000	22.552729
1904.000000	22.953340
1903.000000	23.314786
1902.000000	23.645222
1901.000000	23.982706
1900.000000	24.332473
1899.000000	24.742951
1898.000000	25.187057
1897.000000	25.553940
1896.000000	25.946798
1895.000000	26.288108
1894.000000	26.631331
1893.000000	26.992576
1892.000000	27.418559
1891.000000	27.903642
1890.000000	28.358419
1889.000000	28.810680
1888.000000	29.190551
1887.000000	29.626602
1886.000000	30.019964
1885.000000	30.446853
1884.000000	30.900624
1883.000000	31.392553
1882.000000	31.843606
1881.000000	32.239384
1880.000000	32.687416
1879.000000	33.055709
1878.000000	33.419471
1877.000000	33.833170
1876.000000	34.193408
1875.000000	34.531094
1874.000000	34.853375
1873.000000	35.191664
1872.000000	35.528343
1871.000000	35.828474
1870.000000	36.107563
1869.000000	36.326746
1868.000000	36.544319
1867.000000	36.751420
1866.000000	36.897710
1865.000000	36.994868
1864.000000	37.101590
1863.000000	37.216065
1862.000000	37.318357
1861.000000	37.430315
1860.000000	37.545998
1859.000000	37.640034
1858.000000	37.723197
1857.000000	37.812300
1856.000000	37.868883
1855.000000	37.899993
1854.000000	37.932815
1853.000000	37.988694
1852.000000	37.981747
1851.000000	37.985774
1850.000000	38.014871
1849.000000	38.057056
1848.000000	38.065413
1847.000000	38.071353
1846.000000	38.083133
1845.000000	38.031584
1844.000000	37.994835
1843.000000	37.953757
1842.000000	37.945199
1841.000000	37.962516
1840.000000	37.971779
1839.000000	37.961006
1838.000000	37.924862
1837.000000	37.891435
1836.000000	37.864352
1835.000000	37.842504
1834.000000	37.796795
1833.000000	37.731251
1832.000000	37.675675
1831.000000	37.625435
1830.000000	37.598050
1829.000000	37.554153
1828.000000	37.506933
1827.000000	37.454277
1826.000000	37.416018
1825.000000	37.391653
1824.000000	37.335573
1823.000000	37.307282
1822.000000	37.302047
1821.000000	37.305268
1820.000000	37.323693
1819.000000	37.314229
1818.000000	37.274057
1817.000000	37.238718
1816.000000	37.237610
1815.000000	37.241034
1814.000000	37.220696
1813.000000	37.200459
1812.000000	37.191498
1811.000000	37.177302
1810.000000	37.160891
1809.000000	37.110651
1808.000000	37.065647
1807.000000	37.046215
1806.000000	37.017219
1805.000000	36.973825
1804.000000	36.928821
1803.000000	36.898415
1802.000000	36.873345
1801.000000	36.855424
1800.000000	36.823508
1799.000000	36.763401
1798.000000	36.714369
1797.000000	36.678325
1796.000000	36.645201
1795.000000	36.622045
1794.000000	36.583685
1793.000000	36.532337
1792.000000	36.495287
1791.000000	36.461156
1790.000000	36.431757
1789.000000	36.391182
1788.000000	36.346480
1787.000000	36.321410
1786.000000	36.287279
1785.000000	36.253752
1784.000000	36.222642
1783.000000	36.178442
1782.000000	36.124981
1781.000000	36.081587
1780.000000	36.046248
1779.000000	36.001545
1778.000000	35.946875
1777.000000	35.875089
1776.000000	35.812264
1775.000000	35.747023
1774.000000	35.660739
1773.000000	35.577777
1772.000000	35.506092
1771.000000	35.427661
1770.000000	35.356077
1769.000000	35.265967
1768.000000	35.190758
1767.000000	35.113636
1766.000000	35.049301
1765.000000	34.994530
1764.000000	34.952747
1763.000000	34.907038
1762.000000	34.903414
1761.000000	34.883277
1760.000000	34.895460
1759.000000	34.922140
1758.000000	34.963017
1757.000000	35.006813
1756.000000	35.053127
1755.000000	35.080411
1754.000000	35.107797
1753.000000	35.141324
1752.000000	35.147163
1751.000000	35.142934
1750.000000	35.136994
1749.000000	35.128336
1748.000000	35.097628
1747.000000	35.052321
1746.000000	34.979227
1745.000000	34.901702
1744.000000	34.825990
1743.000000	34.714233
1742.000000	34.581132
1741.000000	34.463235
1740.000000	34.316139
1739.000000	34.166124
1738.000000	34.014900
1737.000000	33.871228
1736.000000	33.751216
1735.000000	33.631707
1734.000000	33.565056
1733.000000	33.515621
1732.000000	33.469610
1731.000000	33.452394
1730.000000	33.473537
1729.000000	33.502734
1728.000000	33.516528
1727.000000	33.556901
1726.000000	33.610363
1725.000000	33.639862
1724.000000	33.680034
1723.000000	33.701077
1722.000000	33.769339
1721.000000	33.835285
1720.000000	33.901030
1719.000000	33.998389
1718.000000	34.111252
1717.000000	34.224821
1716.000000	34.366681
1715.000000	34.512971
1714.000000	34.643857
1713.000000	34.776656
1712.000000	34.912978
1711.000000	34.998255
1710.000000	35.075277
1709.000000	35.149277
1708.000000	35.228916
1707.000000	35.251570
1706.000000	35.269592
1705.000000	35.282177
1704.000000	35.263249
1703.000000	35.248650
1702.000000	35.213613
1701.000000	35.159648
1700.000000	35.078700
1699.000000	35.018895
1698.000000	34.912374
1697.000000	34.823271
1696.000000	34.760949
1695.000000	34.725409
1694.000000	34.684331
1693.000000	34.671746
1692.000000	34.692889
1691.000000	34.720475
1690.000000	34.782898
1689.000000	34.840588
1688.000000	34.888513
1687.000000	34.950130
1686.000000	35.025842
1685.000000	35.118268
1684.000000	35.209485
1683.000000	35.357487
1682.000000	35.556332
1681.000000	35.811761
1680.000000	36.133941
1679.000000	36.479983
1678.000000	36.868714
1677.000000	37.212541
1676.000000	37.559791
1675.000000	37.881468
1674.000000	38.166900
1673.000000	38.436222
1672.000000	38.695577
1671.000000	38.924527
1670.000000	39.122567
1669.000000	39.298458
1668.000000	39.493981
1667.000000	39.630404
1666.000000	39.765820
1665.000000	39.902546
1664.000000	40.023061
1663.000000	40.147403
1662.000000	40.243956
1661.000000	40.339503
1660.000000	40.437063
1659.000000	40.521031
1658.000000	40.583857
1657.000000	40.674067
1656.000000	40.708903
1655.000000	40.763674
1654.000000	40.779682
1653.000000	40.796496
1652.000000	40.808074
1651.000000	40.837272
1650.000000	40.832640
1649.000000	40.819250
1648.000000	40.809182
1647.000000	40.803946
1646.000000	40.790757
1645.000000	40.760754
1644.000000	40.723502
1643.000000	40.721689
1642.000000	40.691787
1641.000000	40.654032
1640.000000	40.631479
1639.000000	40.597348
1638.000000	40.578722
1637.000000	40.544692
1636.000000	40.513279
1635.000000	40.484484
1634.000000	40.438070
1633.000000	40.401623
1632.000000	40.354001
1631.000000	40.296713
1630.000000	40.252816
1629.000000	40.196535
1628.000000	40.151632
1627.000000	40.087900
1626.000000	40.011382
1625.000000	39.961948
1624.000000	39.912916
1623.000000	39.837103
1622.000000	39.796528
1621.000000	39.757565
1620.000000	39.688195
1619.000000	39.637250
1618.000000	39.593253
1617.000000	39.546436
1616.000000	39.477066
1615.000000	39.412328
1614.000000	39.394306
1613.000000	39.304599
1612.000000	39.261507
1611.000000	39.223853
1610.000000	39.160222
1609.000000	39.110989
1608.000000	39.043734
1607.000000	38.971444
1606.000000	38.904391
1605.000000	38.841666
1604.000000	38.770887
1603.000000	38.699101
1602.000000	38.650674
1601.000000	38.566001
1600.000000	38.500658
1599.000000	38.420214
1598.000000	38.362020
1597.000000	38.305941
1596.000000	38.227409
1595.000000	38.156831
1594.000000	38.100651
1593.000000	38.033396
1592.000000	37.998963
1591.000000	37.929292
1590.000000	37.875528
1589.000000	37.810689
1588.000000	37.757126
1587.000000	37.721485
1586.000000	37.678897
1585.000000	37.610534
1584.000000	37.556871
1583.000000	37.521834
1582.000000	37.479145
1581.000000	37.443907
1580.000000	37.409574
1579.000000	37.380477
1578.000000	37.338292
1577.000000	37.314632
1576.000000	37.281608
1575.000000	37.271037
1574.000000	37.251807
1573.000000	37.240832
1572.000000	37.231268
1571.000000	37.219488
1570.000000	37.217273
1569.000000	37.218984
1568.000000	37.209722
1567.000000	37.218783
1566.000000	37.238416
1565.000000	37.248182
1564.000000	37.253216
1563.000000	37.258754
1562.000000	37.256237
1561.000000	37.247175
1560.000000	37.242544
1559.000000	37.242645
1558.000000	37.218682
1557.000000	37.190995
1556.000000	37.173879
1555.000000	37.136828
1554.000000	37.094643
1553.000000	37.058096
1552.000000	37.013896
1551.000000	36.959327
1550.000000	36.919055
1549.000000	36.873446
1548.000000	36.822703
1547.000000	36.767529
1546.000000	36.717692
1545.000000	36.676916
1544.000000	36.636744
1543.000000	36.602110
1542.000000	36.557105
1541.000000	36.527807
1540.000000	36.505657
1539.000000	36.484413
1538.000000	36.454007
1537.000000	36.439509
1536.000000	36.412929
1535.000000	36.382926
1534.000000	36.362991
1533.000000	36.328156
1532.000000	36.284863
1531.000000	36.251738
1530.000000	36.220427
1529.000000	36.187000
1528.000000	36.142801
1527.000000	36.095380
1526.000000	36.058430
1525.000000	36.018762
1524.000000	35.965300
1523.000000	35.920698
1522.000000	35.893212
1521.000000	35.837535
1520.000000	35.772394
1519.000000	35.724168
1518.000000	35.682687
1517.000000	35.632749
1516.000000	35.575260
1515.000000	35.525624
1514.000000	35.474478
1513.000000	35.417694
1512.000000	35.356580
1511.000000	35.294661
1510.000000	35.245932
1509.000000	35.188442
1508.000000	35.115549
1507.000000	35.050710
1506.000000	34.988892
1505.000000	34.934323
1504.000000	34.887607
1503.000000	34.834849
1502.000000	34.771823
1501.000000	34.705071
1500.000000	34.648388
1499.000000	34.608719
1498.000000	34.574790
1497.000000	34.538141
1496.000000	34.515992
1495.000000	34.482263
1494.000000	34.459409
1493.000000	34.444810
1492.000000	34.425680
1491.000000	34.413196
1490.000000	34.404537
1489.000000	34.396483
1488.000000	34.393462
1487.000000	34.387724
1486.000000	34.379468
1485.000000	34.361446
1484.000000	34.340403
1483.000000	34.337584
1482.000000	34.348760
1481.000000	34.355707
1480.000000	34.363359
1479.000000	34.371312
1478.000000	34.373829
1477.000000	34.377555
1476.000000	34.400007
1475.000000	34.430714
1474.000000	34.453569
1473.000000	34.502601
1472.000000	34.550626
1471.000000	34.578917
1470.000000	34.601571
1469.000000	34.628453
1468.000000	34.657147
1467.000000	34.709602
1466.000000	34.756922
1465.000000	34.796591
1464.000000	34.842300
1463.000000	34.897171
1462.000000	34.950633
1461.000000	34.997148
1460.000000	35.044770
1459.000000	35.110213
1458.000000	35.174246
1457.000000	35.243918
1456.000000	35.298387
1455.000000	35.377824
1454.000000	35.462799
1453.000000	35.531665
1452.000000	35.619057
1451.000000	35.703931
1450.000000	35.776522
1449.000000	35.845489
1448.000000	35.905697
1447.000000	35.999532
1446.000000	36.111187
1445.000000	36.198075
1444.000000	36.287581
1443.000000	36.371247
1442.000000	36.449577
1441.000000	36.552876
1440.000000	36.629092
1439.000000	36.733297
1438.000000	36.838006
1437.000000	36.946641
1436.000000	37.044101
1435.000000	37.149716
1434.000000	37.274057
1433.000000	37.392559
1432.000000	37.521834
1431.000000	37.642148
1430.000000	37.757428
1429.000000	37.889422
1428.000000	38.024737
1427.000000	38.169215
1426.000000	38.327990
1425.000000	38.525728
1424.000000	38.691550
1423.000000	38.906606
1422.000000	39.092866
1421.000000	39.266038
1420.000000	39.484215
1419.000000	39.715379
1418.000000	39.938690
1417.000000	40.147101
1416.000000	40.343228
1415.000000	40.598556
1414.000000	40.883988
1413.000000	41.167104
1412.000000	41.396255
1411.000000	41.612518
1410.000000	41.906810
1409.000000	42.255671
1408.000000	42.570602
1407.000000	42.915839
1406.000000	43.216977
1405.000000	43.540265
1404.000000	43.886206
1403.000000	44.203251
1402.000000	44.526942
1401.000000	44.855264
1400.000000	45.268259
1399.000000	45.574028
1398.000000	45.830464
1397.000000	46.027799
1396.000000	46.303767
1395.000000	46.669341
1394.000000	46.938865
1393.000000	47.144154
1392.000000	47.350853
1391.000000	47.622592
1390.000000	47.882451
1389.000000	48.115126
1388.000000	48.441434
1387.000000	48.799960
1386.000000	49.105226
1385.000000	49.447845
1384.000000	49.801438
1383.000000	50.217554
1382.000000	50.590981
1381.000000	50.906919
1380.000000	51.182082
1379.000000	51.318807
1378.000000	51.499631
1377.000000	51.591150
1376.000000	51.758885
1375.000000	51.851814
1374.000000	52.015824
1373.000000	52.162013
1372.000000	52.401534
1371.000000	52.610549
1370.000000	52.849466
1369.000000	53.052137
1368.000000	53.220980
1367.000000	53.459092
1366.000000	53.604878
1365.000000	53.733247
1364.000000	53.907828
1363.000000	54.048178
1362.000000	54.176144
1361.000000	54.320018
1360.000000	54.423820
1359.000000	54.411839
1358.000000	54.489867
1357.000000	54.578165
1356.000000	54.674114
1355.000000	54.822821
1354.000000	55.011196
1353.000000	55.271759
1352.000000	55.466376
1351.000000	55.779092
1350.000000	56.111140
1349.000000	56.393148
1348.000000	56.645657
1347.000000	56.922128
1346.000000	57.139298
1345.000000	57.368348
1344.000000	57.644819
1343.000000	57.829469
1342.000000	58.062546
1341.000000	58.254747
1340.000000	58.470708
1339.000000	58.681032
1338.000000	58.874340
1337.000000	59.068655
1336.000000	59.240518
1335.000000	59.421644
1334.000000	59.580016
1333.000000	59.757517
1332.000000	59.924245
1331.000000	60.089866
1330.000000	60.243707
1329.000000	60.374694
1328.000000	60.522494
1327.000000	60.657911
1326.000000	60.788494
1325.000000	60.908406
1324.000000	61.034358
1323.000000	61.146215
1322.000000	61.243171
1321.000000	61.356941
1320.000000	61.455005
1319.000000	61.550451
1318.000000	61.646904
1317.000000	61.721509
1316.000000	61.812625
1315.000000	61.918341
1314.000000	61.999389
1313.000000	62.072987
1312.000000	62.145075
1311.000000	62.200450
1310.000000	62.274551
1309.000000	62.342109
1308.000000	62.395772
1307.000000	62.465141
1306.000000	62.517395
1305.000000	62.564715
1304.000000	62.599853
1303.000000	62.622305
1302.000000	62.667108
1301.000000	62.686439
1300.000000	62.703454
1299.000000	62.723792
1298.000000	62.758829
1297.000000	62.772320
1296.000000	62.792356
1295.000000	62.803431
1294.000000	62.818633
1293.000000	62.815311
1292.000000	62.822057
1291.000000	62.811989
1290.000000	62.816519
1289.000000	62.794772
1288.000000	62.791953
1287.000000	62.770407
1286.000000	62.743727
1285.000000	62.722583
1284.000000	62.701742
1283.000000	62.659960
1282.000000	62.631165
1281.000000	62.601464
1280.000000	62.567131
1279.000000	62.544780
1278.000000	62.506823
1277.000000	62.473095
1276.000000	62.448126
1275.000000	62.440978
1274.000000	62.412686
1273.000000	62.392449
1272.000000	62.373622
1271.000000	62.366775
1270.000000	62.369091
1269.000000	62.350767
1268.000000	62.330933
1267.000000	62.320663
1266.000000	62.308682
1265.000000	62.293177
1264.000000	62.281498
1263.000000	62.270121
1262.000000	62.260859
1261.000000	62.243541
1260.000000	62.233171
1259.000000	62.222600
1258.000000	62.211021
1257.000000	62.188167
1256.000000	62.169641
1255.000000	62.151015
1254.000000	62.131080
1253.000000	62.112253
1252.000000	62.075202
1251.000000	62.016807
1250.000000	61.983985
1249.000000	61.943209
1248.000000	61.895285
1247.000000	61.844642
1246.000000	61.778293
1245.000000	61.709326
1244.000000	61.655663
1243.000000	61.591529
1242.000000	61.519340
1241.000000	61.446648
1240.000000	61.372346
1239.000000	61.301466
1238.000000	61.217196
1237.000000	61.137053
1236.000000	61.074127
1235.000000	61.001234
1234.000000	60.920488
1233.000000	60.840043
1232.000000	60.756276
1231.000000	60.658515
1230.000000	60.571929
1229.000000	60.478496
1228.000000	60.380936
1227.000000	60.304519
1226.000000	60.213000
1225.000000	60.113828
1224.000000	60.019893
1223.000000	59.931696
1222.000000	59.844908
1221.000000	59.740703
1220.000000	59.649486
1219.000000	59.571861
1218.000000	59.477723
1217.000000	59.392648
1216.000000	59.321567
1215.000000	59.243740
1214.000000	59.145374
1213.000000	59.072280
1212.000000	59.010159
1211.000000	58.925083
1210.000000	58.844236
1209.000000	58.771041
1208.000000	58.704390
1207.000000	58.637437
1206.000000	58.573202
1205.000000	58.513095
1204.000000	58.468594
1203.000000	58.434262
1202.000000	58.389257
1201.000000	58.342239
1200.000000	58.300053
1199.000000	58.254646
1198.000000	58.215280
1197.000000	58.134735
1196.000000	58.040396
1195.000000	57.934681
1194.000000	57.797150
1193.000000	57.635758
1192.000000	57.448893
1191.000000	57.232025
1190.000000	56.996330
1189.000000	56.775637
1188.000000	56.567931
1187.000000	56.403921
1186.000000	56.309281
1185.000000	56.258739
1184.000000	56.285218
1183.000000	56.360729
1182.000000	56.534303
1181.000000	56.769092
1180.000000	57.015661
1179.000000	57.270284
1178.000000	57.530143
1177.000000	57.775805
1176.000000	57.991566
1175.000000	58.192928
1174.000000	58.394795
1173.000000	58.567564
1172.000000	58.749898
1171.000000	58.949952
1170.000000	59.137420
1169.000000	59.333950
1168.000000	59.540347
1167.000000	59.748657
1166.000000	59.964719
1165.000000	60.169002
1164.000000	60.404395
1163.000000	60.656602
1162.000000	60.888874
1161.000000	61.111279
1160.000000	61.351404
1159.000000	61.576930
1158.000000	61.811316
1157.000000	62.013887
1156.000000	62.217264
1155.000000	62.389832
1154.000000	62.563910
1153.000000	62.709797
1152.000000	62.827594
1151.000000	62.917905
1150.000000	62.988382
1149.000000	63.058154
1148.000000	63.126718
1147.000000	63.170414
1146.000000	63.266565
1145.000000	63.378724
1144.000000	63.504072
1143.000000	63.663451
1142.000000	63.845382
1141.000000	64.034663
1140.000000	64.261096
1139.000000	64.488434
1138.000000	64.718692
1137.000000	64.961032
1136.000000	65.225623
1135.000000	65.506021
1134.000000	65.774437
1133.000000	66.030671
1132.000000	66.224684
1131.000000	66.417086
1130.000000	66.621570
1129.000000	66.813872
1128.000000	66.967411
1127.000000	67.106955
1126.000000	67.201998
1125.000000	67.296337
1124.000000	67.386749
1123.000000	67.456521
1122.000000	67.498404
1121.000000	67.543308
1120.000000	67.586299
1119.000000	67.613181
1118.000000	67.620330
1117.000000	67.635532
1116.000000	67.654561
1115.000000	67.655971
1114.000000	67.643889
1113.000000	67.649326
1112.000000	67.643084
1111.000000	67.637445
1110.000000	67.643788
1109.000000	67.647916
1108.000000	67.634123
1107.000000	67.618920
1106.000000	67.615900
1105.000000	67.613987
1104.000000	67.609758
1103.000000	67.612879
1102.000000	67.599287
1101.000000	67.582574
1100.000000	67.564451
1099.000000	67.579151
1098.000000	67.558008
1097.000000	67.556498
1096.000000	67.535657
1095.000000	67.507164
1094.000000	67.501123
1093.000000	67.493572
1092.000000	67.445748
1091.000000	67.445144
1090.000000	67.404469
1089.000000	67.395407
1088.000000	67.367015
1087.000000	67.346577
1086.000000	67.304693
1085.000000	67.284759
1084.000000	67.255762
1083.000000	67.218410
1082.000000	67.188205
1081.000000	67.162632
1080.000000	67.142496
1079.000000	67.100713
1078.000000	67.066683
1077.000000	67.021779
1076.000000	67.016845
1075.000000	66.972445
1074.000000	66.942039
1073.000000	66.900659
1072.000000	66.881228
1071.000000	66.837633
1070.000000	66.807328
1069.000000	66.794340
1068.000000	66.742589
1067.000000	66.711378
1066.000000	66.679764
1065.000000	66.636371
1064.000000	66.613919
1063.000000	66.597709
1062.000000	66.553208
1061.000000	66.526729
1060.000000	66.483738
1059.000000	66.414469
1058.000000	66.414670
1057.000000	66.376109
1056.000000	66.342582
1055.000000	66.276636
1054.000000	66.254587
1053.000000	66.224483
1052.000000	66.178673
1051.000000	66.141018
1050.000000	66.132460
1049.000000	66.106686
1048.000000	66.071347
1047.000000	66.039934
1046.000000	66.028960
1045.000000	66.002179
1044.000000	65.966537
1043.000000	65.944287
1042.000000	65.919418
1041.000000	65.892335
1040.000000	65.849042
1039.000000	65.822362
1038.000000	65.825483
1037.000000	65.786922
1036.000000	65.768900
1035.000000	65.723593
1034.000000	65.703658
1033.000000	65.680200
1032.000000	65.654022
1031.000000	65.612844
1030.000000	65.579417
1029.000000	65.556966
1028.000000	65.508236
1027.000000	65.501389
1026.000000	65.486388
1025.000000	65.439772
1024.000000	65.402621
1023.000000	65.383693
1022.000000	65.352985
1021.000000	65.341809
1020.000000	65.321069
1019.000000	65.286435
1018.000000	65.286435
1017.000000	65.264687
1016.000000	65.239416
1015.000000	65.233376
1014.000000	65.242840
1013.000000	65.227133
1012.000000	65.248276
1011.000000	65.246263
1010.000000	65.266802
1009.000000	65.296906
1008.000000	65.331137
1007.000000	65.365167
1006.000000	65.395674
1005.000000	65.428194
1004.000000	65.454069
1003.000000	65.507934
1002.000000	65.540756
1001.000000	65.579518
1000.000000	65.620999
999.000000	65.669829
998.000000	65.718257
997.000000	65.768195
996.000000	65.800715
995.000000	65.840182
994.000000	65.897671
993.000000	65.955865
992.000000	66.003789
991.000000	66.062889
990.000000	66.111821
989.000000	66.164880
988.000000	66.235457
987.000000	66.290731
986.000000	66.359497
985.000000	66.430074
984.000000	66.487563
983.000000	66.566397
982.000000	66.655097
981.000000	66.710371
980.000000	66.773096
979.000000	66.873173
978.000000	66.960967
977.000000	67.035673
976.000000	67.102525
975.000000	67.177936
974.000000	67.256467
973.000000	67.331072
972.000000	67.416551
971.000000	67.485014
970.000000	67.553981
969.000000	67.634727
968.000000	67.709131
967.000000	67.773063
966.000000	67.850085
965.000000	67.921065
964.000000	67.992045
963.000000	68.072389
962.000000	68.153538
961.000000	68.254119
960.000000	68.339698
959.000000	68.412491
958.000000	68.503708
957.000000	68.596234
956.000000	68.667215
955.000000	68.750579
954.000000	68.842904
953.000000	68.934624
952.000000	69.023325
951.000000	69.093701
950.000000	69.187335
949.000000	69.271806
948.000000	69.333625
947.000000	69.415881
946.000000	69.502266
945.000000	69.573750
944.000000	69.629024
943.000000	69.703327
942.000000	69.781858
941.000000	69.842267
940.000000	69.912542
939.000000	69.987449
938.000000	70.051181
937.000000	70.129813
936.000000	70.212170
935.000000	70.292514
934.000000	70.366011
933.000000	70.416151
932.000000	70.474848
931.000000	70.536163
930.000000	70.606539
929.000000	70.659598
928.000000	70.705710
927.000000	70.766421
926.000000	70.839315
925.000000	70.889857
924.000000	70.912409
923.000000	70.947648
922.000000	70.989531
921.000000	71.054269
920.000000	71.089810
919.000000	71.113772
918.000000	71.123840
917.000000	71.141057
916.000000	71.168945
915.000000	71.189283
914.000000	71.206399
913.000000	71.208513
912.000000	71.206902
911.000000	71.220494
910.000000	71.223615
909.000000	71.216366
908.000000	71.230462
907.000000	71.237207
906.000000	71.240933
905.000000	71.243953
904.000000	71.238718
903.000000	71.245866
902.000000	71.234288
901.000000	71.232878
900.000000	71.216266
899.000000	71.193713
898.000000	71.178611
897.000000	71.179013
896.000000	71.165925
895.000000	71.154246
894.000000	71.205895
893.000000	71.266002
892.000000	71.311812
891.000000	71.351078
890.000000	71.370509
889.000000	71.427092
888.000000	71.446927
887.000000	71.463136
886.000000	71.481662
885.000000	71.488206
884.000000	71.497771
883.000000	71.507134
882.000000	71.515994
881.000000	71.542775
880.000000	71.554958
879.000000	71.547205
878.000000	71.554857
877.000000	71.554354
876.000000	71.539956
875.000000	71.539453
874.000000	71.533613
873.000000	71.509047
872.000000	71.498375
871.000000	71.503510
870.000000	71.486696
869.000000	71.449242
868.000000	71.462129
867.000000	71.414809
866.000000	71.377356
865.000000	71.348662
864.000000	71.283420
863.000000	71.238415
862.000000	71.221501
861.000000	71.127666
860.000000	71.085883
859.000000	71.038462
858.000000	71.004633
857.000000	70.127100
856.000000	71.214700
855.000000	71.672100
854.000000	71.140300
853.000000	70.928000
852.000000	70.400800
851.000000	70.828300
850.000000	70.375700
849.000000	70.351800
848.000000	70.408100
847.000000	70.790200
846.000000	70.367900
845.000000	70.020600
844.000000	69.890500
843.000000	69.722300
842.000000	69.384600
841.000000	69.976400
840.000000	69.119100
839.000000	69.563900
838.000000	69.305100
837.000000	69.706400
836.000000	69.245400
835.000000	69.536300
834.000000	68.982500
833.000000	69.446400
832.000000	68.873000
831.000000	68.914800
830.000000	68.861100
829.000000	69.000200
828.000000	68.415000
827.000000	68.155400
826.000000	68.238100
825.000000	68.018700
824.000000	68.131800
823.000000	67.908500
822.000000	67.944600
821.000000	67.554800
820.000000	67.908400
819.000000	67.439400
818.000000	67.113700
817.000000	67.166100
816.000000	67.154700
815.000000	67.410700
814.000000	67.104700
813.000000	67.184900
812.000000	67.128400
811.000000	66.822500
810.000000	66.765300
809.000000	66.423300
808.000000	66.324700
807.000000	66.072900
806.000000	66.713300
805.000000	66.431800
804.000000	66.163300
803.000000	66.016900
802.000000	65.838400
801.000000	65.928800
800.000000	65.791100
799.000000	65.706600
798.000000	65.665700
797.000000	65.376000
796.000000	65.550700
795.000000	65.426600
794.000000	65.283600
793.000000	65.400200
792.000000	65.309000
791.000000	65.705100
790.000000	65.665700
789.000000	65.071500
788.000000	65.067600
787.000000	65.181400
786.000000	64.715600
785.000000	64.809400
784.000000	64.867500
783.000000	64.540700
782.000000	64.615200
781.000000	64.328200
780.000000	64.323900
779.000000	64.044600
778.000000	63.968800
777.000000	63.829000
776.000000	63.727500
775.000000	63.402800
774.000000	63.618500
773.000000	63.577600
772.000000	63.449900
771.000000	63.422200
770.000000	63.264500
769.000000	63.122800
768.000000	62.872000
767.000000	62.842200
766.000000	62.841600
765.000000	62.758000
764.000000	62.623600
763.000000	62.576600
762.000000	62.500500
761.000000	62.340400
760.000000	62.269700
759.000000	62.225800
758.000000	62.134200
757.000000	62.103600
756.000000	62.059600
755.000000	62.059900
754.000000	62.084000
753.000000	61.948100
752.000000	61.822400
751.000000	61.986100
750.000000	61.897200
749.000000	61.836300
748.000000	61.844300
747.000000	61.692500
746.000000	61.773400
745.000000	61.580500
744.000000	61.581200
743.000000	61.322200
742.000000	61.233600
741.000000	61.171800
740.000000	61.013900
739.000000	61.027500
738.000000	60.758900
737.000000	60.765800
736.000000	60.659400
735.000000	60.522900
734.000000	60.429300
733.000000	60.300400
732.000000	60.091700
731.000000	60.057600
730.000000	59.972400
729.000000	59.906400
728.000000	59.828800
727.000000	59.657000
726.000000	59.603800
725.000000	59.386800
724.000000	59.379100
723.000000	59.136200
722.000000	58.929800
721.000000	58.654100
720.000000	58.511000
719.000000	58.506000
718.000000	58.323500
717.000000	58.079900
716.000000	57.905100
715.000000	57.665300
714.000000	57.614600
713.000000	57.397300
712.000000	57.202900
711.000000	57.188100
710.000000	57.114500
709.000000	56.919200
708.000000	56.837000
707.000000	56.733600
706.000000	56.662500
705.000000	56.552300
704.000000	56.473600
703.000000	56.424400
702.000000	56.274000
701.000000	56.222500
700.000000	56.037000
699.000000	55.925700
698.000000	55.872800
697.000000	55.756200
696.000000	55.753600
695.000000	55.705100
694.000000	55.666900
693.000000	55.562000
692.000000	55.530200
691.000000	55.491800
690.000000	55.471300
689.000000	55.538500
688.000000	55.566500
687.000000	55.548100
686.000000	55.624300
685.000000	55.727000
684.000000	55.726500
683.000000	55.799900
682.000000	55.830000
681.000000	55.809400
680.000000	55.839400
679.000000	55.883900
678.000000	55.773600
677.000000	55.559700
676.000000	55.453500
675.000000	55.451000
674.000000	55.263300
673.000000	55.031100
672.000000	54.761600
671.000000	54.459200
670.000000	54.255200
669.000000	54.035100
668.000000	53.709600
667.000000	53.464500
666.000000	53.177800
665.000000	52.826500
664.000000	52.501800
663.000000	52.207100
662.000000	51.924900
661.000000	51.640700
660.000000	51.386100
659.000000	51.085600
658.000000	50.863700
657.000000	50.687900
656.000000	50.528700
655.000000	50.319200
654.000000	50.116900
653.000000	49.938500
652.000000	49.780400
651.000000	49.743400
650.000000	49.677800
649.000000	49.617900
648.000000	49.630200
647.000000	49.733700
646.000000	49.922900
645.000000	50.156100
644.000000	50.440000
643.000000	50.841900
642.000000	51.312800
641.000000	51.804500
640.000000	52.343800
639.000000	52.973800
638.000000	53.657300
637.000000	54.284700
636.000000	54.852500
635.000000	55.531300
634.000000	56.269800
633.000000	56.889100
632.000000	57.455400
631.000000	58.042400
630.000000	58.512000
629.000000	59.033500
628.000000	59.628500
627.000000	60.057900
626.000000	60.420400
625.000000	60.815300
624.000000	61.204000
623.000000	61.521900
622.000000	61.774300
621.000000	62.060200
620.000000	62.313400
619.000000	62.544500
618.000000	62.756800
617.000000	62.950800
616.000000	63.153300
615.000000	63.331300
614.000000	63.478500
613.000000	63.621300
612.000000	63.714900
611.000000	63.774300
610.000000	63.839600
609.000000	63.866900
608.000000	63.853600
607.000000	63.900700
606.000000	63.917000
605.000000	63.972700
604.000000	64.039400
603.000000	64.128500
602.000000	64.200800
601.000000	64.302400
600.000000	64.409800
599.000000	64.539800
598.000000	64.681000
597.000000	64.780300
596.000000	65.002400
595.000000	65.184300
594.000000	65.327900
593.000000	65.493200
592.000000	65.653500
591.000000	65.727400
590.000000	65.826600
589.000000	65.921800
588.000000	65.925900
587.000000	65.941300
586.000000	65.891200
585.000000	65.878600
584.000000	65.803900
583.000000	65.668500
582.000000	65.553300
581.000000	65.388400
580.000000	65.223500
579.000000	65.102500
578.000000	65.024600
577.000000	64.924400
576.000000	64.847600
575.000000	64.829100
574.000000	64.827300
573.000000	64.885400
572.000000	64.879700
571.000000	64.915900
570.000000	64.942000
569.000000	64.877600
568.000000	64.863800
567.000000	64.731500
566.000000	64.584700
565.000000	64.437900
564.000000	64.223100
563.000000	63.916300
562.000000	63.559900
561.000000	63.175900
560.000000	62.691500
559.000000	62.212900
558.000000	61.632000
557.000000	61.023100
556.000000	60.320600
555.000000	59.603900
554.000000	58.810800
553.000000	58.036900
552.000000	57.208700
551.000000	56.363900
550.000000	55.484900
549.000000	54.640800
548.000000	53.796600
547.000000	52.906100
546.000000	52.047300
545.000000	51.249600
544.000000	50.356800
543.000000	49.600700
542.000000	48.844100
541.000000	48.092300
540.000000	47.388600
539.000000	46.704600
538.000000	46.082700
537.000000	45.433000
536.000000	44.828400
535.000000	44.198100
534.000000	43.648000
533.000000	43.081900
532.000000	42.539100
531.000000	42.039900
530.000000	41.522700
529.000000	40.972800
528.000000	40.443800
527.000000	39.916400
526.000000	39.363700
525.000000	38.863100
524.000000	38.325000
523.000000	37.868300
522.000000	37.370600
521.000000	36.907200
520.000000	36.435400
519.000000	35.983800
518.000000	35.559400
517.000000	35.110100
516.000000	34.700200
515.000000	34.305800
514.000000	33.902900
513.000000	33.521300
512.000000	33.166800
511.000000	32.780400
510.000000	32.461600
509.000000	32.115500
508.000000	31.738300
507.000000	31.406000
506.000000	31.053300
505.000000	30.685800
504.000000	30.318200
503.000000	30.004500
502.000000	29.602400
501.000000	29.238300
500.000000	28.888100
499.000000	28.510700
498.000000	28.156300
497.000000	27.863000
496.000000	27.452900
495.000000	27.057600
494.000000	26.739900
493.000000	26.348800
492.000000	25.974900
491.000000	25.618700
490.000000	25.227900
489.000000	24.859400
488.000000	24.510700
487.000000	24.149300
486.000000	23.848600
485.000000	23.488200
484.000000	23.227700
483.000000	22.932300
482.000000	22.599300
481.000000	22.364800
480.000000	22.134700
479.000000	21.933200
478.000000	21.716800
477.000000	21.555100
476.000000	21.434200
475.000000	21.307900
474.000000	21.238700
473.000000	21.133800
472.000000	21.116000
471.000000	21.054400
470.000000	21.011900
469.000000	21.047200
468.000000	20.980800
467.000000	20.932800
466.000000	20.934900
465.000000	20.947100
464.000000	20.887500
463.000000	20.865900
462.000000	20.889000
461.000000	20.838400
460.000000	20.783300
459.000000	20.744900
458.000000	20.636000
457.000000	20.594400
456.000000	20.565300
455.000000	20.512000
454.000000	20.341500
453.000000	20.276500
452.000000	20.212200
451.000000	20.097000
450.000000	19.943200
449.000000	19.754100
448.000000	19.633500
447.000000	19.366300
446.000000	19.238500
445.000000	19.082100
444.000000	18.885100
443.000000	18.623300
442.000000	18.345200
441.000000	18.167100
440.000000	17.918400
439.000000	17.663300
438.000000	17.412700
437.000000	17.136000
436.000000	16.897000
435.000000	16.591900
434.000000	16.303700
433.000000	16.020400
432.000000	15.726400
431.000000	15.362700
430.000000	15.056500
429.000000	14.759500
428.000000	14.438300
427.000000	14.137600
426.000000	13.831100
425.000000	13.507900
424.000000	13.245400
423.000000	12.908800
422.000000	12.607500
421.000000	12.278400
420.000000	11.951800
419.000000	11.648600
418.000000	11.399900
417.000000	11.083500
416.000000	10.776700
415.000000	10.508100
414.000000	10.206600
413.000000	9.955600
412.000000	9.713900
411.000000	9.465400
410.000000	9.246100
409.000000	9.010700
408.000000	8.783400
407.000000	8.619000
406.000000	8.361900
405.000000	8.192400
404.000000	8.031800
403.000000	7.950000
402.000000	7.800200
401.000000	7.648800
400.000000	7.526200
399.000000	7.419800
398.000000	7.307900
397.000000	7.185700
396.000000	7.113800
395.000000	7.063700
394.000000	6.921900
393.000000	6.849600
392.000000	6.822200
391.000000	6.726500
390.000000	6.719700
389.000000	6.663800
388.000000	6.633900
387.000000	6.582800
386.000000	6.537500
385.000000	6.487800
384.000000	6.483700
383.000000	6.452200
382.000000	6.357300
381.000000	6.323600
380.000000	6.312300
379.000000	6.307700
378.000000	6.297100
377.000000	6.269400
376.000000	6.562200
375.000000	6.248900
374.000000	4.948700
373.000000	5.024500
372.000000	5.218200
371.000000	5.916900
370.000000	6.373400
369.000000	6.422800
368.000000	6.479600
367.000000	6.530000
366.000000	6.481900
365.000000	6.438600
364.000000	6.373800
363.000000	6.368700
362.000000	6.544200
361.000000	6.651300
360.000000	6.724300
359.000000	6.852900
358.000000	6.575600
357.000000	6.431300
356.000000	6.290200
355.000000	5.909600
354.000000	6.406700
353.000000	6.693800
352.000000	6.637100
351.000000	6.662000
350.000000	6.376300
349.000000	6.133500
348.000000	5.913200
347.000000	5.465400
346.000000	5.447600
345.000000	5.771300
344.000000	5.854700
343.000000	6.439600
342.000000	6.215800
341.000000	5.753800
340.000000	5.699800
339.000000	5.801600
338.000000	5.909100
337.000000	6.638800
336.000000	6.689800
335.000000	6.664300
334.000000	7.133100
333.000000	7.134400
332.000000	7.622600
331.000000	8.199700
330.000000	8.342800
329.000000	7.883700
328.000000	7.696000
327.000000	8.610600
326.000000	8.145700
325.000000	7.397400
324.000000	7.008400
323.000000	7.074800
322.000000	6.822200
321.000000	8.503100
320.000000	10.666200
319.000000	13.138800
318.000000	17.470400
317.000000	20.020200
316.000000	12.140600
315.000000	5.603800
314.000000	5.593100
313.000000	5.655100
312.000000	5.714700
311.000000	5.817700
310.000000	5.841300
309.000000	5.916500
308.000000	5.943300
307.000000	5.979000
306.000000	6.087500
305.000000	6.070700
304.000000	5.979800
303.000000	5.939600
302.000000	5.880300
301.000000	5.701500
300.000000	5.713000
299.000000	5.795800
298.000000	5.808200
297.000000	5.876500
296.000000	5.918300
295.000000	6.071400
294.000000	6.021600
293.000000	5.931700
292.000000	5.980500
291.000000	5.921600
290.000000	5.868100
289.000000	5.893900
288.000000	5.840700
287.000000	5.785900
286.000000	5.900800
285.000000	5.961500
284.000000	5.908200
283.000000	5.869400
282.000000	6.027800
281.000000	6.018800
280.000000	5.978500
279.000000	5.963700
278.000000	5.905500
277.000000	5.911600
276.000000	5.970900
275.000000	5.965100
274.000000	6.059100
273.000000	6.172000
272.000000	6.299800
271.000000	6.242300
270.000000	6.185800
269.000000	6.169100
268.000000	6.230600
267.000000	6.181600
266.000000	6.144000
265.000000	6.176400
264.000000	6.331400
263.000000	6.407200
262.000000	6.496600
261.000000	6.529800
260.000000	6.496500
259.000000	6.307300
258.000000	6.233400
257.000000	6.262800
256.000000	6.385400
255.000000	6.388100
254.000000	6.497000
253.000000	6.644500
252.000000	6.533100
251.000000	6.554400
250.000000	6.469800
