PE UV       SUBTECH     SPECTRUM    ASCII       PEDS        4.00        
   -1
CICIMAUCR0201-3.Sample.ASC
24/05/31
16:20:21.00
24/05/31
16:20:21.00
Vinicio Soto Monge
C. cupreomarginata. Sex F. Dorsal
250,000000
1
Lambda 1050
1050L1511233
PerkinElmer UV WinLab 6.3.2.0749 / 2.02.05 Lambda 900 UV/VIS/NIR, Aug  7 2015 09:38:08

0
0
3350/servo 860,8/2
0
0
UV/VIS
1
1
1
DoubleDePol,CommonBeamDepol,RBeamAtt,SBeamAtt,60mm sphere, WB InGaAs Detector
0
0
0
0
Program
Program
3350/servo 860,8/2
3350/0,2 860,8/0,2
3350/0,2 860,8/0,2
0
15.00
 
 
 
0
 
860,8
319,2
860,8
Front
100
on
S:100 R:100
0
0
0
0
 
0
 
 
 
0
 
 
0
0
0
0
0
 
 
 
 
0
0


0
0
#HDR
-1
-1
#GR
nm
%R
1.0
0.0
2500,000000
-1,000000
2251
8
69,649100
5,880400
#DATA
2482.000000	10.061225
2481.000000	9.979150
2480.000000	9.962381
2479.000000	9.948945
2478.000000	10.005918
2477.000000	10.052580
2476.000000	9.964464
2475.000000	9.976442
2474.000000	10.030187
2473.000000	10.037477
2472.000000	10.055600
2471.000000	10.053309
2470.000000	10.048518
2469.000000	10.066641
2468.000000	10.098721
2467.000000	10.122052
2466.000000	10.146216
2465.000000	10.179858
2464.000000	10.234332
2463.000000	10.262454
2462.000000	10.268703
2461.000000	10.321926
2460.000000	10.367963
2459.000000	10.457849
2458.000000	10.505344
2457.000000	10.580337
2456.000000	10.648142
2455.000000	10.737195
2454.000000	10.801355
2453.000000	10.872285
2452.000000	10.951131
2451.000000	11.063931
2450.000000	11.165587
2449.000000	11.259744
2448.000000	11.355046
2447.000000	11.452744
2446.000000	11.558774
2445.000000	11.641891
2444.000000	11.761565
2443.000000	11.851764
2442.000000	11.947692
2441.000000	12.029141
2440.000000	12.133505
2439.000000	12.234640
2438.000000	12.327235
2437.000000	12.391290
2436.000000	12.448576
2435.000000	12.573146
2434.000000	12.652825
2433.000000	12.734171
2432.000000	12.795727
2431.000000	12.868219
2430.000000	12.951752
2429.000000	13.031639
2428.000000	13.093299
2427.000000	13.166625
2426.000000	13.246200
2425.000000	13.296507
2424.000000	13.342544
2423.000000	13.395455
2422.000000	13.445033
2421.000000	13.493049
2420.000000	13.545960
2419.000000	13.584185
2418.000000	13.637721
2417.000000	13.695735
2416.000000	13.738752
2415.000000	13.761458
2414.000000	13.797808
2413.000000	13.842074
2412.000000	13.896339
2411.000000	13.920295
2410.000000	13.967894
2409.000000	14.016743
2408.000000	14.042678
2407.000000	14.069446
2406.000000	14.114128
2405.000000	14.149021
2404.000000	14.170477
2403.000000	14.212139
2402.000000	14.251406
2401.000000	14.291610
2400.000000	14.336709
2399.000000	14.373893
2398.000000	14.421492
2397.000000	14.474924
2396.000000	14.510024
2395.000000	14.538771
2394.000000	14.563143
2393.000000	14.584495
2392.000000	14.615742
2391.000000	14.646572
2390.000000	14.679381
2389.000000	14.699483
2388.000000	14.704587
2387.000000	14.735729
2386.000000	14.751769
2385.000000	14.752082
2384.000000	14.763330
2383.000000	14.767184
2382.000000	14.763122
2381.000000	14.757602
2380.000000	14.750415
2379.000000	14.746666
2378.000000	14.737812
2377.000000	14.723022
2376.000000	14.701670
2375.000000	14.680006
2374.000000	14.664695
2373.000000	14.639281
2372.000000	14.615846
2371.000000	14.585849
2370.000000	14.550228
2369.000000	14.496588
2368.000000	14.447947
2367.000000	14.410035
2366.000000	14.359832
2365.000000	14.297442
2364.000000	14.234012
2363.000000	14.174851
2362.000000	14.111733
2361.000000	14.040595
2360.000000	13.965811
2359.000000	13.891652
2358.000000	13.828430
2357.000000	13.769686
2356.000000	13.711463
2355.000000	13.654281
2354.000000	13.608765
2353.000000	13.580539
2352.000000	13.556271
2351.000000	13.537419
2350.000000	13.548459
2349.000000	13.566270
2348.000000	13.568770
2347.000000	13.594288
2346.000000	13.640741
2345.000000	13.673967
2344.000000	13.727190
2343.000000	13.778018
2342.000000	13.816556
2341.000000	13.852698
2340.000000	13.888319
2339.000000	13.925815
2338.000000	13.950083
2337.000000	13.974456
2336.000000	13.988621
2335.000000	13.989246
2334.000000	13.970706
2333.000000	13.949875
2332.000000	13.944771
2331.000000	13.907171
2330.000000	13.845824
2329.000000	13.785622
2328.000000	13.737189
2327.000000	13.673550
2326.000000	13.588768
2325.000000	13.506276
2324.000000	13.420765
2323.000000	13.325566
2322.000000	13.210266
2321.000000	13.097465
2320.000000	12.967583
2319.000000	12.826869
2318.000000	12.675531
2317.000000	12.535025
2316.000000	12.385770
2315.000000	12.228287
2314.000000	12.087052
2313.000000	11.945817
2312.000000	11.797499
2311.000000	11.652306
2310.000000	11.535964
2309.000000	11.444099
2308.000000	11.374211
2307.000000	11.306405
2306.000000	11.267451
2305.000000	11.252661
2304.000000	11.244641
2303.000000	11.279846
2302.000000	11.340360
2301.000000	11.410457
2300.000000	11.493365
2299.000000	11.579501
2298.000000	11.677408
2297.000000	11.790104
2296.000000	11.912174
2295.000000	12.033203
2294.000000	12.130276
2293.000000	12.218496
2292.000000	12.316507
2291.000000	12.390874
2290.000000	12.437848
2289.000000	12.466907
2288.000000	12.509403
2287.000000	12.520964
2286.000000	12.514819
2285.000000	12.502320
2284.000000	12.488572
2283.000000	12.457742
2282.000000	12.413684
2281.000000	12.348482
2280.000000	12.274011
2279.000000	12.236828
2278.000000	12.175272
2277.000000	12.118611
2276.000000	12.074449
2275.000000	12.025704
2274.000000	12.003311
2273.000000	11.984771
2272.000000	11.950191
2271.000000	11.957795
2270.000000	11.982167
2269.000000	12.022163
2268.000000	12.070803
2267.000000	12.152461
2266.000000	12.276407
2265.000000	12.409622
2264.000000	12.567522
2263.000000	12.747607
2262.000000	12.971541
2261.000000	13.218494
2260.000000	13.444720
2259.000000	13.728232
2258.000000	14.022367
2257.000000	14.314732
2256.000000	14.622616
2255.000000	14.956539
2254.000000	15.242655
2253.000000	15.558871
2252.000000	15.867484
2251.000000	16.159537
2250.000000	16.430445
2249.000000	16.686252
2248.000000	16.931330
2247.000000	17.191927
2246.000000	17.390448
2245.000000	17.611778
2244.000000	17.781031
2243.000000	17.966741
2242.000000	18.107247
2241.000000	18.260772
2240.000000	18.373885
2239.000000	18.510329
2238.000000	18.625942
2237.000000	18.718744
2236.000000	18.815088
2235.000000	18.886123
2234.000000	18.965802
2233.000000	19.018504
2232.000000	19.081206
2231.000000	19.114952
2230.000000	19.146407
2229.000000	19.172967
2228.000000	19.187445
2227.000000	19.172863
2226.000000	19.171717
2225.000000	19.177550
2224.000000	19.150157
2223.000000	19.118806
2222.000000	19.100579
2221.000000	19.064124
2220.000000	19.036315
2219.000000	18.979238
2218.000000	18.942679
2217.000000	18.882477
2216.000000	18.847897
2215.000000	18.814672
2214.000000	18.749783
2213.000000	18.691143
2212.000000	18.655834
2211.000000	18.612297
2210.000000	18.568760
2209.000000	18.516370
2208.000000	18.462522
2207.000000	18.417735
2206.000000	18.398466
2205.000000	18.368573
2204.000000	18.343263
2203.000000	18.313162
2202.000000	18.274208
2201.000000	18.251711
2200.000000	18.238170
2199.000000	18.183280
2198.000000	18.179427
2197.000000	18.153700
2196.000000	18.154638
2195.000000	18.120370
2194.000000	18.089020
2193.000000	18.090478
2192.000000	18.061835
2191.000000	18.051628
2190.000000	18.041420
2189.000000	18.032046
2188.000000	17.981010
2187.000000	17.973928
2186.000000	17.951847
2185.000000	17.930911
2184.000000	17.893415
2183.000000	17.881229
2182.000000	17.857898
2181.000000	17.838838
2180.000000	17.829985
2179.000000	17.808737
2178.000000	17.780615
2177.000000	17.763950
2176.000000	17.777698
2175.000000	17.788426
2174.000000	17.764471
2173.000000	17.777178
2172.000000	17.780302
2171.000000	17.775928
2170.000000	17.816028
2169.000000	17.829151
2168.000000	17.838317
2167.000000	17.863210
2166.000000	17.902060
2165.000000	17.936848
2164.000000	17.953826
2163.000000	17.981739
2162.000000	18.025693
2161.000000	18.083603
2160.000000	18.122558
2159.000000	18.181406
2158.000000	18.227338
2157.000000	18.271917
2156.000000	18.347221
2155.000000	18.395445
2154.000000	18.462001
2153.000000	18.532827
2152.000000	18.594174
2151.000000	18.658334
2150.000000	18.723119
2149.000000	18.801340
2148.000000	18.867479
2147.000000	18.927785
2146.000000	18.989757
2145.000000	19.052042
2144.000000	19.109640
2143.000000	19.169322
2142.000000	19.220775
2141.000000	19.288996
2140.000000	19.342637
2139.000000	19.385028
2138.000000	19.428044
2137.000000	19.474185
2136.000000	19.517514
2135.000000	19.546157
2134.000000	19.585528
2133.000000	19.618753
2132.000000	19.635626
2131.000000	19.655833
2130.000000	19.687496
2129.000000	19.709369
2128.000000	19.728533
2127.000000	19.730616
2126.000000	19.742073
2125.000000	19.748739
2124.000000	19.746656
2123.000000	19.723430
2122.000000	19.711452
2121.000000	19.698120
2120.000000	19.680830
2119.000000	19.649062
2118.000000	19.628544
2117.000000	19.622086
2116.000000	19.579070
2115.000000	19.542615
2114.000000	19.506994
2113.000000	19.473560
2112.000000	19.453979
2111.000000	19.417629
2110.000000	19.377320
2109.000000	19.338575
2108.000000	19.303474
2107.000000	19.262749
2106.000000	19.219941
2105.000000	19.185987
2104.000000	19.152657
2103.000000	19.113494
2102.000000	19.060062
2101.000000	19.027878
2100.000000	18.992778
2099.000000	18.944658
2098.000000	18.905495
2097.000000	18.876853
2096.000000	18.834253
2095.000000	18.802486
2094.000000	18.777905
2093.000000	18.742804
2092.000000	18.708433
2091.000000	18.698642
2090.000000	18.683644
2089.000000	18.646669
2088.000000	18.605319
2087.000000	18.575947
2086.000000	18.542409
2085.000000	18.515224
2084.000000	18.486061
2083.000000	18.441066
2082.000000	18.403882
2081.000000	18.354825
2080.000000	18.305767
2079.000000	18.269521
2078.000000	18.210257
2077.000000	18.149534
2076.000000	18.082562
2075.000000	18.013715
2074.000000	17.961950
2073.000000	17.894353
2072.000000	17.813007
2071.000000	17.743223
2070.000000	17.669793
2069.000000	17.599801
2068.000000	17.528975
2067.000000	17.437422
2066.000000	17.343474
2065.000000	17.269315
2064.000000	17.220362
2063.000000	17.142141
2062.000000	17.048401
2061.000000	16.976013
2060.000000	16.910603
2059.000000	16.851859
2058.000000	16.796761
2057.000000	16.734788
2056.000000	16.710103
2055.000000	16.691459
2054.000000	16.677503
2053.000000	16.674065
2052.000000	16.686043
2051.000000	16.727289
2050.000000	16.767493
2049.000000	16.799365
2048.000000	16.873940
2047.000000	16.954765
2046.000000	17.042360
2045.000000	17.138079
2044.000000	17.246192
2043.000000	17.356181
2042.000000	17.468564
2041.000000	17.580428
2040.000000	17.711768
2039.000000	17.824152
2038.000000	17.933307
2037.000000	18.051732
2036.000000	18.156617
2035.000000	18.258377
2034.000000	18.348992
2033.000000	18.424505
2032.000000	18.496268
2031.000000	18.582926
2030.000000	18.658542
2029.000000	18.698226
2028.000000	18.763531
2027.000000	18.806235
2026.000000	18.862792
2025.000000	18.905287
2024.000000	18.947054
2023.000000	18.986008
2022.000000	19.025379
2021.000000	19.049439
2020.000000	19.057042
2019.000000	19.081831
2018.000000	19.108911
2017.000000	19.109640
2016.000000	19.112973
2015.000000	19.109640
2014.000000	19.113494
2013.000000	19.117452
2012.000000	19.107974
2011.000000	19.095475
2010.000000	19.057667
2009.000000	19.033190
2008.000000	19.008297
2007.000000	18.974342
2006.000000	18.922994
2005.000000	18.887581
2004.000000	18.847585
2003.000000	18.805298
2002.000000	18.747283
2001.000000	18.682290
2000.000000	18.610735
1999.000000	18.532931
1998.000000	18.467625
1997.000000	18.393466
1996.000000	18.318683
1995.000000	18.226401
1994.000000	18.146409
1993.000000	18.056315
1992.000000	17.967991
1991.000000	17.874251
1990.000000	17.759992
1989.000000	17.661669
1988.000000	17.575845
1987.000000	17.460232
1986.000000	17.358368
1985.000000	17.263482
1984.000000	17.153702
1983.000000	17.041214
1982.000000	16.927372
1981.000000	16.806656
1980.000000	16.699688
1979.000000	16.603135
1978.000000	16.502000
1977.000000	16.391491
1976.000000	16.279732
1975.000000	16.185888
1974.000000	16.049132
1973.000000	15.963412
1972.000000	15.849465
1971.000000	15.760621
1970.000000	15.650216
1969.000000	15.547310
1968.000000	15.461902
1967.000000	15.358997
1966.000000	15.265569
1965.000000	15.184744
1964.000000	15.086213
1963.000000	15.005076
1962.000000	14.905607
1961.000000	14.804993
1960.000000	14.721981
1959.000000	14.648759
1958.000000	14.571372
1957.000000	14.481485
1956.000000	14.388370
1955.000000	14.296505
1954.000000	14.215889
1953.000000	14.137668
1952.000000	14.040282
1951.000000	14.010181
1950.000000	13.898526
1949.000000	13.828117
1948.000000	13.799683
1947.000000	13.726045
1946.000000	13.685216
1945.000000	13.601579
1944.000000	13.553980
1943.000000	13.509609
1942.000000	13.485237
1941.000000	13.490653
1940.000000	13.455448
1939.000000	13.462427
1938.000000	13.449616
1937.000000	13.424618
1936.000000	13.434617
1935.000000	13.431805
1934.000000	13.458677
1933.000000	13.500444
1932.000000	13.538877
1931.000000	13.606995
1930.000000	13.669384
1929.000000	13.759583
1928.000000	13.850302
1927.000000	13.928627
1926.000000	14.027992
1925.000000	14.141730
1924.000000	14.259426
1923.000000	14.397640
1922.000000	14.531793
1921.000000	14.685630
1920.000000	14.847280
1919.000000	15.030490
1918.000000	15.180161
1917.000000	15.359517
1916.000000	15.533145
1915.000000	15.758329
1914.000000	15.960599
1913.000000	16.222759
1912.000000	16.473982
1911.000000	16.691564
1910.000000	16.926539
1909.000000	17.165263
1908.000000	17.419716
1907.000000	17.701248
1906.000000	18.010486
1905.000000	18.370136
1904.000000	18.700517
1903.000000	19.052772
1902.000000	19.369925
1901.000000	19.722492
1900.000000	20.089224
1899.000000	20.465643
1898.000000	20.856955
1897.000000	21.213897
1896.000000	21.573754
1895.000000	21.942778
1894.000000	22.338256
1893.000000	22.744151
1892.000000	23.157128
1891.000000	23.670719
1890.000000	24.135774
1889.000000	24.593955
1888.000000	25.048282
1887.000000	25.529168
1886.000000	26.012971
1885.000000	26.556455
1884.000000	27.120979
1883.000000	27.709979
1882.000000	28.314498
1881.000000	28.866002
1880.000000	29.445420
1879.000000	29.946721
1878.000000	30.476873
1877.000000	31.023586
1876.000000	31.501347
1875.000000	31.971610
1874.000000	32.434582
1873.000000	32.897241
1872.000000	33.325841
1871.000000	33.688928
1870.000000	34.021601
1869.000000	34.311466
1868.000000	34.603519
1867.000000	34.779021
1866.000000	34.949524
1865.000000	35.095341
1864.000000	35.225536
1863.000000	35.350314
1862.000000	35.487175
1861.000000	35.622785
1860.000000	35.761937
1859.000000	35.887862
1858.000000	36.010140
1857.000000	36.095235
1856.000000	36.157104
1855.000000	36.176477
1854.000000	36.219493
1853.000000	36.255218
1852.000000	36.245219
1851.000000	36.246053
1850.000000	36.250636
1849.000000	36.270008
1848.000000	36.289590
1847.000000	36.315733
1846.000000	36.260114
1845.000000	36.180643
1844.000000	36.150438
1843.000000	36.120649
1842.000000	36.131065
1841.000000	36.138460
1840.000000	36.131065
1839.000000	36.115337
1838.000000	36.095235
1837.000000	36.065447
1836.000000	36.016910
1835.000000	35.952438
1834.000000	35.873384
1833.000000	35.795475
1832.000000	35.728503
1831.000000	35.682050
1830.000000	35.629868
1829.000000	35.583935
1828.000000	35.525608
1827.000000	35.447387
1826.000000	35.369583
1825.000000	35.316360
1824.000000	35.274072
1823.000000	35.232514
1822.000000	35.220328
1821.000000	35.244596
1820.000000	35.237930
1819.000000	35.188248
1818.000000	35.137212
1817.000000	35.108986
1816.000000	35.097216
1815.000000	35.087738
1814.000000	35.067011
1813.000000	35.045555
1812.000000	35.045138
1811.000000	35.023162
1810.000000	34.984936
1809.000000	34.934629
1808.000000	34.905882
1807.000000	34.863074
1806.000000	34.826203
1805.000000	34.767459
1804.000000	34.709236
1803.000000	34.671636
1802.000000	34.636536
1801.000000	34.599352
1800.000000	34.551545
1799.000000	34.492593
1798.000000	34.429995
1797.000000	34.377709
1796.000000	34.335005
1795.000000	34.298238
1794.000000	34.249806
1793.000000	34.200020
1792.000000	34.156483
1791.000000	34.101488
1790.000000	34.054098
1789.000000	34.001707
1788.000000	33.943484
1787.000000	33.899218
1786.000000	33.850786
1785.000000	33.802458
1784.000000	33.744339
1783.000000	33.662056
1782.000000	33.597896
1781.000000	33.538423
1780.000000	33.468222
1779.000000	33.407187
1778.000000	33.321467
1777.000000	33.223457
1776.000000	33.140028
1775.000000	33.043371
1774.000000	32.935779
1773.000000	32.834227
1772.000000	32.736946
1771.000000	32.616438
1770.000000	32.496242
1769.000000	32.374692
1768.000000	32.250747
1767.000000	32.136488
1766.000000	32.020251
1765.000000	31.931302
1764.000000	31.865371
1763.000000	31.832146
1762.000000	31.802774
1761.000000	31.806732
1760.000000	31.861101
1759.000000	31.915991
1758.000000	31.987650
1757.000000	32.050873
1756.000000	32.127114
1755.000000	32.195441
1754.000000	32.250747
1753.000000	32.291576
1752.000000	32.303658
1751.000000	32.324593
1750.000000	32.325427
1749.000000	32.311574
1748.000000	32.275745
1747.000000	32.208043
1746.000000	32.132531
1745.000000	32.031604
1744.000000	31.914845
1743.000000	31.791108
1742.000000	31.623834
1741.000000	31.441458
1740.000000	31.213565
1739.000000	30.992964
1738.000000	30.761634
1737.000000	30.549365
1736.000000	30.341575
1735.000000	30.194194
1734.000000	30.067958
1733.000000	29.975884
1732.000000	29.933389
1731.000000	29.928806
1730.000000	29.964740
1729.000000	30.030149
1728.000000	30.129097
1727.000000	30.223879
1726.000000	30.316786
1725.000000	30.398444
1724.000000	30.485518
1723.000000	30.554885
1722.000000	30.615712
1721.000000	30.704244
1720.000000	30.767779
1719.000000	30.879226
1718.000000	30.979111
1717.000000	31.080350
1716.000000	31.207733
1715.000000	31.345947
1714.000000	31.464268
1713.000000	31.590817
1712.000000	31.715491
1711.000000	31.813606
1710.000000	31.899639
1709.000000	31.982859
1708.000000	31.998586
1707.000000	32.028479
1706.000000	32.046394
1705.000000	32.035145
1704.000000	32.010773
1703.000000	31.967340
1702.000000	31.910992
1701.000000	31.837874
1700.000000	31.719970
1699.000000	31.593629
1698.000000	31.449374
1697.000000	31.326470
1696.000000	31.247312
1695.000000	31.176486
1694.000000	31.172320
1693.000000	31.219711
1692.000000	31.278767
1691.000000	31.419169
1690.000000	31.560404
1689.000000	31.692785
1688.000000	31.783713
1687.000000	31.877037
1686.000000	31.933697
1685.000000	32.035874
1684.000000	32.115657
1683.000000	32.278557
1682.000000	32.512178
1681.000000	32.852038
1680.000000	33.277930
1679.000000	33.743506
1678.000000	34.244182
1677.000000	34.772563
1676.000000	35.258137
1675.000000	35.712984
1674.000000	36.075862
1673.000000	36.375726
1672.000000	36.686735
1671.000000	36.952332
1670.000000	37.195119
1669.000000	37.393952
1668.000000	37.583307
1667.000000	37.706627
1666.000000	37.871401
1665.000000	38.020031
1664.000000	38.122833
1663.000000	38.231467
1662.000000	38.350934
1661.000000	38.424884
1660.000000	38.494981
1659.000000	38.574764
1658.000000	38.644236
1657.000000	38.699438
1656.000000	38.728706
1655.000000	38.750266
1654.000000	38.777659
1653.000000	38.804844
1652.000000	38.793074
1651.000000	38.794220
1650.000000	38.774639
1649.000000	38.767035
1648.000000	38.742767
1647.000000	38.710791
1646.000000	38.677462
1645.000000	38.644965
1644.000000	38.615489
1643.000000	38.562682
1642.000000	38.526644
1641.000000	38.497376
1640.000000	38.424363
1639.000000	38.386763
1638.000000	38.350309
1637.000000	38.309271
1636.000000	38.228759
1635.000000	38.188451
1634.000000	38.133769
1633.000000	38.065651
1632.000000	37.992951
1631.000000	37.915876
1630.000000	37.853486
1629.000000	37.762246
1628.000000	37.678297
1627.000000	37.627781
1626.000000	37.539770
1625.000000	37.456341
1624.000000	37.383120
1623.000000	37.300837
1622.000000	37.233031
1621.000000	37.162414
1620.000000	37.095963
1619.000000	37.006910
1618.000000	36.955040
1617.000000	36.880048
1616.000000	36.798911
1615.000000	36.738292
1614.000000	36.670383
1613.000000	36.590912
1612.000000	36.509983
1611.000000	36.435928
1610.000000	36.356041
1609.000000	36.290527
1608.000000	36.213035
1607.000000	36.146376
1606.000000	36.064926
1605.000000	35.984726
1604.000000	35.911401
1603.000000	35.819848
1602.000000	35.747564
1601.000000	35.651220
1600.000000	35.568208
1599.000000	35.476134
1598.000000	35.399476
1597.000000	35.331566
1596.000000	35.262407
1595.000000	35.191685
1594.000000	35.110861
1593.000000	35.034827
1592.000000	34.962960
1591.000000	34.897342
1590.000000	34.842035
1589.000000	34.785895
1588.000000	34.726318
1587.000000	34.668512
1586.000000	34.610184
1585.000000	34.547899
1584.000000	34.479261
1583.000000	34.419892
1582.000000	34.375626
1581.000000	34.310945
1580.000000	34.266471
1579.000000	34.229079
1578.000000	34.208040
1577.000000	34.165023
1576.000000	34.150442
1575.000000	34.122632
1574.000000	34.099093
1573.000000	34.077116
1572.000000	34.048161
1571.000000	34.038058
1570.000000	34.040141
1569.000000	34.040037
1568.000000	34.034933
1567.000000	34.045036
1566.000000	34.044099
1565.000000	34.025767
1564.000000	34.030142
1563.000000	34.037537
1562.000000	34.041391
1561.000000	34.039724
1560.000000	34.030767
1559.000000	34.022955
1558.000000	34.011185
1557.000000	33.989313
1556.000000	33.981397
1555.000000	33.954525
1554.000000	33.923174
1553.000000	33.902968
1552.000000	33.870992
1551.000000	33.816414
1550.000000	33.777669
1549.000000	33.729340
1548.000000	33.674659
1547.000000	33.634455
1546.000000	33.584877
1545.000000	33.545193
1544.000000	33.505718
1543.000000	33.463014
1542.000000	33.426872
1541.000000	33.401042
1540.000000	33.374690
1539.000000	33.339903
1538.000000	33.310739
1537.000000	33.278451
1536.000000	33.248350
1535.000000	33.225748
1534.000000	33.198563
1533.000000	33.155547
1532.000000	33.126071
1531.000000	33.086179
1530.000000	33.033685
1529.000000	32.994835
1528.000000	32.963276
1527.000000	32.923072
1526.000000	32.858287
1525.000000	32.815375
1524.000000	32.756943
1523.000000	32.697262
1522.000000	32.649038
1521.000000	32.598314
1520.000000	32.539883
1519.000000	32.465204
1518.000000	32.415626
1517.000000	32.370005
1516.000000	32.304283
1515.000000	32.245019
1514.000000	32.176172
1513.000000	32.116699
1512.000000	32.053476
1511.000000	31.964007
1510.000000	31.906929
1509.000000	31.848706
1508.000000	31.767986
1507.000000	31.693306
1506.000000	31.623834
1505.000000	31.560612
1504.000000	31.491036
1503.000000	31.415211
1502.000000	31.354176
1501.000000	31.299390
1500.000000	31.239709
1499.000000	31.185652
1498.000000	31.128366
1497.000000	31.082850
1496.000000	31.030043
1495.000000	30.981298
1494.000000	30.942969
1493.000000	30.913493
1492.000000	30.877872
1491.000000	30.846834
1490.000000	30.813712
1489.000000	30.793402
1488.000000	30.772050
1487.000000	30.735283
1486.000000	30.719451
1485.000000	30.699037
1484.000000	30.681018
1483.000000	30.654146
1482.000000	30.642793
1481.000000	30.646646
1480.000000	30.632169
1479.000000	30.605297
1478.000000	30.592694
1477.000000	30.605401
1476.000000	30.607067
1475.000000	30.616858
1474.000000	30.636647
1473.000000	30.658520
1472.000000	30.684976
1471.000000	30.719347
1470.000000	30.730908
1469.000000	30.741324
1468.000000	30.740907
1467.000000	30.771425
1466.000000	30.819128
1465.000000	30.830689
1464.000000	30.866623
1463.000000	30.898286
1462.000000	30.934637
1461.000000	30.975674
1460.000000	31.028793
1459.000000	31.088162
1458.000000	31.144198
1457.000000	31.211795
1456.000000	31.270851
1455.000000	31.338136
1454.000000	31.419481
1453.000000	31.497390
1452.000000	31.589984
1451.000000	31.695494
1450.000000	31.784234
1449.000000	31.857872
1448.000000	31.924740
1447.000000	32.033791
1446.000000	32.151903
1445.000000	32.259809
1444.000000	32.343029
1443.000000	32.424895
1442.000000	32.525510
1441.000000	32.646122
1440.000000	32.747465
1439.000000	32.849330
1438.000000	32.964838
1437.000000	33.080867
1436.000000	33.190543
1435.000000	33.290533
1434.000000	33.426977
1433.000000	33.562379
1432.000000	33.704239
1431.000000	33.829538
1430.000000	33.944318
1429.000000	34.099822
1428.000000	34.266679
1427.000000	34.429162
1426.000000	34.603727
1425.000000	34.801831
1424.000000	35.018475
1423.000000	35.234181
1422.000000	35.442596
1421.000000	35.656636
1420.000000	35.903901
1419.000000	36.161166
1418.000000	36.428325
1417.000000	36.634970
1416.000000	36.900983
1415.000000	37.161997
1414.000000	37.464569
1413.000000	37.761413
1412.000000	38.006908
1411.000000	38.280629
1410.000000	38.644236
1409.000000	39.035549
1408.000000	39.394990
1407.000000	39.772241
1406.000000	40.133557
1405.000000	40.572157
1404.000000	40.942846
1403.000000	41.327701
1402.000000	41.738908
1401.000000	42.157301
1400.000000	42.591630
1399.000000	42.975339
1398.000000	43.247394
1397.000000	43.534030
1396.000000	43.869724
1395.000000	44.256453
1394.000000	44.536007
1393.000000	44.767857
1392.000000	45.049494
1391.000000	45.338214
1390.000000	45.660888
1389.000000	45.936171
1388.000000	46.342899
1387.000000	46.788789
1386.000000	47.161354
1385.000000	47.586100
1384.000000	48.058863
1383.000000	48.567767
1382.000000	49.037821
1381.000000	49.473192
1380.000000	49.777430
1379.000000	50.001365
1378.000000	50.211864
1377.000000	50.364243
1376.000000	50.536933
1375.000000	50.692021
1374.000000	50.880959
1373.000000	51.129266
1372.000000	51.389968
1371.000000	51.732536
1370.000000	52.035733
1369.000000	52.272062
1368.000000	52.567135
1367.000000	52.812421
1366.000000	53.004797
1365.000000	53.184257
1364.000000	53.385277
1363.000000	53.523283
1362.000000	53.692953
1361.000000	53.859289
1360.000000	53.990838
1359.000000	53.981047
1358.000000	54.079891
1357.000000	54.197587
1356.000000	54.314866
1355.000000	54.537342
1354.000000	54.844914
1353.000000	55.154465
1352.000000	55.448288
1351.000000	55.885012
1350.000000	56.285699
1349.000000	56.650868
1348.000000	56.980729
1347.000000	57.337775
1346.000000	57.655137
1345.000000	57.938544
1344.000000	58.244033
1343.000000	58.517129
1342.000000	58.783142
1341.000000	59.049052
1340.000000	59.326314
1339.000000	59.584411
1338.000000	59.823449
1337.000000	60.071964
1336.000000	60.299232
1335.000000	60.536915
1334.000000	60.741268
1333.000000	60.968952
1332.000000	61.183200
1331.000000	61.368701
1330.000000	61.572222
1329.000000	61.765534
1328.000000	61.932912
1327.000000	62.091958
1326.000000	62.272668
1325.000000	62.445983
1324.000000	62.584718
1323.000000	62.732411
1322.000000	62.859064
1321.000000	62.992592
1320.000000	63.118620
1319.000000	63.244544
1318.000000	63.373385
1317.000000	63.478790
1316.000000	63.574613
1315.000000	63.693663
1314.000000	63.802818
1313.000000	63.891455
1312.000000	63.986549
1311.000000	64.067165
1310.000000	64.155593
1309.000000	64.220587
1308.000000	64.289225
1307.000000	64.364634
1306.000000	64.432543
1305.000000	64.491495
1304.000000	64.529096
1303.000000	64.569300
1302.000000	64.602838
1301.000000	64.652937
1300.000000	64.668039
1299.000000	64.700640
1298.000000	64.722408
1297.000000	64.740219
1296.000000	64.747927
1295.000000	64.753238
1294.000000	64.766883
1293.000000	64.776465
1292.000000	64.769591
1291.000000	64.780111
1290.000000	64.749801
1289.000000	64.724491
1288.000000	64.723137
1287.000000	64.708347
1286.000000	64.676892
1285.000000	64.637626
1284.000000	64.596068
1283.000000	64.553780
1282.000000	64.506806
1281.000000	64.455458
1280.000000	64.416503
1279.000000	64.388590
1278.000000	64.343699
1277.000000	64.289538
1276.000000	64.261416
1275.000000	64.230898
1274.000000	64.197777
1273.000000	64.157677
1272.000000	64.132054
1271.000000	64.107786
1270.000000	64.081643
1269.000000	64.066124
1268.000000	64.039460
1267.000000	64.005089
1266.000000	63.968947
1265.000000	63.949261
1264.000000	63.923639
1263.000000	63.903849
1262.000000	63.881456
1261.000000	63.842398
1260.000000	63.810734
1259.000000	63.791361
1258.000000	63.770009
1257.000000	63.746679
1256.000000	63.715015
1255.000000	63.677832
1254.000000	63.628045
1253.000000	63.580550
1252.000000	63.525764
1251.000000	63.482956
1250.000000	63.446814
1249.000000	63.379530
1248.000000	63.315266
1247.000000	63.236212
1246.000000	63.156324
1245.000000	63.088207
1244.000000	62.996341
1243.000000	62.886561
1242.000000	62.797300
1241.000000	62.701477
1240.000000	62.598779
1239.000000	62.501810
1238.000000	62.377136
1237.000000	62.255066
1236.000000	62.146327
1235.000000	62.035922
1234.000000	61.923747
1233.000000	61.806051
1232.000000	61.681897
1231.000000	61.559723
1230.000000	61.424008
1229.000000	61.283710
1228.000000	61.150600
1227.000000	61.026863
1226.000000	60.895522
1225.000000	60.756995
1224.000000	60.616177
1223.000000	60.477754
1222.000000	60.348601
1221.000000	60.205804
1220.000000	60.073735
1219.000000	59.944477
1218.000000	59.806159
1217.000000	59.679610
1216.000000	59.557956
1215.000000	59.457237
1214.000000	59.361102
1213.000000	59.260904
1212.000000	59.165914
1211.000000	59.064987
1210.000000	58.968539
1209.000000	58.880319
1208.000000	58.800120
1207.000000	58.720232
1206.000000	58.638366
1205.000000	58.580455
1204.000000	58.539210
1203.000000	58.494944
1202.000000	58.461197
1201.000000	58.418598
1200.000000	58.380789
1199.000000	58.334752
1198.000000	58.271842
1197.000000	58.183727
1196.000000	58.061240
1195.000000	57.927296
1194.000000	57.750543
1193.000000	57.507340
1192.000000	57.233202
1191.000000	56.929068
1190.000000	56.587958
1189.000000	56.261014
1188.000000	55.971149
1187.000000	55.754818
1186.000000	55.613895
1185.000000	55.572962
1184.000000	55.629727
1183.000000	55.783252
1182.000000	56.040412
1181.000000	56.364128
1180.000000	56.745546
1179.000000	57.138213
1178.000000	57.509631
1177.000000	57.844388
1176.000000	58.132065
1175.000000	58.418077
1174.000000	58.664613
1173.000000	58.907817
1172.000000	59.159040
1171.000000	59.407347
1170.000000	59.678047
1169.000000	59.941561
1168.000000	60.201742
1167.000000	60.482858
1166.000000	60.760745
1165.000000	61.053839
1164.000000	61.361827
1163.000000	61.662108
1162.000000	61.973325
1161.000000	62.276834
1160.000000	62.582531
1159.000000	62.876146
1158.000000	63.176426
1157.000000	63.453480
1156.000000	63.714390
1155.000000	63.932805
1154.000000	64.148094
1153.000000	64.305265
1152.000000	64.439730
1151.000000	64.570237
1150.000000	64.641792
1149.000000	64.707722
1148.000000	64.783339
1147.000000	64.866872
1146.000000	64.999254
1145.000000	65.121324
1144.000000	65.305472
1143.000000	65.543259
1142.000000	65.803856
1141.000000	66.071120
1140.000000	66.358172
1139.000000	66.658974
1138.000000	66.973836
1137.000000	67.300468
1136.000000	67.639912
1135.000000	68.011330
1134.000000	68.389728
1133.000000	68.717922
1132.000000	69.001538
1131.000000	69.291195
1130.000000	69.559500
1129.000000	69.784163
1128.000000	69.999245
1127.000000	70.160165
1126.000000	70.311920
1125.000000	70.440031
1124.000000	70.525022
1123.000000	70.632094
1122.000000	70.707399
1121.000000	70.759997
1120.000000	70.812492
1119.000000	70.863841
1118.000000	70.894671
1117.000000	70.923313
1116.000000	70.948519
1115.000000	70.972891
1114.000000	70.955289
1113.000000	70.946853
1112.000000	70.986952
1111.000000	70.986744
1110.000000	70.983724
1109.000000	70.988619
1108.000000	70.984557
1107.000000	70.988098
1106.000000	70.987786
1105.000000	70.999347
1104.000000	70.983620
1103.000000	70.997785
1102.000000	70.975495
1101.000000	70.964455
1100.000000	70.968517
1099.000000	70.975600
1098.000000	70.962684
1097.000000	70.957372
1096.000000	70.929979
1095.000000	70.906961
1094.000000	70.890504
1093.000000	70.861237
1092.000000	70.853217
1091.000000	70.809471
1090.000000	70.798639
1089.000000	70.766247
1088.000000	70.715106
1087.000000	70.671257
1086.000000	70.641989
1085.000000	70.618554
1084.000000	70.579496
1083.000000	70.538771
1082.000000	70.473778
1081.000000	70.443781
1080.000000	70.411180
1079.000000	70.362123
1078.000000	70.309212
1077.000000	70.267654
1076.000000	70.225575
1075.000000	70.175580
1074.000000	70.129439
1073.000000	70.076737
1072.000000	70.065592
1071.000000	70.013097
1070.000000	69.985913
1069.000000	69.918107
1068.000000	69.860405
1067.000000	69.813119
1066.000000	69.771352
1065.000000	69.721566
1064.000000	69.685424
1063.000000	69.624284
1062.000000	69.573352
1061.000000	69.525753
1060.000000	69.462218
1059.000000	69.420764
1058.000000	69.368895
1057.000000	69.328795
1056.000000	69.254324
1055.000000	69.205266
1054.000000	69.158813
1053.000000	69.113297
1052.000000	69.063511
1051.000000	69.022682
1050.000000	68.964979
1049.000000	68.911235
1048.000000	68.874052
1047.000000	68.837493
1046.000000	68.792602
1045.000000	68.774895
1044.000000	68.725630
1043.000000	68.672510
1042.000000	68.650013
1041.000000	68.590852
1040.000000	68.564397
1039.000000	68.531067
1038.000000	68.507424
1037.000000	68.453784
1036.000000	68.399935
1035.000000	68.377750
1034.000000	68.325568
1033.000000	68.281718
1032.000000	68.218704
1031.000000	68.171834
1030.000000	68.115069
1029.000000	68.057888
1028.000000	68.008727
1027.000000	67.949983
1026.000000	67.883011
1025.000000	67.819372
1024.000000	67.763023
1023.000000	67.708758
1022.000000	67.627621
1021.000000	67.570752
1020.000000	67.503364
1019.000000	67.443578
1018.000000	67.391292
1017.000000	67.302031
1016.000000	67.258598
1015.000000	67.204854
1014.000000	67.157983
1013.000000	67.116321
1012.000000	67.070389
1011.000000	67.015499
1010.000000	66.996855
1009.000000	66.976440
1008.000000	66.954463
1007.000000	66.921342
1006.000000	66.876555
1005.000000	66.871451
1004.000000	66.842288
1003.000000	66.821769
1002.000000	66.797917
1001.000000	66.771879
1000.000000	66.757297
999.000000	66.744590
998.000000	66.720217
997.000000	66.680638
996.000000	66.664911
995.000000	66.656891
994.000000	66.662515
993.000000	66.643351
992.000000	66.628144
991.000000	66.618874
990.000000	66.614395
989.000000	66.616478
988.000000	66.615853
987.000000	66.605959
986.000000	66.615958
985.000000	66.637205
984.000000	66.636372
983.000000	66.622832
982.000000	66.643559
981.000000	66.651787
980.000000	66.664598
979.000000	66.682409
978.000000	66.705531
977.000000	66.718343
976.000000	66.725529
975.000000	66.743340
974.000000	66.768337
973.000000	66.782086
972.000000	66.808541
971.000000	66.841455
970.000000	66.870201
969.000000	66.902281
968.000000	66.910718
967.000000	66.943527
966.000000	66.982273
965.000000	66.999563
964.000000	67.021748
963.000000	67.050807
962.000000	67.084450
961.000000	67.110072
960.000000	67.138819
959.000000	67.163504
958.000000	67.181627
957.000000	67.221102
956.000000	67.242974
955.000000	67.270680
954.000000	67.296406
953.000000	67.305780
952.000000	67.324112
951.000000	67.347026
950.000000	67.364732
949.000000	67.371815
948.000000	67.377544
947.000000	67.399416
946.000000	67.418477
945.000000	67.440766
944.000000	67.461805
943.000000	67.453265
942.000000	67.441912
941.000000	67.449307
940.000000	67.465451
939.000000	67.470242
938.000000	67.455660
937.000000	67.438891
936.000000	67.444411
935.000000	67.456598
934.000000	67.467638
933.000000	67.482741
932.000000	67.493781
931.000000	67.505030
930.000000	67.497635
929.000000	67.506280
928.000000	67.520966
927.000000	67.522424
926.000000	67.528777
925.000000	67.530027
924.000000	67.564295
923.000000	67.572106
922.000000	67.565544
921.000000	67.576377
920.000000	67.572002
919.000000	67.567836
918.000000	67.578876
917.000000	67.571169
916.000000	67.552837
915.000000	67.569606
914.000000	67.573981
913.000000	67.552421
912.000000	67.542214
911.000000	67.548255
910.000000	67.546796
909.000000	67.548150
908.000000	67.546171
907.000000	67.564399
906.000000	67.592937
905.000000	67.619080
904.000000	67.638766
903.000000	67.670637
902.000000	67.704176
901.000000	67.723653
900.000000	67.747192
899.000000	67.766669
898.000000	67.792187
897.000000	67.831662
896.000000	67.851764
895.000000	67.869366
894.000000	67.898009
893.000000	67.923840
892.000000	67.938213
891.000000	67.970085
890.000000	67.984667
889.000000	67.986541
888.000000	68.005498
887.000000	68.045910
886.000000	68.060492
885.000000	68.060700
884.000000	68.061221
883.000000	68.067783
882.000000	68.043619
881.000000	68.030703
880.000000	68.002790
879.000000	67.980084
878.000000	67.959044
877.000000	67.925610
876.000000	67.826871
875.000000	67.722924
874.000000	67.657618
873.000000	67.549192
872.000000	67.406915
871.000000	67.312030
870.000000	67.325466
869.000000	67.396292
868.000000	67.480866
867.000000	67.557524
866.000000	67.634808
865.000000	67.694906
864.000000	67.731777
863.000000	67.819684
862.000000	67.874574
861.000000	67.928214
860.000000	67.984979
859.000000	68.027683
858.000000	68.102467
857.000000	67.663400
856.000000	68.437700
855.000000	68.206300
854.000000	68.210700
853.000000	68.470500
852.000000	68.360800
851.000000	68.170300
850.000000	68.457400
849.000000	68.572000
848.000000	68.884900
847.000000	68.901700
846.000000	68.858500
845.000000	68.865800
844.000000	68.924400
843.000000	69.079100
842.000000	69.086300
841.000000	69.188700
840.000000	69.253300
839.000000	69.269000
838.000000	69.075900
837.000000	69.192900
836.000000	69.288900
835.000000	69.139000
834.000000	69.045700
833.000000	69.274500
832.000000	69.242100
831.000000	69.224900
830.000000	69.435800
829.000000	69.388700
828.000000	69.649100
827.000000	69.222000
826.000000	69.246900
825.000000	69.325000
824.000000	69.268500
823.000000	69.333100
822.000000	69.296900
821.000000	69.150000
820.000000	69.116300
819.000000	68.863500
818.000000	69.128100
817.000000	69.031900
816.000000	68.871200
815.000000	68.882700
814.000000	68.905600
813.000000	68.908100
812.000000	68.935300
811.000000	68.664800
810.000000	68.554900
809.000000	68.737700
808.000000	68.751600
807.000000	68.539800
806.000000	68.555900
805.000000	68.486500
804.000000	68.280800
803.000000	68.138800
802.000000	68.009400
801.000000	68.114000
800.000000	67.966700
799.000000	67.700400
798.000000	67.620300
797.000000	67.564200
796.000000	67.649200
795.000000	67.522400
794.000000	67.353500
793.000000	67.370000
792.000000	67.288600
791.000000	67.210300
790.000000	67.144800
789.000000	66.997800
788.000000	66.978300
787.000000	67.001600
786.000000	66.727400
785.000000	66.702800
784.000000	66.630300
783.000000	66.471500
782.000000	66.474900
781.000000	66.477800
780.000000	66.236000
779.000000	66.055000
778.000000	66.048100
777.000000	65.742800
776.000000	65.886500
775.000000	65.865100
774.000000	65.616000
773.000000	65.561900
772.000000	65.507200
771.000000	65.405300
770.000000	65.264600
769.000000	65.280200
768.000000	65.219300
767.000000	64.954800
766.000000	64.916500
765.000000	64.712300
764.000000	64.703900
763.000000	64.560400
762.000000	64.619400
761.000000	64.430500
760.000000	64.269600
759.000000	64.208600
758.000000	64.163700
757.000000	64.062500
756.000000	63.944400
755.000000	63.728900
754.000000	63.801500
753.000000	63.649100
752.000000	63.599800
751.000000	63.410500
750.000000	63.353600
749.000000	63.310200
748.000000	63.145200
747.000000	63.028600
746.000000	62.893000
745.000000	62.858700
744.000000	62.672400
743.000000	62.596900
742.000000	62.495200
741.000000	62.269000
740.000000	62.292100
739.000000	62.182100
738.000000	62.054700
737.000000	61.975900
736.000000	61.923800
735.000000	61.840100
734.000000	61.733400
733.000000	61.521900
732.000000	61.559000
731.000000	61.401500
730.000000	61.212300
729.000000	61.043000
728.000000	61.060100
727.000000	60.864200
726.000000	60.732300
725.000000	60.721900
724.000000	60.596900
723.000000	60.422900
722.000000	60.344100
721.000000	60.235900
720.000000	60.090500
719.000000	59.980500
718.000000	59.884700
717.000000	59.750200
716.000000	59.666200
715.000000	59.560500
714.000000	59.434300
713.000000	59.366100
712.000000	59.308700
711.000000	59.211100
710.000000	59.045300
709.000000	58.964100
708.000000	58.890500
707.000000	58.772500
706.000000	58.724300
705.000000	58.550400
704.000000	58.443600
703.000000	58.383000
702.000000	58.224700
701.000000	58.095900
700.000000	57.993300
699.000000	57.901300
698.000000	57.794600
697.000000	57.722600
696.000000	57.653900
695.000000	57.553100
694.000000	57.498700
693.000000	57.455000
692.000000	57.401400
691.000000	57.335500
690.000000	57.262500
689.000000	57.175100
688.000000	57.070300
687.000000	57.032400
686.000000	56.970600
685.000000	56.995400
684.000000	56.968200
683.000000	56.869500
682.000000	56.815000
681.000000	56.712400
680.000000	56.593300
679.000000	56.485100
678.000000	56.339700
677.000000	56.203500
676.000000	56.127600
675.000000	55.954400
674.000000	55.728000
673.000000	55.535300
672.000000	55.337200
671.000000	55.126600
670.000000	54.909500
669.000000	54.691900
668.000000	54.502900
667.000000	54.301000
666.000000	54.116100
665.000000	53.914600
664.000000	53.730200
663.000000	53.557100
662.000000	53.371500
661.000000	53.220300
660.000000	53.048000
659.000000	52.799700
658.000000	52.597600
657.000000	52.374600
656.000000	52.110500
655.000000	51.841600
654.000000	51.574600
653.000000	51.265700
652.000000	50.971500
651.000000	50.626700
650.000000	50.226700
649.000000	49.868500
648.000000	49.570900
647.000000	49.274700
646.000000	48.969700
645.000000	48.710000
644.000000	48.518200
643.000000	48.412800
642.000000	48.389200
641.000000	48.431200
640.000000	48.536300
639.000000	48.722300
638.000000	49.007400
637.000000	49.315200
636.000000	49.664900
635.000000	50.059600
634.000000	50.479000
633.000000	50.971600
632.000000	51.471700
631.000000	51.925400
630.000000	52.373400
629.000000	52.849000
628.000000	53.279700
627.000000	53.673800
626.000000	54.035400
625.000000	54.377800
624.000000	54.678500
623.000000	54.950000
622.000000	55.204300
621.000000	55.437400
620.000000	55.688400
619.000000	55.924000
618.000000	56.154300
617.000000	56.450600
616.000000	56.782500
615.000000	57.104800
614.000000	57.454800
613.000000	57.820000
612.000000	58.249300
611.000000	58.690100
610.000000	59.108900
609.000000	59.518000
608.000000	59.956900
607.000000	60.386700
606.000000	60.874800
605.000000	61.354400
604.000000	61.772200
603.000000	62.154900
602.000000	62.552100
601.000000	62.885100
600.000000	63.239500
599.000000	63.530400
598.000000	63.763200
597.000000	64.007200
596.000000	64.225900
595.000000	64.384700
594.000000	64.523900
593.000000	64.637300
592.000000	64.741700
591.000000	64.887000
590.000000	64.988300
589.000000	65.126700
588.000000	65.225000
587.000000	65.391200
586.000000	65.542500
585.000000	65.697700
584.000000	65.895400
583.000000	66.105000
582.000000	66.307200
581.000000	66.493500
580.000000	66.726600
579.000000	66.939300
578.000000	67.164200
577.000000	67.325600
576.000000	67.511800
575.000000	67.663000
574.000000	67.802500
573.000000	67.902700
572.000000	67.990300
571.000000	68.017400
570.000000	68.050100
569.000000	67.998700
568.000000	67.948100
567.000000	67.879600
566.000000	67.794300
565.000000	67.684900
564.000000	67.514600
563.000000	67.328600
562.000000	67.124600
561.000000	66.849100
560.000000	66.601700
559.000000	66.269600
558.000000	65.872700
557.000000	65.541800
556.000000	65.094900
555.000000	64.622400
554.000000	64.076000
553.000000	63.512600
552.000000	62.904000
551.000000	62.278700
550.000000	61.637900
549.000000	60.947400
548.000000	60.252300
547.000000	59.562700
546.000000	58.846100
545.000000	58.097200
544.000000	57.346100
543.000000	56.578600
542.000000	55.795400
541.000000	55.032000
540.000000	54.274600
539.000000	53.511100
538.000000	52.701300
537.000000	51.923000
536.000000	51.185900
535.000000	50.445600
534.000000	49.705700
533.000000	48.963700
532.000000	48.190500
531.000000	47.458800
530.000000	46.747800
529.000000	46.055700
528.000000	45.317500
527.000000	44.645100
526.000000	43.933100
525.000000	43.218700
524.000000	42.507300
523.000000	41.781900
522.000000	41.070300
521.000000	40.329000
520.000000	39.577800
519.000000	38.829000
518.000000	38.089800
517.000000	37.350800
516.000000	36.543400
515.000000	35.709700
514.000000	34.852900
513.000000	34.010900
512.000000	33.173100
511.000000	32.316700
510.000000	31.501300
509.000000	30.633200
508.000000	29.869900
507.000000	29.085900
506.000000	28.320000
505.000000	27.626900
504.000000	26.991200
503.000000	26.389800
502.000000	25.836800
501.000000	25.365400
500.000000	24.956600
499.000000	24.589100
498.000000	24.236800
497.000000	23.937600
496.000000	23.740800
495.000000	23.532000
494.000000	23.381000
493.000000	23.246000
492.000000	23.117800
491.000000	23.014100
490.000000	22.913000
489.000000	22.815300
488.000000	22.789000
487.000000	22.737800
486.000000	22.661100
485.000000	22.639400
484.000000	22.562600
483.000000	22.507100
482.000000	22.415900
481.000000	22.376800
480.000000	22.298600
479.000000	22.240100
478.000000	22.170500
477.000000	22.087800
476.000000	21.993500
475.000000	21.937100
474.000000	21.888400
473.000000	21.856700
472.000000	21.777500
471.000000	21.707500
470.000000	21.602200
469.000000	21.517200
468.000000	21.425000
467.000000	21.355100
466.000000	21.282800
465.000000	21.166200
464.000000	21.046700
463.000000	20.938100
462.000000	20.807900
461.000000	20.655700
460.000000	20.494000
459.000000	20.370400
458.000000	20.201700
457.000000	20.055800
456.000000	19.840800
455.000000	19.683500
454.000000	19.498400
453.000000	19.306300
452.000000	19.096900
451.000000	18.835700
450.000000	18.634900
449.000000	18.429500
448.000000	18.176800
447.000000	17.943200
446.000000	17.685000
445.000000	17.417100
444.000000	17.120300
443.000000	16.871800
442.000000	16.555700
441.000000	16.244600
440.000000	15.936400
439.000000	15.634600
438.000000	15.292700
437.000000	15.017200
436.000000	14.698000
435.000000	14.389600
434.000000	14.070600
433.000000	13.743900
432.000000	13.462100
431.000000	13.152600
430.000000	12.857900
429.000000	12.559900
428.000000	12.266800
427.000000	11.986900
426.000000	11.690700
425.000000	11.407600
424.000000	11.144500
423.000000	10.880600
422.000000	10.630900
421.000000	10.368400
420.000000	10.133300
419.000000	9.890500
418.000000	9.673400
417.000000	9.455900
416.000000	9.252400
415.000000	9.046500
414.000000	8.878300
413.000000	8.696300
412.000000	8.528800
411.000000	8.369400
410.000000	8.223100
409.000000	8.060700
408.000000	7.937400
407.000000	7.816800
406.000000	7.714600
405.000000	7.568200
404.000000	7.461600
403.000000	7.375400
402.000000	7.281000
401.000000	7.200900
400.000000	7.120900
399.000000	7.055100
398.000000	6.990700
397.000000	6.919300
396.000000	6.868600
395.000000	6.812000
394.000000	6.746700
393.000000	6.703200
392.000000	6.674100
391.000000	6.645200
390.000000	6.597400
389.000000	6.579600
388.000000	6.536800
387.000000	6.510900
386.000000	6.495800
385.000000	6.467700
384.000000	6.429500
383.000000	6.422900
382.000000	6.391500
381.000000	6.364300
380.000000	6.352200
379.000000	6.359100
378.000000	6.325500
377.000000	6.291100
376.000000	6.272700
375.000000	6.097300
374.000000	5.880400
373.000000	5.933600
372.000000	6.007200
371.000000	6.098600
370.000000	5.956500
369.000000	5.950300
368.000000	6.103100
367.000000	6.186300
366.000000	6.265200
365.000000	6.103000
364.000000	6.212300
363.000000	6.297100
362.000000	6.133500
361.000000	6.139100
360.000000	6.127100
359.000000	6.096800
358.000000	6.176700
357.000000	6.298600
356.000000	6.194600
355.000000	6.109400
354.000000	6.210400
353.000000	6.154800
352.000000	6.139100
351.000000	6.203400
350.000000	6.162400
349.000000	6.183600
348.000000	6.079500
347.000000	6.217100
346.000000	6.348700
345.000000	6.292900
344.000000	6.275000
343.000000	6.199400
342.000000	6.121800
341.000000	6.150900
340.000000	6.220900
339.000000	6.039200
338.000000	5.967800
337.000000	6.197100
336.000000	6.297000
335.000000	6.000200
334.000000	6.012300
333.000000	6.365700
332.000000	6.343800
331.000000	6.179500
330.000000	6.240500
329.000000	6.205600
328.000000	6.218200
327.000000	6.551900
326.000000	6.461000
325.000000	6.205400
324.000000	6.106500
323.000000	6.321300
322.000000	6.719800
321.000000	6.582500
320.000000	6.772100
319.000000	6.610800
318.000000	6.529700
317.000000	6.953000
316.000000	6.435900
315.000000	5.966400
314.000000	6.015600
313.000000	6.026400
312.000000	6.048600
311.000000	6.042800
310.000000	5.992900
309.000000	6.008100
308.000000	6.029900
307.000000	6.079300
306.000000	6.083300
305.000000	6.062800
304.000000	6.045600
303.000000	6.062700
302.000000	6.066400
301.000000	6.059400
300.000000	6.085400
299.000000	6.065600
298.000000	6.056000
297.000000	6.063600
296.000000	6.079100
295.000000	6.103900
294.000000	6.129400
293.000000	6.114600
292.000000	6.099600
291.000000	6.150000
290.000000	6.113500
289.000000	6.137100
288.000000	6.127500
287.000000	6.142900
286.000000	6.129900
285.000000	6.146800
284.000000	6.159300
283.000000	6.156300
282.000000	6.147400
281.000000	6.122600
280.000000	6.137900
279.000000	6.153300
278.000000	6.213600
277.000000	6.232300
276.000000	6.229500
275.000000	6.227500
274.000000	6.228500
273.000000	6.239000
272.000000	6.244100
271.000000	6.269500
270.000000	6.311600
269.000000	6.350900
268.000000	6.368900
267.000000	6.389200
266.000000	6.392700
265.000000	6.419000
264.000000	6.457900
263.000000	6.504900
262.000000	6.515900
261.000000	6.560600
260.000000	6.584900
259.000000	6.630700
258.000000	6.718000
257.000000	6.688800
256.000000	6.643000
255.000000	6.698300
254.000000	6.745000
253.000000	6.760400
252.000000	6.812600
251.000000	6.801500
250.000000	6.801200
