PE UV       SUBTECH     SPECTRUM    ASCII       PEDS        4.00        
   -1
CICIMAUCR0254-3.Sample.ASC
24/06/26
14:46:43.00
24/06/26
14:46:43.00
Vinicio Soto Monge
C. resplendens. Sex F. Dorsal.
250,000000
1
Lambda 1050
1050L1511233
PerkinElmer UV WinLab 6.3.2.0749 / 2.02.05 Lambda 900 UV/VIS/NIR, Aug  7 2015 09:38:08

0
0
3350/servo 860,8/2
0
0
UV/VIS
1
1
1
DoubleDePol,CommonBeamDepol,RBeamAtt,SBeamAtt,60mm sphere, WB InGaAs Detector
0
0
0
0
Program
Program
3350/servo 860,8/2
3350/0,2 860,8/0,2
3350/0,2 860,8/0,2
0
15.00
 
 
 
0
 
860,8
319,2
860,8
Front
100
on
S:100 R:100
0
0
0
0
 
0
 
 
 
0
 
 
0
0
0
0
0
 
 
 
 
0
0


0
0
#HDR
-1
-1
#GR
nm
%R
1.0
0.0
2500,000000
-1,000000
2251
8
89,696700
5,956700
#DATA
2482.000000	8.424454
2481.000000	8.432338
2480.000000	8.376333
2479.000000	8.394762
2478.000000	8.393431
2477.000000	8.428242
2476.000000	8.370906
2475.000000	8.413703
2474.000000	8.449538
2473.000000	8.422713
2472.000000	8.446160
2471.000000	8.448514
2470.000000	8.448002
2469.000000	8.509126
2468.000000	8.523460
2467.000000	8.571479
2466.000000	8.556326
2465.000000	8.574448
2464.000000	8.579875
2463.000000	8.580182
2462.000000	8.640077
2461.000000	8.698948
2460.000000	8.706627
2459.000000	8.779218
2458.000000	8.812391
2457.000000	8.868089
2456.000000	8.893992
2455.000000	8.954809
2454.000000	8.986548
2453.000000	9.056273
2452.000000	9.113813
2451.000000	9.190397
2450.000000	9.245583
2449.000000	9.318071
2448.000000	9.394041
2447.000000	9.438988
2446.000000	9.505641
2445.000000	9.562055
2444.000000	9.651233
2443.000000	9.698330
2442.000000	9.785971
2441.000000	9.813513
2440.000000	9.877299
2439.000000	9.974667
2438.000000	10.027191
2437.000000	10.088417
2436.000000	10.150155
2435.000000	10.219982
2434.000000	10.291856
2433.000000	10.336599
2432.000000	10.401920
2431.000000	10.461713
2430.000000	10.514749
2429.000000	10.577613
2428.000000	10.644778
2427.000000	10.690749
2426.000000	10.750439
2425.000000	10.785353
2424.000000	10.849344
2423.000000	10.911901
2422.000000	10.945688
2421.000000	10.996369
2420.000000	11.056161
2419.000000	11.093942
2418.000000	11.142677
2417.000000	11.173700
2416.000000	11.219466
2415.000000	11.258372
2414.000000	11.294105
2413.000000	11.321339
2412.000000	11.373658
2411.000000	11.410005
2410.000000	11.445020
2409.000000	11.475429
2408.000000	11.505939
2407.000000	11.548941
2406.000000	11.575766
2405.000000	11.593581
2404.000000	11.636788
2403.000000	11.668117
2402.000000	11.678663
2401.000000	11.701905
2400.000000	11.742756
2399.000000	11.767021
2398.000000	11.803880
2397.000000	11.830807
2396.000000	11.851796
2395.000000	11.889167
2394.000000	11.900941
2393.000000	11.907289
2392.000000	11.927664
2391.000000	11.958891
2390.000000	11.989504
2389.000000	11.998924
2388.000000	12.012848
2387.000000	12.024520
2386.000000	12.026363
2385.000000	12.036294
2384.000000	12.052471
2383.000000	12.065577
2382.000000	12.066191
2381.000000	12.068648
2380.000000	12.071617
2379.000000	12.075610
2378.000000	12.080832
2377.000000	12.085030
2376.000000	12.077965
2375.000000	12.060457
2374.000000	12.059331
2373.000000	12.062095
2372.000000	12.053802
2371.000000	12.038547
2370.000000	12.022677
2369.000000	12.014486
2368.000000	12.002814
2367.000000	11.983464
2366.000000	11.968004
2365.000000	11.951212
2364.000000	11.934216
2363.000000	11.917937
2362.000000	11.891215
2361.000000	11.852615
2360.000000	11.824562
2359.000000	11.815347
2358.000000	11.775929
2357.000000	11.732722
2356.000000	11.714088
2355.000000	11.682247
2354.000000	11.647333
2353.000000	11.630337
2352.000000	11.620304
2351.000000	11.613034
2350.000000	11.602898
2349.000000	11.603308
2348.000000	11.613649
2347.000000	11.606994
2346.000000	11.629006
2345.000000	11.660131
2344.000000	11.680097
2343.000000	11.716546
2342.000000	11.729139
2341.000000	11.750435
2340.000000	11.779103
2339.000000	11.798454
2338.000000	11.833469
2337.000000	11.847291
2336.000000	11.859782
2335.000000	11.868588
2334.000000	11.879133
2333.000000	11.898074
2332.000000	11.906061
2331.000000	11.891727
2330.000000	11.886300
2329.000000	11.884969
2328.000000	11.861113
2327.000000	11.842787
2326.000000	11.831729
2325.000000	11.803778
2324.000000	11.756783
2323.000000	11.716238
2322.000000	11.664124
2321.000000	11.612318
2320.000000	11.551194
2319.000000	11.496315
2318.000000	11.434372
2317.000000	11.360655
2316.000000	11.268713
2315.000000	11.193358
2314.000000	11.118821
2313.000000	11.015003
2312.000000	10.927054
2311.000000	10.848524
2310.000000	10.784534
2309.000000	10.723922
2308.000000	10.677132
2307.000000	10.616827
2306.000000	10.570754
2305.000000	10.551608
2304.000000	10.538400
2303.000000	10.546488
2302.000000	10.564201
2301.000000	10.605155
2300.000000	10.622560
2299.000000	10.671091
2298.000000	10.711431
2297.000000	10.802246
2296.000000	10.866544
2295.000000	10.925416
2294.000000	10.986437
2293.000000	11.077150
2292.000000	11.141960
2291.000000	11.184962
2290.000000	11.229192
2289.000000	11.279771
2288.000000	11.313762
2287.000000	11.356969
2286.000000	11.376934
2285.000000	11.396285
2284.000000	11.397923
2283.000000	11.399561
2282.000000	11.401097
2281.000000	11.380006
2280.000000	11.360553
2279.000000	11.351952
2278.000000	11.318165
2277.000000	11.279156
2276.000000	11.260215
2275.000000	11.245676
2274.000000	11.212504
2273.000000	11.200013
2272.000000	11.189876
2271.000000	11.171857
2270.000000	11.169502
2269.000000	11.202777
2268.000000	11.236871
2267.000000	11.278440
2266.000000	11.335059
2265.000000	11.404885
2264.000000	11.492834
2263.000000	11.603308
2262.000000	11.734975
2261.000000	11.864185
2260.000000	12.013667
2259.000000	12.181067
2258.000000	12.358705
2257.000000	12.541872
2256.000000	12.735687
2255.000000	12.918342
2254.000000	13.141644
2253.000000	13.323890
2252.000000	13.506955
2251.000000	13.706196
2250.000000	13.911581
2249.000000	14.098229
2248.000000	14.247199
2247.000000	14.428933
2246.000000	14.577494
2245.000000	14.719502
2244.000000	14.832944
2243.000000	14.955090
2242.000000	15.056144
2241.000000	15.175116
2240.000000	15.271665
2239.000000	15.364938
2238.000000	15.444081
2237.000000	15.496195
2236.000000	15.555579
2235.000000	15.610457
2234.000000	15.655814
2233.000000	15.701785
2232.000000	15.750213
2231.000000	15.776014
2230.000000	15.815330
2229.000000	15.812463
2228.000000	15.837445
2227.000000	15.828333
2226.000000	15.831711
2225.000000	15.797924
2224.000000	15.818913
2223.000000	15.789734
2222.000000	15.766697
2221.000000	15.732910
2220.000000	15.695437
2219.000000	15.650183
2218.000000	15.631139
2217.000000	15.603393
2216.000000	15.554964
2215.000000	15.518311
2214.000000	15.499472
2213.000000	15.447562
2212.000000	15.409782
2211.000000	15.393401
2210.000000	15.341696
2209.000000	15.326441
2208.000000	15.294292
2207.000000	15.247707
2206.000000	15.227844
2205.000000	15.200712
2204.000000	15.174092
2203.000000	15.153410
2202.000000	15.124435
2201.000000	15.109896
2200.000000	15.092184
2199.000000	15.071195
2198.000000	15.061570
2197.000000	15.042424
2196.000000	15.014371
2195.000000	14.996965
2194.000000	15.000856
2193.000000	14.960516
2192.000000	14.940858
2191.000000	14.922327
2190.000000	14.918436
2189.000000	14.886185
2188.000000	14.871851
2187.000000	14.852807
2186.000000	14.848097
2185.000000	14.828849
2184.000000	14.795574
2183.000000	14.773254
2182.000000	14.749910
2181.000000	14.739262
2180.000000	14.722369
2179.000000	14.713154
2178.000000	14.686431
2177.000000	14.685919
2176.000000	14.684179
2175.000000	14.665442
2174.000000	14.661245
2173.000000	14.659709
2172.000000	14.653361
2171.000000	14.644965
2170.000000	14.648139
2169.000000	14.665033
2168.000000	14.681517
2167.000000	14.680800
2166.000000	14.698103
2165.000000	14.731276
2164.000000	14.745508
2163.000000	14.766906
2162.000000	14.797110
2161.000000	14.822092
2160.000000	14.854548
2159.000000	14.874718
2158.000000	14.919972
2157.000000	14.956319
2156.000000	14.984372
2155.000000	15.021231
2154.000000	15.061878
2153.000000	15.112968
2152.000000	15.164877
2151.000000	15.227844
2150.000000	15.255488
2149.000000	15.298694
2148.000000	15.357156
2147.000000	15.423400
2146.000000	15.461487
2145.000000	15.511963
2144.000000	15.559674
2143.000000	15.590594
2142.000000	15.635234
2141.000000	15.679158
2140.000000	15.716119
2139.000000	15.762192
2138.000000	15.799460
2137.000000	15.803453
2136.000000	15.839390
2135.000000	15.880856
2134.000000	15.909524
2133.000000	15.936656
2132.000000	15.955290
2131.000000	15.991023
2130.000000	16.012319
2129.000000	16.006585
2128.000000	16.019486
2127.000000	16.043956
2126.000000	16.054502
2125.000000	16.041191
2124.000000	16.053068
2123.000000	16.052863
2122.000000	16.033717
2121.000000	16.034332
2120.000000	16.026346
2119.000000	16.023991
2118.000000	16.009350
2117.000000	15.991330
2116.000000	15.991535
2115.000000	15.986108
2114.000000	15.946690
2113.000000	15.910753
2112.000000	15.896316
2111.000000	15.876761
2110.000000	15.849834
2109.000000	15.824545
2108.000000	15.811951
2107.000000	15.773864
2106.000000	15.751442
2105.000000	15.720009
2104.000000	15.698816
2103.000000	15.684891
2102.000000	15.662571
2101.000000	15.634006
2100.000000	15.601959
2099.000000	15.568991
2098.000000	15.546466
2097.000000	15.527730
2096.000000	15.499881
2095.000000	15.489540
2094.000000	15.462306
2093.000000	15.448484
2092.000000	15.443467
2091.000000	15.422785
2090.000000	15.408656
2089.000000	15.385312
2088.000000	15.367395
2087.000000	15.347430
2086.000000	15.321526
2085.000000	15.306373
2084.000000	15.289173
2083.000000	15.267262
2082.000000	15.244635
2081.000000	15.216172
2080.000000	15.177163
2079.000000	15.139281
2078.000000	15.101194
2077.000000	15.060239
2076.000000	15.027886
2075.000000	14.995123
2074.000000	14.945773
2073.000000	14.882704
2072.000000	14.813901
2071.000000	14.763118
2070.000000	14.713359
2069.000000	14.643839
2068.000000	14.574832
2067.000000	14.519339
2066.000000	14.441833
2065.000000	14.370368
2064.000000	14.301975
2063.000000	14.248837
2062.000000	14.176144
2061.000000	14.107341
2060.000000	14.057787
2059.000000	14.006492
2058.000000	13.939532
2057.000000	13.882196
2056.000000	13.846566
2055.000000	13.801312
2054.000000	13.776944
2053.000000	13.767218
2052.000000	13.754010
2051.000000	13.732099
2050.000000	13.740802
2049.000000	13.769368
2048.000000	13.791892
2047.000000	13.836225
2046.000000	13.881275
2045.000000	13.931034
2044.000000	13.981919
2043.000000	14.039767
2042.000000	14.114508
2041.000000	14.176041
2040.000000	14.249247
2039.000000	14.338936
2038.000000	14.404770
2037.000000	14.449205
2036.000000	14.487907
2035.000000	14.553331
2034.000000	14.617936
2033.000000	14.658583
2032.000000	14.694929
2031.000000	14.718478
2030.000000	14.755848
2029.000000	14.800386
2028.000000	14.828644
2027.000000	14.836835
2026.000000	14.840214
2025.000000	14.879223
2024.000000	14.893454
2023.000000	14.882499
2022.000000	14.890383
2021.000000	14.905843
2020.000000	14.914443
2019.000000	14.907378
2018.000000	14.893249
2017.000000	14.878506
2016.000000	14.856903
2015.000000	14.841750
2014.000000	14.838371
2013.000000	14.809396
2012.000000	14.793219
2011.000000	14.758101
2010.000000	14.735269
2009.000000	14.703632
2008.000000	14.667695
2007.000000	14.651928
2006.000000	14.610052
2005.000000	14.574627
2004.000000	14.537973
2003.000000	14.497224
2002.000000	14.443983
2001.000000	14.400879
2000.000000	14.340779
1999.000000	14.289279
1998.000000	14.234606
1997.000000	14.183618
1996.000000	14.126385
1995.000000	14.047548
1994.000000	13.977005
1993.000000	13.909738
1992.000000	13.853528
1991.000000	13.783394
1990.000000	13.697289
1989.000000	13.621216
1988.000000	13.540844
1987.000000	13.483918
1986.000000	13.411327
1985.000000	13.326757
1984.000000	13.245053
1983.000000	13.171234
1982.000000	13.088814
1981.000000	13.016530
1980.000000	12.930014
1979.000000	12.837560
1978.000000	12.762410
1977.000000	12.690331
1976.000000	12.613644
1975.000000	12.537163
1974.000000	12.441740
1973.000000	12.380616
1972.000000	12.313553
1971.000000	12.227345
1970.000000	12.142058
1969.000000	12.065269
1968.000000	12.008343
1967.000000	11.932373
1966.000000	11.868997
1965.000000	11.789956
1964.000000	11.726067
1963.000000	11.652145
1962.000000	11.590817
1961.000000	11.517816
1960.000000	11.444304
1959.000000	11.373351
1958.000000	11.319906
1957.000000	11.238509
1956.000000	11.203391
1955.000000	11.146260
1954.000000	11.067629
1953.000000	11.015207
1952.000000	10.965448
1951.000000	10.899307
1950.000000	10.851596
1949.000000	10.828252
1948.000000	10.766616
1947.000000	10.727710
1946.000000	10.670170
1945.000000	10.646723
1944.000000	10.601367
1943.000000	10.579456
1942.000000	10.548229
1941.000000	10.524475
1940.000000	10.506456
1939.000000	10.497139
1938.000000	10.488845
1937.000000	10.457516
1936.000000	10.446356
1935.000000	10.460690
1934.000000	10.493760
1933.000000	10.513315
1932.000000	10.537069
1931.000000	10.559798
1930.000000	10.578330
1929.000000	10.615803
1928.000000	10.685118
1927.000000	10.727403
1926.000000	10.798458
1925.000000	10.870947
1924.000000	10.953162
1923.000000	11.008040
1922.000000	11.103156
1921.000000	11.227145
1920.000000	11.337925
1919.000000	11.458433
1918.000000	11.547405
1917.000000	11.693304
1916.000000	11.836541
1915.000000	11.949267
1914.000000	12.078784
1913.000000	12.260723
1912.000000	12.443275
1911.000000	12.635247
1910.000000	12.809917
1909.000000	12.996360
1908.000000	13.177889
1907.000000	13.362284
1906.000000	13.598487
1905.000000	13.849228
1904.000000	14.125873
1903.000000	14.392791
1902.000000	14.651416
1901.000000	14.947513
1900.000000	15.229994
1899.000000	15.573803
1898.000000	15.964505
1897.000000	16.294390
1896.000000	16.672805
1895.000000	17.007912
1894.000000	17.321006
1893.000000	17.685702
1892.000000	18.086949
1891.000000	18.565907
1890.000000	19.033499
1889.000000	19.490137
1888.000000	19.951997
1887.000000	20.440681
1886.000000	20.897830
1885.000000	21.378631
1884.000000	21.885847
1883.000000	22.420502
1882.000000	22.962222
1881.000000	23.437391
1880.000000	23.934983
1879.000000	24.374011
1878.000000	24.784677
1877.000000	25.246639
1876.000000	25.694062
1875.000000	26.100941
1874.000000	26.510686
1873.000000	26.914698
1872.000000	27.310621
1871.000000	27.684839
1870.000000	28.041753
1869.000000	28.347168
1868.000000	28.646133
1867.000000	28.924723
1866.000000	29.141267
1865.000000	29.331089
1864.000000	29.505656
1863.000000	29.689540
1862.000000	29.845268
1861.000000	30.011746
1860.000000	30.202080
1859.000000	30.349924
1858.000000	30.485584
1857.000000	30.609368
1856.000000	30.718613
1855.000000	30.797449
1854.000000	30.894306
1853.000000	30.968535
1852.000000	31.002629
1851.000000	31.055460
1850.000000	31.126208
1849.000000	31.175353
1848.000000	31.213850
1847.000000	31.240675
1846.000000	31.254087
1845.000000	31.245589
1844.000000	31.230539
1843.000000	31.218969
1842.000000	31.236682
1841.000000	31.254497
1840.000000	31.276305
1839.000000	31.272721
1838.000000	31.248968
1837.000000	31.238115
1836.000000	31.223781
1835.000000	31.203714
1834.000000	31.158664
1833.000000	31.118836
1832.000000	31.082387
1831.000000	31.059863
1830.000000	31.040819
1829.000000	31.020240
1828.000000	30.979490
1827.000000	30.930550
1826.000000	30.874238
1825.000000	30.836356
1824.000000	30.808814
1823.000000	30.784754
1822.000000	30.776153
1821.000000	30.791716
1820.000000	30.774003
1819.000000	30.738066
1818.000000	30.691276
1817.000000	30.656158
1816.000000	30.634555
1815.000000	30.622473
1814.000000	30.628309
1813.000000	30.614999
1812.000000	30.588789
1811.000000	30.570052
1810.000000	30.544865
1809.000000	30.518552
1808.000000	30.485789
1807.000000	30.453640
1806.000000	30.431115
1805.000000	30.401014
1804.000000	30.355862
1803.000000	30.317980
1802.000000	30.290848
1801.000000	30.263306
1800.000000	30.218052
1799.000000	30.167781
1798.000000	30.124062
1797.000000	30.090071
1796.000000	30.059969
1795.000000	30.028947
1794.000000	29.995262
1793.000000	29.953079
1792.000000	29.918678
1791.000000	29.892570
1790.000000	29.863083
1789.000000	29.817009
1788.000000	29.782506
1787.000000	29.758240
1786.000000	29.725375
1785.000000	29.681554
1784.000000	29.643774
1783.000000	29.621044
1782.000000	29.578862
1781.000000	29.529921
1780.000000	29.489479
1779.000000	29.440027
1778.000000	29.386070
1777.000000	29.335594
1776.000000	29.293514
1775.000000	29.230343
1774.000000	29.161233
1773.000000	29.105945
1772.000000	29.037449
1771.000000	28.961786
1770.000000	28.884178
1769.000000	28.804932
1768.000000	28.710021
1767.000000	28.626987
1766.000000	28.566580
1765.000000	28.504534
1764.000000	28.442796
1763.000000	28.422012
1762.000000	28.418428
1761.000000	28.414333
1760.000000	28.433274
1759.000000	28.470850
1758.000000	28.518766
1757.000000	28.564122
1756.000000	28.620537
1755.000000	28.679715
1754.000000	28.744832
1753.000000	28.803089
1752.000000	28.841791
1751.000000	28.868513
1750.000000	28.900662
1749.000000	28.922573
1748.000000	28.910491
1747.000000	28.899229
1746.000000	28.876499
1745.000000	28.840050
1744.000000	28.774626
1743.000000	28.702035
1742.000000	28.622789
1741.000000	28.532281
1740.000000	28.420476
1739.000000	28.282359
1738.000000	28.129190
1737.000000	27.990561
1736.000000	27.858279
1735.000000	27.724052
1734.000000	27.591771
1733.000000	27.501467
1732.000000	27.427238
1731.000000	27.382905
1730.000000	27.370107
1729.000000	27.392017
1728.000000	27.427443
1727.000000	27.484266
1726.000000	27.540066
1725.000000	27.601497
1724.000000	27.662007
1723.000000	27.727022
1722.000000	27.781490
1721.000000	27.848860
1720.000000	27.933430
1719.000000	28.021584
1718.000000	28.112911
1717.000000	28.222873
1716.000000	28.343073
1715.000000	28.447301
1714.000000	28.576511
1713.000000	28.686370
1712.000000	28.777493
1711.000000	28.885714
1710.000000	28.976018
1709.000000	29.058233
1708.000000	29.094068
1707.000000	29.140448
1706.000000	29.181198
1705.000000	29.200958
1704.000000	29.183553
1703.000000	29.176693
1702.000000	29.160618
1701.000000	29.149868
1700.000000	29.106764
1699.000000	29.049633
1698.000000	28.983697
1697.000000	28.898308
1696.000000	28.842610
1695.000000	28.793875
1694.000000	28.783329
1693.000000	28.775650
1692.000000	28.801042
1691.000000	28.853975
1690.000000	28.932095
1689.000000	29.011750
1688.000000	29.093249
1687.000000	29.160209
1686.000000	29.220309
1685.000000	29.298121
1684.000000	29.404192
1683.000000	29.504428
1682.000000	29.618280
1681.000000	29.803597
1680.000000	30.052700
1679.000000	30.320335
1678.000000	30.618685
1677.000000	30.931267
1676.000000	31.239753
1675.000000	31.508207
1674.000000	31.791814
1673.000000	32.031088
1672.000000	32.240670
1671.000000	32.426090
1670.000000	32.590828
1669.000000	32.743689
1668.000000	32.898085
1667.000000	32.989925
1666.000000	33.083198
1665.000000	33.175549
1664.000000	33.275375
1663.000000	33.342846
1662.000000	33.426700
1661.000000	33.485981
1660.000000	33.550586
1659.000000	33.579970
1658.000000	33.629730
1657.000000	33.647647
1656.000000	33.691673
1655.000000	33.710819
1654.000000	33.708361
1653.000000	33.713890
1652.000000	33.712969
1651.000000	33.712661
1650.000000	33.703447
1649.000000	33.683686
1648.000000	33.665871
1647.000000	33.624405
1646.000000	33.596966
1645.000000	33.570039
1644.000000	33.542190
1643.000000	33.509325
1642.000000	33.463763
1641.000000	33.431717
1640.000000	33.393527
1639.000000	33.342232
1638.000000	33.291859
1637.000000	33.214148
1636.000000	33.192545
1635.000000	33.144629
1634.000000	33.090365
1633.000000	33.041527
1632.000000	32.994327
1631.000000	32.896140
1630.000000	32.853036
1629.000000	32.794369
1628.000000	32.717580
1627.000000	32.647754
1626.000000	32.593490
1625.000000	32.511889
1624.000000	32.431209
1623.000000	32.364966
1622.000000	32.294013
1621.000000	32.228487
1620.000000	32.167875
1619.000000	32.114122
1618.000000	32.044808
1617.000000	31.980714
1616.000000	31.918362
1615.000000	31.847921
1614.000000	31.772668
1613.000000	31.710930
1612.000000	31.641205
1611.000000	31.589501
1610.000000	31.527660
1609.000000	31.450052
1608.000000	31.381045
1607.000000	31.314187
1606.000000	31.245589
1605.000000	31.167265
1604.000000	31.091807
1603.000000	31.019830
1602.000000	30.958501
1601.000000	30.901268
1600.000000	30.810350
1599.000000	30.755472
1598.000000	30.697317
1597.000000	30.619914
1596.000000	30.555923
1595.000000	30.475755
1594.000000	30.414324
1593.000000	30.354838
1592.000000	30.306206
1591.000000	30.239348
1590.000000	30.177917
1589.000000	30.116486
1588.000000	30.060891
1587.000000	30.004067
1586.000000	29.948881
1585.000000	29.898303
1584.000000	29.848954
1583.000000	29.788034
1582.000000	29.744009
1581.000000	29.678482
1580.000000	29.627597
1579.000000	29.586028
1578.000000	29.533710
1577.000000	29.502073
1576.000000	29.471357
1575.000000	29.426205
1574.000000	29.383204
1573.000000	29.360372
1572.000000	29.340202
1571.000000	29.304060
1570.000000	29.257475
1569.000000	29.254505
1568.000000	29.249591
1567.000000	29.213449
1566.000000	29.200241
1565.000000	29.175771
1564.000000	29.165226
1563.000000	29.161949
1562.000000	29.136353
1561.000000	29.116081
1560.000000	29.096525
1559.000000	29.066936
1558.000000	29.035401
1557.000000	28.997928
1556.000000	28.974584
1555.000000	28.927180
1554.000000	28.896362
1553.000000	28.857968
1552.000000	28.794387
1551.000000	28.759576
1550.000000	28.707154
1549.000000	28.654631
1548.000000	28.594019
1547.000000	28.526445
1546.000000	28.469621
1545.000000	28.419452
1544.000000	28.371126
1543.000000	28.309593
1542.000000	28.253691
1541.000000	28.213453
1540.000000	28.169018
1539.000000	28.121716
1538.000000	28.069602
1537.000000	28.036634
1536.000000	28.000492
1535.000000	27.941518
1534.000000	27.900974
1533.000000	27.862887
1532.000000	27.805960
1531.000000	27.752311
1530.000000	27.704702
1529.000000	27.646956
1528.000000	27.585321
1527.000000	27.533309
1526.000000	27.477611
1525.000000	27.419149
1524.000000	27.350654
1523.000000	27.280110
1522.000000	27.225949
1521.000000	27.164825
1520.000000	27.100732
1519.000000	27.032543
1518.000000	26.970703
1517.000000	26.906814
1516.000000	26.827363
1515.000000	26.745967
1514.000000	26.666516
1513.000000	26.596690
1512.000000	26.515089
1511.000000	26.439733
1510.000000	26.378507
1509.000000	26.297520
1508.000000	26.209879
1507.000000	26.136571
1506.000000	26.054765
1505.000000	25.978591
1504.000000	25.896478
1503.000000	25.812522
1502.000000	25.743310
1501.000000	25.665087
1500.000000	25.586660
1499.000000	25.522874
1498.000000	25.454071
1497.000000	25.392026
1496.000000	25.308480
1495.000000	25.239267
1494.000000	25.185310
1493.000000	25.117839
1492.000000	25.059889
1491.000000	25.007672
1490.000000	24.957913
1489.000000	24.899963
1488.000000	24.837406
1487.000000	24.780480
1486.000000	24.742290
1485.000000	24.693759
1484.000000	24.646560
1483.000000	24.592705
1482.000000	24.535882
1481.000000	24.499740
1480.000000	24.477113
1479.000000	24.437387
1478.000000	24.400119
1477.000000	24.384659
1476.000000	24.362953
1475.000000	24.342374
1474.000000	24.337459
1473.000000	24.336947
1472.000000	24.330497
1471.000000	24.334695
1470.000000	24.323228
1469.000000	24.316573
1468.000000	24.312068
1467.000000	24.325480
1466.000000	24.334183
1465.000000	24.335104
1464.000000	24.340940
1463.000000	24.362339
1462.000000	24.380154
1461.000000	24.406979
1460.000000	24.423258
1459.000000	24.466772
1458.000000	24.497282
1457.000000	24.541820
1456.000000	24.584412
1455.000000	24.634990
1454.000000	24.698879
1453.000000	24.748331
1452.000000	24.803823
1451.000000	24.865050
1450.000000	24.939791
1449.000000	25.002451
1448.000000	25.056920
1447.000000	25.122139
1446.000000	25.205071
1445.000000	25.297217
1444.000000	25.383323
1443.000000	25.452126
1442.000000	25.522158
1441.000000	25.608980
1440.000000	25.702151
1439.000000	25.791942
1438.000000	25.897809
1437.000000	25.982276
1436.000000	26.085993
1435.000000	26.187251
1434.000000	26.304790
1433.000000	26.433385
1432.000000	26.561776
1431.000000	26.669793
1430.000000	26.797774
1429.000000	26.928213
1428.000000	27.071961
1427.000000	27.225334
1426.000000	27.375431
1425.000000	27.540783
1424.000000	27.731834
1423.000000	27.922680
1422.000000	28.094789
1421.000000	28.282563
1420.000000	28.483238
1419.000000	28.709100
1418.000000	28.947248
1417.000000	29.152735
1416.000000	29.352795
1415.000000	29.634252
1414.000000	29.898815
1413.000000	30.185391
1412.000000	30.448316
1411.000000	30.693529
1410.000000	31.005496
1409.000000	31.344903
1408.000000	31.676733
1407.000000	32.055660
1406.000000	32.362713
1405.000000	32.741334
1404.000000	33.111968
1403.000000	33.474309
1402.000000	33.846376
1401.000000	34.207591
1400.000000	34.681839
1399.000000	35.074077
1398.000000	35.408262
1397.000000	35.717670
1396.000000	36.072639
1395.000000	36.527024
1394.000000	36.935643
1393.000000	37.262047
1392.000000	37.599816
1391.000000	38.003827
1390.000000	38.424835
1389.000000	38.819632
1388.000000	39.286918
1387.000000	39.801403
1386.000000	40.277597
1385.000000	40.763926
1384.000000	41.247900
1383.000000	41.765764
1382.000000	42.268885
1381.000000	42.746000
1380.000000	43.144380
1379.000000	43.425530
1378.000000	43.702687
1377.000000	43.931005
1376.000000	44.195159
1375.000000	44.384367
1374.000000	44.606747
1373.000000	44.823189
1372.000000	45.092872
1371.000000	45.380165
1370.000000	45.658550
1369.000000	45.885026
1368.000000	46.151329
1367.000000	46.387532
1366.000000	46.607865
1365.000000	46.792977
1364.000000	46.977987
1363.000000	47.137913
1362.000000	47.328247
1361.000000	47.484486
1360.000000	47.620351
1359.000000	47.653217
1358.000000	47.784168
1357.000000	47.903651
1356.000000	48.013101
1355.000000	48.179989
1354.000000	48.394178
1353.000000	48.622395
1352.000000	48.830339
1351.000000	49.159098
1350.000000	49.497276
1349.000000	49.790712
1348.000000	50.092133
1347.000000	50.421199
1346.000000	50.681462
1345.000000	50.939166
1344.000000	51.223182
1343.000000	51.519280
1342.000000	51.776574
1341.000000	52.025165
1340.000000	52.300888
1339.000000	52.573642
1338.000000	52.812814
1337.000000	53.075534
1336.000000	53.343373
1335.000000	53.595753
1334.000000	53.821819
1333.000000	54.062629
1332.000000	54.311732
1331.000000	54.546808
1330.000000	54.792123
1329.000000	54.995562
1328.000000	55.230536
1327.000000	55.421075
1326.000000	55.637415
1325.000000	55.848840
1324.000000	56.042758
1323.000000	56.234320
1322.000000	56.428750
1321.000000	56.598095
1320.000000	56.772457
1319.000000	56.938013
1318.000000	57.115140
1317.000000	57.276806
1316.000000	57.422397
1315.000000	57.562665
1314.000000	57.702114
1313.000000	57.851698
1312.000000	58.001692
1311.000000	58.114316
1310.000000	58.246086
1309.000000	58.371405
1308.000000	58.464576
1307.000000	58.565732
1306.000000	58.680711
1305.000000	58.770912
1304.000000	58.850670
1303.000000	58.928790
1302.000000	59.001074
1301.000000	59.078170
1300.000000	59.139396
1299.000000	59.178610
1298.000000	59.235741
1297.000000	59.294817
1296.000000	59.338945
1295.000000	59.378261
1294.000000	59.421979
1293.000000	59.465800
1292.000000	59.480543
1291.000000	59.497744
1290.000000	59.527538
1289.000000	59.534603
1288.000000	59.535217
1287.000000	59.549551
1286.000000	59.544125
1285.000000	59.526617
1284.000000	59.510030
1283.000000	59.492625
1282.000000	59.479417
1281.000000	59.450033
1280.000000	59.413993
1279.000000	59.386144
1278.000000	59.361469
1277.000000	59.340583
1276.000000	59.317444
1275.000000	59.300550
1274.000000	59.282735
1273.000000	59.260415
1272.000000	59.240860
1271.000000	59.231952
1270.000000	59.205127
1269.000000	59.195913
1268.000000	59.184241
1267.000000	59.163866
1266.000000	59.144106
1265.000000	59.128850
1264.000000	59.104380
1263.000000	59.073358
1262.000000	59.042437
1261.000000	59.011415
1260.000000	58.981109
1259.000000	58.961963
1258.000000	58.931145
1257.000000	58.893160
1256.000000	58.867666
1255.000000	58.849544
1254.000000	58.795587
1253.000000	58.746135
1252.000000	58.696376
1251.000000	58.644876
1250.000000	58.577199
1249.000000	58.516792
1248.000000	58.446761
1247.000000	58.367515
1246.000000	58.292671
1245.000000	58.226325
1244.000000	58.142165
1243.000000	58.040599
1242.000000	57.945073
1241.000000	57.855077
1240.000000	57.772862
1239.000000	57.673036
1238.000000	57.561744
1237.000000	57.458335
1236.000000	57.363731
1235.000000	57.258479
1234.000000	57.147186
1233.000000	57.043265
1232.000000	56.935658
1231.000000	56.808496
1230.000000	56.683177
1229.000000	56.567993
1228.000000	56.439295
1227.000000	56.308140
1226.000000	56.184254
1225.000000	56.041529
1224.000000	55.898702
1223.000000	55.769594
1222.000000	55.635265
1221.000000	55.484349
1220.000000	55.329338
1219.000000	55.202380
1218.000000	55.089245
1217.000000	54.957475
1216.000000	54.815160
1215.000000	54.687076
1214.000000	54.579572
1213.000000	54.483125
1212.000000	54.384016
1211.000000	54.287160
1210.000000	54.176174
1209.000000	54.080751
1208.000000	53.991676
1207.000000	53.902601
1206.000000	53.818645
1205.000000	53.754859
1204.000000	53.696295
1203.000000	53.637526
1202.000000	53.586231
1201.000000	53.542922
1200.000000	53.503504
1199.000000	53.459683
1198.000000	53.417910
1197.000000	53.352281
1196.000000	53.275595
1195.000000	53.160309
1194.000000	53.038061
1193.000000	52.899739
1192.000000	52.718517
1191.000000	52.509447
1190.000000	52.285837
1189.000000	52.042263
1188.000000	51.815582
1187.000000	51.623406
1186.000000	51.502693
1185.000000	51.444027
1184.000000	51.448634
1183.000000	51.518256
1182.000000	51.669069
1181.000000	51.889914
1180.000000	52.166047
1179.000000	52.470643
1178.000000	52.776365
1177.000000	53.073281
1176.000000	53.337947
1175.000000	53.583876
1174.000000	53.803697
1173.000000	54.007443
1172.000000	54.223476
1171.000000	54.437154
1170.000000	54.634450
1169.000000	54.859800
1168.000000	55.092931
1167.000000	55.329440
1166.000000	55.560626
1165.000000	55.809729
1164.000000	56.065180
1163.000000	56.325750
1162.000000	56.596661
1161.000000	56.889687
1160.000000	57.157732
1159.000000	57.438165
1158.000000	57.727300
1157.000000	58.016334
1156.000000	58.265334
1155.000000	58.526723
1154.000000	58.782482
1153.000000	59.009674
1152.000000	59.209530
1151.000000	59.361879
1150.000000	59.523340
1149.000000	59.667908
1148.000000	59.826093
1147.000000	59.991036
1146.000000	60.155364
1145.000000	60.359622
1144.000000	60.580365
1143.000000	60.819946
1142.000000	61.117170
1141.000000	61.431902
1140.000000	61.764653
1139.000000	62.097917
1138.000000	62.469473
1137.000000	62.844407
1136.000000	63.257634
1135.000000	63.688777
1134.000000	64.109887
1133.000000	64.502842
1132.000000	64.853204
1131.000000	65.209811
1130.000000	65.495465
1129.000000	65.780915
1128.000000	66.022544
1127.000000	66.232946
1126.000000	66.424508
1125.000000	66.579110
1124.000000	66.716818
1123.000000	66.838758
1122.000000	66.919540
1121.000000	66.983122
1120.000000	67.058682
1119.000000	67.103731
1118.000000	67.151647
1117.000000	67.180622
1116.000000	67.230177
1115.000000	67.251063
1114.000000	67.264885
1113.000000	67.272462
1112.000000	67.272564
1111.000000	67.283008
1110.000000	67.293041
1109.000000	67.296932
1108.000000	67.309116
1107.000000	67.315873
1106.000000	67.301130
1105.000000	67.315668
1104.000000	67.298468
1103.000000	67.308911
1102.000000	67.312597
1101.000000	67.306249
1100.000000	67.297546
1099.000000	67.306249
1098.000000	67.317204
1097.000000	67.298058
1096.000000	67.289048
1095.000000	67.268571
1094.000000	67.256183
1093.000000	67.221372
1092.000000	67.228743
1091.000000	67.198028
1090.000000	67.177551
1089.000000	67.136494
1088.000000	67.114686
1087.000000	67.091138
1086.000000	67.050184
1085.000000	67.029707
1084.000000	66.978412
1083.000000	66.952816
1082.000000	66.912988
1081.000000	66.869884
1080.000000	66.818281
1079.000000	66.792890
1078.000000	66.736988
1077.000000	66.713849
1076.000000	66.688252
1075.000000	66.619450
1074.000000	66.591908
1073.000000	66.549725
1072.000000	66.486246
1071.000000	66.480103
1070.000000	66.430447
1069.000000	66.387240
1068.000000	66.318028
1067.000000	66.271954
1066.000000	66.241341
1065.000000	66.204278
1064.000000	66.155747
1063.000000	66.117250
1062.000000	66.063089
1061.000000	66.015480
1060.000000	65.956711
1059.000000	65.906235
1058.000000	65.851868
1057.000000	65.809378
1056.000000	65.758083
1055.000000	65.690407
1054.000000	65.633378
1053.000000	65.593755
1052.000000	65.546556
1051.000000	65.510311
1050.000000	65.447344
1049.000000	65.397483
1048.000000	65.347621
1047.000000	65.307384
1046.000000	65.272573
1045.000000	65.233052
1044.000000	65.174795
1043.000000	65.148687
1042.000000	65.099952
1041.000000	65.053059
1040.000000	65.015074
1039.000000	64.977192
1038.000000	64.937262
1037.000000	64.905113
1036.000000	64.858220
1035.000000	64.795765
1034.000000	64.744573
1033.000000	64.689387
1032.000000	64.655395
1031.000000	64.603793
1030.000000	64.548915
1029.000000	64.475710
1028.000000	64.424005
1027.000000	64.381310
1026.000000	64.301552
1025.000000	64.229268
1024.000000	64.166199
1023.000000	64.097396
1022.000000	64.042825
1021.000000	63.974227
1020.000000	63.891909
1019.000000	63.810616
1018.000000	63.742120
1017.000000	63.690006
1016.000000	63.626630
1015.000000	63.564175
1014.000000	63.512163
1013.000000	63.443360
1012.000000	63.398618
1011.000000	63.364319
1010.000000	63.329303
1009.000000	63.285175
1008.000000	63.225894
1007.000000	63.209615
1006.000000	63.188831
1005.000000	63.164054
1004.000000	63.130983
1003.000000	63.110916
1002.000000	63.097094
1001.000000	63.062180
1000.000000	63.044877
999.000000	63.036891
998.000000	63.031567
997.000000	63.023069
996.000000	63.017643
995.000000	63.014674
994.000000	63.017848
993.000000	63.013752
992.000000	63.014469
991.000000	63.043649
990.000000	63.058802
989.000000	63.080302
988.000000	63.104261
987.000000	63.138969
986.000000	63.168354
985.000000	63.206953
984.000000	63.244938
983.000000	63.269613
982.000000	63.327870
981.000000	63.383465
980.000000	63.417150
979.000000	63.446432
978.000000	63.490867
977.000000	63.548407
976.000000	63.583013
975.000000	63.605845
974.000000	63.656014
973.000000	63.696047
972.000000	63.734441
971.000000	63.782767
970.000000	63.817168
969.000000	63.855153
968.000000	63.879726
967.000000	63.931021
966.000000	63.985797
965.000000	64.030334
964.000000	64.058388
963.000000	64.100161
962.000000	64.169885
961.000000	64.223330
960.000000	64.270939
959.000000	64.328275
958.000000	64.375577
957.000000	64.446530
956.000000	64.503046
955.000000	64.565296
954.000000	64.633792
953.000000	64.679865
952.000000	64.752457
951.000000	64.840815
950.000000	64.913816
949.000000	64.997567
948.000000	65.081727
947.000000	65.151759
946.000000	65.238684
945.000000	65.344652
944.000000	65.437925
943.000000	65.526795
942.000000	65.624676
941.000000	65.715696
940.000000	65.798730
939.000000	65.892822
938.000000	65.986197
937.000000	66.080699
936.000000	66.164040
935.000000	66.230591
934.000000	66.303182
933.000000	66.392359
932.000000	66.500273
931.000000	66.576345
930.000000	66.641053
929.000000	66.715999
928.000000	66.816439
927.000000	66.915547
926.000000	67.001039
925.000000	67.089602
924.000000	67.177960
923.000000	67.290482
922.000000	67.405972
921.000000	67.515115
920.000000	67.618421
919.000000	67.711899
918.000000	67.812748
917.000000	67.917795
916.000000	68.028781
915.000000	68.117037
914.000000	68.203962
913.000000	68.305426
912.000000	68.393067
911.000000	68.492995
910.000000	68.573572
909.000000	68.673500
908.000000	68.781209
907.000000	68.881956
906.000000	68.993044
905.000000	69.116418
904.000000	69.235697
903.000000	69.348218
902.000000	69.466268
901.000000	69.595171
900.000000	69.700116
899.000000	69.810180
898.000000	69.932428
897.000000	70.050375
896.000000	70.171190
895.000000	70.283404
894.000000	70.388451
893.000000	70.486536
892.000000	70.599877
891.000000	70.716186
890.000000	70.823793
889.000000	70.959965
888.000000	71.086104
887.000000	71.218999
886.000000	71.362236
885.000000	71.502811
884.000000	71.650143
883.000000	71.813652
882.000000	71.986888
881.000000	72.155004
880.000000	72.344110
879.000000	72.514888
878.000000	72.686895
877.000000	72.858083
876.000000	73.023845
875.000000	73.186637
874.000000	73.329874
873.000000	73.437890
872.000000	73.523382
871.000000	73.651977
870.000000	73.828285
869.000000	74.063668
868.000000	74.315843
867.000000	74.547028
866.000000	74.818554
865.000000	75.036429
864.000000	75.268127
863.000000	75.502077
862.000000	75.761214
861.000000	75.977963
860.000000	76.228704
859.000000	76.434089
858.000000	76.649200
857.000000	76.687000
856.000000	76.943300
855.000000	76.317300
854.000000	77.584700
853.000000	77.417600
852.000000	77.564300
851.000000	78.365800
850.000000	78.528200
849.000000	78.896700
848.000000	78.949500
847.000000	79.306200
846.000000	79.440800
845.000000	79.477800
844.000000	80.268900
843.000000	80.632600
842.000000	80.561900
841.000000	80.843500
840.000000	81.232000
839.000000	81.714800
838.000000	81.607100
837.000000	81.973000
836.000000	82.105100
835.000000	82.210800
834.000000	82.349600
833.000000	82.468100
832.000000	82.550100
831.000000	82.614600
830.000000	82.853900
829.000000	82.719500
828.000000	83.018200
827.000000	83.051000
826.000000	82.895400
825.000000	82.955100
824.000000	83.013400
823.000000	83.256100
822.000000	82.975300
821.000000	83.015000
820.000000	83.286200
819.000000	83.336800
818.000000	83.379100
817.000000	83.540500
816.000000	83.628200
815.000000	83.923100
814.000000	83.992500
813.000000	84.203100
812.000000	84.474600
811.000000	84.594100
810.000000	84.757700
809.000000	85.055600
808.000000	85.212900
807.000000	85.510400
806.000000	85.745300
805.000000	86.061100
804.000000	86.276700
803.000000	86.628400
802.000000	86.611200
801.000000	87.005900
800.000000	87.101900
799.000000	87.086100
798.000000	87.248000
797.000000	87.652100
796.000000	87.796400
795.000000	87.554400
794.000000	87.769200
793.000000	87.550800
792.000000	87.511000
791.000000	87.646100
790.000000	87.567100
789.000000	87.347500
788.000000	87.220800
787.000000	87.093500
786.000000	86.925600
785.000000	86.784800
784.000000	86.497000
783.000000	86.400200
782.000000	86.344100
781.000000	86.270600
780.000000	85.951000
779.000000	85.964800
778.000000	85.561200
777.000000	85.599100
776.000000	85.473600
775.000000	85.447800
774.000000	85.171900
773.000000	85.128200
772.000000	85.095700
771.000000	84.835200
770.000000	84.819600
769.000000	84.806900
768.000000	84.662900
767.000000	84.636900
766.000000	84.602500
765.000000	84.573800
764.000000	84.606100
763.000000	84.532500
762.000000	84.398700
761.000000	84.266800
760.000000	84.311700
759.000000	84.178100
758.000000	84.231100
757.000000	84.008500
756.000000	83.702400
755.000000	83.611400
754.000000	83.354300
753.000000	83.007800
752.000000	82.912700
751.000000	82.714100
750.000000	82.234100
749.000000	81.991700
748.000000	81.651700
747.000000	81.275200
746.000000	80.894500
745.000000	80.503400
744.000000	80.321700
743.000000	80.092600
742.000000	79.831100
741.000000	79.547600
740.000000	79.345700
739.000000	78.925000
738.000000	78.766900
737.000000	78.660200
736.000000	78.503500
735.000000	78.431000
734.000000	78.299300
733.000000	78.152600
732.000000	78.012500
731.000000	77.932100
730.000000	77.941000
729.000000	77.869700
728.000000	77.828000
727.000000	77.901400
726.000000	77.824200
725.000000	77.788100
724.000000	77.759900
723.000000	77.693600
722.000000	77.633600
721.000000	77.540000
720.000000	77.521900
719.000000	77.393600
718.000000	77.351300
717.000000	77.204900
716.000000	77.155400
715.000000	77.130100
714.000000	77.068800
713.000000	77.012500
712.000000	76.942500
711.000000	76.931300
710.000000	76.827700
709.000000	76.776500
708.000000	76.834700
707.000000	76.791500
706.000000	76.757300
705.000000	76.740400
704.000000	76.759700
703.000000	76.637500
702.000000	76.563300
701.000000	76.519700
700.000000	76.452000
699.000000	76.294500
698.000000	76.148500
697.000000	76.025000
696.000000	75.822700
695.000000	75.658300
694.000000	75.423700
693.000000	75.205900
692.000000	74.977600
691.000000	74.644700
690.000000	74.325200
689.000000	73.954500
688.000000	73.552300
687.000000	73.098100
686.000000	72.666800
685.000000	72.125000
684.000000	71.585100
683.000000	70.991100
682.000000	70.310300
681.000000	69.692400
680.000000	69.048600
679.000000	68.299600
678.000000	67.509500
677.000000	66.778900
676.000000	66.103600
675.000000	65.366100
674.000000	64.578500
673.000000	63.806800
672.000000	63.050300
671.000000	62.348300
670.000000	61.675000
669.000000	61.007400
668.000000	60.407000
667.000000	59.780700
666.000000	59.190700
665.000000	58.689200
664.000000	58.235300
663.000000	57.839000
662.000000	57.524300
661.000000	57.267200
660.000000	57.104900
659.000000	57.060800
658.000000	57.138100
657.000000	57.312900
656.000000	57.573100
655.000000	57.925300
654.000000	58.380100
653.000000	58.948700
652.000000	59.611000
651.000000	60.322000
650.000000	61.103600
649.000000	61.951800
648.000000	62.794400
647.000000	63.601900
646.000000	64.473000
645.000000	65.376500
644.000000	66.219900
643.000000	67.035900
642.000000	67.860100
641.000000	68.649600
640.000000	69.407100
639.000000	70.171600
638.000000	70.921900
637.000000	71.602400
636.000000	72.358600
635.000000	73.147600
634.000000	73.874100
633.000000	74.623600
632.000000	75.407600
631.000000	76.170100
630.000000	76.880100
629.000000	77.623200
628.000000	78.368800
627.000000	79.030900
626.000000	79.642900
625.000000	80.275000
624.000000	80.888000
623.000000	81.466600
622.000000	81.973600
621.000000	82.482100
620.000000	83.035300
619.000000	83.563300
618.000000	84.029200
617.000000	84.470200
616.000000	84.908400
615.000000	85.356300
614.000000	85.777700
613.000000	86.165100
612.000000	86.575700
611.000000	86.946700
610.000000	87.255200
609.000000	87.600400
608.000000	87.853300
607.000000	88.149400
606.000000	88.454600
605.000000	88.653000
604.000000	88.806200
603.000000	88.957800
602.000000	89.119200
601.000000	89.238300
600.000000	89.361700
599.000000	89.458600
598.000000	89.496500
597.000000	89.515000
596.000000	89.572900
595.000000	89.603000
594.000000	89.639400
593.000000	89.663500
592.000000	89.696700
591.000000	89.668800
590.000000	89.681300
589.000000	89.662000
588.000000	89.616700
587.000000	89.601600
586.000000	89.556200
585.000000	89.528500
584.000000	89.465300
583.000000	89.372800
582.000000	89.264300
581.000000	89.168100
580.000000	89.070200
579.000000	88.948900
578.000000	88.777800
577.000000	88.635100
576.000000	88.456300
575.000000	88.294400
574.000000	88.082100
573.000000	87.804500
572.000000	87.554300
571.000000	87.306300
570.000000	87.061300
569.000000	86.779400
568.000000	86.421700
567.000000	86.099800
566.000000	85.720900
565.000000	85.326800
564.000000	84.915000
563.000000	84.439200
562.000000	83.908700
561.000000	83.431500
560.000000	82.889800
559.000000	82.282100
558.000000	81.700300
557.000000	81.104500
556.000000	80.517700
555.000000	79.958200
554.000000	79.328800
553.000000	78.756700
552.000000	78.078300
551.000000	77.395700
550.000000	76.702100
549.000000	76.014900
548.000000	75.225300
547.000000	74.378400
546.000000	73.442600
545.000000	72.441700
544.000000	71.374000
543.000000	70.253800
542.000000	69.050700
541.000000	67.755700
540.000000	66.432100
539.000000	65.025600
538.000000	63.566600
537.000000	62.071300
536.000000	60.541900
535.000000	58.978500
534.000000	57.432800
533.000000	55.839200
532.000000	54.318600
531.000000	52.771400
530.000000	51.266900
529.000000	49.842100
528.000000	48.456200
527.000000	47.171900
526.000000	45.923400
525.000000	44.797500
524.000000	43.721700
523.000000	42.767700
522.000000	41.886900
521.000000	41.089200
520.000000	40.401200
519.000000	39.839800
518.000000	39.320000
517.000000	38.935900
516.000000	38.580400
515.000000	38.284600
514.000000	38.014200
513.000000	37.763900
512.000000	37.529200
511.000000	37.308500
510.000000	37.097900
509.000000	36.886000
508.000000	36.645000
507.000000	36.436000
506.000000	36.190000
505.000000	35.896900
504.000000	35.554200
503.000000	35.193300
502.000000	34.802400
501.000000	34.373500
500.000000	33.900400
499.000000	33.442900
498.000000	32.935600
497.000000	32.366200
496.000000	31.765800
495.000000	31.234100
494.000000	30.700300
493.000000	30.241500
492.000000	29.757800
491.000000	29.298100
490.000000	28.947200
489.000000	28.588500
488.000000	28.293900
487.000000	28.085600
486.000000	27.912200
485.000000	27.739600
484.000000	27.679500
483.000000	27.661900
482.000000	27.632600
481.000000	27.630600
480.000000	27.698900
479.000000	27.795900
478.000000	27.883500
477.000000	28.000900
476.000000	28.087000
475.000000	28.233600
474.000000	28.304500
473.000000	28.445200
472.000000	28.555200
471.000000	28.693200
470.000000	28.770900
469.000000	28.844300
468.000000	28.920300
467.000000	28.941700
466.000000	28.987900
465.000000	29.023500
464.000000	29.018100
463.000000	29.070000
462.000000	29.068400
461.000000	29.031400
460.000000	29.005100
459.000000	28.972100
458.000000	28.888600
457.000000	28.812400
456.000000	28.727500
455.000000	28.579600
454.000000	28.520800
453.000000	28.359400
452.000000	28.219000
451.000000	28.103300
450.000000	27.888900
449.000000	27.707200
448.000000	27.481000
447.000000	27.243800
446.000000	27.055200
445.000000	26.822500
444.000000	26.523500
443.000000	26.251500
442.000000	25.945600
441.000000	25.624400
440.000000	25.312700
439.000000	24.956800
438.000000	24.565100
437.000000	24.187800
436.000000	23.802000
435.000000	23.423200
434.000000	22.936800
433.000000	22.475400
432.000000	22.025100
431.000000	21.580200
430.000000	21.082500
429.000000	20.554000
428.000000	20.028200
427.000000	19.541700
426.000000	18.986100
425.000000	18.459900
424.000000	17.945500
423.000000	17.379600
422.000000	16.821900
421.000000	16.318500
420.000000	15.812500
419.000000	15.271900
418.000000	14.780400
417.000000	14.285300
416.000000	13.835400
415.000000	13.373700
414.000000	12.914100
413.000000	12.520600
412.000000	12.105200
411.000000	11.731700
410.000000	11.389700
409.000000	11.049000
408.000000	10.739000
407.000000	10.468200
406.000000	10.195400
405.000000	9.934400
404.000000	9.698800
403.000000	9.490000
402.000000	9.262900
401.000000	9.068400
400.000000	8.926900
399.000000	8.747100
398.000000	8.602200
397.000000	8.472100
396.000000	8.348900
395.000000	8.221200
394.000000	8.084500
393.000000	7.981700
392.000000	7.875800
391.000000	7.766500
390.000000	7.700100
389.000000	7.603600
388.000000	7.526200
387.000000	7.440800
386.000000	7.374600
385.000000	7.309700
384.000000	7.238600
383.000000	7.180900
382.000000	7.133600
381.000000	7.082900
380.000000	7.014100
379.000000	6.970400
378.000000	6.915400
377.000000	6.863400
376.000000	6.855700
375.000000	6.698600
374.000000	6.513600
373.000000	6.558000
372.000000	6.336900
371.000000	6.495800
370.000000	6.570700
369.000000	6.496500
368.000000	6.517600
367.000000	6.431700
366.000000	6.478300
365.000000	6.521900
364.000000	6.443500
363.000000	6.339100
362.000000	6.294400
361.000000	6.324300
360.000000	6.308300
359.000000	6.332100
358.000000	6.405100
357.000000	6.358000
356.000000	6.300600
355.000000	6.295600
354.000000	6.203100
353.000000	6.180400
352.000000	6.142600
351.000000	6.099800
350.000000	6.241500
349.000000	6.202200
348.000000	6.187700
347.000000	6.209200
346.000000	6.093400
345.000000	6.223200
344.000000	6.172300
343.000000	6.013100
342.000000	5.956700
341.000000	5.993400
340.000000	6.220600
339.000000	6.134700
338.000000	6.123300
337.000000	6.202800
336.000000	6.163000
335.000000	6.171400
334.000000	6.152900
333.000000	6.169800
332.000000	6.324200
331.000000	6.452700
330.000000	6.399700
329.000000	6.324200
328.000000	6.284100
327.000000	6.624600
326.000000	7.118300
325.000000	7.149000
324.000000	6.644800
323.000000	6.560400
322.000000	6.395200
321.000000	6.405000
320.000000	6.390700
319.000000	6.387000
318.000000	6.993200
317.000000	7.257900
316.000000	6.552000
315.000000	6.058900
314.000000	6.059600
313.000000	6.036500
312.000000	6.026800
311.000000	6.066100
310.000000	6.077000
309.000000	6.095300
308.000000	6.077000
307.000000	6.056800
306.000000	6.017900
305.000000	6.040900
304.000000	6.066000
303.000000	6.083800
302.000000	6.111000
301.000000	6.071200
300.000000	6.057900
299.000000	6.106800
298.000000	6.135100
297.000000	6.153100
296.000000	6.131100
295.000000	6.074200
294.000000	6.092200
293.000000	6.105900
292.000000	6.086600
291.000000	6.075600
290.000000	6.110600
289.000000	6.127500
288.000000	6.129100
287.000000	6.162000
286.000000	6.121600
285.000000	6.102000
284.000000	6.115600
283.000000	6.147800
282.000000	6.180900
281.000000	6.164400
280.000000	6.152200
279.000000	6.204400
278.000000	6.205400
277.000000	6.204500
276.000000	6.264700
275.000000	6.254100
274.000000	6.277900
273.000000	6.300700
272.000000	6.329900
271.000000	6.329500
270.000000	6.313100
269.000000	6.341200
268.000000	6.380000
267.000000	6.400900
266.000000	6.453800
265.000000	6.444000
264.000000	6.448100
263.000000	6.491000
262.000000	6.523900
261.000000	6.589900
260.000000	6.581800
259.000000	6.618100
258.000000	6.656800
257.000000	6.644600
256.000000	6.682200
255.000000	6.681800
254.000000	6.687100
253.000000	6.728200
252.000000	6.756000
251.000000	6.775100
250.000000	6.751300
