PE UV       SUBTECH     SPECTRUM    ASCII       PEDS        4.00        
   -1
CICIMAUCR0257-3.Sample.ASC
24/07/01
10:08:09.00
24/07/01
10:08:09.00
Vinicio Soto Monge
C. resplendens. Sex F. Dorsal.
250,000000
1
Lambda 1050
1050L1511233
PerkinElmer UV WinLab 6.3.2.0749 / 2.02.05 Lambda 900 UV/VIS/NIR, Aug  7 2015 09:38:08

0
0
3350/servo 860,8/2
0
0
UV/VIS
1
1
1
DoubleDePol,CommonBeamDepol,RBeamAtt,SBeamAtt,60mm sphere, WB InGaAs Detector
0
0
0
0
Program
Program
3350/servo 860,8/2
3350/0,2 860,8/0,2
3350/0,2 860,8/0,2
0
15.00
 
 
 
0
 
860,8
319,2
860,8
Front
100
on
S:100 R:100
0
0
0
0
 
0
 
 
 
0
 
 
0
0
0
0
0
 
 
 
 
0
0


0
0
#HDR
-1
-1
#GR
nm
%R
1.0
0.0
2500,000000
-1,000000
2251
8
90,810900
5,926100
#DATA
2500.000000	9.290427
2499.000000	9.247396
2498.000000	9.374093
2497.000000	9.301055
2496.000000	9.218119
2495.000000	9.156854
2494.000000	9.163731
2493.000000	9.144247
2492.000000	9.157271
2491.000000	9.100903
2490.000000	9.053809
2489.000000	9.045682
2488.000000	9.066520
2487.000000	9.038180
2486.000000	9.048808
2485.000000	8.952743
2484.000000	8.988898
2483.000000	9.040889
2482.000000	9.052454
2481.000000	9.020051
2480.000000	9.009840
2479.000000	9.019738
2478.000000	8.921694
2477.000000	9.006819
2476.000000	8.992440
2475.000000	9.008590
2474.000000	9.046307
2473.000000	9.012445
2472.000000	9.045995
2471.000000	9.034013
2470.000000	8.994316
2469.000000	9.046932
2468.000000	9.065166
2467.000000	9.054330
2466.000000	9.086212
2465.000000	9.072563
2464.000000	9.133620
2463.000000	9.174046
2462.000000	9.190612
2461.000000	9.237811
2460.000000	9.283134
2459.000000	9.313662
2458.000000	9.367425
2457.000000	9.410873
2456.000000	9.465781
2455.000000	9.539966
2454.000000	9.603314
2453.000000	9.682499
2452.000000	9.738554
2451.000000	9.814822
2450.000000	9.874211
2449.000000	9.950375
2448.000000	10.016537
2447.000000	10.103120
2446.000000	10.182409
2445.000000	10.254927
2444.000000	10.326819
2443.000000	10.416215
2442.000000	10.497796
2441.000000	10.542703
2440.000000	10.619179
2439.000000	10.702845
2438.000000	10.758900
2437.000000	10.831625
2436.000000	10.921647
2435.000000	10.973951
2434.000000	11.024067
2433.000000	11.078142
2432.000000	11.136385
2431.000000	11.216300
2430.000000	11.257768
2429.000000	11.304758
2428.000000	11.364564
2427.000000	11.426350
2426.000000	11.457815
2425.000000	11.503868
2424.000000	11.540647
2423.000000	11.575239
2422.000000	11.605663
2421.000000	11.643067
2420.000000	11.685057
2419.000000	11.722670
2418.000000	11.764242
2417.000000	11.793311
2416.000000	11.826965
2415.000000	11.839260
2414.000000	11.875310
2413.000000	11.911464
2412.000000	11.937512
2411.000000	11.972833
2410.000000	12.002632
2409.000000	12.015551
2408.000000	12.033681
2407.000000	12.068585
2406.000000	12.097029
2405.000000	12.118284
2404.000000	12.138810
2403.000000	12.164858
2402.000000	12.182883
2401.000000	12.206013
2400.000000	12.228518
2399.000000	12.265506
2398.000000	12.308016
2397.000000	12.333439
2396.000000	12.345734
2395.000000	12.363029
2394.000000	12.372719
2393.000000	12.386056
2392.000000	12.412104
2391.000000	12.431483
2390.000000	12.446487
2389.000000	12.465866
2388.000000	12.480141
2387.000000	12.487017
2386.000000	12.490872
2385.000000	12.481912
2384.000000	12.484517
2383.000000	12.472326
2382.000000	12.464824
2381.000000	12.455760
2380.000000	12.446487
2379.000000	12.444820
2378.000000	12.436901
2377.000000	12.424607
2376.000000	12.393349
2375.000000	12.369698
2374.000000	12.362925
2373.000000	12.327917
2372.000000	12.284573
2371.000000	12.265715
2370.000000	12.231332
2369.000000	12.194448
2368.000000	12.154334
2367.000000	12.111824
2366.000000	12.068793
2365.000000	12.017010
2364.000000	11.956267
2363.000000	11.894585
2362.000000	11.832696
2361.000000	11.779662
2360.000000	11.723920
2359.000000	11.667761
2358.000000	11.606809
2357.000000	11.557631
2356.000000	11.524081
2355.000000	11.469797
2354.000000	11.436873
2353.000000	11.426662
2352.000000	11.414888
2351.000000	11.404053
2350.000000	11.419785
2349.000000	11.450939
2348.000000	11.471985
2347.000000	11.500117
2346.000000	11.545128
2345.000000	11.593056
2344.000000	11.630669
2343.000000	11.664010
2342.000000	11.715689
2341.000000	11.756532
2340.000000	11.778933
2339.000000	11.816650
2338.000000	11.834050
2337.000000	11.840823
2336.000000	11.849054
2335.000000	11.854784
2334.000000	11.843323
2333.000000	11.818317
2332.000000	11.797687
2331.000000	11.765805
2330.000000	11.738194
2329.000000	11.684640
2328.000000	11.631502
2327.000000	11.581490
2326.000000	11.513453
2325.000000	11.455419
2324.000000	11.388424
2323.000000	11.297152
2322.000000	11.206818
2321.000000	11.096584
2320.000000	10.987912
2319.000000	10.874865
2318.000000	10.776925
2317.000000	10.662210
2316.000000	10.545724
2315.000000	10.421737
2314.000000	10.315774
2313.000000	10.225857
2312.000000	10.121041
2311.000000	10.036021
2310.000000	9.961107
2309.000000	9.908178
2308.000000	9.861917
2307.000000	9.830868
2306.000000	9.841704
2305.000000	9.846080
2304.000000	9.873586
2303.000000	9.916617
2302.000000	9.985696
2301.000000	10.043522
2300.000000	10.122499
2299.000000	10.207936
2298.000000	10.307543
2297.000000	10.400482
2296.000000	10.488940
2295.000000	10.597924
2294.000000	10.681694
2293.000000	10.739208
2292.000000	10.808391
2291.000000	10.850172
2290.000000	10.876324
2289.000000	10.904559
2288.000000	10.943631
2287.000000	10.951029
2286.000000	10.956030
2285.000000	10.956030
2284.000000	10.924252
2283.000000	10.911123
2282.000000	10.904143
2281.000000	10.856110
2280.000000	10.822978
2279.000000	10.802764
2278.000000	10.757337
2277.000000	10.728580
2276.000000	10.713368
2275.000000	10.677422
2274.000000	10.670650
2273.000000	10.691176
2272.000000	10.710243
2271.000000	10.700657
2270.000000	10.729518
2269.000000	10.786823
2268.000000	10.857569
2267.000000	10.927794
2266.000000	11.041988
2265.000000	11.162850
2264.000000	11.313510
2263.000000	11.461149
2262.000000	11.621083
2261.000000	11.811649
2260.000000	12.008779
2259.000000	12.267694
2258.000000	12.476390
2257.000000	12.713946
2256.000000	12.951502
2255.000000	13.215523
2254.000000	13.456517
2253.000000	13.680320
2252.000000	13.913813
2251.000000	14.118445
2250.000000	14.352875
2249.000000	14.536460
2248.000000	14.721713
2247.000000	14.911132
2246.000000	15.080339
2245.000000	15.242044
2244.000000	15.382702
2243.000000	15.511795
2242.000000	15.633699
2241.000000	15.747164
2240.000000	15.857502
2239.000000	15.949086
2238.000000	16.040150
2237.000000	16.118918
2236.000000	16.223005
2235.000000	16.278748
2234.000000	16.324279
2233.000000	16.401798
2232.000000	16.442849
2231.000000	16.477128
2230.000000	16.522555
2229.000000	16.546415
2228.000000	16.542873
2227.000000	16.552667
2226.000000	16.552875
2225.000000	16.524118
2224.000000	16.524952
2223.000000	16.552667
2222.000000	16.511094
2221.000000	16.477441
2220.000000	16.448788
2219.000000	16.416176
2218.000000	16.405549
2217.000000	16.366998
2216.000000	16.310630
2215.000000	16.278956
2214.000000	16.237384
2213.000000	16.207168
2212.000000	16.175598
2211.000000	16.142465
2210.000000	16.106103
2209.000000	16.084222
2208.000000	16.059425
2207.000000	16.019728
2206.000000	16.017853
2205.000000	16.010455
2204.000000	15.999098
2203.000000	15.968570
2202.000000	15.964402
2201.000000	15.952733
2200.000000	15.890948
2199.000000	15.894490
2198.000000	15.896261
2197.000000	15.899179
2196.000000	15.886988
2195.000000	15.868859
2194.000000	15.839269
2193.000000	15.823848
2192.000000	15.818222
2191.000000	15.810616
2190.000000	15.788944
2189.000000	15.774253
2188.000000	15.765605
2187.000000	15.758625
2186.000000	15.761750
2185.000000	15.734973
2184.000000	15.711009
2183.000000	15.696110
2182.000000	15.668603
2181.000000	15.678710
2180.000000	15.660372
2179.000000	15.623697
2178.000000	15.620259
2177.000000	15.628594
2176.000000	15.598795
2175.000000	15.603067
2174.000000	15.610673
2173.000000	15.617133
2172.000000	15.610360
2171.000000	15.626927
2170.000000	15.656725
2169.000000	15.647661
2168.000000	15.676105
2167.000000	15.691317
2166.000000	15.697048
2165.000000	15.738828
2164.000000	15.769044
2163.000000	15.810824
2162.000000	15.807386
2161.000000	15.860940
2160.000000	15.890114
2159.000000	15.938563
2158.000000	15.964715
2157.000000	16.005558
2156.000000	16.061092
2155.000000	16.119439
2154.000000	16.178932
2153.000000	16.224151
2152.000000	16.260097
2151.000000	16.296043
2150.000000	16.369394
2149.000000	16.442224
2148.000000	16.493903
2147.000000	16.546832
2146.000000	16.595385
2145.000000	16.640396
2144.000000	16.708537
2143.000000	16.758653
2142.000000	16.813666
2141.000000	16.872847
2140.000000	16.933382
2139.000000	16.974329
2138.000000	17.014338
2137.000000	17.063204
2136.000000	17.113112
2135.000000	17.148641
2134.000000	17.185004
2133.000000	17.229910
2132.000000	17.268253
2131.000000	17.302427
2130.000000	17.322745
2129.000000	17.349418
2128.000000	17.385364
2127.000000	17.400263
2126.000000	17.434438
2125.000000	17.456526
2124.000000	17.466425
2123.000000	17.471217
2122.000000	17.479761
2121.000000	17.480386
2120.000000	17.494556
2119.000000	17.494765
2118.000000	17.494973
2117.000000	17.494660
2116.000000	17.476219
2115.000000	17.467258
2114.000000	17.471113
2113.000000	17.465591
2112.000000	17.449025
2111.000000	17.437772
2110.000000	17.420476
2109.000000	17.423498
2108.000000	17.422039
2107.000000	17.408390
2106.000000	17.381925
2105.000000	17.359733
2104.000000	17.350772
2103.000000	17.344312
2102.000000	17.340561
2101.000000	17.322224
2100.000000	17.279610
2099.000000	17.280651
2098.000000	17.279297
2097.000000	17.260334
2096.000000	17.254916
2095.000000	17.251374
2094.000000	17.236370
2093.000000	17.229702
2092.000000	17.233661
2091.000000	17.214282
2090.000000	17.205321
2089.000000	17.212094
2088.000000	17.205425
2087.000000	17.213865
2086.000000	17.211468
2085.000000	17.184274
2084.000000	17.167291
2083.000000	17.166979
2082.000000	17.146453
2081.000000	17.130408
2080.000000	17.123427
2079.000000	17.095503
2078.000000	17.068935
2077.000000	17.042262
2076.000000	17.002148
2075.000000	16.970786
2074.000000	16.937028
2073.000000	16.885245
2072.000000	16.851800
2071.000000	16.822939
2070.000000	16.788452
2069.000000	16.748234
2068.000000	16.685823
2067.000000	16.623934
2066.000000	16.581215
2065.000000	16.541414
2064.000000	16.496820
2063.000000	16.447225
2062.000000	16.402735
2061.000000	16.361476
2060.000000	16.335845
2059.000000	16.312506
2058.000000	16.282915
2057.000000	16.261139
2056.000000	16.271663
2055.000000	16.277185
2054.000000	16.278956
2053.000000	16.311047
2052.000000	16.360642
2051.000000	16.419302
2050.000000	16.488381
2049.000000	16.583091
2048.000000	16.688845
2047.000000	16.767509
2046.000000	16.873472
2045.000000	17.011838
2044.000000	17.130408
2043.000000	17.251478
2042.000000	17.386406
2041.000000	17.531232
2040.000000	17.653448
2039.000000	17.791918
2038.000000	17.913926
2037.000000	18.030204
2036.000000	18.155442
2035.000000	18.259008
2034.000000	18.362262
2033.000000	18.468641
2032.000000	18.567206
2031.000000	18.664833
2030.000000	18.755584
2029.000000	18.824975
2028.000000	18.888532
2027.000000	18.970322
2026.000000	19.050966
2025.000000	19.104729
2024.000000	19.159325
2023.000000	19.212358
2022.000000	19.253618
2021.000000	19.332074
2020.000000	19.373334
2019.000000	19.419491
2018.000000	19.474400
2017.000000	19.491070
2016.000000	19.540144
2015.000000	19.567026
2014.000000	19.584322
2013.000000	19.600263
2012.000000	19.612870
2011.000000	19.626727
2010.000000	19.650066
2009.000000	19.653505
2008.000000	19.650170
2007.000000	19.649962
2006.000000	19.641106
2005.000000	19.626936
2004.000000	19.622456
2003.000000	19.608077
2002.000000	19.578487
2001.000000	19.556502
2000.000000	19.527954
1999.000000	19.482527
1998.000000	19.451165
1997.000000	19.413760
1996.000000	19.370417
1995.000000	19.331345
1994.000000	19.264558
1993.000000	19.215797
1992.000000	19.144738
1991.000000	19.086600
1990.000000	19.033983
1989.000000	18.972510
1988.000000	18.891866
1987.000000	18.822266
1986.000000	18.760272
1985.000000	18.687130
1984.000000	18.608882
1983.000000	18.549077
1982.000000	18.451762
1981.000000	18.369138
1980.000000	18.290161
1979.000000	18.228792
1978.000000	18.137833
1977.000000	18.065629
1976.000000	17.996758
1975.000000	17.913197
1974.000000	17.830261
1973.000000	17.768996
1972.000000	17.704918
1971.000000	17.646884
1970.000000	17.569261
1969.000000	17.480178
1968.000000	17.415892
1967.000000	17.338790
1966.000000	17.273983
1965.000000	17.199278
1964.000000	17.132596
1963.000000	17.086439
1962.000000	17.030280
1961.000000	16.953074
1960.000000	16.882641
1959.000000	16.816062
1958.000000	16.755110
1957.000000	16.676342
1956.000000	16.597573
1955.000000	16.551833
1954.000000	16.479733
1953.000000	16.416176
1952.000000	16.359079
1951.000000	16.316778
1950.000000	16.255513
1949.000000	16.199250
1948.000000	16.153406
1947.000000	16.087348
1946.000000	16.069323
1945.000000	16.024312
1944.000000	16.007642
1943.000000	15.959922
1942.000000	15.934604
1941.000000	15.902096
1940.000000	15.912411
1939.000000	15.892823
1938.000000	15.906055
1937.000000	15.930749
1936.000000	15.952837
1935.000000	15.985657
1934.000000	16.015977
1933.000000	16.048693
1932.000000	16.106832
1931.000000	16.139861
1930.000000	16.229153
1929.000000	16.292605
1928.000000	16.402631
1927.000000	16.500258
1926.000000	16.603929
1925.000000	16.722082
1924.000000	16.837005
1923.000000	16.938591
1922.000000	17.104256
1921.000000	17.280130
1920.000000	17.445482
1919.000000	17.611146
1918.000000	17.782333
1917.000000	17.975503
1916.000000	18.139292
1915.000000	18.285577
1914.000000	18.534281
1913.000000	18.787883
1912.000000	19.039193
1911.000000	19.282271
1910.000000	19.520869
1909.000000	19.714352
1908.000000	19.898563
1907.000000	20.148309
1906.000000	20.447547
1905.000000	20.783564
1904.000000	21.094783
1903.000000	21.384331
1902.000000	21.673045
1901.000000	21.933732
1900.000000	22.251203
1899.000000	22.612851
1898.000000	22.935948
1897.000000	23.275507
1896.000000	23.554949
1895.000000	23.811259
1894.000000	24.107163
1893.000000	24.416194
1892.000000	24.737833
1891.000000	25.119069
1890.000000	25.468839
1889.000000	25.778600
1888.000000	26.137226
1887.000000	26.459282
1886.000000	26.823222
1885.000000	27.197165
1884.000000	27.641749
1883.000000	28.074664
1882.000000	28.514455
1881.000000	28.960394
1880.000000	29.392267
1879.000000	29.781213
1878.000000	30.217046
1877.000000	30.605471
1876.000000	30.965139
1875.000000	31.318035
1874.000000	31.647801
1873.000000	31.977254
1872.000000	32.288786
1871.000000	32.554265
1870.000000	32.805367
1869.000000	33.014791
1868.000000	33.220881
1867.000000	33.346745
1866.000000	33.438433
1865.000000	33.536894
1864.000000	33.610765
1863.000000	33.682866
1862.000000	33.757675
1861.000000	33.845717
1860.000000	33.923235
1859.000000	33.978144
1858.000000	34.008880
1857.000000	34.025238
1856.000000	34.039513
1855.000000	34.036595
1854.000000	34.034199
1853.000000	34.023571
1852.000000	33.979915
1851.000000	33.948554
1850.000000	33.920630
1849.000000	33.902605
1848.000000	33.882705
1847.000000	33.849259
1846.000000	33.788828
1845.000000	33.687450
1844.000000	33.632125
1843.000000	33.601180
1842.000000	33.615350
1841.000000	33.627644
1840.000000	33.582217
1839.000000	33.533560
1838.000000	33.480839
1837.000000	33.437287
1836.000000	33.398528
1835.000000	33.331428
1834.000000	33.243595
1833.000000	33.158679
1832.000000	33.089496
1831.000000	33.030211
1830.000000	32.980408
1829.000000	32.915393
1828.000000	32.832665
1827.000000	32.744206
1826.000000	32.669397
1825.000000	32.615634
1824.000000	32.554891
1823.000000	32.507379
1822.000000	32.503212
1821.000000	32.524988
1820.000000	32.503003
1819.000000	32.458514
1818.000000	32.413086
1817.000000	32.379224
1816.000000	32.373077
1815.000000	32.383496
1814.000000	32.360678
1813.000000	32.353280
1812.000000	32.349321
1811.000000	32.319627
1810.000000	32.276804
1809.000000	32.234086
1808.000000	32.193555
1807.000000	32.160318
1806.000000	32.120830
1805.000000	32.065712
1804.000000	32.006740
1803.000000	31.968814
1802.000000	31.946205
1801.000000	31.905987
1800.000000	31.846181
1799.000000	31.783458
1798.000000	31.730529
1797.000000	31.683330
1796.000000	31.650197
1795.000000	31.616960
1794.000000	31.577263
1793.000000	31.522459
1792.000000	31.475989
1791.000000	31.442544
1790.000000	31.395658
1789.000000	31.340332
1788.000000	31.290633
1787.000000	31.233640
1786.000000	31.162582
1785.000000	31.097567
1784.000000	31.036615
1783.000000	30.971599
1782.000000	30.899082
1781.000000	30.825523
1780.000000	30.755194
1779.000000	30.681947
1778.000000	30.607763
1777.000000	30.511699
1776.000000	30.416885
1775.000000	30.306338
1774.000000	30.184538
1773.000000	30.077638
1772.000000	29.959381
1771.000000	29.836435
1770.000000	29.710051
1769.000000	29.575123
1768.000000	29.445509
1767.000000	29.321313
1766.000000	29.227645
1765.000000	29.150439
1764.000000	29.081048
1763.000000	29.052708
1762.000000	29.040934
1761.000000	29.070837
1760.000000	29.111055
1759.000000	29.158670
1758.000000	29.220977
1757.000000	29.282345
1756.000000	29.329857
1755.000000	29.377472
1754.000000	29.416023
1753.000000	29.440820
1752.000000	29.438945
1751.000000	29.424983
1750.000000	29.403728
1749.000000	29.372471
1748.000000	29.319333
1747.000000	29.240669
1746.000000	29.148147
1745.000000	29.032390
1744.000000	28.909340
1743.000000	28.740134
1742.000000	28.557174
1741.000000	28.357647
1740.000000	28.139054
1739.000000	27.915772
1738.000000	27.688218
1737.000000	27.503070
1736.000000	27.317193
1735.000000	27.171533
1734.000000	27.058486
1733.000000	27.006807
1732.000000	26.989720
1731.000000	27.011808
1730.000000	27.078491
1729.000000	27.176222
1728.000000	27.260721
1727.000000	27.350222
1726.000000	27.433887
1725.000000	27.502133
1724.000000	27.564022
1723.000000	27.616430
1722.000000	27.659357
1721.000000	27.703951
1720.000000	27.733541
1719.000000	27.768654
1718.000000	27.842734
1717.000000	27.925253
1716.000000	27.996312
1715.000000	28.101545
1714.000000	28.191046
1713.000000	28.293361
1712.000000	28.358273
1711.000000	28.408493
1710.000000	28.465173
1709.000000	28.491325
1708.000000	28.522374
1707.000000	28.516435
1706.000000	28.527792
1705.000000	28.506328
1704.000000	28.472779
1703.000000	28.431623
1702.000000	28.359210
1701.000000	28.289610
1700.000000	28.198339
1699.000000	28.075393
1698.000000	27.937131
1697.000000	27.854820
1696.000000	27.793347
1695.000000	27.752817
1694.000000	27.758964
1693.000000	27.858258
1692.000000	27.964742
1691.000000	28.094773
1690.000000	28.217718
1689.000000	28.325869
1688.000000	28.435895
1687.000000	28.510288
1686.000000	28.521019
1685.000000	28.570927
1684.000000	28.664699
1683.000000	28.826613
1682.000000	29.068545
1681.000000	29.410709
1680.000000	29.851647
1679.000000	30.330927
1678.000000	30.843757
1677.000000	31.292613
1676.000000	31.724903
1675.000000	32.099679
1674.000000	32.441426
1673.000000	32.737330
1672.000000	33.000308
1671.000000	33.200564
1670.000000	33.415198
1669.000000	33.607744
1668.000000	33.744026
1667.000000	33.872911
1666.000000	33.998878
1665.000000	34.099735
1664.000000	34.202676
1663.000000	34.293948
1662.000000	34.365527
1661.000000	34.432314
1660.000000	34.500455
1659.000000	34.558385
1658.000000	34.601521
1657.000000	34.642155
1656.000000	34.655388
1655.000000	34.680706
1654.000000	34.695293
1653.000000	34.696543
1652.000000	34.694043
1651.000000	34.674455
1650.000000	34.659138
1649.000000	34.639551
1648.000000	34.619129
1647.000000	34.573076
1646.000000	34.524107
1645.000000	34.515667
1644.000000	34.465030
1643.000000	34.417102
1642.000000	34.366048
1641.000000	34.334583
1640.000000	34.296032
1639.000000	34.229453
1638.000000	34.179858
1637.000000	34.129430
1636.000000	34.067019
1635.000000	34.014194
1634.000000	33.947616
1633.000000	33.887185
1632.000000	33.825191
1631.000000	33.764135
1630.000000	33.679844
1629.000000	33.615975
1628.000000	33.543041
1627.000000	33.464689
1626.000000	33.390297
1625.000000	33.317050
1624.000000	33.241824
1623.000000	33.175871
1622.000000	33.104500
1621.000000	33.026148
1620.000000	32.970406
1619.000000	32.899347
1618.000000	32.819328
1617.000000	32.762961
1616.000000	32.684400
1615.000000	32.616259
1614.000000	32.555203
1613.000000	32.485812
1612.000000	32.439134
1611.000000	32.370472
1610.000000	32.319210
1609.000000	32.255549
1608.000000	32.193868
1607.000000	32.116141
1606.000000	32.069255
1605.000000	31.993404
1604.000000	31.945580
1603.000000	31.872437
1602.000000	31.799504
1601.000000	31.719693
1600.000000	31.668014
1599.000000	31.608625
1598.000000	31.546006
1597.000000	31.477552
1596.000000	31.427228
1595.000000	31.384405
1594.000000	31.329601
1593.000000	31.275630
1592.000000	31.215303
1591.000000	31.163207
1590.000000	31.129241
1589.000000	31.079021
1588.000000	31.043179
1587.000000	31.017652
1586.000000	30.976080
1585.000000	30.938258
1584.000000	30.898665
1583.000000	30.876889
1582.000000	30.851050
1581.000000	30.823022
1580.000000	30.804268
1579.000000	30.773948
1578.000000	30.757174
1577.000000	30.750505
1576.000000	30.732376
1575.000000	30.717164
1574.000000	30.729042
1573.000000	30.733001
1572.000000	30.748317
1571.000000	30.763633
1570.000000	30.770406
1569.000000	30.774573
1568.000000	30.798225
1567.000000	30.825731
1566.000000	30.843027
1565.000000	30.854801
1564.000000	30.877723
1563.000000	30.896582
1562.000000	30.913981
1561.000000	30.937320
1560.000000	30.951074
1559.000000	30.955971
1558.000000	30.963472
1557.000000	30.955241
1556.000000	30.957325
1555.000000	30.964202
1554.000000	30.964202
1553.000000	30.939613
1552.000000	30.921066
1551.000000	30.902937
1550.000000	30.889601
1549.000000	30.861052
1548.000000	30.833963
1547.000000	30.808019
1546.000000	30.769468
1545.000000	30.756757
1544.000000	30.743629
1543.000000	30.719560
1542.000000	30.707578
1541.000000	30.700910
1540.000000	30.691533
1539.000000	30.667048
1538.000000	30.667569
1537.000000	30.672049
1536.000000	30.655170
1535.000000	30.646939
1534.000000	30.654233
1533.000000	30.637874
1532.000000	30.620579
1531.000000	30.625267
1530.000000	30.607972
1529.000000	30.579006
1528.000000	30.551187
1527.000000	30.529411
1526.000000	30.511386
1525.000000	30.492944
1524.000000	30.463667
1523.000000	30.442307
1522.000000	30.423136
1521.000000	30.403131
1520.000000	30.362497
1519.000000	30.321550
1518.000000	30.302274
1517.000000	30.276122
1516.000000	30.246323
1515.000000	30.212878
1514.000000	30.176620
1513.000000	30.134005
1512.000000	30.096184
1511.000000	30.061592
1510.000000	30.020645
1509.000000	29.992618
1508.000000	29.958130
1507.000000	29.913953
1506.000000	29.882592
1505.000000	29.853418
1504.000000	29.825599
1503.000000	29.790591
1502.000000	29.753394
1501.000000	29.721824
1500.000000	29.693484
1499.000000	29.674730
1498.000000	29.663165
1497.000000	29.633783
1496.000000	29.616591
1495.000000	29.611173
1494.000000	29.602109
1493.000000	29.598253
1492.000000	29.596899
1491.000000	29.597628
1490.000000	29.598253
1489.000000	29.588043
1488.000000	29.581062
1487.000000	29.580541
1486.000000	29.579082
1485.000000	29.585751
1484.000000	29.594607
1483.000000	29.600546
1482.000000	29.606068
1481.000000	29.625656
1480.000000	29.638367
1479.000000	29.661498
1478.000000	29.683065
1477.000000	29.706404
1476.000000	29.730993
1475.000000	29.760063
1474.000000	29.791007
1473.000000	29.824557
1472.000000	29.882800
1471.000000	29.918225
1470.000000	29.957297
1469.000000	30.002724
1468.000000	30.025959
1467.000000	30.055549
1466.000000	30.099518
1465.000000	30.151301
1464.000000	30.200896
1463.000000	30.253304
1462.000000	30.300711
1461.000000	30.370415
1460.000000	30.426054
1459.000000	30.495445
1458.000000	30.578485
1457.000000	30.654441
1456.000000	30.732584
1455.000000	30.827086
1454.000000	30.907105
1453.000000	30.993688
1452.000000	31.103610
1451.000000	31.204154
1450.000000	31.306887
1449.000000	31.401805
1448.000000	31.486096
1447.000000	31.597477
1446.000000	31.728758
1445.000000	31.838992
1444.000000	31.932973
1443.000000	32.033413
1442.000000	32.163131
1441.000000	32.291287
1440.000000	32.410898
1439.000000	32.537178
1438.000000	32.655227
1437.000000	32.772129
1436.000000	32.901223
1435.000000	33.029586
1434.000000	33.160763
1433.000000	33.289127
1432.000000	33.436662
1431.000000	33.567526
1430.000000	33.727668
1429.000000	33.883434
1428.000000	34.056808
1427.000000	34.238727
1426.000000	34.422416
1425.000000	34.610794
1424.000000	34.844807
1423.000000	35.066943
1422.000000	35.253342
1421.000000	35.465163
1420.000000	35.709179
1419.000000	35.982993
1418.000000	36.227218
1417.000000	36.423410
1416.000000	36.662529
1415.000000	36.910088
1414.000000	37.224850
1413.000000	37.448549
1412.000000	37.687355
1411.000000	37.926162
1410.000000	38.236964
1409.000000	38.614449
1408.000000	38.924835
1407.000000	39.321179
1406.000000	39.676055
1405.000000	40.051352
1404.000000	40.402789
1403.000000	40.806739
1402.000000	41.132649
1401.000000	41.518574
1400.000000	41.945342
1399.000000	42.247080
1398.000000	42.422955
1397.000000	42.680203
1396.000000	42.966521
1395.000000	43.255548
1394.000000	43.441425
1393.000000	43.585313
1392.000000	43.817139
1391.000000	44.010622
1390.000000	44.227548
1389.000000	44.429888
1388.000000	44.821022
1387.000000	45.113175
1386.000000	45.469405
1385.000000	45.825531
1384.000000	46.322940
1383.000000	46.754813
1382.000000	47.172724
1381.000000	47.508220
1380.000000	47.706184
1379.000000	47.879246
1378.000000	48.032615
1377.000000	48.135140
1376.000000	48.268088
1375.000000	48.426771
1374.000000	48.645260
1373.000000	48.921888
1372.000000	49.254363
1371.000000	49.593193
1370.000000	49.922646
1369.000000	50.196877
1368.000000	50.544564
1367.000000	50.806397
1366.000000	51.001964
1365.000000	51.217431
1364.000000	51.426127
1363.000000	51.545530
1362.000000	51.739743
1361.000000	51.876025
1360.000000	51.949480
1359.000000	51.971464
1358.000000	52.093576
1357.000000	52.201727
1356.000000	52.405942
1355.000000	52.705075
1354.000000	53.097876
1353.000000	53.481821
1352.000000	54.010280
1351.000000	54.484142
1350.000000	54.964360
1349.000000	55.404360
1348.000000	55.807997
1347.000000	56.176105
1346.000000	56.501598
1345.000000	56.839178
1344.000000	57.198847
1343.000000	57.484123
1342.000000	57.781276
1341.000000	58.074158
1340.000000	58.364956
1339.000000	58.624913
1338.000000	58.885496
1337.000000	59.140765
1336.000000	59.369152
1335.000000	59.612022
1334.000000	59.828740
1333.000000	60.061503
1332.000000	60.261134
1331.000000	60.463994
1330.000000	60.651226
1329.000000	60.830227
1328.000000	61.006310
1327.000000	61.167390
1326.000000	61.329616
1325.000000	61.476421
1324.000000	61.616559
1323.000000	61.747319
1322.000000	61.878392
1321.000000	61.998628
1320.000000	62.101361
1319.000000	62.221285
1318.000000	62.327456
1317.000000	62.415394
1316.000000	62.523232
1315.000000	62.643677
1314.000000	62.704629
1313.000000	62.790587
1312.000000	62.862687
1311.000000	62.938851
1310.000000	63.018766
1309.000000	63.074195
1308.000000	63.135043
1307.000000	63.197766
1306.000000	63.235900
1305.000000	63.274555
1304.000000	63.301958
1303.000000	63.330506
1302.000000	63.345510
1301.000000	63.369578
1300.000000	63.376871
1299.000000	63.378642
1298.000000	63.391979
1297.000000	63.401148
1296.000000	63.395626
1295.000000	63.399897
1294.000000	63.384477
1293.000000	63.366348
1292.000000	63.354574
1291.000000	63.336862
1290.000000	63.307271
1289.000000	63.275597
1288.000000	63.241006
1287.000000	63.170989
1286.000000	63.122540
1285.000000	63.073570
1284.000000	63.015327
1283.000000	62.950937
1282.000000	62.881650
1281.000000	62.825803
1280.000000	62.762038
1279.000000	62.696814
1278.000000	62.628465
1277.000000	62.566784
1276.000000	62.510104
1275.000000	62.468427
1274.000000	62.429251
1273.000000	62.367257
1272.000000	62.330894
1271.000000	62.290989
1270.000000	62.263066
1269.000000	62.214721
1268.000000	62.170023
1267.000000	62.133348
1266.000000	62.095735
1265.000000	62.057080
1264.000000	62.023843
1263.000000	61.979874
1262.000000	61.925799
1261.000000	61.883601
1260.000000	61.857345
1259.000000	61.809417
1258.000000	61.752528
1257.000000	61.693556
1256.000000	61.642086
1255.000000	61.599992
1254.000000	61.548001
1253.000000	61.481423
1252.000000	61.414532
1251.000000	61.349204
1250.000000	61.268977
1249.000000	61.184373
1248.000000	61.095185
1247.000000	60.996412
1246.000000	60.901077
1245.000000	60.793135
1244.000000	60.671439
1243.000000	60.537866
1242.000000	60.417525
1241.000000	60.272699
1240.000000	60.126623
1239.000000	59.988048
1238.000000	59.844473
1237.000000	59.697250
1236.000000	59.539296
1235.000000	59.382176
1234.000000	59.222451
1233.000000	59.064809
1232.000000	58.907272
1231.000000	58.738274
1230.000000	58.554063
1229.000000	58.374021
1228.000000	58.209190
1227.000000	58.023625
1226.000000	57.834414
1225.000000	57.649578
1224.000000	57.470369
1223.000000	57.295432
1222.000000	57.104866
1221.000000	56.924407
1220.000000	56.755304
1219.000000	56.586306
1218.000000	56.421892
1217.000000	56.264459
1216.000000	56.127552
1215.000000	55.997312
1214.000000	55.857904
1213.000000	55.718809
1212.000000	55.602532
1211.000000	55.493339
1210.000000	55.377374
1209.000000	55.277767
1208.000000	55.170242
1207.000000	55.080220
1206.000000	55.011871
1205.000000	54.951961
1204.000000	54.918099
1203.000000	54.871629
1202.000000	54.829745
1201.000000	54.798487
1200.000000	54.746496
1199.000000	54.694608
1198.000000	54.608025
1197.000000	54.477786
1196.000000	54.324000
1195.000000	54.141665
1194.000000	53.890251
1193.000000	53.572572
1192.000000	53.220614
1191.000000	52.812913
1190.000000	52.397815
1189.000000	52.032208
1188.000000	51.724426
1187.000000	51.496560
1186.000000	51.380491
1185.000000	51.385388
1184.000000	51.501561
1183.000000	51.739743
1182.000000	52.089200
1181.000000	52.520761
1180.000000	52.985767
1179.000000	53.440145
1178.000000	53.855556
1177.000000	54.238563
1176.000000	54.583853
1175.000000	54.898928
1174.000000	55.181182
1173.000000	55.454163
1172.000000	55.738605
1171.000000	56.057118
1170.000000	56.391677
1169.000000	56.717691
1168.000000	57.035475
1167.000000	57.372117
1166.000000	57.703237
1165.000000	58.056341
1164.000000	58.415489
1163.000000	58.758487
1162.000000	59.126699
1161.000000	59.478032
1160.000000	59.821447
1159.000000	60.152150
1158.000000	60.471079
1157.000000	60.773443
1156.000000	61.049758
1155.000000	61.279083
1154.000000	61.461626
1153.000000	61.605723
1152.000000	61.698557
1151.000000	61.744297
1150.000000	61.776180
1149.000000	61.799519
1148.000000	61.824004
1147.000000	61.865472
1146.000000	61.958202
1145.000000	62.088650
1144.000000	62.270151
1143.000000	62.510937
1142.000000	62.782772
1141.000000	63.083573
1140.000000	63.380726
1139.000000	63.716743
1138.000000	64.032964
1137.000000	64.379713
1136.000000	64.740110
1135.000000	65.095403
1134.000000	65.446527
1133.000000	65.748057
1132.000000	66.036667
1131.000000	66.275161
1130.000000	66.545329
1129.000000	66.786428
1128.000000	66.958865
1127.000000	67.100981
1126.000000	67.225698
1125.000000	67.327285
1124.000000	67.405116
1123.000000	67.489198
1122.000000	67.547025
1121.000000	67.580678
1120.000000	67.604747
1119.000000	67.639651
1118.000000	67.662781
1117.000000	67.670908
1116.000000	67.668199
1115.000000	67.674971
1114.000000	67.633712
1113.000000	67.649861
1112.000000	67.633712
1111.000000	67.625272
1110.000000	67.615478
1109.000000	67.602871
1108.000000	67.597349
1107.000000	67.573281
1106.000000	67.575260
1105.000000	67.556089
1104.000000	67.555777
1103.000000	67.529416
1102.000000	67.529625
1101.000000	67.500138
1100.000000	67.464922
1099.000000	67.445855
1098.000000	67.421161
1097.000000	67.410117
1096.000000	67.365315
1095.000000	67.319262
1094.000000	67.265916
1093.000000	67.232679
1092.000000	67.198400
1091.000000	67.138907
1090.000000	67.082956
1089.000000	67.018670
1088.000000	66.983454
1087.000000	66.918334
1086.000000	66.844567
1085.000000	66.775384
1084.000000	66.726622
1083.000000	66.649104
1082.000000	66.602009
1081.000000	66.510529
1080.000000	66.459580
1079.000000	66.359869
1078.000000	66.307773
1077.000000	66.237131
1076.000000	66.175242
1075.000000	66.124709
1074.000000	66.048858
1073.000000	65.985405
1072.000000	65.904240
1071.000000	65.834953
1070.000000	65.776397
1069.000000	65.710965
1068.000000	65.632092
1067.000000	65.566973
1066.000000	65.476951
1065.000000	65.419646
1064.000000	65.363383
1063.000000	65.305557
1062.000000	65.240333
1061.000000	65.172400
1060.000000	65.107802
1059.000000	65.019343
1058.000000	64.982980
1057.000000	64.912964
1056.000000	64.851491
1055.000000	64.759073
1054.000000	64.706873
1053.000000	64.663009
1052.000000	64.580489
1051.000000	64.532770
1050.000000	64.490572
1049.000000	64.426390
1048.000000	64.376066
1047.000000	64.323032
1046.000000	64.286878
1045.000000	64.222488
1044.000000	64.183208
1043.000000	64.139968
1042.000000	64.094958
1041.000000	64.047238
1040.000000	63.993163
1039.000000	63.955966
1038.000000	63.906163
1037.000000	63.834271
1036.000000	63.788323
1035.000000	63.731643
1034.000000	63.688091
1033.000000	63.627139
1032.000000	63.549412
1031.000000	63.480125
1030.000000	63.402502
1029.000000	63.327380
1028.000000	63.247257
1027.000000	63.170260
1026.000000	63.092429
1025.000000	63.007513
1024.000000	62.906864
1023.000000	62.815072
1022.000000	62.737449
1021.000000	62.655867
1020.000000	62.562824
1019.000000	62.478221
1018.000000	62.397369
1017.000000	62.305993
1016.000000	62.239831
1015.000000	62.163042
1014.000000	62.079272
1013.000000	62.019362
1012.000000	61.974352
1011.000000	61.942052
1010.000000	61.904856
1009.000000	61.862450
1008.000000	61.849322
1007.000000	61.819211
1006.000000	61.783682
1005.000000	61.755758
1004.000000	61.748673
1003.000000	61.722626
1002.000000	61.688138
1001.000000	61.656464
1000.000000	61.640314
999.000000	61.634375
998.000000	61.616767
997.000000	61.591970
996.000000	61.571965
995.000000	61.566443
994.000000	61.565609
993.000000	61.547376
992.000000	61.532060
991.000000	61.538728
990.000000	61.548209
989.000000	61.553836
988.000000	61.549147
987.000000	61.549668
986.000000	61.554044
985.000000	61.577279
984.000000	61.584572
983.000000	61.588427
982.000000	61.611558
981.000000	61.629166
980.000000	61.636147
979.000000	61.651359
978.000000	61.655735
977.000000	61.673760
976.000000	61.685742
975.000000	61.704184
974.000000	61.709393
973.000000	61.736379
972.000000	61.750549
971.000000	61.761801
970.000000	61.770137
969.000000	61.790871
968.000000	61.818273
967.000000	61.831818
966.000000	61.843800
965.000000	61.851406
964.000000	61.894333
963.000000	61.938718
962.000000	61.949971
961.000000	61.975394
960.000000	62.003838
959.000000	62.036137
958.000000	62.089171
957.000000	62.128347
956.000000	62.141579
955.000000	62.172524
954.000000	62.204302
953.000000	62.235247
952.000000	62.280883
951.000000	62.318287
950.000000	62.344960
949.000000	62.375488
948.000000	62.418624
947.000000	62.466968
946.000000	62.519481
945.000000	62.552093
944.000000	62.588455
943.000000	62.656180
942.000000	62.712235
941.000000	62.759329
940.000000	62.821948
939.000000	62.898425
938.000000	62.980111
937.000000	63.047001
936.000000	63.120040
935.000000	63.209540
934.000000	63.311022
933.000000	63.396251
932.000000	63.482000
931.000000	63.586712
930.000000	63.690695
929.000000	63.808432
928.000000	63.918249
927.000000	64.026400
926.000000	64.146949
925.000000	64.281669
924.000000	64.415138
923.000000	64.549753
922.000000	64.685202
921.000000	64.825756
920.000000	64.961100
919.000000	65.101654
918.000000	65.243146
917.000000	65.390056
916.000000	65.542592
915.000000	65.698983
914.000000	65.835786
913.000000	65.953835
912.000000	66.092305
911.000000	66.240153
910.000000	66.393627
909.000000	66.544496
908.000000	66.706409
907.000000	66.871344
906.000000	67.033570
905.000000	67.216842
904.000000	67.394384
903.000000	67.569842
902.000000	67.758533
901.000000	67.938367
900.000000	68.113096
899.000000	68.303245
898.000000	68.507460
897.000000	68.708028
896.000000	68.900574
895.000000	69.083951
894.000000	69.273475
893.000000	69.453205
892.000000	69.634393
891.000000	69.797349
890.000000	69.984059
889.000000	70.164831
888.000000	70.357377
887.000000	70.539712
886.000000	70.734133
885.000000	70.902193
884.000000	71.082132
883.000000	71.256027
882.000000	71.447531
881.000000	71.597358
880.000000	71.765002
879.000000	71.937022
878.000000	72.083306
877.000000	72.198854
876.000000	72.344826
875.000000	72.440057
874.000000	72.516013
873.000000	72.550813
872.000000	72.564983
871.000000	72.669174
870.000000	72.893706
869.000000	73.139494
868.000000	73.429250
867.000000	73.716401
866.000000	73.966669
865.000000	74.226730
864.000000	74.497107
863.000000	74.768212
862.000000	75.028482
861.000000	75.280313
860.000000	75.538916
859.000000	75.825963
858.000000	76.089567
857.000000	75.674100
856.000000	76.275600
855.000000	76.319000
854.000000	76.663200
853.000000	77.319800
852.000000	77.017000
851.000000	77.456300
850.000000	77.798000
849.000000	77.620200
848.000000	78.081800
847.000000	78.895400
846.000000	79.014500
845.000000	79.483600
844.000000	79.354400
843.000000	80.152600
842.000000	80.194300
841.000000	80.423400
840.000000	81.004000
839.000000	81.007600
838.000000	81.272800
837.000000	81.521900
836.000000	81.800800
835.000000	82.192100
834.000000	82.912500
833.000000	82.859800
832.000000	82.946600
831.000000	83.319700
830.000000	83.520000
829.000000	83.620200
828.000000	83.935900
827.000000	84.053300
826.000000	84.163400
825.000000	84.240200
824.000000	84.403100
823.000000	84.324500
822.000000	84.637300
821.000000	84.454800
820.000000	84.895200
819.000000	84.635000
818.000000	84.523600
817.000000	84.910700
816.000000	84.883200
815.000000	85.071000
814.000000	84.990500
813.000000	85.302800
812.000000	85.436700
811.000000	85.608500
810.000000	85.687600
809.000000	86.002900
808.000000	85.952500
807.000000	86.121700
806.000000	86.357500
805.000000	86.552000
804.000000	86.805100
803.000000	87.134300
802.000000	87.370200
801.000000	87.415700
800.000000	87.826600
799.000000	88.146600
798.000000	88.294900
797.000000	88.584400
796.000000	88.840800
795.000000	88.951400
794.000000	89.120100
793.000000	89.349400
792.000000	89.642800
791.000000	89.396600
790.000000	89.525900
789.000000	89.778900
788.000000	89.910400
787.000000	89.740100
786.000000	89.871300
785.000000	89.809200
784.000000	89.754500
783.000000	89.830800
782.000000	89.734600
781.000000	89.488400
780.000000	89.631400
779.000000	89.356600
778.000000	89.389600
777.000000	89.324400
776.000000	89.117200
775.000000	88.865300
774.000000	88.800400
773.000000	88.661500
772.000000	88.558800
771.000000	88.352300
770.000000	88.112100
769.000000	88.094800
768.000000	87.978600
767.000000	87.814500
766.000000	87.738000
765.000000	87.577900
764.000000	87.677600
763.000000	87.777800
762.000000	87.622100
761.000000	87.513400
760.000000	87.511300
759.000000	87.309800
758.000000	87.469000
757.000000	87.407000
756.000000	87.393000
755.000000	87.409000
754.000000	87.294300
753.000000	87.270600
752.000000	87.182800
751.000000	86.927300
750.000000	86.932100
749.000000	86.949700
748.000000	86.735200
747.000000	86.598500
746.000000	86.422900
745.000000	86.320400
744.000000	86.080400
743.000000	85.807900
742.000000	85.633700
741.000000	85.346100
740.000000	85.142500
739.000000	84.899700
738.000000	84.649700
737.000000	84.343500
736.000000	84.108200
735.000000	83.895200
734.000000	83.643300
733.000000	83.428200
732.000000	83.197300
731.000000	83.038200
730.000000	82.895400
729.000000	82.628400
728.000000	82.497000
727.000000	82.400400
726.000000	82.292800
725.000000	82.157800
724.000000	82.194000
723.000000	82.127400
722.000000	82.065000
721.000000	82.021400
720.000000	81.976900
719.000000	81.975400
718.000000	81.906500
717.000000	81.887300
716.000000	81.805800
715.000000	81.733700
714.000000	81.679300
713.000000	81.689900
712.000000	81.607500
711.000000	81.541800
710.000000	81.482500
709.000000	81.354800
708.000000	81.191300
707.000000	81.027000
706.000000	80.854400
705.000000	80.672600
704.000000	80.562100
703.000000	80.406900
702.000000	80.222000
701.000000	80.025100
700.000000	79.829900
699.000000	79.696800
698.000000	79.451200
697.000000	79.235300
696.000000	79.049200
695.000000	78.857500
694.000000	78.553500
693.000000	78.309300
692.000000	78.046200
691.000000	77.794200
690.000000	77.422600
689.000000	77.041900
688.000000	76.633000
687.000000	76.272700
686.000000	75.867000
685.000000	75.401000
684.000000	74.929300
683.000000	74.443400
682.000000	73.922900
681.000000	73.375800
680.000000	72.903800
679.000000	72.387900
678.000000	71.835100
677.000000	71.317700
676.000000	70.716000
675.000000	70.106200
674.000000	69.441300
673.000000	68.713700
672.000000	68.043200
671.000000	67.324900
670.000000	66.530400
669.000000	65.760100
668.000000	64.928900
667.000000	64.144000
666.000000	63.328100
665.000000	62.477300
664.000000	61.684300
663.000000	60.872100
662.000000	60.088100
661.000000	59.403700
660.000000	58.776000
659.000000	58.204000
658.000000	57.699800
657.000000	57.278800
656.000000	56.927600
655.000000	56.640800
654.000000	56.447100
653.000000	56.332500
652.000000	56.316700
651.000000	56.350000
650.000000	56.468200
649.000000	56.696100
648.000000	57.002100
647.000000	57.352400
646.000000	57.792100
645.000000	58.313200
644.000000	58.933900
643.000000	59.614700
642.000000	60.338200
641.000000	61.129400
640.000000	61.949700
639.000000	62.829600
638.000000	63.745800
637.000000	64.695000
636.000000	65.662900
635.000000	66.641400
634.000000	67.614100
633.000000	68.561700
632.000000	69.496300
631.000000	70.424200
630.000000	71.303400
629.000000	72.152300
628.000000	72.984600
627.000000	73.749300
626.000000	74.514400
625.000000	75.281900
624.000000	76.059800
623.000000	76.833200
622.000000	77.554400
621.000000	78.253800
620.000000	78.941200
619.000000	79.578700
618.000000	80.225500
617.000000	80.864500
616.000000	81.409900
615.000000	81.978700
614.000000	82.504600
613.000000	82.959300
612.000000	83.434000
611.000000	83.924300
610.000000	84.353600
609.000000	84.811400
608.000000	85.228500
607.000000	85.604900
606.000000	86.004100
605.000000	86.384600
604.000000	86.749200
603.000000	87.090600
602.000000	87.459700
601.000000	87.788200
600.000000	88.094200
599.000000	88.413700
598.000000	88.672300
597.000000	88.953800
596.000000	89.201500
595.000000	89.386200
594.000000	89.617000
593.000000	89.759000
592.000000	89.944400
591.000000	90.128800
590.000000	90.287600
589.000000	90.384400
588.000000	90.505100
587.000000	90.616300
586.000000	90.647500
585.000000	90.702200
584.000000	90.778900
583.000000	90.810900
582.000000	90.753700
581.000000	90.740000
580.000000	90.753300
579.000000	90.684900
578.000000	90.649000
577.000000	90.541200
576.000000	90.469900
575.000000	90.409400
574.000000	90.292700
573.000000	90.209600
572.000000	90.063300
571.000000	89.921200
570.000000	89.768000
569.000000	89.595200
568.000000	89.410600
567.000000	89.221400
566.000000	88.966800
565.000000	88.698600
564.000000	88.464500
563.000000	88.176700
562.000000	87.849900
561.000000	87.483300
560.000000	87.133200
559.000000	86.726000
558.000000	86.328800
557.000000	85.957400
556.000000	85.524800
555.000000	85.130000
554.000000	84.696500
553.000000	84.182600
552.000000	83.736200
551.000000	83.233500
550.000000	82.738100
549.000000	82.218600
548.000000	81.680400
547.000000	81.093300
546.000000	80.487600
545.000000	79.888800
544.000000	79.176500
543.000000	78.491700
542.000000	77.712300
541.000000	76.842500
540.000000	75.978600
539.000000	75.025600
538.000000	74.035800
537.000000	73.060000
536.000000	71.972600
535.000000	70.794700
534.000000	69.618200
533.000000	68.362700
532.000000	67.038800
531.000000	65.662600
530.000000	64.278400
529.000000	62.858600
528.000000	61.426100
527.000000	60.004400
526.000000	58.540000
525.000000	57.091200
524.000000	55.637700
523.000000	54.218000
522.000000	52.812200
521.000000	51.485700
520.000000	50.205000
519.000000	48.994100
518.000000	47.839200
517.000000	46.793100
516.000000	45.842000
515.000000	44.928600
514.000000	44.142400
513.000000	43.407000
512.000000	42.744200
511.000000	42.182800
510.000000	41.611500
509.000000	41.156600
508.000000	40.703900
507.000000	40.286300
506.000000	39.890500
505.000000	39.534100
504.000000	39.135400
503.000000	38.751600
502.000000	38.348300
501.000000	37.895700
500.000000	37.465300
499.000000	36.970800
498.000000	36.471800
497.000000	35.927500
496.000000	35.349300
495.000000	34.762500
494.000000	34.140600
493.000000	33.540500
492.000000	32.808200
491.000000	32.159300
490.000000	31.543900
489.000000	30.927600
488.000000	30.375200
487.000000	29.860900
486.000000	29.412500
485.000000	29.013900
484.000000	28.715000
483.000000	28.485800
482.000000	28.264600
481.000000	28.171200
480.000000	28.112500
479.000000	28.131200
478.000000	28.160400
477.000000	28.237600
476.000000	28.380000
475.000000	28.510500
474.000000	28.673500
473.000000	28.892100
472.000000	29.062700
471.000000	29.235700
470.000000	29.416400
469.000000	29.609300
468.000000	29.756000
467.000000	29.863700
466.000000	30.006800
465.000000	30.054400
464.000000	30.145000
463.000000	30.221200
462.000000	30.256500
461.000000	30.278700
460.000000	30.269700
459.000000	30.170900
458.000000	30.154700
457.000000	30.119900
456.000000	30.013800
455.000000	29.934000
454.000000	29.844400
453.000000	29.711200
452.000000	29.549000
451.000000	29.418400
450.000000	29.284700
449.000000	29.110300
448.000000	28.953500
447.000000	28.711500
446.000000	28.492100
445.000000	28.309300
444.000000	28.055600
443.000000	27.800700
442.000000	27.545500
441.000000	27.287800
440.000000	26.971900
439.000000	26.688700
438.000000	26.358000
437.000000	26.055600
436.000000	25.745700
435.000000	25.386000
434.000000	25.037800
433.000000	24.659500
432.000000	24.249600
431.000000	23.836900
430.000000	23.428600
429.000000	23.030700
428.000000	22.585200
427.000000	22.108800
426.000000	21.636900
425.000000	21.213000
424.000000	20.708200
423.000000	20.188600
422.000000	19.645700
421.000000	19.128500
420.000000	18.577000
419.000000	18.020000
418.000000	17.486700
417.000000	16.939300
416.000000	16.422000
415.000000	15.881300
414.000000	15.355900
413.000000	14.839000
412.000000	14.327400
411.000000	13.841900
410.000000	13.364800
409.000000	12.906400
408.000000	12.497800
407.000000	12.092100
406.000000	11.724300
405.000000	11.369900
404.000000	11.008400
403.000000	10.683700
402.000000	10.384900
401.000000	10.118600
400.000000	9.843400
399.000000	9.632400
398.000000	9.414200
397.000000	9.197700
396.000000	9.013700
395.000000	8.844000
394.000000	8.705000
393.000000	8.558000
392.000000	8.425000
391.000000	8.307300
390.000000	8.181100
389.000000	8.064600
388.000000	7.972000
387.000000	7.875900
386.000000	7.789900
385.000000	7.718700
384.000000	7.627500
383.000000	7.557000
382.000000	7.512700
381.000000	7.441200
380.000000	7.367700
379.000000	7.310100
378.000000	7.293400
377.000000	7.224800
376.000000	7.147400
375.000000	7.116900
374.000000	7.096800
373.000000	7.023300
372.000000	6.942700
371.000000	6.980100
370.000000	6.798900
369.000000	6.683800
368.000000	6.874700
367.000000	6.910600
366.000000	6.817100
365.000000	6.749900
364.000000	6.799100
363.000000	6.771900
362.000000	6.735500
361.000000	6.746300
360.000000	6.731700
359.000000	6.631900
358.000000	6.599900
357.000000	6.529900
356.000000	6.533400
355.000000	6.475700
354.000000	6.413900
353.000000	6.447800
352.000000	6.429800
351.000000	6.293400
350.000000	6.237500
349.000000	6.293200
348.000000	6.242000
347.000000	6.263500
346.000000	6.346700
345.000000	6.289500
344.000000	6.276800
343.000000	6.425000
342.000000	6.301900
341.000000	6.066700
340.000000	6.155000
339.000000	6.256300
338.000000	6.239300
337.000000	6.098700
336.000000	6.035200
335.000000	6.234900
334.000000	6.215100
333.000000	5.980100
332.000000	6.034200
331.000000	5.992000
330.000000	6.073800
329.000000	6.212900
328.000000	6.128900
327.000000	6.053400
326.000000	5.930700
325.000000	5.982000
324.000000	6.156100
323.000000	6.197200
322.000000	6.229000
321.000000	5.942300
320.000000	5.926100
319.000000	6.164000
318.000000	6.386400
317.000000	6.346400
316.000000	6.063000
315.000000	5.953300
314.000000	5.978100
313.000000	5.960200
312.000000	5.976000
311.000000	5.969600
310.000000	5.944700
309.000000	5.974100
308.000000	5.973400
307.000000	5.957900
306.000000	6.016800
305.000000	6.009800
304.000000	5.961800
303.000000	5.971000
302.000000	6.030500
301.000000	6.012500
300.000000	5.985400
299.000000	5.965500
298.000000	5.968900
297.000000	5.996300
296.000000	6.020800
295.000000	6.053200
294.000000	6.028500
293.000000	5.974500
292.000000	5.968000
291.000000	6.028800
290.000000	6.044700
289.000000	6.032900
288.000000	6.012000
287.000000	6.000900
286.000000	6.067600
285.000000	6.054000
284.000000	6.027900
283.000000	6.059600
282.000000	6.067000
281.000000	6.047400
280.000000	6.065900
279.000000	6.078300
278.000000	6.071800
277.000000	6.048800
276.000000	6.084500
275.000000	6.118200
274.000000	6.127000
273.000000	6.142300
272.000000	6.125600
271.000000	6.139500
270.000000	6.188300
269.000000	6.194600
268.000000	6.208800
267.000000	6.253100
266.000000	6.247500
265.000000	6.238400
264.000000	6.280000
263.000000	6.297000
262.000000	6.362600
261.000000	6.368700
260.000000	6.371800
259.000000	6.420200
258.000000	6.418400
257.000000	6.419000
256.000000	6.476000
255.000000	6.474700
254.000000	6.446600
253.000000	6.487600
252.000000	6.513800
251.000000	6.525900
250.000000	6.556800
