PE UV       SUBTECH     SPECTRUM    ASCII       PEDS        4.00        
   -1
CICIMAUCR0234-3.ASC
24/06/17
14:16:11.00
24/06/17
14:16:11.00
Vinicio Soto Monge
C. resplendens. Sex M. Dorsal. 
250,000000
1
Lambda 1050
1050L1511233
PerkinElmer UV WinLab 6.3.2.0749 / 2.02.05 Lambda 900 UV/VIS/NIR, Aug  7 2015 09:38:08

0
0
3350/servo 860,8/2
0
0
UV/VIS
1
1
1
DoubleDePol,CommonBeamDepol,RBeamAtt,SBeamAtt,60mm sphere, WB InGaAs Detector
0
0
0
0
Program
Program
3350/servo 860,8/2
3350/0,2 860,8/0,2
3350/0,2 860,8/0,2
0
15.00
 
 
 
0
 
860,8
319,2
860,8
Front
100
on
S:100 R:100
0
0
0
0
 
0
 
 
 
0
 
 
0
0
0
0
0
 
 
 
 
0
0


0
0
#HDR
-1
-1
#GR
nm
%R
1.0
0.0
2500,000000
-1,000000
2251
8
91,076400
5,684200
#DATA
2482.000000	8.113496
2481.000000	8.053034
2480.000000	8.074274
2479.000000	8.130690
2478.000000	8.082928
2477.000000	8.088322
2476.000000	8.094728
2475.000000	8.127993
2474.000000	8.075061
2473.000000	8.075848
2472.000000	8.131589
2471.000000	8.109225
2470.000000	8.089895
2469.000000	8.095065
2468.000000	8.111136
2467.000000	8.119452
2466.000000	8.099673
2465.000000	8.106753
2464.000000	8.139680
2463.000000	8.185532
2462.000000	8.215988
2461.000000	8.236553
2460.000000	8.251388
2459.000000	8.274089
2458.000000	8.304881
2457.000000	8.324211
2456.000000	8.397259
2455.000000	8.388268
2454.000000	8.456596
2453.000000	8.489749
2452.000000	8.531105
2451.000000	8.604153
2450.000000	8.636407
2449.000000	8.735302
2448.000000	8.765308
2447.000000	8.793628
2446.000000	8.846448
2445.000000	8.916911
2444.000000	8.960965
2443.000000	9.007041
2442.000000	9.060872
2441.000000	9.119872
2440.000000	9.178535
2439.000000	9.234501
2438.000000	9.300469
2437.000000	9.337555
2436.000000	9.389475
2435.000000	9.448026
2434.000000	9.476234
2433.000000	9.541865
2432.000000	9.594234
2431.000000	9.648065
2430.000000	9.681667
2429.000000	9.731902
2428.000000	9.775169
2427.000000	9.833944
2426.000000	9.884066
2425.000000	9.910588
2424.000000	9.931379
2423.000000	9.987120
2422.000000	10.023756
2421.000000	10.055785
2420.000000	10.097816
2419.000000	10.137487
2418.000000	10.149174
2417.000000	10.191093
2416.000000	10.216828
2415.000000	10.245485
2414.000000	10.277177
2413.000000	10.302013
2412.000000	10.339324
2411.000000	10.376522
2410.000000	10.409675
2409.000000	10.435972
2408.000000	10.464180
2407.000000	10.489016
2406.000000	10.524416
2405.000000	10.550264
2404.000000	10.616457
2403.000000	10.691415
2402.000000	10.751876
2401.000000	10.810764
2400.000000	10.844366
2399.000000	10.868753
2398.000000	10.886734
2397.000000	10.921010
2396.000000	10.968435
2395.000000	11.018220
2394.000000	11.062948
2393.000000	11.091493
2392.000000	11.109025
2391.000000	11.150044
2390.000000	11.189153
2389.000000	11.229048
2388.000000	11.253660
2387.000000	11.267033
2386.000000	11.303445
2385.000000	11.337609
2384.000000	11.373009
2383.000000	11.388742
2382.000000	11.402340
2381.000000	11.411219
2380.000000	11.417062
2379.000000	11.429424
2378.000000	11.447967
2377.000000	11.454373
2376.000000	11.468308
2375.000000	11.472354
2374.000000	11.456733
2373.000000	11.452125
2372.000000	11.476063
2371.000000	11.494830
2370.000000	11.496404
2369.000000	11.487863
2368.000000	11.469545
2367.000000	11.446956
2366.000000	11.433245
2365.000000	11.430548
2364.000000	11.401554
2363.000000	11.361996
2362.000000	11.332102
2361.000000	11.313334
2360.000000	11.289285
2359.000000	11.252761
2358.000000	11.219721
2357.000000	11.188928
2356.000000	11.152966
2355.000000	11.137457
2354.000000	11.129141
2353.000000	11.096888
2352.000000	11.090931
2351.000000	11.096213
2350.000000	11.100821
2349.000000	11.130602
2348.000000	11.150831
2347.000000	11.182859
2346.000000	11.225789
2345.000000	11.273664
2344.000000	11.337047
2343.000000	11.392900
2342.000000	11.432122
2341.000000	11.471343
2340.000000	11.543716
2339.000000	11.598446
2338.000000	11.608561
2337.000000	11.628677
2336.000000	11.686778
2335.000000	11.707456
2334.000000	11.711502
2333.000000	11.732630
2332.000000	11.744879
2331.000000	11.731506
2330.000000	11.716896
2329.000000	11.696443
2328.000000	11.674528
2327.000000	11.650366
2326.000000	11.597884
2325.000000	11.553494
2324.000000	11.513036
2323.000000	11.456508
2322.000000	11.389866
2321.000000	11.318279
2320.000000	11.232420
2319.000000	11.169598
2318.000000	11.080929
2317.000000	10.964390
2316.000000	10.881115
2315.000000	10.794806
2314.000000	10.697034
2313.000000	10.589485
2312.000000	10.508121
2311.000000	10.440804
2310.000000	10.361912
2309.000000	10.291224
2308.000000	10.246946
2307.000000	10.203792
2306.000000	10.172212
2305.000000	10.153894
2304.000000	10.149399
2303.000000	10.167268
2302.000000	10.185923
2301.000000	10.227055
2300.000000	10.277739
2299.000000	10.364272
2298.000000	10.436759
2297.000000	10.512728
2296.000000	10.606679
2295.000000	10.679390
2294.000000	10.765924
2293.000000	10.861785
2292.000000	10.946409
2291.000000	10.994283
2290.000000	11.056543
2289.000000	11.116105
2288.000000	11.158922
2287.000000	11.189602
2286.000000	11.202751
2285.000000	11.223092
2284.000000	11.216911
2283.000000	11.223317
2282.000000	11.194322
2281.000000	11.158360
2280.000000	11.153303
2279.000000	11.111048
2278.000000	11.079806
2277.000000	11.055868
2276.000000	11.012039
2275.000000	10.960794
2274.000000	10.927641
2273.000000	10.900669
2272.000000	10.898647
2271.000000	10.876507
2270.000000	10.893140
2269.000000	10.906850
2268.000000	10.935395
2267.000000	10.983944
2266.000000	11.041146
2265.000000	11.117453
2264.000000	11.212640
2263.000000	11.332327
2262.000000	11.470444
2261.000000	11.628115
2260.000000	11.834223
2259.000000	11.990770
2258.000000	12.190472
2257.000000	12.378374
2256.000000	12.644381
2255.000000	12.832058
2254.000000	13.027377
2253.000000	13.273155
2252.000000	13.503650
2251.000000	13.701104
2250.000000	13.883724
2249.000000	14.073874
2248.000000	14.278745
2247.000000	14.457432
2246.000000	14.602292
2245.000000	14.763447
2244.000000	14.900665
2243.000000	15.024172
2242.000000	15.144308
2241.000000	15.224773
2240.000000	15.349179
2239.000000	15.422002
2238.000000	15.528877
2237.000000	15.592148
2236.000000	15.654183
2235.000000	15.718128
2234.000000	15.777240
2233.000000	15.823654
2232.000000	15.876586
2231.000000	15.907603
2230.000000	15.933226
2229.000000	15.942554
2228.000000	15.968738
2227.000000	15.985146
2226.000000	16.004363
2225.000000	15.986832
2224.000000	15.979527
2223.000000	15.959186
2222.000000	15.941654
2221.000000	15.923224
2220.000000	15.920077
2219.000000	15.863886
2218.000000	15.848603
2217.000000	15.798031
2216.000000	15.804661
2215.000000	15.758135
2214.000000	15.747909
2213.000000	15.701158
2212.000000	15.689246
2211.000000	15.667106
2210.000000	15.617209
2209.000000	15.571582
2208.000000	15.583944
2207.000000	15.556973
2206.000000	15.540677
2205.000000	15.540115
2204.000000	15.486622
2203.000000	15.480778
2202.000000	15.474934
2201.000000	15.457964
2200.000000	15.438298
2199.000000	15.440770
2198.000000	15.412675
2197.000000	15.413799
2196.000000	15.376263
2195.000000	15.405595
2194.000000	15.384017
2193.000000	15.392109
2192.000000	15.355023
2191.000000	15.356933
2190.000000	15.338728
2189.000000	15.328164
2188.000000	15.333558
2187.000000	15.298945
2186.000000	15.307823
2185.000000	15.319510
2184.000000	15.276019
2183.000000	15.279390
2182.000000	15.257363
2181.000000	15.238259
2180.000000	15.239832
2179.000000	15.236685
2178.000000	15.228144
2177.000000	15.228706
2176.000000	15.228706
2175.000000	15.243990
2174.000000	15.234550
2173.000000	15.240281
2172.000000	15.240057
2171.000000	15.247474
2170.000000	15.257588
2169.000000	15.263095
2168.000000	15.289280
2167.000000	15.312430
2166.000000	15.312768
2165.000000	15.329850
2164.000000	15.367048
2163.000000	15.389974
2162.000000	15.430431
2161.000000	15.472911
2160.000000	15.474934
2159.000000	15.511908
2158.000000	15.559894
2157.000000	15.598778
2156.000000	15.616310
2155.000000	15.663285
2154.000000	15.701158
2153.000000	15.748695
2152.000000	15.756113
2151.000000	15.821069
2150.000000	15.872652
2149.000000	15.922100
2148.000000	15.960647
2147.000000	16.012455
2146.000000	16.051564
2145.000000	16.091909
2144.000000	16.119892
2143.000000	16.161136
2142.000000	16.212157
2141.000000	16.245422
2140.000000	16.271944
2139.000000	16.302624
2138.000000	16.364883
2137.000000	16.398148
2136.000000	16.399497
2135.000000	16.419501
2134.000000	16.445348
2133.000000	16.478726
2132.000000	16.516149
2131.000000	16.516149
2130.000000	16.512553
2129.000000	16.535254
2128.000000	16.548402
2127.000000	16.567957
2126.000000	16.572789
2125.000000	16.554021
2124.000000	16.550200
2123.000000	16.567395
2122.000000	16.568968
2121.000000	16.558292
2120.000000	16.550088
2119.000000	16.540985
2118.000000	16.521431
2117.000000	16.491762
2116.000000	16.482322
2115.000000	16.477040
2114.000000	16.455126
2113.000000	16.444786
2112.000000	16.423659
2111.000000	16.387360
2110.000000	16.365895
2109.000000	16.344767
2108.000000	16.325437
2107.000000	16.304197
2106.000000	16.284193
2105.000000	16.264302
2104.000000	16.225305
2103.000000	16.191366
2102.000000	16.173610
2101.000000	16.152370
2100.000000	16.119217
2099.000000	16.097078
2098.000000	16.082693
2097.000000	16.058868
2096.000000	16.034144
2095.000000	16.020322
2094.000000	15.996047
2093.000000	15.970874
2092.000000	15.946712
2091.000000	15.929068
2090.000000	15.904231
2089.000000	15.876586
2088.000000	15.853435
2087.000000	15.835454
2086.000000	15.807471
2085.000000	15.787467
2084.000000	15.760495
2083.000000	15.728467
2082.000000	15.716554
2081.000000	15.691943
2080.000000	15.648339
2079.000000	15.602262
2078.000000	15.557422
2077.000000	15.514605
2076.000000	15.467180
2075.000000	15.415597
2074.000000	15.373566
2073.000000	15.326815
2072.000000	15.278379
2071.000000	15.210613
2070.000000	15.148466
2069.000000	15.098906
2068.000000	15.039119
2067.000000	14.973151
2066.000000	14.904598
2065.000000	14.842451
2064.000000	14.786260
2063.000000	14.743555
2062.000000	14.684667
2061.000000	14.616452
2060.000000	14.565992
2059.000000	14.505531
2058.000000	14.460017
2057.000000	14.423717
2056.000000	14.403264
2055.000000	14.382361
2054.000000	14.358649
2053.000000	14.342690
2052.000000	14.353928
2051.000000	14.370898
2050.000000	14.382586
2049.000000	14.413378
2048.000000	14.472716
2047.000000	14.496428
2046.000000	14.543516
2045.000000	14.617351
2044.000000	14.677025
2043.000000	14.753332
2042.000000	14.831325
2041.000000	14.898979
2040.000000	14.972476
2039.000000	15.041141
2038.000000	15.099130
2037.000000	15.168357
2036.000000	15.225672
2035.000000	15.272423
2034.000000	15.308385
2033.000000	15.355360
2032.000000	15.406044
2031.000000	15.438073
2030.000000	15.482688
2029.000000	15.517976
2028.000000	15.527304
2027.000000	15.542138
2026.000000	15.561468
2025.000000	15.571582
2024.000000	15.588215
2023.000000	15.598554
2022.000000	15.604959
2021.000000	15.606083
2020.000000	15.606308
2019.000000	15.612826
2018.000000	15.598666
2017.000000	15.605521
2016.000000	15.595182
2015.000000	15.587540
2014.000000	15.579674
2013.000000	15.564502
2012.000000	15.545285
2011.000000	15.528990
2010.000000	15.499433
2009.000000	15.473136
2008.000000	15.438073
2007.000000	15.427172
2006.000000	15.378735
2005.000000	15.345583
2004.000000	15.290066
2003.000000	15.256577
2002.000000	15.217131
2001.000000	15.159254
2000.000000	15.103738
1999.000000	15.065416
1998.000000	14.991469
1997.000000	14.957642
1996.000000	14.905385
1995.000000	14.834584
1994.000000	14.780866
1993.000000	14.727372
1992.000000	14.643760
1991.000000	14.577231
1990.000000	14.519804
1989.000000	14.433495
1988.000000	14.381012
1987.000000	14.321787
1986.000000	14.233343
1985.000000	14.149844
1984.000000	14.087809
1983.000000	14.011727
1982.000000	13.933284
1981.000000	13.856416
1980.000000	13.776512
1979.000000	13.699419
1978.000000	13.610075
1977.000000	13.557256
1976.000000	13.465440
1975.000000	13.383627
1974.000000	13.312939
1973.000000	13.247870
1972.000000	13.197073
1971.000000	13.119305
1970.000000	13.053787
1969.000000	12.980964
1968.000000	12.916569
1967.000000	12.845769
1966.000000	12.785869
1965.000000	12.708776
1964.000000	12.645168
1963.000000	12.602463
1962.000000	12.547171
1961.000000	12.482102
1960.000000	12.417370
1959.000000	12.323195
1958.000000	12.277343
1957.000000	12.223287
1956.000000	12.156420
1955.000000	12.122481
1954.000000	12.053479
1953.000000	12.004143
1952.000000	11.946379
1951.000000	11.879962
1950.000000	11.837819
1949.000000	11.766344
1948.000000	11.750611
1947.000000	11.726336
1946.000000	11.679473
1945.000000	11.653513
1944.000000	11.625081
1943.000000	11.555741
1942.000000	11.533265
1941.000000	11.544615
1940.000000	11.496404
1939.000000	11.492920
1938.000000	11.478423
1937.000000	11.472129
1936.000000	11.474827
1935.000000	11.469994
1934.000000	11.494943
1933.000000	11.492358
1932.000000	11.522364
1931.000000	11.530680
1930.000000	11.577094
1929.000000	11.640140
1928.000000	11.690150
1927.000000	11.734428
1926.000000	11.795339
1925.000000	11.853440
1924.000000	11.932781
1923.000000	12.024709
1922.000000	12.104725
1921.000000	12.219691
1920.000000	12.323419
1919.000000	12.453445
1918.000000	12.561219
1917.000000	12.682591
1916.000000	12.806323
1915.000000	12.917693
1914.000000	13.077162
1913.000000	13.267761
1912.000000	13.433861
1911.000000	13.633788
1910.000000	13.774714
1909.000000	13.932273
1908.000000	14.108263
1907.000000	14.316281
1906.000000	14.537560
1905.000000	14.766256
1904.000000	15.016979
1903.000000	15.278716
1902.000000	15.525506
1901.000000	15.761956
1900.000000	16.043697
1899.000000	16.352072
1898.000000	16.657862
1897.000000	16.966349
1896.000000	17.264160
1895.000000	17.559499
1894.000000	17.873155
1893.000000	18.218054
1892.000000	18.589250
1891.000000	19.013603
1890.000000	19.432786
1889.000000	19.867141
1888.000000	20.305653
1887.000000	20.746863
1886.000000	21.188522
1885.000000	21.657603
1884.000000	22.176693
1883.000000	22.727138
1882.000000	23.249937
1881.000000	23.780939
1880.000000	24.313628
1879.000000	24.821255
1878.000000	25.309890
1877.000000	25.820102
1876.000000	26.310197
1875.000000	26.764781
1874.000000	27.196663
1873.000000	27.644278
1872.000000	28.067395
1871.000000	28.470282
1870.000000	28.847772
1869.000000	29.167834
1868.000000	29.494415
1867.000000	29.742104
1866.000000	29.971475
1865.000000	30.161737
1864.000000	30.354583
1863.000000	30.535630
1862.000000	30.707236
1861.000000	30.895925
1860.000000	31.065396
1859.000000	31.242172
1858.000000	31.348148
1857.000000	31.453000
1856.000000	31.571225
1855.000000	31.619999
1854.000000	31.716310
1853.000000	31.787110
1852.000000	31.796550
1851.000000	31.822511
1850.000000	31.877016
1849.000000	31.912978
1848.000000	31.942646
1847.000000	31.965797
1846.000000	31.920058
1845.000000	31.870273
1844.000000	31.883983
1843.000000	31.880162
1842.000000	31.918709
1841.000000	31.945793
1840.000000	31.927700
1839.000000	31.912865
1838.000000	31.890951
1837.000000	31.887467
1836.000000	31.854090
1835.000000	31.799135
1834.000000	31.751261
1833.000000	31.704847
1832.000000	31.663041
1831.000000	31.634609
1830.000000	31.600220
1829.000000	31.558077
1828.000000	31.520654
1827.000000	31.441425
1826.000000	31.378828
1825.000000	31.322862
1824.000000	31.272291
1823.000000	31.250264
1822.000000	31.255658
1821.000000	31.264761
1820.000000	31.226889
1819.000000	31.175530
1818.000000	31.129566
1817.000000	31.100909
1816.000000	31.099897
1815.000000	31.105517
1814.000000	31.087648
1813.000000	31.070453
1812.000000	31.054158
1811.000000	31.042358
1810.000000	31.000889
1809.000000	30.958409
1808.000000	30.937619
1807.000000	30.903567
1806.000000	30.878618
1805.000000	30.833441
1804.000000	30.767473
1803.000000	30.734433
1802.000000	30.702067
1801.000000	30.660598
1800.000000	30.606543
1799.000000	30.538777
1798.000000	30.480788
1797.000000	30.431003
1796.000000	30.390545
1795.000000	30.349638
1794.000000	30.305697
1793.000000	30.254788
1792.000000	30.209723
1791.000000	30.163535
1790.000000	30.102062
1789.000000	30.042050
1788.000000	29.994401
1787.000000	29.957877
1786.000000	29.914722
1785.000000	29.856621
1784.000000	29.799419
1783.000000	29.737946
1782.000000	29.669618
1781.000000	29.592075
1780.000000	29.510149
1779.000000	29.466769
1778.000000	29.406308
1777.000000	29.326742
1776.000000	29.253469
1775.000000	29.172779
1774.000000	29.081301
1773.000000	28.983416
1772.000000	28.872046
1771.000000	28.769667
1770.000000	28.675491
1769.000000	28.564233
1768.000000	28.461404
1767.000000	28.373410
1766.000000	28.263613
1765.000000	28.172134
1764.000000	28.126845
1763.000000	28.096277
1762.000000	28.081555
1761.000000	28.077959
1760.000000	28.105942
1759.000000	28.147186
1758.000000	28.200904
1757.000000	28.267321
1756.000000	28.342617
1755.000000	28.409035
1754.000000	28.451402
1753.000000	28.500738
1752.000000	28.528047
1751.000000	28.550748
1750.000000	28.565132
1749.000000	28.558614
1748.000000	28.543555
1747.000000	28.506132
1746.000000	28.459269
1745.000000	28.394425
1744.000000	28.300362
1743.000000	28.183597
1742.000000	28.076610
1741.000000	27.920849
1740.000000	27.754075
1739.000000	27.567409
1738.000000	27.393330
1737.000000	27.192280
1736.000000	27.004828
1735.000000	26.859518
1734.000000	26.738483
1733.000000	26.654759
1732.000000	26.616100
1731.000000	26.603626
1730.000000	26.638689
1729.000000	26.707241
1728.000000	26.769950
1727.000000	26.878623
1726.000000	26.959650
1725.000000	27.049218
1724.000000	27.134741
1723.000000	27.198461
1722.000000	27.245549
1721.000000	27.330172
1720.000000	27.384565
1719.000000	27.457051
1718.000000	27.527064
1717.000000	27.598764
1716.000000	27.681926
1715.000000	27.780372
1714.000000	27.886236
1713.000000	27.978389
1712.000000	28.091444
1711.000000	28.163593
1710.000000	28.225965
1709.000000	28.290584
1708.000000	28.312162
1707.000000	28.342392
1706.000000	28.334188
1705.000000	28.311375
1704.000000	28.296428
1703.000000	28.267434
1702.000000	28.219896
1701.000000	28.138645
1700.000000	28.052111
1699.000000	27.947371
1698.000000	27.836001
1697.000000	27.733285
1696.000000	27.650010
1695.000000	27.593931
1694.000000	27.603484
1693.000000	27.624387
1692.000000	27.716203
1691.000000	27.815660
1690.000000	27.957373
1689.000000	28.094254
1688.000000	28.220121
1687.000000	28.344977
1686.000000	28.424768
1685.000000	28.485791
1684.000000	28.579967
1683.000000	28.699316
1682.000000	28.883846
1681.000000	29.122882
1680.000000	29.480817
1679.000000	29.887413
1678.000000	30.300191
1677.000000	30.738141
1676.000000	31.168900
1675.000000	31.582239
1674.000000	31.916461
1673.000000	32.226410
1672.000000	32.515230
1671.000000	32.724597
1670.000000	32.945089
1669.000000	33.147489
1668.000000	33.288190
1667.000000	33.423048
1666.000000	33.529249
1665.000000	33.630055
1664.000000	33.717488
1663.000000	33.807280
1662.000000	33.884262
1661.000000	33.937755
1660.000000	34.001700
1659.000000	34.048226
1658.000000	34.077895
1657.000000	34.123297
1656.000000	34.123072
1655.000000	34.138019
1654.000000	34.134086
1653.000000	34.135097
1652.000000	34.111722
1651.000000	34.113970
1650.000000	34.067106
1649.000000	34.065983
1648.000000	34.029234
1647.000000	33.975516
1646.000000	33.928652
1645.000000	33.898422
1644.000000	33.857290
1643.000000	33.800538
1642.000000	33.747831
1641.000000	33.695798
1640.000000	33.644889
1639.000000	33.590496
1638.000000	33.503513
1637.000000	33.454515
1636.000000	33.388996
1635.000000	33.315948
1634.000000	33.275941
1633.000000	33.181315
1632.000000	33.122540
1631.000000	33.052526
1630.000000	32.953518
1629.000000	32.875862
1628.000000	32.803264
1627.000000	32.727856
1626.000000	32.636715
1625.000000	32.568611
1624.000000	32.446565
1623.000000	32.369471
1622.000000	32.306538
1621.000000	32.219892
1620.000000	32.143247
1619.000000	32.071098
1618.000000	31.982205
1617.000000	31.911966
1616.000000	31.821836
1615.000000	31.736763
1614.000000	31.670908
1613.000000	31.603591
1612.000000	31.545041
1611.000000	31.473903
1610.000000	31.396472
1609.000000	31.315108
1608.000000	31.249477
1607.000000	31.174744
1606.000000	31.096863
1605.000000	31.028198
1604.000000	30.958297
1603.000000	30.886148
1602.000000	30.813212
1601.000000	30.736568
1600.000000	30.670038
1599.000000	30.589236
1598.000000	30.516413
1597.000000	30.463481
1596.000000	30.391557
1595.000000	30.322105
1594.000000	30.248495
1593.000000	30.210735
1592.000000	30.153083
1591.000000	30.103186
1590.000000	30.024182
1589.000000	29.985298
1588.000000	29.928657
1587.000000	29.873366
1586.000000	29.820659
1585.000000	29.781550
1584.000000	29.739519
1583.000000	29.683328
1582.000000	29.640399
1581.000000	29.601402
1580.000000	29.557236
1579.000000	29.531052
1578.000000	29.505541
1577.000000	29.475872
1576.000000	29.438786
1575.000000	29.415186
1574.000000	29.394171
1573.000000	29.381022
1572.000000	29.355512
1571.000000	29.342588
1570.000000	29.332361
1569.000000	29.334272
1568.000000	29.334833
1567.000000	29.341464
1566.000000	29.341576
1565.000000	29.326854
1564.000000	29.321123
1563.000000	29.311683
1562.000000	29.303704
1561.000000	29.302468
1560.000000	29.302805
1559.000000	29.285947
1558.000000	29.273923
1557.000000	29.260886
1556.000000	29.240770
1555.000000	29.213012
1554.000000	29.183793
1553.000000	29.144909
1552.000000	29.117825
1551.000000	29.084560
1550.000000	29.023986
1549.000000	28.986900
1548.000000	28.933744
1547.000000	28.891713
1546.000000	28.869574
1545.000000	28.823048
1544.000000	28.776972
1543.000000	28.732918
1542.000000	28.678413
1541.000000	28.631775
1540.000000	28.603117
1539.000000	28.591093
1538.000000	28.564458
1537.000000	28.515460
1536.000000	28.467248
1535.000000	28.413867
1534.000000	28.378916
1533.000000	28.352731
1532.000000	28.313623
1531.000000	28.255971
1530.000000	28.198993
1529.000000	28.158649
1528.000000	28.119877
1527.000000	28.050425
1526.000000	27.992212
1525.000000	27.952204
1524.000000	27.895226
1523.000000	27.834315
1522.000000	27.773405
1521.000000	27.705751
1520.000000	27.643604
1519.000000	27.591010
1518.000000	27.523356
1517.000000	27.457837
1516.000000	27.392881
1515.000000	27.323204
1514.000000	27.262855
1513.000000	27.196101
1512.000000	27.123278
1511.000000	27.051466
1510.000000	26.987746
1509.000000	26.906494
1508.000000	26.824792
1507.000000	26.755453
1506.000000	26.686451
1505.000000	26.630597
1504.000000	26.550806
1503.000000	26.467532
1502.000000	26.403362
1501.000000	26.349980
1500.000000	26.279517
1499.000000	26.197816
1498.000000	26.136006
1497.000000	26.075994
1496.000000	26.029581
1495.000000	25.993843
1494.000000	25.939563
1493.000000	25.869100
1492.000000	25.818416
1491.000000	25.778183
1490.000000	25.743907
1489.000000	25.710642
1488.000000	25.660070
1487.000000	25.624445
1486.000000	25.582752
1485.000000	25.521954
1484.000000	25.492734
1483.000000	25.455311
1482.000000	25.419349
1481.000000	25.391366
1480.000000	25.366755
1479.000000	25.348324
1478.000000	25.329219
1477.000000	25.310339
1476.000000	25.291796
1475.000000	25.300225
1474.000000	25.306968
1473.000000	25.290560
1472.000000	25.281569
1471.000000	25.312924
1470.000000	25.314722
1469.000000	25.308204
1468.000000	25.305394
1467.000000	25.315846
1466.000000	25.330568
1465.000000	25.343716
1464.000000	25.383724
1463.000000	25.395524
1462.000000	25.416203
1461.000000	25.446883
1460.000000	25.474866
1459.000000	25.495094
1458.000000	25.540159
1457.000000	25.599272
1456.000000	25.642876
1455.000000	25.718621
1454.000000	25.774250
1453.000000	25.829317
1452.000000	25.907984
1451.000000	25.983617
1450.000000	26.061272
1449.000000	26.126566
1448.000000	26.175452
1447.000000	26.255468
1446.000000	26.344249
1445.000000	26.441347
1444.000000	26.528555
1443.000000	26.595646
1442.000000	26.690946
1441.000000	26.790966
1440.000000	26.885254
1439.000000	26.982239
1438.000000	27.089338
1437.000000	27.190482
1436.000000	27.310842
1435.000000	27.402770
1434.000000	27.530436
1433.000000	27.657090
1432.000000	27.778012
1431.000000	27.902981
1430.000000	28.028174
1429.000000	28.196521
1428.000000	28.356328
1427.000000	28.510178
1426.000000	28.698080
1425.000000	28.860696
1424.000000	29.048935
1423.000000	29.256279
1422.000000	29.462162
1421.000000	29.679957
1420.000000	29.914160
1419.000000	30.155331
1418.000000	30.400884
1417.000000	30.633851
1416.000000	30.871426
1415.000000	31.127880
1414.000000	31.429400
1413.000000	31.732043
1412.000000	32.011986
1411.000000	32.301593
1410.000000	32.636153
1409.000000	33.020722
1408.000000	33.401920
1407.000000	33.771206
1406.000000	34.140492
1405.000000	34.554730
1404.000000	34.983128
1403.000000	35.404896
1402.000000	35.771035
1401.000000	36.236519
1400.000000	36.697396
1399.000000	37.119725
1398.000000	37.453723
1397.000000	37.770077
1396.000000	38.197127
1395.000000	38.644181
1394.000000	39.010882
1393.000000	39.330157
1392.000000	39.716413
1391.000000	40.111883
1390.000000	40.523761
1389.000000	40.932942
1388.000000	41.426972
1387.000000	41.943589
1386.000000	42.454701
1385.000000	42.938166
1384.000000	43.556489
1383.000000	44.110979
1382.000000	44.697835
1381.000000	45.211419
1380.000000	45.636109
1379.000000	45.917062
1378.000000	46.225887
1377.000000	46.440536
1376.000000	46.704520
1375.000000	46.921416
1374.000000	47.172589
1373.000000	47.406342
1372.000000	47.740790
1371.000000	48.070967
1370.000000	48.395187
1369.000000	48.666813
1368.000000	48.961815
1367.000000	49.253782
1366.000000	49.477534
1365.000000	49.690047
1364.000000	49.909865
1363.000000	50.080910
1362.000000	50.302639
1361.000000	50.454916
1360.000000	50.602697
1359.000000	50.652707
1358.000000	50.739241
1357.000000	50.863085
1356.000000	51.014238
1355.000000	51.233157
1354.000000	51.509728
1353.000000	51.833162
1352.000000	52.109846
1351.000000	52.538019
1350.000000	52.947313
1349.000000	53.339861
1348.000000	53.680377
1347.000000	54.052135
1346.000000	54.338933
1345.000000	54.651354
1344.000000	54.965123
1343.000000	55.304515
1342.000000	55.576928
1341.000000	55.857207
1340.000000	56.168279
1339.000000	56.434623
1338.000000	56.702428
1337.000000	56.980011
1336.000000	57.260403
1335.000000	57.547650
1334.000000	57.785449
1333.000000	58.035723
1332.000000	58.299482
1331.000000	58.539754
1330.000000	58.783959
1329.000000	59.021870
1328.000000	59.246858
1327.000000	59.481623
1326.000000	59.683348
1325.000000	59.899345
1324.000000	60.088034
1323.000000	60.272452
1322.000000	60.450577
1321.000000	60.621397
1320.000000	60.807950
1319.000000	60.973600
1318.000000	61.157456
1317.000000	61.305800
1316.000000	61.456054
1315.000000	61.611365
1314.000000	61.763755
1313.000000	61.898500
1312.000000	62.039202
1311.000000	62.150235
1310.000000	62.279810
1309.000000	62.386573
1308.000000	62.503899
1307.000000	62.606953
1306.000000	62.691689
1305.000000	62.780245
1304.000000	62.871162
1303.000000	62.951065
1302.000000	63.004896
1301.000000	63.066593
1300.000000	63.133798
1299.000000	63.172232
1298.000000	63.218084
1297.000000	63.258878
1296.000000	63.307652
1295.000000	63.344401
1294.000000	63.371372
1293.000000	63.380363
1292.000000	63.413628
1291.000000	63.422056
1290.000000	63.416100
1289.000000	63.411942
1288.000000	63.418797
1287.000000	63.399130
1286.000000	63.377216
1285.000000	63.370698
1284.000000	63.335298
1283.000000	63.309225
1282.000000	63.277758
1281.000000	63.225051
1280.000000	63.191674
1279.000000	63.149081
1278.000000	63.102106
1277.000000	63.059513
1276.000000	63.025911
1275.000000	62.996917
1274.000000	62.963090
1273.000000	62.926678
1272.000000	62.896448
1271.000000	62.877231
1270.000000	62.849248
1269.000000	62.805082
1268.000000	62.771255
1267.000000	62.742036
1266.000000	62.703489
1265.000000	62.671460
1264.000000	62.643028
1263.000000	62.604705
1262.000000	62.555033
1261.000000	62.515812
1260.000000	62.476253
1259.000000	62.419725
1258.000000	62.384438
1257.000000	62.339822
1256.000000	62.283856
1255.000000	62.234858
1254.000000	62.183275
1253.000000	62.115846
1252.000000	62.036055
1251.000000	61.979415
1250.000000	61.912660
1249.000000	61.828374
1248.000000	61.749819
1247.000000	61.658453
1246.000000	61.575965
1245.000000	61.470326
1244.000000	61.356484
1243.000000	61.243203
1242.000000	61.149477
1241.000000	61.039905
1240.000000	60.923590
1239.000000	60.814468
1238.000000	60.698490
1237.000000	60.585547
1236.000000	60.470356
1235.000000	60.342353
1234.000000	60.217048
1233.000000	60.087472
1232.000000	59.945871
1231.000000	59.807642
1230.000000	59.672784
1229.000000	59.540399
1228.000000	59.396101
1227.000000	59.243712
1226.000000	59.095705
1225.000000	58.955565
1224.000000	58.794410
1223.000000	58.634379
1222.000000	58.488058
1221.000000	58.328926
1220.000000	58.175301
1219.000000	58.032576
1218.000000	57.881760
1217.000000	57.732405
1216.000000	57.601593
1215.000000	57.471230
1214.000000	57.333226
1213.000000	57.208932
1212.000000	57.093966
1211.000000	56.980910
1210.000000	56.864595
1209.000000	56.759069
1208.000000	56.674670
1207.000000	56.574314
1206.000000	56.466764
1205.000000	56.391694
1204.000000	56.331008
1203.000000	56.283470
1202.000000	56.249868
1201.000000	56.215255
1200.000000	56.167043
1199.000000	56.117820
1198.000000	56.056684
1197.000000	55.973410
1196.000000	55.857207
1195.000000	55.719540
1194.000000	55.554451
1193.000000	55.334970
1192.000000	55.070424
1191.000000	54.775535
1190.000000	54.442324
1189.000000	54.112934
1188.000000	53.827485
1187.000000	53.597440
1186.000000	53.444488
1185.000000	53.394254
1184.000000	53.439207
1183.000000	53.588674
1182.000000	53.828384
1181.000000	54.154178
1180.000000	54.541220
1179.000000	54.950176
1178.000000	55.355311
1177.000000	55.731902
1176.000000	56.064776
1175.000000	56.367644
1174.000000	56.644664
1173.000000	56.912132
1172.000000	57.169823
1171.000000	57.438977
1170.000000	57.720155
1169.000000	57.999648
1168.000000	58.281164
1167.000000	58.587179
1166.000000	58.877685
1165.000000	59.184599
1164.000000	59.482073
1163.000000	59.808541
1162.000000	60.142314
1161.000000	60.480470
1160.000000	60.810197
1159.000000	61.128574
1158.000000	61.441894
1157.000000	61.756450
1156.000000	62.048192
1155.000000	62.317121
1154.000000	62.544244
1153.000000	62.761365
1152.000000	62.936456
1151.000000	63.081990
1150.000000	63.206846
1149.000000	63.315968
1148.000000	63.436553
1147.000000	63.565230
1146.000000	63.718631
1145.000000	63.894733
1144.000000	64.108595
1143.000000	64.373029
1142.000000	64.674998
1141.000000	65.005175
1140.000000	65.340071
1139.000000	65.696096
1138.000000	66.064258
1137.000000	66.436353
1136.000000	66.823170
1135.000000	67.261683
1134.000000	67.691430
1133.000000	68.082967
1132.000000	68.397523
1131.000000	68.744557
1130.000000	69.041244
1129.000000	69.320849
1128.000000	69.559660
1127.000000	69.781501
1126.000000	69.935239
1125.000000	70.072007
1124.000000	70.180793
1123.000000	70.289241
1122.000000	70.382967
1121.000000	70.475569
1120.000000	70.524455
1119.000000	70.574353
1118.000000	70.614360
1117.000000	70.681789
1116.000000	70.707412
1115.000000	70.721572
1114.000000	70.741689
1113.000000	70.752028
1112.000000	70.772032
1111.000000	70.777651
1110.000000	70.798329
1109.000000	70.823840
1108.000000	70.849238
1107.000000	70.860139
1106.000000	70.865646
1105.000000	70.880368
1104.000000	70.876547
1103.000000	70.911048
1102.000000	70.919364
1101.000000	70.918015
1100.000000	70.943638
1099.000000	70.943975
1098.000000	70.954652
1097.000000	70.953753
1096.000000	70.933636
1095.000000	70.930714
1094.000000	70.928242
1093.000000	70.915655
1092.000000	70.883964
1091.000000	70.876322
1090.000000	70.847103
1089.000000	70.799902
1088.000000	70.780685
1087.000000	70.727304
1086.000000	70.705165
1085.000000	70.641669
1084.000000	70.596604
1083.000000	70.546482
1082.000000	70.483773
1081.000000	70.438596
1080.000000	70.415220
1079.000000	70.357232
1078.000000	70.284521
1077.000000	70.214957
1076.000000	70.185063
1075.000000	70.132131
1074.000000	70.067063
1073.000000	70.010422
1072.000000	69.963447
1071.000000	69.913100
1070.000000	69.844098
1069.000000	69.815665
1068.000000	69.755091
1067.000000	69.696428
1066.000000	69.630685
1065.000000	69.612929
1064.000000	69.549658
1063.000000	69.515944
1062.000000	69.470879
1061.000000	69.414238
1060.000000	69.375691
1059.000000	69.335009
1058.000000	69.296912
1057.000000	69.237687
1056.000000	69.197117
1055.000000	69.175540
1054.000000	69.158570
1053.000000	69.120361
1052.000000	69.096311
1051.000000	69.072037
1050.000000	69.055179
1049.000000	69.048661
1048.000000	69.017644
1047.000000	69.041019
1046.000000	69.036187
1045.000000	69.046976
1044.000000	69.046414
1043.000000	69.057427
1042.000000	69.061136
1041.000000	69.061810
1040.000000	69.063720
1039.000000	69.066193
1038.000000	69.045065
1037.000000	69.056640
1036.000000	69.040570
1035.000000	69.027871
1034.000000	69.011800
1033.000000	68.989549
1032.000000	68.952350
1031.000000	68.955834
1030.000000	68.932908
1029.000000	68.886495
1028.000000	68.885483
1027.000000	68.870199
1026.000000	68.822887
1025.000000	68.789397
1024.000000	68.782542
1023.000000	68.764898
1022.000000	68.741747
1021.000000	68.714551
1020.000000	68.688928
1019.000000	68.674656
1018.000000	68.665328
1017.000000	68.636334
1016.000000	68.639817
1015.000000	68.645998
1014.000000	68.639031
1013.000000	68.631164
1012.000000	68.640267
1011.000000	68.627343
1010.000000	68.645774
1009.000000	68.652067
1008.000000	68.693086
1007.000000	68.709831
1006.000000	68.723204
1005.000000	68.761189
1004.000000	68.793218
1003.000000	68.819965
1002.000000	68.865142
1001.000000	68.941899
1000.000000	69.002023
999.000000	69.043604
998.000000	69.091141
997.000000	69.174304
996.000000	69.248476
995.000000	69.320849
994.000000	69.391312
993.000000	69.481442
992.000000	69.554490
991.000000	69.632933
990.000000	69.724187
989.000000	69.825667
988.000000	69.898827
987.000000	69.972100
986.000000	70.074480
985.000000	70.198212
984.000000	70.298007
983.000000	70.391508
982.000000	70.505350
981.000000	70.621441
980.000000	70.758096
979.000000	70.878457
978.000000	71.008145
977.000000	71.139969
976.000000	71.283480
975.000000	71.439241
974.000000	71.584775
973.000000	71.715699
972.000000	71.863706
971.000000	72.013510
970.000000	72.160730
969.000000	72.312108
968.000000	72.459890
967.000000	72.619359
966.000000	72.739270
965.000000	72.873004
964.000000	73.016740
963.000000	73.156205
962.000000	73.274318
961.000000	73.384115
960.000000	73.515826
959.000000	73.644391
958.000000	73.754525
957.000000	73.874099
956.000000	74.003113
955.000000	74.109538
954.000000	74.226190
953.000000	74.337223
952.000000	74.430275
951.000000	74.556704
950.000000	74.703025
949.000000	74.808326
948.000000	74.895085
947.000000	74.984540
946.000000	75.071299
945.000000	75.182107
944.000000	75.275271
943.000000	75.331687
942.000000	75.429571
941.000000	75.511160
940.000000	75.560945
939.000000	75.617698
938.000000	75.687936
937.000000	75.785820
936.000000	75.865162
935.000000	75.933827
934.000000	76.015191
933.000000	76.094532
932.000000	76.219950
931.000000	76.325476
930.000000	76.399873
929.000000	76.510569
928.000000	76.653743
927.000000	76.767922
926.000000	76.861761
925.000000	76.961556
924.000000	77.105292
923.000000	77.220820
922.000000	77.305218
921.000000	77.389055
920.000000	77.488400
919.000000	77.568641
918.000000	77.649555
917.000000	77.722828
916.000000	77.785200
915.000000	77.844425
914.000000	77.894322
913.000000	78.000972
912.000000	78.067615
911.000000	78.083460
910.000000	78.090428
909.000000	78.114927
908.000000	78.141337
907.000000	78.152575
906.000000	78.184379
905.000000	78.213373
904.000000	78.231242
903.000000	78.266979
902.000000	78.298446
901.000000	78.314517
900.000000	78.337330
899.000000	78.341264
898.000000	78.299008
897.000000	78.277206
896.000000	78.286084
895.000000	78.280240
894.000000	78.296423
893.000000	78.272711
892.000000	78.222476
891.000000	78.204046
890.000000	78.133920
889.000000	78.107510
888.000000	78.106386
887.000000	78.087057
886.000000	78.011873
885.000000	77.966022
884.000000	77.859372
883.000000	77.786436
882.000000	77.684506
881.000000	77.583026
880.000000	77.459069
879.000000	77.380402
878.000000	77.227900
877.000000	77.116530
876.000000	76.913344
875.000000	76.626209
874.000000	76.369081
873.000000	76.166681
872.000000	75.810994
871.000000	75.502282
870.000000	75.345510
869.000000	75.465196
868.000000	75.670967
867.000000	75.898989
866.000000	76.132742
865.000000	76.333456
864.000000	76.585415
863.000000	76.795681
862.000000	77.053147
861.000000	77.265997
860.000000	77.507842
859.000000	77.768792
858.000000	77.990633
857.000000	76.663600
856.000000	78.958400
855.000000	78.349900
854.000000	78.479800
853.000000	78.698600
852.000000	79.507600
851.000000	79.691000
850.000000	79.656700
849.000000	80.012000
848.000000	80.042200
847.000000	80.437700
846.000000	80.600700
845.000000	80.732100
844.000000	81.599500
843.000000	81.378400
842.000000	81.466700
841.000000	81.905900
840.000000	81.849500
839.000000	82.246800
838.000000	82.846200
837.000000	82.991500
836.000000	83.091000
835.000000	83.530900
834.000000	83.753700
833.000000	84.038800
832.000000	84.500400
831.000000	84.692100
830.000000	85.016100
829.000000	85.150700
828.000000	85.275500
827.000000	85.629900
826.000000	85.739900
825.000000	86.042600
824.000000	86.071300
823.000000	86.340000
822.000000	86.683000
821.000000	86.940800
820.000000	87.091700
819.000000	87.409400
818.000000	87.478800
817.000000	87.616900
816.000000	87.888700
815.000000	88.238800
814.000000	88.184200
813.000000	88.362600
812.000000	88.612400
811.000000	88.699800
810.000000	88.965900
809.000000	89.025800
808.000000	89.188800
807.000000	89.356700
806.000000	89.449200
805.000000	89.619100
804.000000	89.828000
803.000000	89.909400
802.000000	89.869000
801.000000	90.110600
800.000000	90.130700
799.000000	90.414600
798.000000	90.704600
797.000000	90.633500
796.000000	90.711200
795.000000	90.703400
794.000000	90.795100
793.000000	90.890900
792.000000	90.856900
791.000000	91.020500
790.000000	91.044700
789.000000	90.939700
788.000000	91.076400
787.000000	91.063300
786.000000	90.830400
785.000000	90.748100
784.000000	90.692700
783.000000	90.806700
782.000000	90.611900
781.000000	90.602400
780.000000	90.699100
779.000000	90.684800
778.000000	90.542800
777.000000	90.508000
776.000000	90.421800
775.000000	90.173500
774.000000	90.276400
773.000000	90.150900
772.000000	90.106600
771.000000	89.989600
770.000000	89.934100
769.000000	89.811800
768.000000	89.684200
767.000000	89.572500
766.000000	89.530900
765.000000	89.230100
764.000000	89.195400
763.000000	89.073100
762.000000	88.840600
761.000000	88.608000
760.000000	88.479400
759.000000	88.343200
758.000000	88.216900
757.000000	88.124300
756.000000	87.936200
755.000000	87.803200
754.000000	87.591200
753.000000	87.526200
752.000000	87.275800
751.000000	87.098200
750.000000	86.985000
749.000000	86.783700
748.000000	86.609800
747.000000	86.368100
746.000000	86.045100
745.000000	85.968300
744.000000	85.659900
743.000000	85.543300
742.000000	85.274900
741.000000	84.912700
740.000000	84.691700
739.000000	84.579700
738.000000	84.303200
737.000000	83.954200
736.000000	83.768400
735.000000	83.554500
734.000000	83.156100
733.000000	82.863600
732.000000	82.564800
731.000000	82.434700
730.000000	82.187800
729.000000	81.930200
728.000000	81.711500
727.000000	81.467700
726.000000	81.268800
725.000000	81.072400
724.000000	80.859200
723.000000	80.575200
722.000000	80.333400
721.000000	80.069000
720.000000	79.774900
719.000000	79.471900
718.000000	79.147200
717.000000	78.915900
716.000000	78.571500
715.000000	78.221500
714.000000	77.867400
713.000000	77.430300
712.000000	76.964200
711.000000	76.568600
710.000000	76.078800
709.000000	75.509300
708.000000	75.000300
707.000000	74.489500
706.000000	73.951200
705.000000	73.364400
704.000000	72.755000
703.000000	72.226600
702.000000	71.685900
701.000000	71.090300
700.000000	70.460300
699.000000	69.882700
698.000000	69.194800
697.000000	68.541700
696.000000	67.929100
695.000000	67.227000
694.000000	66.512000
693.000000	65.790100
692.000000	65.007500
691.000000	64.272300
690.000000	63.514600
689.000000	62.718400
688.000000	62.012600
687.000000	61.304200
686.000000	60.602600
685.000000	59.931200
684.000000	59.394700
683.000000	58.875900
682.000000	58.437600
681.000000	58.061600
680.000000	57.736800
679.000000	57.547000
678.000000	57.382600
677.000000	57.306600
676.000000	57.322500
675.000000	57.358900
674.000000	57.424200
673.000000	57.543800
672.000000	57.686400
671.000000	57.827900
670.000000	58.009500
669.000000	58.192800
668.000000	58.398500
667.000000	58.608200
666.000000	58.843200
665.000000	59.110500
664.000000	59.359700
663.000000	59.662800
662.000000	59.968400
661.000000	60.371600
660.000000	60.831600
659.000000	61.323100
658.000000	61.896900
657.000000	62.522500
656.000000	63.197800
655.000000	63.852900
654.000000	64.550400
653.000000	65.335700
652.000000	66.103500
651.000000	66.798800
650.000000	67.456100
649.000000	68.147500
648.000000	68.853800
647.000000	69.483100
646.000000	70.049800
645.000000	70.588300
644.000000	71.116100
643.000000	71.604200
642.000000	72.049200
641.000000	72.503400
640.000000	72.989500
639.000000	73.446100
638.000000	73.939000
637.000000	74.438100
636.000000	74.940600
635.000000	75.497500
634.000000	76.055200
633.000000	76.645600
632.000000	77.259900
631.000000	77.878900
630.000000	78.449300
629.000000	79.004700
628.000000	79.581500
627.000000	80.125600
626.000000	80.636500
625.000000	81.149300
624.000000	81.591700
623.000000	81.983700
622.000000	82.385000
621.000000	82.786800
620.000000	83.150300
619.000000	83.469900
618.000000	83.743900
617.000000	84.026600
616.000000	84.304300
615.000000	84.529600
614.000000	84.780600
613.000000	85.013800
612.000000	85.202400
611.000000	85.413000
610.000000	85.627900
609.000000	85.794500
608.000000	85.966300
607.000000	86.135100
606.000000	86.257900
605.000000	86.379700
604.000000	86.521000
603.000000	86.596800
602.000000	86.706200
601.000000	86.758800
600.000000	86.837700
599.000000	86.890000
598.000000	86.905600
597.000000	86.889400
596.000000	86.850300
595.000000	86.785800
594.000000	86.733100
593.000000	86.641600
592.000000	86.525900
591.000000	86.381400
590.000000	86.216700
589.000000	86.028300
588.000000	85.802000
587.000000	85.570000
586.000000	85.366000
585.000000	85.112400
584.000000	84.887200
583.000000	84.654800
582.000000	84.398700
581.000000	84.114900
580.000000	83.793300
579.000000	83.481700
578.000000	83.185500
577.000000	82.866700
576.000000	82.527800
575.000000	82.212900
574.000000	81.863000
573.000000	81.434500
572.000000	80.991700
571.000000	80.561000
570.000000	80.096000
569.000000	79.606500
568.000000	79.052700
567.000000	78.507800
566.000000	77.973000
565.000000	77.355000
564.000000	76.733100
563.000000	76.095200
562.000000	75.379200
561.000000	74.700800
560.000000	73.959800
559.000000	73.123200
558.000000	72.342500
557.000000	71.534000
556.000000	70.701200
555.000000	69.838800
554.000000	68.944700
553.000000	68.046500
552.000000	67.052000
551.000000	66.051100
550.000000	65.041100
549.000000	64.019700
548.000000	62.926500
547.000000	61.861700
546.000000	60.745300
545.000000	59.645600
544.000000	58.530700
543.000000	57.429000
542.000000	56.305400
541.000000	55.230100
540.000000	54.207600
539.000000	53.180900
538.000000	52.234200
537.000000	51.284500
536.000000	50.392300
535.000000	49.507300
534.000000	48.712900
533.000000	47.916800
532.000000	47.149500
531.000000	46.438400
530.000000	45.759900
529.000000	45.099100
528.000000	44.467300
527.000000	43.832000
526.000000	43.266000
525.000000	42.685600
524.000000	42.115500
523.000000	41.561200
522.000000	41.019100
521.000000	40.489500
520.000000	39.969700
519.000000	39.448700
518.000000	38.914600
517.000000	38.366600
516.000000	37.882800
515.000000	37.355900
514.000000	36.850100
513.000000	36.377100
512.000000	35.764500
511.000000	35.231900
510.000000	34.655100
509.000000	34.153700
508.000000	33.540800
507.000000	32.998400
506.000000	32.451000
505.000000	31.883300
504.000000	31.307600
503.000000	30.793300
502.000000	30.256300
501.000000	29.702600
500.000000	29.181800
499.000000	28.711600
498.000000	28.286100
497.000000	27.837500
496.000000	27.441900
495.000000	27.090400
494.000000	26.780300
493.000000	26.510200
492.000000	26.260600
491.000000	26.072600
490.000000	25.876300
489.000000	25.766300
488.000000	25.631600
487.000000	25.577000
486.000000	25.534000
485.000000	25.538900
484.000000	25.552300
483.000000	25.602200
482.000000	25.631400
481.000000	25.693800
480.000000	25.753800
479.000000	25.838200
478.000000	25.941700
477.000000	26.046200
476.000000	26.158500
475.000000	26.277100
474.000000	26.357400
473.000000	26.466100
472.000000	26.536600
471.000000	26.608600
470.000000	26.689300
469.000000	26.732100
468.000000	26.775000
467.000000	26.776000
466.000000	26.791600
465.000000	26.799600
464.000000	26.771800
463.000000	26.733300
462.000000	26.687600
461.000000	26.602200
460.000000	26.545500
459.000000	26.420200
458.000000	26.326800
457.000000	26.198100
456.000000	26.038500
455.000000	25.891600
454.000000	25.744500
453.000000	25.565600
452.000000	25.369600
451.000000	25.207300
450.000000	24.934600
449.000000	24.744600
448.000000	24.461500
447.000000	24.248600
446.000000	23.968400
445.000000	23.663000
444.000000	23.382900
443.000000	23.102200
442.000000	22.758100
441.000000	22.448600
440.000000	22.148500
439.000000	21.832300
438.000000	21.466300
437.000000	21.132800
436.000000	20.743000
435.000000	20.374700
434.000000	20.011800
433.000000	19.626900
432.000000	19.238000
431.000000	18.863700
430.000000	18.498300
429.000000	18.093200
428.000000	17.702700
427.000000	17.313900
426.000000	16.925800
425.000000	16.531700
424.000000	16.131200
423.000000	15.755500
422.000000	15.346200
421.000000	14.960300
420.000000	14.567800
419.000000	14.171800
418.000000	13.812900
417.000000	13.441400
416.000000	13.092900
415.000000	12.742000
414.000000	12.381100
413.000000	12.050600
412.000000	11.739400
411.000000	11.429100
410.000000	11.117000
409.000000	10.840800
408.000000	10.554300
407.000000	10.295800
406.000000	10.032400
405.000000	9.805600
404.000000	9.565200
403.000000	9.321400
402.000000	9.088000
401.000000	8.909300
400.000000	8.756500
399.000000	8.564900
398.000000	8.364900
397.000000	8.221500
396.000000	8.073300
395.000000	7.945000
394.000000	7.804700
393.000000	7.694900
392.000000	7.591100
391.000000	7.502500
390.000000	7.396800
389.000000	7.308100
388.000000	7.225600
387.000000	7.135800
386.000000	7.081600
385.000000	7.012700
384.000000	6.945600
383.000000	6.875900
382.000000	6.800900
381.000000	6.797100
380.000000	6.755300
379.000000	6.689600
378.000000	6.626800
377.000000	6.607500
376.000000	6.568700
375.000000	6.516100
374.000000	6.562700
373.000000	6.546900
372.000000	6.554800
371.000000	6.421700
370.000000	6.332800
369.000000	6.317600
368.000000	6.357500
367.000000	6.358100
366.000000	6.302800
365.000000	6.348000
364.000000	6.324600
363.000000	6.268300
362.000000	6.295300
361.000000	6.227700
360.000000	6.170000
359.000000	6.218800
358.000000	6.166500
357.000000	6.092900
356.000000	6.067100
355.000000	6.059200
354.000000	6.022000
353.000000	6.029100
352.000000	6.076500
351.000000	6.011500
350.000000	5.939900
349.000000	5.905200
348.000000	5.911200
347.000000	5.931000
346.000000	5.931900
345.000000	5.914800
344.000000	5.857700
343.000000	5.890200
342.000000	5.909600
341.000000	5.829400
340.000000	5.817600
339.000000	5.865100
338.000000	5.900300
337.000000	5.872200
336.000000	5.856100
335.000000	5.812200
334.000000	5.762700
333.000000	5.817100
332.000000	5.872600
331.000000	5.802600
330.000000	5.802900
329.000000	5.896500
328.000000	5.766300
327.000000	5.684200
326.000000	5.871800
325.000000	5.928200
324.000000	5.833600
323.000000	5.747500
322.000000	5.723500
321.000000	5.745500
320.000000	5.822800
319.000000	5.782700
318.000000	5.845800
317.000000	5.952900
316.000000	5.847900
315.000000	5.826900
314.000000	5.841000
313.000000	5.837300
312.000000	5.829100
311.000000	5.834800
310.000000	5.861700
309.000000	5.868400
308.000000	5.876800
307.000000	5.881300
306.000000	5.883100
305.000000	5.876200
304.000000	5.877400
303.000000	5.879100
302.000000	5.899500
301.000000	5.897400
300.000000	5.894200
299.000000	5.919400
298.000000	5.932000
297.000000	5.933000
296.000000	5.925000
295.000000	5.866200
294.000000	5.887900
293.000000	5.952800
292.000000	5.949300
291.000000	5.942400
290.000000	5.957100
289.000000	5.943900
288.000000	5.937200
287.000000	5.952800
286.000000	5.936900
285.000000	5.930300
284.000000	5.997400
283.000000	5.993000
282.000000	5.984400
281.000000	6.013700
280.000000	5.999400
279.000000	6.007200
278.000000	6.026000
277.000000	6.031500
276.000000	6.039900
275.000000	6.085800
274.000000	6.069600
273.000000	6.086200
272.000000	6.104700
271.000000	6.140900
270.000000	6.149300
269.000000	6.140400
268.000000	6.156700
267.000000	6.191400
266.000000	6.211700
265.000000	6.237200
264.000000	6.255200
263.000000	6.260600
262.000000	6.295100
261.000000	6.343200
260.000000	6.380800
259.000000	6.420500
258.000000	6.408100
257.000000	6.411600
256.000000	6.438400
255.000000	6.442900
254.000000	6.449600
253.000000	6.484400
252.000000	6.504000
251.000000	6.457300
250.000000	6.481100
