PE UV       SUBTECH     SPECTRUM    ASCII       PEDS        4.00        
   -1
CICIMAUCR0215-3.Sample.ASC
24/06/13
11:59:15.00
24/06/13
11:59:15.00
Vinicio Soto Monge
C. cupreomarginata. Sex M. Dorsal
a
250.000000
1
Lambda 1050
1050L1511233
PerkinElmer UV WinLab 6.3.2.0749 / 2.02.05 Lambda 900 UV/VIS/NIR. Aug  7 2015 09:38:08

0
0
3350/servo 860.8/2
0
0
UV/VIS
1
1
1
DoubleDePol.CommonBeamDepol.RBeamAtt.SBeamAtt.60mm sphere. WB InGaAs Detector
0
0
0
0
Program
Program
3350/servo 860.8/2
3350/0.2 860.8/0.2
3350/0.2 860.8/0.2
0
15.00
 
 
 
0
 
860.8
319.2
860.8
Front
100
on
S:100 R:100
0
0
0
0
 
0
 
 
 
0
 
 
0
0
0
0
0
 
 
 
 
0
0


0
0
#HDR
-1
-1
#GR
nm
%R
1.0
0.0
2500.000000
-1.000000
2251
8
67.988100
5.466400

2483.000000	11.289786
2482.000000	11.302958
2481.000000	11.304108
2480.000000	11.389932
2479.000000	11.316756
2478.000000	11.357630
2477.000000	11.356062
2476.000000	11.388468
2475.000000	11.385228
2474.000000	11.439795
2473.000000	11.381673
2472.000000	11.453908
2471.000000	11.485269
2470.000000	11.464779
2469.000000	11.505758
2468.000000	11.524470
2467.000000	11.582069
2466.000000	11.626079
2465.000000	11.615939
2464.000000	11.643745
2463.000000	11.698418
2462.000000	11.746400
2461.000000	11.826370
2460.000000	11.871738
2459.000000	11.929442
2458.000000	11.990491
2457.000000	12.026138
2456.000000	12.132242
2455.000000	12.184196
2454.000000	12.261553
2453.000000	12.363162
2452.000000	12.430901
2451.000000	12.527911
2450.000000	12.619171
2449.000000	12.672484
2448.000000	12.777125
2447.000000	12.881765
2446.000000	12.983374
2445.000000	13.071185
2444.000000	13.153768
2443.000000	13.242519
2442.000000	13.338170
2441.000000	13.437897
2440.000000	13.518808
2439.000000	13.616758
2438.000000	13.716695
2437.000000	13.816526
2436.000000	13.910818
2435.000000	13.966327
2434.000000	14.051419
2433.000000	14.123653
2432.000000	14.210732
2431.000000	14.293838
2430.000000	14.368372
2429.000000	14.403914
2428.000000	14.487857
2427.000000	14.586330
2426.000000	14.669122
2425.000000	14.716373
2424.000000	14.772508
2423.000000	14.851538
2422.000000	14.909242
2421.000000	14.959523
2420.000000	15.012210
2419.000000	15.080890
2418.000000	15.110787
2417.000000	15.171836
2416.000000	15.225986
2415.000000	15.275536
2414.000000	15.323413
2413.000000	15.377981
2412.000000	15.414882
2411.000000	15.465060
2410.000000	15.518477
2409.000000	15.559769
2408.000000	15.589771
2407.000000	15.636185
2406.000000	15.695352
2405.000000	15.719709
2404.000000	15.761106
2403.000000	15.802188
2402.000000	15.838985
2401.000000	15.881636
2400.000000	15.925959
2399.000000	15.961919
2398.000000	15.989935
2397.000000	16.026000
2396.000000	16.053284
2395.000000	16.092485
2394.000000	16.133463
2393.000000	16.170469
2392.000000	16.209565
2391.000000	16.245107
2390.000000	16.273646
2389.000000	16.298943
2388.000000	16.327273
2387.000000	16.345671
2386.000000	16.363756
2385.000000	16.381527
2384.000000	16.394489
2383.000000	16.412679
2382.000000	16.414560
2381.000000	16.409961
2380.000000	16.433690
2379.000000	16.451880
2378.000000	16.456375
2377.000000	16.446235
2376.000000	16.436722
2375.000000	16.433481
2374.000000	16.431600
2373.000000	16.426582
2372.000000	16.421669
2371.000000	16.410902
2370.000000	16.398984
2369.000000	16.388008
2368.000000	16.372641
2367.000000	16.340862
2366.000000	16.314624
2365.000000	16.295912
2364.000000	16.263715
2363.000000	16.232040
2362.000000	16.205175
2361.000000	16.172559
2360.000000	16.143603
2359.000000	16.095725
2358.000000	16.061856
2357.000000	16.037081
2356.000000	16.004152
2355.000000	15.970805
2354.000000	15.941639
2353.000000	15.915296
2352.000000	15.905679
2351.000000	15.905052
2350.000000	15.897316
2349.000000	15.900975
2348.000000	15.917701
2347.000000	15.944148
2346.000000	15.971014
2345.000000	16.018996
2344.000000	16.055897
2343.000000	16.081718
2342.000000	16.119141
2341.000000	16.165765
2340.000000	16.198275
2339.000000	16.240194
2338.000000	16.284099
2337.000000	16.301870
2336.000000	16.318387
2335.000000	16.339922
2334.000000	16.343998
2333.000000	16.354975
2332.000000	16.337622
2331.000000	16.324450
2330.000000	16.319119
2329.000000	16.299466
2328.000000	16.273228
2327.000000	16.226814
2326.000000	16.188344
2325.000000	16.143603
2324.000000	16.082867
2323.000000	16.007183
2322.000000	15.942267
2321.000000	15.864805
2320.000000	15.778772
2319.000000	15.680926
2318.000000	15.599179
2317.000000	15.476559
2316.000000	15.359165
2315.000000	15.265082
2314.000000	15.151870
2313.000000	15.019213
2312.000000	14.911646
2311.000000	14.806378
2310.000000	14.707801
2309.000000	14.610373
2308.000000	14.550160
2307.000000	14.499983
2306.000000	14.435902
2305.000000	14.404228
2304.000000	14.401301
2303.000000	14.403496
2302.000000	14.425658
2301.000000	14.458587
2300.000000	14.512841
2299.000000	14.580371
2298.000000	14.662432
2297.000000	14.742193
2296.000000	14.822895
2295.000000	14.903597
2294.000000	14.979908
2293.000000	15.052769
2292.000000	15.135876
2291.000000	15.211664
2290.000000	15.264350
2289.000000	15.293725
2288.000000	15.341707
2287.000000	15.360524
2286.000000	15.362614
2285.000000	15.362196
2284.000000	15.352683
2283.000000	15.334808
2282.000000	15.295502
2281.000000	15.262887
2280.000000	15.223163
2279.000000	15.165355
2278.000000	15.115178
2277.000000	15.089043
2276.000000	15.029040
2275.000000	14.959732
2274.000000	14.917395
2273.000000	14.907255
2272.000000	14.880285
2271.000000	14.865964
2270.000000	14.856869
2269.000000	14.891366
2268.000000	14.920427
2267.000000	14.989421
2266.000000	15.047334
2265.000000	15.144866
2264.000000	15.264559
2263.000000	15.376831
2262.000000	15.537503
2261.000000	15.743125
2260.000000	15.943835
2259.000000	16.133567
2258.000000	16.356334
2257.000000	16.588717
2256.000000	16.847026
2255.000000	17.086518
2254.000000	17.310120
2253.000000	17.547208
2252.000000	17.772170
2251.000000	17.997863
2250.000000	18.215402
2249.000000	18.392277
2248.000000	18.595600
2247.000000	18.769025
2246.000000	18.942137
2245.000000	19.103227
2244.000000	19.238810
2243.000000	19.361013
2242.000000	19.470880
2241.000000	19.571548
2240.000000	19.677339
2239.000000	19.755114
2238.000000	19.809263
2237.000000	19.904496
2236.000000	19.960631
2235.000000	19.969412
2234.000000	20.038511
2233.000000	20.069871
2232.000000	20.095274
2231.000000	20.111581
2230.000000	20.118167
2229.000000	20.112731
2228.000000	20.140015
2227.000000	20.105309
2226.000000	20.100501
2225.000000	20.086597
2224.000000	20.048546
2223.000000	20.028266
2222.000000	19.970771
2221.000000	19.930734
2220.000000	19.878571
2219.000000	19.849614
2218.000000	19.782711
2217.000000	19.727307
2216.000000	19.682252
2215.000000	19.630088
2214.000000	19.569248
2213.000000	19.534647
2212.000000	19.459590
2211.000000	19.431156
2210.000000	19.390387
2209.000000	19.345960
2208.000000	19.296828
2207.000000	19.265989
2206.000000	19.205568
2205.000000	19.192082
2204.000000	19.172325
2203.000000	19.147446
2202.000000	19.101450
2201.000000	19.066953
2200.000000	19.041760
2199.000000	19.021584
2198.000000	19.005695
2197.000000	18.964612
2196.000000	18.942137
2195.000000	18.918303
2194.000000	18.905758
2193.000000	18.886210
2192.000000	18.867916
2191.000000	18.833628
2190.000000	18.843455
2189.000000	18.814917
2188.000000	18.797564
2187.000000	18.778643
2186.000000	18.750836
2185.000000	18.732960
2184.000000	18.716757
2183.000000	18.691459
2182.000000	18.675465
2181.000000	18.651631
2180.000000	18.636787
2179.000000	18.633233
2178.000000	18.617762
2177.000000	18.598422
2176.000000	18.604276
2175.000000	18.590687
2174.000000	18.602290
2173.000000	18.597063
2172.000000	18.596018
2171.000000	18.602499
2170.000000	18.613580
2169.000000	18.609399
2168.000000	18.641805
2167.000000	18.665221
2166.000000	18.674734
2165.000000	18.703167
2164.000000	18.732333
2163.000000	18.777179
2162.000000	18.811153
2161.000000	18.846277
2160.000000	18.877847
2159.000000	18.928024
2158.000000	18.972975
2157.000000	19.032874
2156.000000	19.081902
2155.000000	19.146609
2154.000000	19.195219
2153.000000	19.257208
2152.000000	19.317944
2151.000000	19.381188
2150.000000	19.447464
2149.000000	19.503704
2148.000000	19.559736
2147.000000	19.626430
2146.000000	19.678175
2145.000000	19.740269
2144.000000	19.785743
2143.000000	19.845119
2142.000000	19.910245
2141.000000	19.962199
2140.000000	19.993351
2139.000000	20.052623
2138.000000	20.110536
2137.000000	20.147960
2136.000000	20.202214
2135.000000	20.227721
2134.000000	20.262845
2133.000000	20.292847
2132.000000	20.334557
2131.000000	20.358705
2130.000000	20.383480
2129.000000	20.410136
2128.000000	20.415259
2127.000000	20.419022
2126.000000	20.442856
2125.000000	20.446619
2124.000000	20.450487
2123.000000	20.439824
2122.000000	20.431566
2121.000000	20.448919
2120.000000	20.455609
2119.000000	20.429894
2118.000000	20.408673
2117.000000	20.406059
2116.000000	20.381284
2115.000000	20.368740
2114.000000	20.350864
2113.000000	20.323267
2112.000000	20.309782
2111.000000	20.283752
2110.000000	20.233889
2109.000000	20.209532
2108.000000	20.187579
2107.000000	20.155068
2106.000000	20.136984
2105.000000	20.116390
2104.000000	20.079593
2103.000000	20.037047
2102.000000	20.007254
2101.000000	19.989379
2100.000000	19.958750
2099.000000	19.915263
2098.000000	19.893206
2097.000000	19.863099
2096.000000	19.827034
2095.000000	19.816685
2094.000000	19.792537
2093.000000	19.759609
2092.000000	19.739329
2091.000000	19.723648
2090.000000	19.703264
2089.000000	19.680893
2088.000000	19.649532
2087.000000	19.615767
2086.000000	19.580538
2085.000000	19.551895
2084.000000	19.523044
2083.000000	19.475271
2082.000000	19.435129
2081.000000	19.408368
2080.000000	19.361640
2079.000000	19.310522
2078.000000	19.252818
2077.000000	19.187065
2076.000000	19.119639
2075.000000	19.060472
2074.000000	19.007785
2073.000000	18.936283
2072.000000	18.855790
2071.000000	18.783347
2070.000000	18.709753
2069.000000	18.638460
2068.000000	18.571766
2067.000000	18.489705
2066.000000	18.396981
2065.000000	18.328615
2064.000000	18.267670
2063.000000	18.187491
2062.000000	18.115152
2061.000000	18.060585
2060.000000	17.994204
2059.000000	17.919356
2058.000000	17.869597
2057.000000	17.829664
2056.000000	17.804994
2055.000000	17.784819
2054.000000	17.750426
2053.000000	17.741750
2052.000000	17.751576
2051.000000	17.776247
2050.000000	17.803426
2049.000000	17.835414
2048.000000	17.879005
2047.000000	17.926988
2046.000000	17.980824
2045.000000	18.050235
2044.000000	18.123097
2043.000000	18.188955
2042.000000	18.256381
2041.000000	18.347431
2040.000000	18.409839
2039.000000	18.455417
2038.000000	18.524097
2037.000000	18.600513
2036.000000	18.649436
2035.000000	18.697732
2034.000000	18.758676
2033.000000	18.792546
2032.000000	18.820143
2031.000000	18.843978
2030.000000	18.878579
2029.000000	18.899173
2028.000000	18.923843
2027.000000	18.950709
2026.000000	18.969107
2025.000000	18.963253
2024.000000	18.983638
2023.000000	19.001827
2022.000000	18.982801
2021.000000	18.987087
2020.000000	18.980815
2019.000000	18.975484
2018.000000	18.972661
2017.000000	18.969316
2016.000000	18.943914
2015.000000	18.923948
2014.000000	18.899068
2013.000000	18.862376
2012.000000	18.834360
2011.000000	18.812094
2010.000000	18.759408
2009.000000	18.715816
2008.000000	18.667521
2007.000000	18.633860
2006.000000	18.558281
2005.000000	18.503295
2004.000000	18.452908
2003.000000	18.386737
2002.000000	18.320252
2001.000000	18.257844
2000.000000	18.184982
1999.000000	18.104176
1998.000000	18.019397
1997.000000	17.946640
1996.000000	17.857680
1995.000000	17.774469
1994.000000	17.684882
1993.000000	17.589859
1992.000000	17.500794
1991.000000	17.411729
1990.000000	17.306566
1989.000000	17.233809
1988.000000	17.126346
1987.000000	17.035191
1986.000000	16.933686
1985.000000	16.821833
1984.000000	16.719074
1983.000000	16.598648
1982.000000	16.512301
1981.000000	16.398148
1980.000000	16.302916
1979.000000	16.208729
1978.000000	16.107538
1977.000000	16.006452
1976.000000	15.903902
1975.000000	15.798320
1974.000000	15.690648
1973.000000	15.603883
1972.000000	15.487117
1971.000000	15.411746
1970.000000	15.315887
1969.000000	15.193161
1968.000000	15.126886
1967.000000	15.013568
1966.000000	14.918754
1965.000000	14.848820
1964.000000	14.743970
1963.000000	14.653024
1962.000000	14.556851
1961.000000	14.474999
1960.000000	14.396388
1959.000000	14.307428
1958.000000	14.212091
1957.000000	14.133271
1956.000000	14.049955
1955.000000	13.969254
1954.000000	13.890120
1953.000000	13.824262
1952.000000	13.733002
1951.000000	13.644878
1950.000000	13.590311
1949.000000	13.515672
1948.000000	13.453996
1947.000000	13.413122
1946.000000	13.351864
1945.000000	13.299909
1944.000000	13.244819
1943.000000	13.209590
1942.000000	13.167462
1941.000000	13.149273
1940.000000	13.127425
1939.000000	13.107772
1938.000000	13.107563
1937.000000	13.088224
1936.000000	13.078189
1935.000000	13.104532
1934.000000	13.126693
1933.000000	13.126484
1932.000000	13.155963
1931.000000	13.181575
1930.000000	13.272521
1929.000000	13.337124
1928.000000	13.403609
1927.000000	13.492569
1926.000000	13.598360
1925.000000	13.653555
1924.000000	13.749519
1923.000000	13.855100
1922.000000	14.010963
1921.000000	14.156269
1920.000000	14.309205
1919.000000	14.451269
1918.000000	14.600651
1917.000000	14.761532
1916.000000	14.910601
1915.000000	15.100438
1914.000000	15.314528
1913.000000	15.534994
1912.000000	15.784208
1911.000000	16.001120
1910.000000	16.221378
1909.000000	16.411529
1908.000000	16.634086
1907.000000	16.869292
1906.000000	17.195235
1905.000000	17.544386
1904.000000	17.893118
1903.000000	18.174320
1902.000000	18.501099
1901.000000	18.841887
1900.000000	19.234524
1899.000000	19.635733
1898.000000	20.043737
1897.000000	20.422890
1896.000000	20.785316
1895.000000	21.145861
1894.000000	21.541112
1893.000000	21.951102
1892.000000	22.426741
1891.000000	22.977123
1890.000000	23.508270
1889.000000	23.990809
1888.000000	24.493418
1887.000000	24.961112
1886.000000	25.475534
1885.000000	25.992151
1884.000000	26.562499
1883.000000	27.137448
1882.000000	27.665145
1881.000000	28.191589
1880.000000	28.684267
1879.000000	29.133040
1878.000000	29.597703
1877.000000	30.101880
1876.000000	30.526296
1875.000000	30.962107
1874.000000	31.388091
1873.000000	31.805190
1872.000000	32.194901
1871.000000	32.560568
1870.000000	32.883897
1869.000000	33.196147
1868.000000	33.476826
1867.000000	33.693424
1866.000000	33.862355
1865.000000	34.000447
1864.000000	34.137284
1863.000000	34.272868
1862.000000	34.431553
1861.000000	34.605606
1860.000000	34.765860
1859.000000	34.901547
1858.000000	35.022809
1857.000000	35.137171
1856.000000	35.202820
1855.000000	35.264078
1854.000000	35.352411
1853.000000	35.412624
1852.000000	35.431754
1851.000000	35.474091
1850.000000	35.515487
1849.000000	35.557615
1848.000000	35.605806
1847.000000	35.650339
1846.000000	35.661211
1845.000000	35.613960
1844.000000	35.586572
1843.000000	35.568905
1842.000000	35.601416
1841.000000	35.652430
1840.000000	35.678564
1839.000000	35.669260
1838.000000	35.644589
1837.000000	35.632359
1836.000000	35.621069
1835.000000	35.595144
1834.000000	35.554375
1833.000000	35.493535
1832.000000	35.436667
1831.000000	35.417014
1830.000000	35.403111
1829.000000	35.384922
1828.000000	35.349066
1827.000000	35.311538
1826.000000	35.272755
1825.000000	35.236794
1824.000000	35.215678
1823.000000	35.188917
1822.000000	35.203552
1821.000000	35.226445
1820.000000	35.210347
1819.000000	35.195607
1818.000000	35.176163
1817.000000	35.145430
1816.000000	35.132363
1815.000000	35.133095
1814.000000	35.122432
1813.000000	35.124941
1812.000000	35.126300
1811.000000	35.105602
1810.000000	35.084381
1809.000000	35.064101
1808.000000	35.039639
1807.000000	35.011101
1806.000000	35.000125
1805.000000	34.968973
1804.000000	34.926113
1803.000000	34.913360
1802.000000	34.893289
1801.000000	34.862974
1800.000000	34.831090
1799.000000	34.789589
1798.000000	34.761783
1797.000000	34.727913
1796.000000	34.700838
1795.000000	34.683799
1794.000000	34.664355
1793.000000	34.642612
1792.000000	34.609996
1791.000000	34.577590
1790.000000	34.551456
1789.000000	34.532744
1788.000000	34.507551
1787.000000	34.476817
1786.000000	34.451624
1785.000000	34.420263
1784.000000	34.393502
1783.000000	34.360887
1782.000000	34.327017
1781.000000	34.287712
1780.000000	34.238266
1779.000000	34.206696
1778.000000	34.164464
1777.000000	34.123799
1776.000000	34.086271
1775.000000	34.028044
1774.000000	33.967204
1773.000000	33.914309
1772.000000	33.859950
1771.000000	33.798588
1770.000000	33.740152
1769.000000	33.681821
1768.000000	33.612723
1767.000000	33.543624
1766.000000	33.494074
1765.000000	33.448392
1764.000000	33.412536
1763.000000	33.399992
1762.000000	33.392256
1761.000000	33.407518
1760.000000	33.437416
1759.000000	33.478185
1758.000000	33.521567
1757.000000	33.562232
1756.000000	33.628508
1755.000000	33.674713
1754.000000	33.712345
1753.000000	33.754787
1752.000000	33.770363
1751.000000	33.780921
1750.000000	33.780817
1749.000000	33.781235
1748.000000	33.777785
1747.000000	33.745170
1746.000000	33.690916
1745.000000	33.640007
1744.000000	33.576135
1743.000000	33.494388
1742.000000	33.399051
1741.000000	33.273608
1740.000000	33.145238
1739.000000	33.024603
1738.000000	32.894665
1737.000000	32.759709
1736.000000	32.644301
1735.000000	32.565690
1734.000000	32.474743
1733.000000	32.412963
1732.000000	32.385156
1731.000000	32.378466
1730.000000	32.399896
1729.000000	32.421744
1728.000000	32.464394
1727.000000	32.514990
1726.000000	32.582102
1725.000000	32.634579
1724.000000	32.680157
1723.000000	32.735770
1722.000000	32.790547
1721.000000	32.840306
1720.000000	32.904282
1719.000000	32.975262
1718.000000	33.059936
1717.000000	33.156736
1716.000000	33.225939
1715.000000	33.344065
1714.000000	33.432189
1713.000000	33.531185
1712.000000	33.616695
1711.000000	33.686211
1710.000000	33.751860
1709.000000	33.786566
1708.000000	33.817927
1707.000000	33.824826
1706.000000	33.818136
1705.000000	33.796497
1704.000000	33.778203
1703.000000	33.736180
1702.000000	33.674503
1701.000000	33.614291
1700.000000	33.506723
1699.000000	33.405323
1698.000000	33.314168
1697.000000	33.218517
1696.000000	33.125794
1695.000000	33.066940
1694.000000	33.035997
1693.000000	33.037252
1692.000000	33.057532
1691.000000	33.122240
1690.000000	33.196460
1689.000000	33.263886
1688.000000	33.323785
1687.000000	33.389329
1686.000000	33.433966
1685.000000	33.517908
1684.000000	33.609796
1683.000000	33.726458
1682.000000	33.891938
1681.000000	34.100801
1680.000000	34.378031
1679.000000	34.692998
1678.000000	35.012774
1677.000000	35.335581
1676.000000	35.630268
1675.000000	35.927777
1674.000000	36.190267
1673.000000	36.416170
1672.000000	36.609980
1671.000000	36.792918
1670.000000	36.963834
1669.000000	37.087605
1668.000000	37.222352
1667.000000	37.360444
1666.000000	37.459335
1665.000000	37.554463
1664.000000	37.620529
1663.000000	37.692659
1662.000000	37.784442
1661.000000	37.834201
1660.000000	37.877583
1659.000000	37.945636
1658.000000	37.968216
1657.000000	38.016721
1656.000000	38.027802
1655.000000	38.057072
1654.000000	38.036896
1653.000000	38.045364
1652.000000	38.066898
1651.000000	38.039510
1650.000000	38.033656
1649.000000	38.006790
1648.000000	37.979297
1647.000000	37.962885
1646.000000	37.931629
1645.000000	37.897341
1644.000000	37.858244
1643.000000	37.817580
1642.000000	37.805767
1641.000000	37.768761
1640.000000	37.724647
1639.000000	37.703113
1638.000000	37.650113
1637.000000	37.621679
1636.000000	37.556135
1635.000000	37.504703
1634.000000	37.441250
1633.000000	37.413234
1632.000000	37.363057
1631.000000	37.308385
1630.000000	37.249008
1629.000000	37.211480
1628.000000	37.141023
1627.000000	37.092100
1626.000000	37.028228
1625.000000	36.951394
1624.000000	36.911880
1623.000000	36.836718
1622.000000	36.783823
1621.000000	36.757375
1620.000000	36.693713
1619.000000	36.650226
1618.000000	36.605485
1617.000000	36.551858
1616.000000	36.483073
1615.000000	36.454012
1614.000000	36.386795
1613.000000	36.340486
1612.000000	36.284245
1611.000000	36.228841
1610.000000	36.193090
1609.000000	36.153262
1608.000000	36.092840
1607.000000	36.044440
1606.000000	35.985168
1605.000000	35.918892
1604.000000	35.853766
1603.000000	35.789581
1602.000000	35.738358
1601.000000	35.686822
1600.000000	35.635808
1599.000000	35.567442
1598.000000	35.503570
1597.000000	35.444716
1596.000000	35.390985
1595.000000	35.338299
1594.000000	35.293453
1593.000000	35.252788
1592.000000	35.198952
1591.000000	35.140099
1590.000000	35.097657
1589.000000	35.044239
1588.000000	34.997093
1587.000000	34.957160
1586.000000	34.908342
1585.000000	34.859837
1584.000000	34.819068
1583.000000	34.782481
1582.000000	34.726449
1581.000000	34.697075
1580.000000	34.663728
1579.000000	34.618464
1578.000000	34.593898
1577.000000	34.565150
1576.000000	34.527726
1575.000000	34.493230
1574.000000	34.476922
1573.000000	34.451833
1572.000000	34.444934
1571.000000	34.441275
1570.000000	34.419218
1569.000000	34.396638
1568.000000	34.388694
1567.000000	34.387962
1566.000000	34.385976
1565.000000	34.383989
1564.000000	34.360992
1563.000000	34.355242
1562.000000	34.333603
1561.000000	34.306006
1560.000000	34.291161
1559.000000	34.272868
1558.000000	34.242970
1557.000000	34.209623
1556.000000	34.195825
1555.000000	34.152129
1554.000000	34.098606
1553.000000	34.047697
1552.000000	34.012259
1551.000000	33.962500
1550.000000	33.909605
1549.000000	33.847511
1548.000000	33.792420
1547.000000	33.749560
1546.000000	33.689138
1545.000000	33.629135
1544.000000	33.593593
1543.000000	33.534216
1542.000000	33.482262
1541.000000	33.451214
1540.000000	33.414418
1539.000000	33.371976
1538.000000	33.324726
1537.000000	33.284480
1536.000000	33.234093
1535.000000	33.183498
1534.000000	33.131961
1533.000000	33.085861
1532.000000	33.025335
1531.000000	32.970453
1530.000000	32.912958
1529.000000	32.851073
1528.000000	32.791697
1527.000000	32.723226
1526.000000	32.650573
1525.000000	32.581997
1524.000000	32.513840
1523.000000	32.448819
1522.000000	32.375852
1521.000000	32.298809
1520.000000	32.221662
1519.000000	32.151414
1518.000000	32.072593
1517.000000	31.988442
1516.000000	31.906381
1515.000000	31.829024
1514.000000	31.735987
1513.000000	31.646191
1512.000000	31.561621
1511.000000	31.465553
1510.000000	31.385687
1509.000000	31.299445
1508.000000	31.209126
1507.000000	31.113371
1506.000000	31.018557
1505.000000	30.927192
1504.000000	30.828615
1503.000000	30.748854
1502.000000	30.668675
1501.000000	30.578146
1500.000000	30.492845
1499.000000	30.408171
1498.000000	30.332278
1497.000000	30.254816
1496.000000	30.187077
1495.000000	30.112647
1494.000000	30.043863
1493.000000	29.984382
1492.000000	29.915074
1491.000000	29.855384
1490.000000	29.795172
1489.000000	29.737363
1488.000000	29.696280
1487.000000	29.642026
1486.000000	29.581082
1485.000000	29.525782
1484.000000	29.475187
1483.000000	29.422292
1482.000000	29.381522
1481.000000	29.337095
1480.000000	29.289949
1479.000000	29.263188
1478.000000	29.235172
1477.000000	29.206738
1476.000000	29.166910
1475.000000	29.136386
1474.000000	29.133563
1473.000000	29.128545
1472.000000	29.117046
1471.000000	29.111715
1470.000000	29.100948
1469.000000	29.101993
1468.000000	29.089972
1467.000000	29.080250
1466.000000	29.085058
1465.000000	29.094989
1464.000000	29.107638
1463.000000	29.125723
1462.000000	29.140567
1461.000000	29.174437
1460.000000	29.216774
1459.000000	29.236949
1458.000000	29.277300
1457.000000	29.318696
1456.000000	29.383613
1455.000000	29.442258
1454.000000	29.512715
1453.000000	29.572614
1452.000000	29.653421
1451.000000	29.725551
1450.000000	29.807193
1449.000000	29.869079
1448.000000	29.934204
1447.000000	30.028496
1446.000000	30.126551
1445.000000	30.227637
1444.000000	30.305725
1443.000000	30.395836
1442.000000	30.491172
1441.000000	30.617452
1440.000000	30.715402
1439.000000	30.824956
1438.000000	30.950399
1437.000000	31.081905
1436.000000	31.177033
1435.000000	31.306867
1434.000000	31.457712
1433.000000	31.579497
1432.000000	31.747486
1431.000000	31.869271
1430.000000	32.014367
1429.000000	32.183611
1428.000000	32.374807
1427.000000	32.533388
1426.000000	32.703573
1425.000000	32.908673
1424.000000	33.121508
1423.000000	33.340824
1422.000000	33.551151
1421.000000	33.775590
1420.000000	34.022817
1419.000000	34.312069
1418.000000	34.562537
1417.000000	34.777881
1416.000000	35.040267
1415.000000	35.333804
1414.000000	35.650025
1413.000000	35.955584
1412.000000	36.227378
1411.000000	36.517883
1410.000000	36.875292
1409.000000	37.276919
1408.000000	37.608926
1407.000000	37.984001
1406.000000	38.326461
1405.000000	38.714812
1404.000000	39.132120
1403.000000	39.494547
1402.000000	39.833662
1401.000000	40.288602
1400.000000	40.704133
1399.000000	41.071159
1398.000000	41.328631
1397.000000	41.634817
1396.000000	42.053589
1395.000000	42.475391
1394.000000	42.806875
1393.000000	43.070201
1392.000000	43.439109
1391.000000	43.777910
1390.000000	44.129569
1389.000000	44.454990
1388.000000	44.927493
1387.000000	45.334765
1386.000000	45.698446
1385.000000	46.103210
1384.000000	46.553237
1383.000000	46.956119
1382.000000	47.369454
1381.000000	47.720591
1380.000000	47.932904
1379.000000	48.162987
1378.000000	48.389203
1377.000000	48.537436
1376.000000	48.739817
1375.000000	48.892126
1374.000000	49.050394
1373.000000	49.203644
1372.000000	49.483068
1371.000000	49.656598
1370.000000	49.855426
1369.000000	50.045577
1368.000000	50.266357
1367.000000	50.459644
1366.000000	50.582474
1365.000000	50.719207
1364.000000	50.883538
1363.000000	50.940719
1362.000000	51.132856
1361.000000	51.222339
1360.000000	51.290601
1359.000000	51.336492
1358.000000	51.401514
1357.000000	51.484724
1356.000000	51.567412
1355.000000	51.717212
1354.000000	51.916458
1353.000000	52.091869
1352.000000	52.310350
1351.000000	52.550574
1350.000000	52.810241
1349.000000	53.066877
1348.000000	53.297692
1347.000000	53.524222
1346.000000	53.715837
1345.000000	53.898252
1344.000000	54.127290
1343.000000	54.322982
1342.000000	54.512924
1341.000000	54.689799
1340.000000	54.877336
1339.000000	55.060902
1338.000000	55.250425
1337.000000	55.428555
1336.000000	55.606684
1335.000000	55.769551
1334.000000	55.944127
1333.000000	56.097585
1332.000000	56.271847
1331.000000	56.427187
1330.000000	56.570506
1329.000000	56.728774
1328.000000	56.864462
1327.000000	57.008303
1326.000000	57.134165
1325.000000	57.270689
1324.000000	57.394564
1323.000000	57.498055
1322.000000	57.642314
1321.000000	57.743505
1320.000000	57.840305
1319.000000	57.963763
1318.000000	58.081679
1317.000000	58.167921
1316.000000	58.256777
1315.000000	58.371453
1314.000000	58.444733
1313.000000	58.543415
1312.000000	58.640424
1311.000000	58.733566
1310.000000	58.805800
1309.000000	58.871553
1308.000000	58.944310
1307.000000	59.012782
1306.000000	59.083971
1305.000000	59.131430
1304.000000	59.189447
1303.000000	59.250392
1302.000000	59.296074
1301.000000	59.337575
1300.000000	59.387648
1299.000000	59.417231
1298.000000	59.471590
1297.000000	59.519259
1296.000000	59.536193
1295.000000	59.569749
1294.000000	59.595883
1293.000000	59.625990
1292.000000	59.647106
1291.000000	59.657664
1290.000000	59.664668
1289.000000	59.689966
1288.000000	59.703242
1287.000000	59.726240
1286.000000	59.714532
1285.000000	59.702719
1284.000000	59.709932
1283.000000	59.712232
1282.000000	59.708469
1281.000000	59.679512
1280.000000	59.672090
1279.000000	59.679721
1278.000000	59.685471
1277.000000	59.663309
1276.000000	59.662055
1275.000000	59.665714
1274.000000	59.658396
1273.000000	59.664877
1272.000000	59.668641
1271.000000	59.653587
1270.000000	59.663518
1269.000000	59.680976
1268.000000	59.684216
1267.000000	59.677317
1266.000000	59.674913
1265.000000	59.677003
1264.000000	59.672299
1263.000000	59.665191
1262.000000	59.664250
1261.000000	59.654215
1260.000000	59.639370
1259.000000	59.625154
1258.000000	59.612087
1257.000000	59.594211
1256.000000	59.564941
1255.000000	59.550724
1254.000000	59.524799
1253.000000	59.487898
1252.000000	59.463123
1251.000000	59.436675
1250.000000	59.398310
1249.000000	59.360991
1248.000000	59.297747
1247.000000	59.221749
1246.000000	59.181189
1245.000000	59.107491
1244.000000	59.037138
1243.000000	58.986752
1242.000000	58.913681
1241.000000	58.838729
1240.000000	58.756355
1239.000000	58.675444
1238.000000	58.610841
1237.000000	58.535052
1236.000000	58.457382
1235.000000	58.388597
1234.000000	58.305700
1233.000000	58.209527
1232.000000	58.124121
1231.000000	58.043523
1230.000000	57.943901
1229.000000	57.841874
1228.000000	57.752286
1227.000000	57.658935
1226.000000	57.569139
1225.000000	57.480492
1224.000000	57.366444
1223.000000	57.263058
1222.000000	57.178906
1221.000000	57.067680
1220.000000	56.962098
1219.000000	56.865925
1218.000000	56.761285
1217.000000	56.663230
1216.000000	56.569775
1215.000000	56.478410
1214.000000	56.386105
1213.000000	56.305298
1212.000000	56.226792
1211.000000	56.137414
1210.000000	56.038732
1209.000000	55.954371
1208.000000	55.871683
1207.000000	55.782618
1206.000000	55.724601
1205.000000	55.668988
1204.000000	55.609820
1203.000000	55.560584
1202.000000	55.515320
1201.000000	55.472774
1200.000000	55.434513
1199.000000	55.370851
1198.000000	55.306666
1197.000000	55.244467
1196.000000	55.166065
1195.000000	55.061111
1194.000000	54.934622
1193.000000	54.797680
1192.000000	54.638262
1191.000000	54.447589
1190.000000	54.239562
1189.000000	54.053383
1188.000000	53.890516
1187.000000	53.772286
1186.000000	53.702142
1185.000000	53.678935
1184.000000	53.709773
1183.000000	53.806678
1182.000000	53.976654
1181.000000	54.188235
1180.000000	54.424591
1179.000000	54.668892
1178.000000	54.926468
1177.000000	55.151116
1176.000000	55.354125
1175.000000	55.544903
1174.000000	55.726169
1173.000000	55.887259
1172.000000	56.074274
1171.000000	56.258257
1170.000000	56.419243
1169.000000	56.600299
1168.000000	56.812298
1167.000000	57.017189
1166.000000	57.207653
1165.000000	57.413589
1164.000000	57.600813
1163.000000	57.824939
1162.000000	58.049796
1161.000000	58.264513
1160.000000	58.448182
1159.000000	58.679416
1158.000000	58.884098
1157.000000	59.080834
1156.000000	59.279244
1155.000000	59.431239
1154.000000	59.583235
1153.000000	59.728435
1152.000000	59.854401
1151.000000	59.952874
1150.000000	60.029708
1149.000000	60.100270
1148.000000	60.168741
1147.000000	60.261882
1146.000000	60.360042
1145.000000	60.477331
1144.000000	60.613960
1143.000000	60.758847
1142.000000	60.925268
1141.000000	61.124618
1140.000000	61.317069
1139.000000	61.511402
1138.000000	61.734063
1137.000000	61.962265
1136.000000	62.201026
1135.000000	62.433827
1134.000000	62.662448
1133.000000	62.842250
1132.000000	63.038255
1131.000000	63.195059
1130.000000	63.373084
1129.000000	63.514625
1128.000000	63.631497
1127.000000	63.729656
1126.000000	63.796873
1125.000000	63.863462
1124.000000	63.899841
1123.000000	63.932456
1122.000000	63.964758
1121.000000	63.992669
1120.000000	63.979079
1119.000000	63.989951
1118.000000	63.996746
1117.000000	63.988487
1116.000000	64.002286
1115.000000	63.965907
1114.000000	63.935801
1113.000000	63.920852
1112.000000	63.909981
1111.000000	63.899632
1110.000000	63.859699
1109.000000	63.848409
1108.000000	63.834715
1107.000000	63.817989
1106.000000	63.805236
1105.000000	63.787360
1104.000000	63.784747
1103.000000	63.729552
1102.000000	63.730074
1101.000000	63.709272
1100.000000	63.705717
1099.000000	63.710630
1098.000000	63.651045
1097.000000	63.643205
1096.000000	63.641637
1095.000000	63.639546
1094.000000	63.614353
1093.000000	63.569507
1092.000000	63.564280
1091.000000	63.547032
1090.000000	63.510862
1089.000000	63.493509
1088.000000	63.470720
1087.000000	63.467480
1086.000000	63.416362
1085.000000	63.398695
1084.000000	63.355103
1083.000000	63.358135
1082.000000	63.312557
1081.000000	63.304613
1080.000000	63.243041
1079.000000	63.231542
1078.000000	63.199031
1077.000000	63.180110
1076.000000	63.151990
1075.000000	63.109026
1074.000000	63.087282
1073.000000	63.083205
1072.000000	63.054040
1071.000000	63.013793
1070.000000	62.985778
1069.000000	62.934451
1068.000000	62.945427
1067.000000	62.878628
1066.000000	62.861484
1065.000000	62.808380
1064.000000	62.787577
1063.000000	62.739073
1062.000000	62.708653
1061.000000	62.656907
1060.000000	62.623456
1059.000000	62.585927
1058.000000	62.522474
1057.000000	62.498849
1056.000000	62.453376
1055.000000	62.404244
1054.000000	62.345913
1053.000000	62.297513
1052.000000	62.223815
1051.000000	62.183568
1050.000000	62.121997
1049.000000	62.061679
1048.000000	62.014220
1047.000000	61.964461
1046.000000	61.902784
1045.000000	61.879787
1044.000000	61.805880
1043.000000	61.745353
1042.000000	61.693712
1041.000000	61.625973
1040.000000	61.578409
1039.000000	61.492794
1038.000000	61.424950
1037.000000	61.369337
1036.000000	61.294594
1035.000000	61.239712
1034.000000	61.138522
1033.000000	61.100470
1032.000000	61.028550
1031.000000	60.947221
1030.000000	60.857947
1029.000000	60.789789
1028.000000	60.696021
1027.000000	60.633404
1026.000000	60.549252
1025.000000	60.481199
1024.000000	60.392343
1023.000000	60.300665
1022.000000	60.226967
1021.000000	60.152747
1020.000000	60.078735
1019.000000	59.974722
1018.000000	59.904265
1017.000000	59.854087
1016.000000	59.789171
1015.000000	59.715159
1014.000000	59.653483
1013.000000	59.612191
1012.000000	59.565673
1011.000000	59.510687
1010.000000	59.474517
1009.000000	59.445456
1008.000000	59.413677
1007.000000	59.396011
1006.000000	59.359318
1005.000000	59.343638
1004.000000	59.343324
1003.000000	59.318758
1002.000000	59.317190
1001.000000	59.308514
1000.000000	59.294402
999.000000	59.292102
998.000000	59.280289
997.000000	59.295133
996.000000	59.296910
995.000000	59.295133
994.000000	59.305064
993.000000	59.334021
992.000000	59.338098
991.000000	59.357855
990.000000	59.372699
989.000000	59.389425
988.000000	59.413155
987.000000	59.430089
986.000000	59.453610
985.000000	59.486016
984.000000	59.517272
983.000000	59.556892
982.000000	59.573304
981.000000	59.602887
980.000000	59.641775
979.000000	59.661428
978.000000	59.676585
977.000000	59.699792
976.000000	59.714950
975.000000	59.737739
974.000000	59.755405
973.000000	59.749865
972.000000	59.766173
971.000000	59.784153
970.000000	59.786139
969.000000	59.784257
968.000000	59.782271
967.000000	59.782689
966.000000	59.784676
965.000000	59.780912
964.000000	59.780076
963.000000	59.802969
962.000000	59.803701
961.000000	59.784257
960.000000	59.770563
959.000000	59.764814
958.000000	59.782689
957.000000	59.766800
956.000000	59.751433
955.000000	59.783839
954.000000	59.790320
953.000000	59.798265
952.000000	59.818336
951.000000	59.824713
950.000000	59.837675
949.000000	59.867050
948.000000	59.897470
947.000000	59.913568
946.000000	59.960087
945.000000	60.008801
944.000000	60.051451
943.000000	60.104974
942.000000	60.163305
941.000000	60.217873
940.000000	60.268468
939.000000	60.332549
938.000000	60.428095
937.000000	60.508901
936.000000	60.587930
935.000000	60.689017
934.000000	60.791044
933.000000	60.903420
932.000000	61.023427
931.000000	61.132249
930.000000	61.236054
929.000000	61.351880
928.000000	61.462897
927.000000	61.554157
926.000000	61.648657
925.000000	61.743263
924.000000	61.838077
923.000000	61.949826
922.000000	62.041399
921.000000	62.122206
920.000000	62.201026
919.000000	62.288836
918.000000	62.379469
917.000000	62.451180
916.000000	62.521220
915.000000	62.589900
914.000000	62.655130
913.000000	62.715448
912.000000	62.775556
911.000000	62.823747
910.000000	62.881869
909.000000	62.926192
908.000000	62.965393
907.000000	63.007521
906.000000	63.060835
905.000000	63.097213
904.000000	63.146763
903.000000	63.201122
902.000000	63.257362
901.000000	63.301476
900.000000	63.353326
899.000000	63.424411
898.000000	63.488805
897.000000	63.557694
896.000000	63.626688
895.000000	63.701327
894.000000	63.802727
893.000000	63.893673
892.000000	63.983051
891.000000	64.058526
890.000000	64.150936
889.000000	64.221289
888.000000	64.323107
887.000000	64.427434
886.000000	64.510645
885.000000	64.604936
884.000000	64.706754
883.000000	64.800941
882.000000	64.893769
881.000000	64.982207
880.000000	65.071794
879.000000	65.161172
878.000000	65.222430
877.000000	65.277730
876.000000	65.329894
875.000000	65.400560
874.000000	65.405891
873.000000	65.390002
872.000000	65.427948
871.000000	65.536561
870.000000	65.658659
869.000000	65.798319
868.000000	65.930139
867.000000	66.080044
866.000000	66.207055
865.000000	66.319954
864.000000	66.440275
863.000000	66.557669
862.000000	66.668164
861.000000	66.775627
860.000000	66.876399
859.000000	66.984908
858.000000	67.072300
857.000000	66.619300
856.000000	67.280500
855.000000	67.317100
854.000000	67.178400
853.000000	67.359000
852.000000	67.501600
851.000000	67.986800
850.000000	67.592100
849.000000	67.697200
848.000000	67.458200
847.000000	67.988100
846.000000	67.772900
845.000000	67.480500
844.000000	67.707300
843.000000	67.732900
842.000000	67.725500
841.000000	67.508200
840.000000	67.641000
839.000000	67.901500
838.000000	67.685200
837.000000	67.575100
836.000000	67.717500
835.000000	67.636300
834.000000	67.454600
833.000000	67.776100
832.000000	67.648900
831.000000	67.539100
830.000000	67.485700
829.000000	67.197100
828.000000	67.398000
827.000000	67.521100
826.000000	67.429300
825.000000	67.601200
824.000000	67.342800
823.000000	67.454600
822.000000	67.398900
821.000000	67.389700
820.000000	67.669500
819.000000	67.416700
818.000000	67.247100
817.000000	67.148700
816.000000	67.279800
815.000000	67.136900
814.000000	67.137200
813.000000	67.050500
812.000000	67.087900
811.000000	67.045600
810.000000	66.701700
809.000000	66.710300
808.000000	66.560500
807.000000	66.557000
806.000000	66.305500
805.000000	66.402300
804.000000	66.245300
803.000000	66.006200
802.000000	65.864900
801.000000	65.752900
800.000000	65.775600
799.000000	65.491400
798.000000	65.528400
797.000000	65.399000
796.000000	65.329300
795.000000	65.076400
794.000000	64.986200
793.000000	64.799700
792.000000	64.674800
791.000000	64.657400
790.000000	64.338700
789.000000	64.354500
788.000000	64.242200
787.000000	64.140900
786.000000	64.016300
785.000000	63.709200
784.000000	63.770200
783.000000	63.487100
782.000000	63.451300
781.000000	63.247900
780.000000	63.071500
779.000000	62.909700
778.000000	62.797800
777.000000	62.857800
776.000000	62.468100
775.000000	62.467100
774.000000	62.370700
773.000000	62.327600
772.000000	62.161800
771.000000	62.081900
770.000000	62.031200
769.000000	61.819500
768.000000	61.682800
767.000000	61.504800
766.000000	61.412800
765.000000	61.423000
764.000000	61.139900
763.000000	61.118600
762.000000	60.970800
761.000000	61.023200
760.000000	60.889200
759.000000	60.723700
758.000000	60.686100
757.000000	60.606100
756.000000	60.578000
755.000000	60.490700
754.000000	60.329500
753.000000	60.312700
752.000000	60.274400
751.000000	60.143800
750.000000	60.058400
749.000000	60.027200
748.000000	59.976500
747.000000	59.845600
746.000000	59.762900
745.000000	59.704300
744.000000	59.724400
743.000000	59.528600
742.000000	59.484300
741.000000	59.324300
740.000000	59.287400
739.000000	59.140900
738.000000	58.999100
737.000000	58.969400
736.000000	58.835400
735.000000	58.685400
734.000000	58.508700
733.000000	58.408100
732.000000	58.224800
731.000000	58.044300
730.000000	57.905700
729.000000	57.757100
728.000000	57.561400
727.000000	57.345700
726.000000	57.238600
725.000000	57.031000
724.000000	56.817100
723.000000	56.600600
722.000000	56.562300
721.000000	56.342200
720.000000	56.134900
719.000000	55.970500
718.000000	55.815800
717.000000	55.668000
716.000000	55.517100
715.000000	55.369500
714.000000	55.240300
713.000000	55.035400
712.000000	54.919900
711.000000	54.898600
710.000000	54.792500
709.000000	54.603900
708.000000	54.507100
707.000000	54.451600
706.000000	54.342300
705.000000	54.254600
704.000000	54.209500
703.000000	54.158000
702.000000	54.023300
701.000000	53.939200
700.000000	53.840800
699.000000	53.690700
698.000000	53.596600
697.000000	53.539300
696.000000	53.434600
695.000000	53.272600
694.000000	53.155600
693.000000	53.044000
692.000000	52.904800
691.000000	52.763000
690.000000	52.698100
689.000000	52.594000
688.000000	52.541100
687.000000	52.407400
686.000000	52.276100
685.000000	52.129900
684.000000	51.995200
683.000000	51.846300
682.000000	51.699400
681.000000	51.585200
680.000000	51.432300
679.000000	51.255900
678.000000	51.104500
677.000000	50.944900
676.000000	50.776500
675.000000	50.604900
674.000000	50.402300
673.000000	50.184000
672.000000	49.951800
671.000000	49.730500
670.000000	49.536900
669.000000	49.306700
668.000000	49.060800
667.000000	48.842800
666.000000	48.574000
665.000000	48.313000
664.000000	48.064700
663.000000	47.806700
662.000000	47.516100
661.000000	47.216600
660.000000	46.971200
659.000000	46.711400
658.000000	46.390700
657.000000	46.078000
656.000000	45.821600
655.000000	45.564700
654.000000	45.289100
653.000000	45.067400
652.000000	44.892600
651.000000	44.726000
650.000000	44.539000
649.000000	44.396000
648.000000	44.296800
647.000000	44.181200
646.000000	44.114800
645.000000	44.034900
644.000000	43.995600
643.000000	43.991400
642.000000	43.996500
641.000000	44.119300
640.000000	44.281600
639.000000	44.509000
638.000000	44.778200
637.000000	45.091600
636.000000	45.502700
635.000000	45.942400
634.000000	46.373600
633.000000	46.827400
632.000000	47.331800
631.000000	47.824400
630.000000	48.303000
629.000000	48.818100
628.000000	49.282500
627.000000	49.718800
626.000000	50.157700
625.000000	50.572600
624.000000	50.975200
623.000000	51.391300
622.000000	51.797200
621.000000	52.210900
620.000000	52.632600
619.000000	53.041400
618.000000	53.456600
617.000000	53.867100
616.000000	54.332300
615.000000	54.812700
614.000000	55.279200
613.000000	55.745800
612.000000	56.210900
611.000000	56.670300
610.000000	57.077100
609.000000	57.447600
608.000000	57.806400
607.000000	58.102200
606.000000	58.305400
605.000000	58.505100
604.000000	58.650000
603.000000	58.713000
602.000000	58.692800
601.000000	58.680400
600.000000	58.633200
599.000000	58.555000
598.000000	58.516900
597.000000	58.411200
596.000000	58.329600
595.000000	58.287900
594.000000	58.255000
593.000000	58.261100
592.000000	58.281300
591.000000	58.356800
590.000000	58.438100
589.000000	58.558400
588.000000	58.723100
587.000000	58.918000
586.000000	59.074000
585.000000	59.239900
584.000000	59.410700
583.000000	59.563800
582.000000	59.664100
581.000000	59.692900
580.000000	59.694200
579.000000	59.682400
578.000000	59.593100
577.000000	59.499200
576.000000	59.393800
575.000000	59.262500
574.000000	59.165500
573.000000	59.050100
572.000000	58.992000
571.000000	58.944600
570.000000	58.902100
569.000000	58.908100
568.000000	58.938100
567.000000	58.974400
566.000000	59.071200
565.000000	59.149700
564.000000	59.188500
563.000000	59.227500
562.000000	59.241200
561.000000	59.211000
560.000000	59.116000
559.000000	59.049100
558.000000	58.842600
557.000000	58.565900
556.000000	58.186500
555.000000	57.784800
554.000000	57.319700
553.000000	56.810500
552.000000	56.214700
551.000000	55.627100
550.000000	55.009300
549.000000	54.352900
548.000000	53.705700
547.000000	53.026200
546.000000	52.321700
545.000000	51.598600
544.000000	50.873700
543.000000	50.166900
542.000000	49.427300
541.000000	48.703100
540.000000	48.003000
539.000000	47.335800
538.000000	46.711000
537.000000	46.089000
536.000000	45.462100
535.000000	44.872500
534.000000	44.295700
533.000000	43.735200
532.000000	43.158800
531.000000	42.594000
530.000000	42.009200
529.000000	41.451800
528.000000	40.862400
527.000000	40.297800
526.000000	39.701500
525.000000	39.087600
524.000000	38.480300
523.000000	37.858500
522.000000	37.221100
521.000000	36.613900
520.000000	36.020500
519.000000	35.410300
518.000000	34.861400
517.000000	34.343100
516.000000	33.816200
515.000000	33.341400
514.000000	32.852900
513.000000	32.387200
512.000000	31.963000
511.000000	31.549200
510.000000	31.195700
509.000000	30.861800
508.000000	30.547100
507.000000	30.268700
506.000000	29.965800
505.000000	29.710700
504.000000	29.448900
503.000000	29.169800
502.000000	28.936800
501.000000	28.673300
500.000000	28.386500
499.000000	28.154900
498.000000	27.881900
497.000000	27.584700
496.000000	27.280100
495.000000	26.970100
494.000000	26.634900
493.000000	26.347500
492.000000	26.007100
491.000000	25.647400
490.000000	25.273400
489.000000	24.901300
488.000000	24.521700
487.000000	24.139400
486.000000	23.737500
485.000000	23.279600
484.000000	22.880000
483.000000	22.463200
482.000000	21.955300
481.000000	21.500200
480.000000	21.067300
479.000000	20.651800
478.000000	20.253000
477.000000	19.880700
476.000000	19.524800
475.000000	19.221600
474.000000	18.956900
473.000000	18.729900
472.000000	18.532700
471.000000	18.356900
470.000000	18.255500
469.000000	18.203100
468.000000	18.153600
467.000000	18.166000
466.000000	18.189500
465.000000	18.228000
464.000000	18.292300
463.000000	18.404300
462.000000	18.436300
461.000000	18.557400
460.000000	18.638800
459.000000	18.719300
458.000000	18.776600
457.000000	18.832300
456.000000	18.856600
455.000000	18.915800
454.000000	18.907800
453.000000	18.914900
452.000000	18.907800
451.000000	18.840600
450.000000	18.781700
449.000000	18.736900
448.000000	18.637800
447.000000	18.554100
446.000000	18.452000
445.000000	18.346600
444.000000	18.257900
443.000000	18.093600
442.000000	17.942600
441.000000	17.780000
440.000000	17.599700
439.000000	17.395200
438.000000	17.212400
437.000000	17.023400
436.000000	16.851400
435.000000	16.647300
434.000000	16.437300
433.000000	16.224000
432.000000	16.024400
431.000000	15.819100
430.000000	15.591100
429.000000	15.347200
428.000000	15.132700
427.000000	14.883000
426.000000	14.652700
425.000000	14.408900
424.000000	14.145300
423.000000	13.863100
422.000000	13.621700
421.000000	13.354500
420.000000	13.074500
419.000000	12.776600
418.000000	12.539000
417.000000	12.261500
416.000000	11.975200
415.000000	11.713400
414.000000	11.412500
413.000000	11.122300
412.000000	10.870000
411.000000	10.616200
410.000000	10.319000
409.000000	10.062400
408.000000	9.793500
407.000000	9.531800
406.000000	9.282200
405.000000	9.051400
404.000000	8.838200
403.000000	8.621700
402.000000	8.395600
401.000000	8.221700
400.000000	8.045500
399.000000	7.883200
398.000000	7.702100
397.000000	7.579000
396.000000	7.430700
395.000000	7.324100
394.000000	7.187700
393.000000	7.073300
392.000000	6.963100
391.000000	6.871800
390.000000	6.802700
389.000000	6.717600
388.000000	6.639800
387.000000	6.580200
386.000000	6.530800
385.000000	6.467800
384.000000	6.396500
383.000000	6.352300
382.000000	6.322300
381.000000	6.288200
380.000000	6.247000
379.000000	6.232100
378.000000	6.205000
377.000000	6.178700
376.000000	6.138300
375.000000	6.148700
374.000000	6.193000
373.000000	6.158000
372.000000	6.083300
371.000000	6.080400
370.000000	6.162000
369.000000	6.078400
368.000000	6.017100
367.000000	6.045700
366.000000	6.055800
365.000000	5.943000
364.000000	5.906900
363.000000	5.938400
362.000000	5.996900
361.000000	5.969400
360.000000	5.919100
359.000000	5.904700
358.000000	5.872400
357.000000	5.858100
356.000000	5.917400
355.000000	5.917300
354.000000	5.846000
353.000000	5.760000
352.000000	5.784600
351.000000	5.776300
350.000000	5.803500
349.000000	5.809400
348.000000	5.775600
347.000000	5.769900
346.000000	5.732500
345.000000	5.755400
344.000000	5.799300
343.000000	5.795100
342.000000	5.785600
341.000000	5.705900
340.000000	5.702900
339.000000	5.718500
338.000000	5.703800
337.000000	5.665300
336.000000	5.683300
335.000000	5.775200
334.000000	5.775200
333.000000	5.706300
332.000000	5.658200
331.000000	5.682700
330.000000	5.641900
329.000000	5.746300
328.000000	5.762900
327.000000	5.615500
326.000000	5.624400
325.000000	5.832600
324.000000	5.854600
323.000000	5.751600
322.000000	5.727600
321.000000	5.739500
320.000000	5.760200
319.000000	5.834600
318.000000	5.658900
317.000000	5.466400
316.000000	5.638000
315.000000	5.768400
314.000000	5.766000
313.000000	5.775900
312.000000	5.764400
311.000000	5.747600
310.000000	5.747100
309.000000	5.744400
308.000000	5.786100
307.000000	5.810800
306.000000	5.795500
305.000000	5.793200
304.000000	5.804000
303.000000	5.775100
302.000000	5.781500
301.000000	5.803900
300.000000	5.817900
299.000000	5.837000
298.000000	5.833300
297.000000	5.850800
296.000000	5.855000
295.000000	5.823500
294.000000	5.799000
293.000000	5.812200
292.000000	5.856700
291.000000	5.843700
290.000000	5.825500
289.000000	5.825200
288.000000	5.846900
287.000000	5.851100
286.000000	5.847700
285.000000	5.847000
284.000000	5.862200
283.000000	5.865600
282.000000	5.876700
281.000000	5.876800
280.000000	5.882600
279.000000	5.905900
278.000000	5.902400
277.000000	5.908900
276.000000	5.933800
275.000000	5.923200
274.000000	5.943800
273.000000	5.978600
272.000000	5.947500
271.000000	5.954000
270.000000	6.014100
269.000000	6.058700
268.000000	6.052400
267.000000	6.034300
266.000000	6.084800
265.000000	6.127900
264.000000	6.156500
263.000000	6.187300
262.000000	6.227700
261.000000	6.242200
260.000000	6.257000
259.000000	6.286900
258.000000	6.337900
257.000000	6.332900
256.000000	6.381800
255.000000	6.375500
254.000000	6.404200
253.000000	6.410800
252.000000	6.439000
251.000000	6.441300
250.000000	6.460100
