PE UV       SUBTECH     SPECTRUM    ASCII       PEDS        4.00        
   -1
CICIMAUCR0235-1.ASC
24/06/14
15:38:48.00
24/06/14
15:38:48.00
Vinicio Soto Monge
C. resplendens. Sex M. Dorsal.
250,000000
1
Lambda 1050
1050L1511233
PerkinElmer UV WinLab 6.3.2.0749 / 2.02.05 Lambda 900 UV/VIS/NIR, Aug  7 2015 09:38:08

0
0
3350/servo 860,8/2
0
0
UV/VIS
1
1
1
DoubleDePol,CommonBeamDepol,RBeamAtt,SBeamAtt,60mm sphere, WB InGaAs Detector
0
0
0
0
Program
Program
3350/servo 860,8/2
3350/0,2 860,8/0,2
3350/0,2 860,8/0,2
0
15.00
 
 
 
0
 
860,8
319,2
860,8
Front
100
on
S:100 R:100
0
0
0
0
 
0
 
 
 
0
 
 
0
0
0
0
0
 
 
 
 
0
0


0
0
#HDR
-1
-1
#GR
nm
%R
1.0
0.0
2500,000000
-1,000000
2251
8
87,301700
5,510900
#DATA
2500.000000	9.256947
2499.000000	9.322790
2498.000000	9.268114
2497.000000	9.268956
2496.000000	9.310780
2495.000000	9.181306
2494.000000	9.178040
2493.000000	9.175722
2492.000000	9.121889
2491.000000	9.233664
2490.000000	9.216492
2489.000000	9.173615
2488.000000	9.101872
2487.000000	9.056888
2486.000000	9.118096
2485.000000	9.036240
2484.000000	9.104401
2483.000000	9.056677
2482.000000	9.137691
2481.000000	9.151703
2480.000000	9.088282
2479.000000	9.096183
2478.000000	9.092285
2477.000000	9.121467
2476.000000	9.138112
2475.000000	9.064263
2474.000000	9.141589
2473.000000	9.126103
2472.000000	9.123680
2471.000000	9.102715
2470.000000	9.152651
2469.000000	9.165187
2468.000000	9.199531
2467.000000	9.259370
2466.000000	9.185836
2465.000000	9.179831
2464.000000	9.215650
2463.000000	9.262952
2462.000000	9.269483
2461.000000	9.300034
2460.000000	9.346283
2459.000000	9.383471
2458.000000	9.433512
2457.000000	9.504623
2456.000000	9.553611
2455.000000	9.561196
2454.000000	9.593222
2453.000000	9.664859
2452.000000	9.742186
2451.000000	9.787592
2450.000000	9.867868
2449.000000	9.935397
2448.000000	9.992180
2447.000000	10.042748
2446.000000	10.109539
2445.000000	10.192344
2444.000000	10.260610
2443.000000	10.320449
2442.000000	10.421057
2441.000000	10.454875
2440.000000	10.512606
2439.000000	10.603207
2438.000000	10.668313
2437.000000	10.715404
2436.000000	10.783459
2435.000000	10.840243
2434.000000	10.901556
2433.000000	10.961079
2432.000000	11.042092
2431.000000	11.102668
2430.000000	11.139646
2429.000000	11.205805
2428.000000	11.250789
2427.000000	11.309996
2426.000000	11.369097
2425.000000	11.393116
2424.000000	11.443473
2423.000000	11.484033
2422.000000	11.520168
2421.000000	11.565573
2420.000000	11.610452
2419.000000	11.654172
2418.000000	11.698314
2417.000000	11.726231
2416.000000	11.763630
2415.000000	11.798080
2414.000000	11.834741
2413.000000	11.856022
2412.000000	11.900479
2411.000000	11.932400
2410.000000	11.956314
2409.000000	12.002879
2408.000000	12.030270
2407.000000	12.049127
2406.000000	12.096850
2405.000000	12.121608
2404.000000	12.157110
2403.000000	12.189453
2402.000000	12.204518
2401.000000	12.241179
2400.000000	12.282371
2399.000000	12.311552
2398.000000	12.352849
2397.000000	12.384138
2396.000000	12.399941
2395.000000	12.435233
2394.000000	12.468523
2393.000000	12.509399
2392.000000	12.542478
2391.000000	12.561652
2390.000000	12.589886
2389.000000	12.609586
2388.000000	12.619383
2387.000000	12.644035
2386.000000	12.659943
2385.000000	12.674587
2384.000000	12.692075
2383.000000	12.689652
2382.000000	12.703242
2381.000000	12.734425
2380.000000	12.733266
2379.000000	12.723785
2378.000000	12.722415
2377.000000	12.727999
2376.000000	12.721467
2375.000000	12.701556
2374.000000	12.703663
2373.000000	12.694287
2372.000000	12.677852
2371.000000	12.665948
2370.000000	12.643614
2369.000000	12.628022
2368.000000	12.609059
2367.000000	12.591887
2366.000000	12.568289
2365.000000	12.535631
2364.000000	12.496230
2363.000000	12.454196
2362.000000	12.425119
2361.000000	12.385192
2360.000000	12.338943
2359.000000	12.297120
2358.000000	12.250977
2357.000000	12.193983
2356.000000	12.152159
2355.000000	12.122345
2354.000000	12.087474
2353.000000	12.070618
2352.000000	12.059873
2351.000000	12.066404
2350.000000	12.056818
2349.000000	12.042806
2348.000000	12.058398
2347.000000	12.093901
2346.000000	12.132564
2345.000000	12.150579
2344.000000	12.188715
2343.000000	12.228010
2342.000000	12.259194
2341.000000	12.302808
2340.000000	12.344948
2339.000000	12.371918
2338.000000	12.387931
2337.000000	12.416164
2336.000000	12.438604
2335.000000	12.441238
2334.000000	12.438604
2333.000000	12.429333
2332.000000	12.419641
2331.000000	12.417850
2330.000000	12.391618
2329.000000	12.362542
2328.000000	12.337047
2327.000000	12.292168
2326.000000	12.243918
2325.000000	12.186397
2324.000000	12.122556
2323.000000	12.062507
2322.000000	11.999297
2321.000000	11.914807
2320.000000	11.815884
2319.000000	11.740453
2318.000000	11.655647
2317.000000	11.538709
2316.000000	11.435994
2315.000000	11.337597
2314.000000	11.237305
2313.000000	11.135432
2312.000000	11.044305
2311.000000	10.954758
2310.000000	10.871742
2309.000000	10.791677
2308.000000	10.737738
2307.000000	10.700760
2306.000000	10.637340
2305.000000	10.609212
2304.000000	10.606894
2303.000000	10.622907
2302.000000	10.652721
2301.000000	10.695493
2300.000000	10.749642
2299.000000	10.805372
2298.000000	10.882277
2297.000000	10.960973
2296.000000	11.038405
2295.000000	11.149865
2294.000000	11.209282
2293.000000	11.272386
2292.000000	11.351819
2291.000000	11.427882
2290.000000	11.490354
2289.000000	11.545452
2288.000000	11.569050
2287.000000	11.600549
2286.000000	11.614139
2285.000000	11.622673
2284.000000	11.599391
2283.000000	11.584642
2282.000000	11.564098
2281.000000	11.554196
2280.000000	11.525751
2279.000000	11.480346
2278.000000	11.445791
2277.000000	11.408603
2276.000000	11.384372
2275.000000	11.348238
2274.000000	11.316738
2273.000000	11.269436
2272.000000	11.258164
2271.000000	11.229614
2270.000000	11.240360
2269.000000	11.278180
2268.000000	11.294825
2267.000000	11.363092
2266.000000	11.411131
2265.000000	11.491091
2264.000000	11.585379
2263.000000	11.719594
2262.000000	11.862237
2261.000000	12.018470
2260.000000	12.196616
2259.000000	12.377607
2258.000000	12.585040
2257.000000	12.791419
2256.000000	13.025400
2255.000000	13.231463
2254.000000	13.475242
2253.000000	13.721760
2252.000000	13.925821
2251.000000	14.122403
2250.000000	14.340266
2249.000000	14.540430
2248.000000	14.754500
2247.000000	14.915052
2246.000000	15.096885
2245.000000	15.244691
2244.000000	15.384489
2243.000000	15.533453
2242.000000	15.652709
2241.000000	15.771438
2240.000000	15.877840
2239.000000	15.951374
2238.000000	16.065573
2237.000000	16.149431
2236.000000	16.204529
2235.000000	16.253306
2234.000000	16.335478
2233.000000	16.364239
2232.000000	16.416808
2231.000000	16.446200
2230.000000	16.468008
2229.000000	16.508567
2228.000000	16.525950
2227.000000	16.519524
2226.000000	16.516785
2225.000000	16.539435
2224.000000	16.525107
2223.000000	16.492449
2222.000000	16.499929
2221.000000	16.446938
2220.000000	16.417229
2219.000000	16.388258
2218.000000	16.354230
2217.000000	16.333582
2216.000000	16.294813
2215.000000	16.262155
2214.000000	16.214748
2213.000000	16.169553
2212.000000	16.142267
2211.000000	16.096757
2210.000000	16.063361
2209.000000	16.052088
2208.000000	16.009000
2207.000000	15.986561
2206.000000	15.952112
2205.000000	15.940839
2204.000000	15.909445
2203.000000	15.860142
2202.000000	15.855401
2201.000000	15.844129
2200.000000	15.811470
2199.000000	15.797775
2198.000000	15.787977
2197.000000	15.750789
2196.000000	15.727191
2195.000000	15.724978
2194.000000	15.686421
2193.000000	15.673673
2192.000000	15.668617
2191.000000	15.651339
2190.000000	15.638381
2189.000000	15.606460
2188.000000	15.592870
2187.000000	15.585496
2186.000000	15.555155
2185.000000	15.543883
2184.000000	15.516808
2183.000000	15.517229
2182.000000	15.503323
2181.000000	15.482886
2180.000000	15.462553
2179.000000	15.461816
2178.000000	15.425154
2177.000000	15.405243
2176.000000	15.423574
2175.000000	15.429157
2174.000000	15.405138
2173.000000	15.393549
2172.000000	15.414830
2171.000000	15.415989
2170.000000	15.423152
2169.000000	15.422099
2168.000000	15.430948
2167.000000	15.450333
2166.000000	15.478566
2165.000000	15.488364
2164.000000	15.511014
2163.000000	15.531768
2162.000000	15.551468
2161.000000	15.588762
2160.000000	15.625739
2159.000000	15.661769
2158.000000	15.677255
2157.000000	15.734776
2156.000000	15.788504
2155.000000	15.828642
2154.000000	15.877735
2153.000000	15.909656
2152.000000	15.940313
2151.000000	16.013952
2150.000000	16.065046
2149.000000	16.109925
2148.000000	16.160493
2147.000000	16.201158
2146.000000	16.246458
2145.000000	16.308720
2144.000000	16.356127
2143.000000	16.394474
2142.000000	16.441144
2141.000000	16.475066
2140.000000	16.517733
2139.000000	16.548811
2138.000000	16.590635
2137.000000	16.642361
2136.000000	16.676073
2135.000000	16.707888
2134.000000	16.727378
2133.000000	16.753294
2132.000000	16.766147
2131.000000	16.792589
2130.000000	16.806179
2129.000000	16.826406
2128.000000	16.844843
2127.000000	16.847792
2126.000000	16.864964
2125.000000	16.872128
2124.000000	16.865807
2123.000000	16.870759
2122.000000	16.850531
2121.000000	16.843157
2120.000000	16.844421
2119.000000	16.845369
2118.000000	16.820823
2117.000000	16.812922
2116.000000	16.798805
2115.000000	16.773100
2114.000000	16.754558
2113.000000	16.742232
2112.000000	16.713156
2111.000000	16.683131
2110.000000	16.659322
2109.000000	16.653633
2108.000000	16.618763
2107.000000	16.584103
2106.000000	16.566404
2105.000000	16.538171
2104.000000	16.514256
2103.000000	16.480755
2102.000000	16.443145
2101.000000	16.413437
2100.000000	16.397424
2099.000000	16.388469
2098.000000	16.343063
2097.000000	16.305348
2096.000000	16.295551
2095.000000	16.273954
2094.000000	16.247828
2093.000000	16.220542
2092.000000	16.207057
2091.000000	16.206109
2090.000000	16.183354
2089.000000	16.168710
2088.000000	16.161968
2087.000000	16.140898
2086.000000	16.120039
2085.000000	16.089066
2084.000000	16.063993
2083.000000	16.050613
2082.000000	16.019219
2081.000000	15.979608
2080.000000	15.948530
2079.000000	15.913132
2078.000000	15.871941
2077.000000	15.837070
2076.000000	15.788820
2075.000000	15.732458
2074.000000	15.678625
2073.000000	15.631217
2072.000000	15.578227
2071.000000	15.515439
2070.000000	15.470138
2069.000000	15.419465
2068.000000	15.338030
2067.000000	15.271976
2066.000000	15.200128
2065.000000	15.139552
2064.000000	15.079713
2063.000000	15.019454
2062.000000	14.953821
2061.000000	14.889452
2060.000000	14.835408
2059.000000	14.788317
2058.000000	14.746177
2057.000000	14.699191
2056.000000	14.661792
2055.000000	14.636192
2054.000000	14.613016
2053.000000	14.605641
2052.000000	14.606905
2051.000000	14.616492
2050.000000	14.650204
2049.000000	14.693397
2048.000000	14.726582
2047.000000	14.778098
2046.000000	14.844574
2045.000000	14.921163
2044.000000	15.012711
2043.000000	15.109949
2042.000000	15.192753
2041.000000	15.276190
2040.000000	15.360048
2039.000000	15.451913
2038.000000	15.518704
2037.000000	15.600455
2036.000000	15.695902
2035.000000	15.754055
2034.000000	15.825166
2033.000000	15.888375
2032.000000	15.939997
2031.000000	15.994778
2030.000000	16.027226
2029.000000	16.069366
2028.000000	16.121303
2027.000000	16.165655
2026.000000	16.189253
2025.000000	16.205688
2024.000000	16.212430
2023.000000	16.235080
2022.000000	16.246247
2021.000000	16.267001
2020.000000	16.281961
2019.000000	16.274376
2018.000000	16.281329
2017.000000	16.277220
2016.000000	16.278379
2015.000000	16.269003
2014.000000	16.241507
2013.000000	16.247406
2012.000000	16.216433
2011.000000	16.196206
2010.000000	16.176506
2009.000000	16.170712
2008.000000	16.133207
2007.000000	16.072842
2006.000000	16.061464
2005.000000	16.016480
2004.000000	15.963806
2003.000000	15.926617
2002.000000	15.893432
2001.000000	15.829696
2000.000000	15.763431
1999.000000	15.711810
1998.000000	15.638592
1997.000000	15.585601
1996.000000	15.502481
1995.000000	15.443801
1994.000000	15.359311
1993.000000	15.267867
1992.000000	15.213929
1991.000000	15.125224
1990.000000	15.049689
1989.000000	14.970571
1988.000000	14.881235
1987.000000	14.779152
1986.000000	14.682230
1985.000000	14.606273
1984.000000	14.512091
1983.000000	14.428022
1982.000000	14.323094
1981.000000	14.253669
1980.000000	14.162647
1979.000000	14.063829
1978.000000	13.980708
1977.000000	13.876518
1976.000000	13.776436
1975.000000	13.700479
1974.000000	13.610932
1973.000000	13.513800
1972.000000	13.432575
1971.000000	13.325857
1970.000000	13.256747
1969.000000	13.174048
1968.000000	13.100093
1967.000000	13.008333
1966.000000	12.928900
1965.000000	12.863794
1964.000000	12.783729
1963.000000	12.706402
1962.000000	12.636661
1961.000000	12.549958
1960.000000	12.469682
1959.000000	12.388563
1958.000000	12.323352
1957.000000	12.254453
1956.000000	12.174598
1955.000000	12.114338
1954.000000	12.049232
1953.000000	11.962635
1952.000000	11.899004
1951.000000	11.847594
1950.000000	11.794287
1949.000000	11.733184
1948.000000	11.668184
1947.000000	11.602446
1946.000000	11.568312
1945.000000	11.522696
1944.000000	11.493620
1943.000000	11.473077
1942.000000	11.422930
1941.000000	11.398068
1940.000000	11.405126
1939.000000	11.362986
1938.000000	11.350029
1937.000000	11.348027
1936.000000	11.355823
1935.000000	11.363197
1934.000000	11.349923
1933.000000	11.373943
1932.000000	11.421350
1931.000000	11.470232
1930.000000	11.505630
1929.000000	11.574107
1928.000000	11.644164
1927.000000	11.699683
1926.000000	11.779117
1925.000000	11.858971
1924.000000	11.931979
1923.000000	12.012255
1922.000000	12.146997
1921.000000	12.272152
1920.000000	12.389827
1919.000000	12.529626
1918.000000	12.669108
1917.000000	12.809539
1916.000000	12.971988
1915.000000	13.121689
1914.000000	13.293514
1913.000000	13.485672
1912.000000	13.695738
1911.000000	13.907596
1910.000000	14.086690
1909.000000	14.313507
1908.000000	14.510300
1907.000000	14.729532
1906.000000	14.996487
1905.000000	15.271871
1904.000000	15.588656
1903.000000	15.885320
1902.000000	16.155331
1901.000000	16.445042
1900.000000	16.785215
1899.000000	17.117276
1898.000000	17.489476
1897.000000	17.848085
1896.000000	18.182253
1895.000000	18.536438
1894.000000	18.884723
1893.000000	19.252814
1892.000000	19.680427
1891.000000	20.148284
1890.000000	20.626254
1889.000000	21.091056
1888.000000	21.565760
1887.000000	22.029297
1886.000000	22.496417
1885.000000	22.993350
1884.000000	23.524837
1883.000000	24.086560
1882.000000	24.623316
1881.000000	25.181246
1880.000000	25.725692
1879.000000	26.218727
1878.000000	26.710498
1877.000000	27.188258
1876.000000	27.675499
1875.000000	28.144514
1874.000000	28.593408
1873.000000	29.015543
1872.000000	29.452848
1871.000000	29.816936
1870.000000	30.168171
1869.000000	30.484430
1868.000000	30.793419
1867.000000	31.024661
1866.000000	31.228512
1865.000000	31.403814
1864.000000	31.565631
1863.000000	31.720600
1862.000000	31.874726
1861.000000	32.034751
1860.000000	32.187087
1859.000000	32.344479
1858.000000	32.460152
1857.000000	32.551069
1856.000000	32.632293
1855.000000	32.706354
1854.000000	32.769669
1853.000000	32.831614
1852.000000	32.838251
1851.000000	32.878495
1850.000000	32.892296
1849.000000	32.917369
1848.000000	32.938123
1847.000000	32.963828
1846.000000	32.959298
1845.000000	32.909152
1844.000000	32.877020
1843.000000	32.863325
1842.000000	32.884078
1841.000000	32.900407
1840.000000	32.882814
1839.000000	32.863430
1838.000000	32.833511
1837.000000	32.803170
1836.000000	32.780625
1835.000000	32.739750
1834.000000	32.673063
1833.000000	32.620178
1832.000000	32.566766
1831.000000	32.533054
1830.000000	32.494075
1829.000000	32.453094
1828.000000	32.394836
1827.000000	32.320880
1826.000000	32.258935
1825.000000	32.220061
1824.000000	32.166754
1823.000000	32.118083
1822.000000	32.094485
1821.000000	32.106178
1820.000000	32.096908
1819.000000	32.058034
1818.000000	32.001566
1817.000000	31.961639
1816.000000	31.942255
1815.000000	31.931088
1814.000000	31.916971
1813.000000	31.890950
1812.000000	31.881889
1811.000000	31.861662
1810.000000	31.829320
1809.000000	31.772326
1808.000000	31.721021
1807.000000	31.700583
1806.000000	31.659602
1805.000000	31.601765
1804.000000	31.540873
1803.000000	31.501051
1802.000000	31.470500
1801.000000	31.436472
1800.000000	31.380426
1799.000000	31.310685
1798.000000	31.253796
1797.000000	31.206811
1796.000000	31.161300
1795.000000	31.110732
1794.000000	31.073649
1793.000000	31.044362
1792.000000	30.980204
1791.000000	30.927845
1790.000000	30.886232
1789.000000	30.827869
1788.000000	30.788047
1787.000000	30.751912
1786.000000	30.706190
1785.000000	30.653937
1784.000000	30.590622
1783.000000	30.538263
1782.000000	30.473895
1781.000000	30.408894
1780.000000	30.349582
1779.000000	30.300174
1778.000000	30.245708
1777.000000	30.165958
1776.000000	30.082943
1775.000000	30.002140
1774.000000	29.921969
1773.000000	29.838849
1772.000000	29.750882
1771.000000	29.658912
1770.000000	29.556934
1769.000000	29.454218
1768.000000	29.360352
1767.000000	29.262377
1766.000000	29.159240
1765.000000	29.087391
1764.000000	29.033136
1763.000000	28.995948
1762.000000	28.978671
1761.000000	28.981199
1760.000000	29.005851
1759.000000	29.050308
1758.000000	29.099085
1757.000000	29.161979
1756.000000	29.222976
1755.000000	29.295456
1754.000000	29.364882
1753.000000	29.412816
1752.000000	29.426827
1751.000000	29.457800
1750.000000	29.480345
1749.000000	29.483084
1748.000000	29.470758
1747.000000	29.425668
1746.000000	29.386689
1745.000000	29.325902
1744.000000	29.239305
1743.000000	29.141541
1742.000000	29.013963
1741.000000	28.865104
1740.000000	28.704657
1739.000000	28.525352
1738.000000	28.347417
1737.000000	28.162002
1736.000000	27.989018
1735.000000	27.831310
1734.000000	27.703522
1733.000000	27.606284
1732.000000	27.554347
1731.000000	27.547288
1730.000000	27.564250
1729.000000	27.599542
1728.000000	27.663173
1727.000000	27.720167
1726.000000	27.818247
1725.000000	27.890833
1724.000000	27.953516
1723.000000	28.016831
1722.000000	28.091839
1721.000000	28.161686
1720.000000	28.239013
1719.000000	28.309702
1718.000000	28.386186
1717.000000	28.459509
1716.000000	28.565069
1715.000000	28.679689
1714.000000	28.810112
1713.000000	28.927576
1712.000000	29.033768
1711.000000	29.101824
1710.000000	29.189475
1709.000000	29.249313
1708.000000	29.288609
1707.000000	29.331907
1706.000000	29.348763
1705.000000	29.321478
1704.000000	29.301988
1703.000000	29.296721
1702.000000	29.242676
1701.000000	29.167878
1700.000000	29.080860
1699.000000	28.974562
1698.000000	28.869634
1697.000000	28.763336
1696.000000	28.653773
1695.000000	28.583189
1694.000000	28.552638
1693.000000	28.554745
1692.000000	28.595620
1691.000000	28.660199
1690.000000	28.766497
1689.000000	28.855307
1688.000000	28.939375
1687.000000	29.000689
1686.000000	29.054206
1685.000000	29.116994
1684.000000	29.169353
1683.000000	29.278916
1682.000000	29.440733
1681.000000	29.639527
1680.000000	29.927553
1679.000000	30.300490
1678.000000	30.677430
1677.000000	31.087450
1676.000000	31.453223
1675.000000	31.808250
1674.000000	32.126089
1673.000000	32.429285
1672.000000	32.671167
1671.000000	32.901566
1670.000000	33.083083
1669.000000	33.241107
1668.000000	33.404294
1667.000000	33.522180
1666.000000	33.651970
1665.000000	33.753316
1664.000000	33.846340
1663.000000	33.936730
1662.000000	33.997411
1661.000000	34.070734
1660.000000	34.123935
1659.000000	34.196100
1658.000000	34.227389
1657.000000	34.258045
1656.000000	34.280695
1655.000000	34.284488
1654.000000	34.313459
1653.000000	34.326628
1652.000000	34.318937
1651.000000	34.305769
1650.000000	34.283856
1649.000000	34.257097
1648.000000	34.238029
1647.000000	34.214852
1646.000000	34.188304
1645.000000	34.139527
1644.000000	34.074105
1643.000000	34.051139
1642.000000	33.990036
1641.000000	33.952848
1640.000000	33.904703
1639.000000	33.848552
1638.000000	33.806202
1637.000000	33.746258
1636.000000	33.674726
1635.000000	33.625527
1634.000000	33.569692
1633.000000	33.519546
1632.000000	33.455493
1631.000000	33.392389
1630.000000	33.324123
1629.000000	33.236367
1628.000000	33.160831
1627.000000	33.083610
1626.000000	33.011024
1625.000000	32.932012
1624.000000	32.877125
1623.000000	32.794321
1622.000000	32.733429
1621.000000	32.647569
1620.000000	32.574772
1619.000000	32.529894
1618.000000	32.438977
1617.000000	32.378401
1616.000000	32.304446
1615.000000	32.255775
1614.000000	32.189510
1613.000000	32.112605
1612.000000	32.050343
1611.000000	31.977125
1610.000000	31.933932
1609.000000	31.867773
1608.000000	31.787496
1607.000000	31.725340
1606.000000	31.661393
1605.000000	31.589018
1604.000000	31.542770
1603.000000	31.453644
1602.000000	31.389486
1601.000000	31.313319
1600.000000	31.264858
1599.000000	31.178682
1598.000000	31.116315
1597.000000	31.044888
1596.000000	30.994953
1595.000000	30.925212
1594.000000	30.865689
1593.000000	30.815332
1592.000000	30.776458
1591.000000	30.715566
1590.000000	30.652567
1589.000000	30.595152
1588.000000	30.534997
1587.000000	30.476634
1586.000000	30.455037
1585.000000	30.387824
1584.000000	30.344315
1583.000000	30.290797
1582.000000	30.219581
1581.000000	30.182077
1580.000000	30.157109
1579.000000	30.122660
1578.000000	30.080625
1577.000000	30.051549
1576.000000	30.000455
1575.000000	29.962739
1574.000000	29.947780
1573.000000	29.936613
1572.000000	29.908168
1571.000000	29.888257
1570.000000	29.880988
1569.000000	29.871191
1568.000000	29.864132
1567.000000	29.847593
1566.000000	29.834213
1565.000000	29.834108
1564.000000	29.817779
1563.000000	29.812090
1562.000000	29.791020
1561.000000	29.788070
1560.000000	29.774901
1559.000000	29.742875
1558.000000	29.729601
1557.000000	29.696521
1556.000000	29.679560
1555.000000	29.645006
1554.000000	29.609081
1553.000000	29.564940
1552.000000	29.517849
1551.000000	29.468967
1550.000000	29.411235
1549.000000	29.365724
1548.000000	29.317053
1547.000000	29.268382
1546.000000	29.202433
1545.000000	29.150812
1544.000000	29.113623
1543.000000	29.072326
1542.000000	29.021126
1541.000000	28.965607
1540.000000	28.913670
1539.000000	28.885331
1538.000000	28.848143
1537.000000	28.804633
1536.000000	28.767024
1535.000000	28.715403
1534.000000	28.682850
1533.000000	28.641237
1532.000000	28.582978
1531.000000	28.534202
1530.000000	28.496170
1529.000000	28.444128
1528.000000	28.398512
1527.000000	28.342466
1526.000000	28.284629
1525.000000	28.224790
1524.000000	28.176119
1523.000000	28.123760
1522.000000	28.055389
1521.000000	27.982171
1520.000000	27.921595
1519.000000	27.868604
1518.000000	27.809082
1517.000000	27.736812
1516.000000	27.670758
1515.000000	27.608391
1514.000000	27.540335
1513.000000	27.481972
1512.000000	27.417182
1511.000000	27.350285
1510.000000	27.286443
1509.000000	27.204797
1508.000000	27.134529
1507.000000	27.071952
1506.000000	26.994309
1505.000000	26.921724
1504.000000	26.856091
1503.000000	26.781293
1502.000000	26.719242
1501.000000	26.653188
1500.000000	26.594930
1499.000000	26.544678
1498.000000	26.490739
1497.000000	26.440593
1496.000000	26.393396
1495.000000	26.338509
1494.000000	26.286677
1493.000000	26.251069
1492.000000	26.208613
1491.000000	26.175323
1490.000000	26.146352
1489.000000	26.110744
1488.000000	26.065022
1487.000000	26.034050
1486.000000	26.007291
1485.000000	25.982007
1484.000000	25.948506
1483.000000	25.919429
1482.000000	25.895199
1481.000000	25.876974
1480.000000	25.852954
1479.000000	25.831779
1478.000000	25.814185
1477.000000	25.802808
1476.000000	25.809866
1475.000000	25.809655
1474.000000	25.819031
1473.000000	25.828829
1472.000000	25.839469
1471.000000	25.863173
1470.000000	25.879818
1469.000000	25.879923
1468.000000	25.884348
1467.000000	25.888035
1466.000000	25.909948
1465.000000	25.913214
1464.000000	25.938498
1463.000000	25.967469
1462.000000	26.005394
1461.000000	26.024779
1460.000000	26.041740
1459.000000	26.113272
1458.000000	26.143297
1457.000000	26.188702
1456.000000	26.253703
1455.000000	26.315227
1454.000000	26.359790
1453.000000	26.417416
1452.000000	26.490950
1451.000000	26.565537
1450.000000	26.646446
1449.000000	26.712289
1448.000000	26.757905
1447.000000	26.835232
1446.000000	26.953644
1445.000000	27.048459
1444.000000	27.090809
1443.000000	27.149805
1442.000000	27.249676
1441.000000	27.358081
1440.000000	27.435302
1439.000000	27.533698
1438.000000	27.645685
1437.000000	27.769470
1436.000000	27.851011
1435.000000	27.966158
1434.000000	28.095421
1433.000000	28.206776
1432.000000	28.341728
1431.000000	28.455611
1430.000000	28.592776
1429.000000	28.732258
1428.000000	28.899764
1427.000000	29.064214
1426.000000	29.219499
1425.000000	29.387426
1424.000000	29.605816
1423.000000	29.815145
1422.000000	29.994871
1421.000000	30.191242
1420.000000	30.449348
1419.000000	30.712090
1418.000000	30.951865
1417.000000	31.189533
1416.000000	31.401496
1415.000000	31.674773
1414.000000	31.996088
1413.000000	32.284324
1412.000000	32.567925
1411.000000	32.885659
1410.000000	33.207396
1409.000000	33.591184
1408.000000	33.944420
1407.000000	34.344958
1406.000000	34.728536
1405.000000	35.115800
1404.000000	35.536250
1403.000000	35.911609
1402.000000	36.328793
1401.000000	36.733335
1400.000000	37.231532
1399.000000	37.616479
1398.000000	37.955809
1397.000000	38.262060
1396.000000	38.628676
1395.000000	39.050284
1394.000000	39.414477
1393.000000	39.701976
1392.000000	40.039515
1391.000000	40.401285
1390.000000	40.760210
1389.000000	41.111445
1388.000000	41.523783
1387.000000	42.013236
1386.000000	42.451068
1385.000000	42.901542
1384.000000	43.389837
1383.000000	43.909315
1382.000000	44.461135
1381.000000	44.922354
1380.000000	45.319838
1379.000000	45.514734
1378.000000	45.847428
1377.000000	46.035055
1376.000000	46.242699
1375.000000	46.425690
1374.000000	46.640498
1373.000000	46.859098
1372.000000	47.156499
1371.000000	47.424087
1370.000000	47.730232
1369.000000	48.003719
1368.000000	48.260982
1367.000000	48.540053
1366.000000	48.740006
1365.000000	48.942382
1364.000000	49.148024
1363.000000	49.287612
1362.000000	49.483035
1361.000000	49.654228
1360.000000	49.796450
1359.000000	49.845227
1358.000000	49.921710
1357.000000	49.994823
1356.000000	50.105861
1355.000000	50.281900
1354.000000	50.523677
1353.000000	50.818866
1352.000000	51.072653
1351.000000	51.474244
1350.000000	51.841809
1349.000000	52.206001
1348.000000	52.543752
1347.000000	52.875497
1346.000000	53.165629
1345.000000	53.463452
1344.000000	53.744524
1343.000000	54.042768
1342.000000	54.334691
1341.000000	54.601752
1340.000000	54.862176
1339.000000	55.140088
1338.000000	55.401249
1337.000000	55.652191
1336.000000	55.905662
1335.000000	56.171985
1334.000000	56.393851
1333.000000	56.642054
1332.000000	56.879090
1331.000000	57.102747
1330.000000	57.322822
1329.000000	57.558594
1328.000000	57.768134
1327.000000	57.966085
1326.000000	58.170252
1325.000000	58.355562
1324.000000	58.540872
1323.000000	58.725022
1322.000000	58.895162
1321.000000	59.066987
1320.000000	59.224695
1319.000000	59.375344
1318.000000	59.522833
1317.000000	59.672956
1316.000000	59.820235
1315.000000	59.957926
1314.000000	60.098041
1313.000000	60.210344
1312.000000	60.338870
1311.000000	60.458020
1310.000000	60.570849
1309.000000	60.684943
1308.000000	60.761321
1307.000000	60.870463
1306.000000	60.956112
1305.000000	61.041129
1304.000000	61.116559
1303.000000	61.183140
1302.000000	61.244243
1301.000000	61.300394
1300.000000	61.346326
1299.000000	61.398369
1298.000000	61.425760
1297.000000	61.465582
1296.000000	61.505720
1295.000000	61.530266
1294.000000	61.552600
1293.000000	61.558605
1292.000000	61.587787
1291.000000	61.593476
1290.000000	61.586523
1289.000000	61.589999
1288.000000	61.577674
1287.000000	61.572301
1286.000000	61.554707
1285.000000	61.522154
1284.000000	61.501822
1283.000000	61.461578
1282.000000	61.408377
1281.000000	61.361707
1280.000000	61.321253
1279.000000	61.286066
1278.000000	61.242978
1277.000000	61.196098
1276.000000	61.160490
1275.000000	61.128253
1274.000000	61.091065
1273.000000	61.051664
1272.000000	61.015424
1271.000000	60.981607
1270.000000	60.959589
1269.000000	60.927984
1268.000000	60.899434
1267.000000	60.870042
1266.000000	60.828850
1265.000000	60.796192
1264.000000	60.754157
1263.000000	60.709384
1262.000000	60.665874
1261.000000	60.641328
1260.000000	60.603824
1259.000000	60.547567
1258.000000	60.509115
1257.000000	60.471610
1256.000000	60.447590
1255.000000	60.402080
1254.000000	60.346034
1253.000000	60.294307
1252.000000	60.245741
1251.000000	60.197386
1250.000000	60.131016
1249.000000	60.053689
1248.000000	59.999961
1247.000000	59.938648
1246.000000	59.856159
1245.000000	59.758289
1244.000000	59.665687
1243.000000	59.570451
1242.000000	59.475426
1241.000000	59.381771
1240.000000	59.283269
1239.000000	59.175496
1238.000000	59.064458
1237.000000	58.967958
1236.000000	58.869983
1235.000000	58.753151
1234.000000	58.633052
1233.000000	58.512954
1232.000000	58.388431
1231.000000	58.267911
1230.000000	58.140965
1229.000000	58.013809
1228.000000	57.877592
1227.000000	57.734527
1226.000000	57.606633
1225.000000	57.479055
1224.000000	57.334305
1223.000000	57.191873
1222.000000	57.050915
1221.000000	56.893628
1220.000000	56.753935
1219.000000	56.618034
1218.000000	56.481080
1217.000000	56.359402
1216.000000	56.230349
1215.000000	56.105826
1214.000000	55.993418
1213.000000	55.872582
1212.000000	55.767865
1211.000000	55.667045
1210.000000	55.557798
1209.000000	55.462773
1208.000000	55.363218
1207.000000	55.256393
1206.000000	55.181174
1205.000000	55.103426
1204.000000	55.032104
1203.000000	54.979324
1202.000000	54.939608
1201.000000	54.899891
1200.000000	54.849534
1199.000000	54.798966
1198.000000	54.739444
1197.000000	54.662855
1196.000000	54.562773
1195.000000	54.432350
1194.000000	54.269375
1193.000000	54.082274
1192.000000	53.839971
1191.000000	53.559004
1190.000000	53.255071
1189.000000	52.953771
1188.000000	52.686921
1187.000000	52.460842
1186.000000	52.308612
1185.000000	52.219275
1184.000000	52.228019
1183.000000	52.338426
1182.000000	52.535534
1181.000000	52.817028
1180.000000	53.143295
1179.000000	53.499587
1178.000000	53.863253
1177.000000	54.209642
1176.000000	54.537278
1175.000000	54.806551
1174.000000	55.065290
1173.000000	55.308647
1172.000000	55.548633
1171.000000	55.803684
1170.000000	56.064318
1169.000000	56.311573
1168.000000	56.576527
1167.000000	56.848434
1166.000000	57.121710
1165.000000	57.411105
1164.000000	57.712088
1163.000000	58.016337
1162.000000	58.323852
1161.000000	58.635686
1160.000000	58.955843
1159.000000	59.258196
1158.000000	59.550962
1157.000000	59.843412
1156.000000	60.122798
1155.000000	60.393652
1154.000000	60.609196
1153.000000	60.810098
1152.000000	60.988033
1151.000000	61.131203
1150.000000	61.242030
1149.000000	61.351699
1148.000000	61.458523
1147.000000	61.564400
1146.000000	61.683550
1145.000000	61.838624
1144.000000	62.016981
1143.000000	62.256440
1142.000000	62.494213
1141.000000	62.782239
1140.000000	63.103554
1139.000000	63.417601
1138.000000	63.745027
1137.000000	64.093628
1136.000000	64.456030
1135.000000	64.850458
1134.000000	65.242463
1133.000000	65.617191
1132.000000	65.927129
1131.000000	66.242545
1130.000000	66.549322
1129.000000	66.815435
1128.000000	67.063112
1127.000000	67.266752
1126.000000	67.428569
1125.000000	67.558991
1124.000000	67.688887
1123.000000	67.790655
1122.000000	67.865979
1121.000000	67.944675
1120.000000	67.992504
1119.000000	68.052975
1118.000000	68.092481
1117.000000	68.125034
1116.000000	68.154637
1115.000000	68.169175
1114.000000	68.170755
1113.000000	68.203097
1112.000000	68.206258
1111.000000	68.209102
1110.000000	68.214370
1109.000000	68.231436
1108.000000	68.232911
1107.000000	68.251558
1106.000000	68.243130
1105.000000	68.260513
1104.000000	68.263463
1103.000000	68.285691
1102.000000	68.290959
1101.000000	68.297174
1100.000000	68.293382
1099.000000	68.306656
1098.000000	68.306551
1097.000000	68.299808
1096.000000	68.296542
1095.000000	68.280635
1094.000000	68.295383
1093.000000	68.280951
1092.000000	68.266939
1091.000000	68.255667
1090.000000	68.247028
1089.000000	68.213316
1088.000000	68.202781
1087.000000	68.189613
1086.000000	68.149896
1085.000000	68.134304
1084.000000	68.091743
1083.000000	68.097537
1082.000000	68.067091
1081.000000	68.014733
1080.000000	68.000300
1079.000000	67.971855
1078.000000	67.948784
1077.000000	67.912965
1076.000000	67.877357
1075.000000	67.853127
1074.000000	67.843540
1073.000000	67.816676
1072.000000	67.770743
1071.000000	67.739349
1070.000000	67.730605
1069.000000	67.682987
1068.000000	67.652225
1067.000000	67.622306
1066.000000	67.598919
1065.000000	67.544242
1064.000000	67.511373
1063.000000	67.497046
1062.000000	67.461227
1061.000000	67.422669
1060.000000	67.384638
1059.000000	67.357036
1058.000000	67.319637
1057.000000	67.307311
1056.000000	67.260958
1055.000000	67.230196
1054.000000	67.197116
1053.000000	67.146022
1052.000000	67.130219
1051.000000	67.092083
1050.000000	67.050364
1049.000000	67.038670
1048.000000	67.016547
1047.000000	66.987049
1046.000000	66.969983
1045.000000	66.959658
1044.000000	66.931003
1043.000000	66.884966
1042.000000	66.888653
1041.000000	66.856311
1040.000000	66.837769
1039.000000	66.824284
1038.000000	66.801002
1037.000000	66.763287
1036.000000	66.749908
1035.000000	66.720199
1034.000000	66.701026
1033.000000	66.674688
1032.000000	66.642241
1031.000000	66.606211
1030.000000	66.601576
1029.000000	66.579979
1028.000000	66.536470
1027.000000	66.517296
1026.000000	66.491591
1025.000000	66.464306
1024.000000	66.436915
1023.000000	66.398462
1022.000000	66.364540
1021.000000	66.366647
1020.000000	66.341995
1019.000000	66.309021
1018.000000	66.283737
1017.000000	66.287002
1016.000000	66.276257
1015.000000	66.277942
1014.000000	66.282683
1013.000000	66.285422
1012.000000	66.303753
1011.000000	66.317238
1010.000000	66.346209
1009.000000	66.386136
1008.000000	66.415107
1007.000000	66.458827
1006.000000	66.478738
1005.000000	66.504760
1004.000000	66.550060
1003.000000	66.608634
1002.000000	66.648562
1001.000000	66.690175
1000.000000	66.716933
999.000000	66.767080
998.000000	66.806375
997.000000	66.834082
996.000000	66.877486
995.000000	66.918467
994.000000	66.965769
993.000000	67.004011
992.000000	67.040777
991.000000	67.078914
990.000000	67.125162
989.000000	67.162245
988.000000	67.216290
987.000000	67.264013
986.000000	67.320059
985.000000	67.365675
984.000000	67.411291
983.000000	67.472394
982.000000	67.534866
981.000000	67.589226
980.000000	67.646747
979.000000	67.730605
978.000000	67.816992
977.000000	67.871352
976.000000	67.920234
975.000000	68.002828
974.000000	68.083737
973.000000	68.162538
972.000000	68.246080
971.000000	68.313188
970.000000	68.379874
969.000000	68.476268
968.000000	68.545378
967.000000	68.627866
966.000000	68.745963
965.000000	68.828451
964.000000	68.911572
963.000000	69.019661
962.000000	69.112263
961.000000	69.214346
960.000000	69.333813
959.000000	69.438951
958.000000	69.548936
957.000000	69.654496
956.000000	69.735404
955.000000	69.825900
954.000000	69.932408
953.000000	70.039864
952.000000	70.126356
951.000000	70.193148
950.000000	70.281641
949.000000	70.360969
948.000000	70.428287
947.000000	70.501821
946.000000	70.571773
945.000000	70.644148
944.000000	70.697771
943.000000	70.769514
942.000000	70.836938
941.000000	70.870334
940.000000	70.936072
939.000000	70.998649
938.000000	71.037839
937.000000	71.087459
936.000000	71.142451
935.000000	71.205345
934.000000	71.255702
933.000000	71.303846
932.000000	71.357364
931.000000	71.400979
930.000000	71.461976
929.000000	71.492000
928.000000	71.510015
927.000000	71.566482
926.000000	71.616523
925.000000	71.638857
924.000000	71.667723
923.000000	71.717027
922.000000	71.756743
921.000000	71.827011
920.000000	71.870626
919.000000	71.885164
918.000000	71.919719
917.000000	71.951113
916.000000	71.971446
915.000000	72.009055
914.000000	72.038553
913.000000	72.049931
912.000000	72.063416
911.000000	72.074688
910.000000	72.085960
909.000000	72.099234
908.000000	72.110823
907.000000	72.113351
906.000000	72.126414
905.000000	72.151172
904.000000	72.177298
903.000000	72.209430
902.000000	72.222493
901.000000	72.229130
900.000000	72.257153
899.000000	72.293288
898.000000	72.323102
897.000000	72.364926
896.000000	72.395055
895.000000	72.421814
894.000000	72.427608
893.000000	72.444043
892.000000	72.479019
891.000000	72.493873
890.000000	72.491556
889.000000	72.490291
888.000000	72.510413
887.000000	72.506515
886.000000	72.533485
885.000000	72.561402
884.000000	72.552869
883.000000	72.543282
882.000000	72.531272
881.000000	72.522212
880.000000	72.494084
879.000000	72.489027
878.000000	72.448889
877.000000	72.397584
876.000000	72.315727
875.000000	72.199843
874.000000	72.097022
873.000000	71.918139
872.000000	71.703226
871.000000	71.435322
870.000000	71.246326
869.000000	71.196179
868.000000	71.268028
867.000000	71.359576
866.000000	71.478516
865.000000	71.566061
864.000000	71.636961
863.000000	71.733251
862.000000	71.846080
861.000000	71.959225
860.000000	72.066576
859.000000	72.144324
858.000000	72.258733
857.000000	71.773300
856.000000	72.295400
855.000000	72.707500
854.000000	72.424900
853.000000	72.542200
852.000000	72.481300
851.000000	72.852100
850.000000	72.845900
849.000000	73.234700
848.000000	73.295400
847.000000	73.429900
846.000000	73.448200
845.000000	73.120000
844.000000	73.245600
843.000000	73.229000
842.000000	73.443200
841.000000	73.722600
840.000000	73.681700
839.000000	73.780800
838.000000	73.572900
837.000000	73.762500
836.000000	73.891100
835.000000	74.117100
834.000000	74.043300
833.000000	74.301600
832.000000	74.266700
831.000000	74.287200
830.000000	74.430300
829.000000	74.771900
828.000000	74.861400
827.000000	74.743200
826.000000	74.921600
825.000000	75.202700
824.000000	75.372200
823.000000	75.538800
822.000000	75.647300
821.000000	75.640200
820.000000	76.169000
819.000000	76.179600
818.000000	76.541700
817.000000	76.590300
816.000000	76.757500
815.000000	77.133400
814.000000	77.440600
813.000000	77.726200
812.000000	77.986500
811.000000	78.062000
810.000000	78.262100
809.000000	78.695900
808.000000	79.168000
807.000000	79.155300
806.000000	79.528200
805.000000	79.878500
804.000000	80.060400
803.000000	80.192700
802.000000	81.076900
801.000000	80.929200
800.000000	81.172600
799.000000	81.489700
798.000000	81.741500
797.000000	81.933300
796.000000	82.025500
795.000000	82.353500
794.000000	82.461100
793.000000	82.463100
792.000000	82.623400
791.000000	82.653100
790.000000	82.458100
789.000000	82.693000
788.000000	82.722400
787.000000	82.573100
786.000000	82.799000
785.000000	82.611000
784.000000	82.637200
783.000000	82.627100
782.000000	82.617000
781.000000	82.754500
780.000000	82.766400
779.000000	82.746100
778.000000	82.870200
777.000000	82.919700
776.000000	83.003000
775.000000	83.203000
774.000000	83.135000
773.000000	83.568000
772.000000	83.544900
771.000000	83.739400
770.000000	83.962400
769.000000	84.219600
768.000000	84.283000
767.000000	84.539500
766.000000	84.606000
765.000000	84.782000
764.000000	85.003400
763.000000	85.045100
762.000000	85.296000
761.000000	85.411000
760.000000	85.486500
759.000000	85.511300
758.000000	85.572400
757.000000	85.554400
756.000000	85.442300
755.000000	85.486500
754.000000	85.550200
753.000000	85.425900
752.000000	85.357000
751.000000	85.308700
750.000000	85.267500
749.000000	85.257800
748.000000	85.051600
747.000000	85.069200
746.000000	85.025300
745.000000	84.875400
744.000000	84.785400
743.000000	84.682800
742.000000	84.683400
741.000000	84.742200
740.000000	84.643600
739.000000	84.499900
738.000000	84.456900
737.000000	84.504400
736.000000	84.355400
735.000000	84.331400
734.000000	84.478100
733.000000	84.345700
732.000000	84.159600
731.000000	84.069600
730.000000	84.014700
729.000000	83.954300
728.000000	83.858600
727.000000	83.689300
726.000000	83.496700
725.000000	83.223700
724.000000	82.883200
723.000000	82.667000
722.000000	82.301000
721.000000	81.970700
720.000000	81.588400
719.000000	81.176400
718.000000	80.852500
717.000000	80.455500
716.000000	80.054800
715.000000	79.760500
714.000000	79.283500
713.000000	78.962700
712.000000	78.585600
711.000000	78.193000
710.000000	77.867500
709.000000	77.521700
708.000000	77.209300
707.000000	76.966100
706.000000	76.694500
705.000000	76.403000
704.000000	76.218500
703.000000	75.973900
702.000000	75.716100
701.000000	75.517200
700.000000	75.352800
699.000000	75.205000
698.000000	75.044800
697.000000	74.926000
696.000000	74.858900
695.000000	74.742400
694.000000	74.689000
693.000000	74.576000
692.000000	74.467700
691.000000	74.380700
690.000000	74.384800
689.000000	74.309000
688.000000	74.209100
687.000000	74.164700
686.000000	74.140400
685.000000	74.047200
684.000000	73.960100
683.000000	73.885800
682.000000	73.793800
681.000000	73.716200
680.000000	73.562300
679.000000	73.451000
678.000000	73.330200
677.000000	73.183600
676.000000	73.029800
675.000000	72.824600
674.000000	72.655700
673.000000	72.448900
672.000000	72.231700
671.000000	72.031100
670.000000	71.701400
669.000000	71.381500
668.000000	71.092800
667.000000	70.736400
666.000000	70.377600
665.000000	69.996200
664.000000	69.491500
663.000000	68.973700
662.000000	68.453900
661.000000	67.921500
660.000000	67.328800
659.000000	66.656700
658.000000	66.029800
657.000000	65.389600
656.000000	64.707400
655.000000	64.045000
654.000000	63.380300
653.000000	62.710800
652.000000	62.088700
651.000000	61.497200
650.000000	60.928500
649.000000	60.440600
648.000000	59.994300
647.000000	59.551700
646.000000	59.207400
645.000000	58.973700
644.000000	58.761400
643.000000	58.595200
642.000000	58.535600
641.000000	58.582500
640.000000	58.710800
639.000000	58.952100
638.000000	59.256800
637.000000	59.603000
636.000000	60.076300
635.000000	60.618200
634.000000	61.201000
633.000000	61.831400
632.000000	62.497400
631.000000	63.199700
630.000000	63.950300
629.000000	64.636400
628.000000	65.317300
627.000000	65.999600
626.000000	66.661500
625.000000	67.355500
624.000000	67.983700
623.000000	68.657500
622.000000	69.347300
621.000000	69.970100
620.000000	70.647800
619.000000	71.314700
618.000000	72.004400
617.000000	72.657800
616.000000	73.298900
615.000000	73.962800
614.000000	74.590100
613.000000	75.244600
612.000000	75.904400
611.000000	76.526400
610.000000	77.107100
609.000000	77.681600
608.000000	78.232100
607.000000	78.733000
606.000000	79.257600
605.000000	79.774900
604.000000	80.226400
603.000000	80.690900
602.000000	81.150500
601.000000	81.658000
600.000000	82.116200
599.000000	82.538800
598.000000	82.971300
597.000000	83.363500
596.000000	83.748700
595.000000	84.149300
594.000000	84.496100
593.000000	84.840700
592.000000	85.164500
591.000000	85.431700
590.000000	85.713100
589.000000	85.949500
588.000000	86.218400
587.000000	86.420100
586.000000	86.582000
585.000000	86.706600
584.000000	86.824600
583.000000	86.932700
582.000000	87.071200
581.000000	87.133500
580.000000	87.156300
579.000000	87.187900
578.000000	87.251500
577.000000	87.301700
576.000000	87.299500
575.000000	87.268700
574.000000	87.301000
573.000000	87.265600
572.000000	87.231900
571.000000	87.212300
570.000000	87.148300
569.000000	87.067500
568.000000	87.013600
567.000000	86.946900
566.000000	86.802600
565.000000	86.698200
564.000000	86.494900
563.000000	86.314900
562.000000	86.125500
561.000000	85.953000
560.000000	85.739700
559.000000	85.440100
558.000000	85.161600
557.000000	84.856600
556.000000	84.548400
555.000000	84.229000
554.000000	83.902400
553.000000	83.561500
552.000000	83.165000
551.000000	82.751800
550.000000	82.282200
549.000000	81.845300
548.000000	81.369900
547.000000	80.877400
546.000000	80.286000
545.000000	79.663500
544.000000	79.073600
543.000000	78.440700
542.000000	77.741200
541.000000	76.961000
540.000000	76.195100
539.000000	75.387500
538.000000	74.489300
537.000000	73.560600
536.000000	72.591600
535.000000	71.574300
534.000000	70.478900
533.000000	69.340800
532.000000	68.158900
531.000000	66.894400
530.000000	65.660500
529.000000	64.351800
528.000000	63.047900
527.000000	61.665500
526.000000	60.312400
525.000000	58.982100
524.000000	57.631300
523.000000	56.284600
522.000000	55.014200
521.000000	53.763300
520.000000	52.541000
519.000000	51.429300
518.000000	50.371600
517.000000	49.381700
516.000000	48.490500
515.000000	47.593000
514.000000	46.787600
513.000000	46.043700
512.000000	45.323400
511.000000	44.681400
510.000000	44.157700
509.000000	43.606500
508.000000	43.111000
507.000000	42.629900
506.000000	42.169400
505.000000	41.681400
504.000000	41.212000
503.000000	40.802300
502.000000	40.309900
501.000000	39.886000
500.000000	39.388900
499.000000	38.907000
498.000000	38.432600
497.000000	37.908100
496.000000	37.345900
495.000000	36.793800
494.000000	36.260500
493.000000	35.719000
492.000000	35.188500
491.000000	34.591200
490.000000	34.069100
489.000000	33.575500
488.000000	33.123000
487.000000	32.672600
486.000000	32.282600
485.000000	31.879700
484.000000	31.572400
483.000000	31.261900
482.000000	31.026400
481.000000	30.785100
480.000000	30.597200
479.000000	30.417100
478.000000	30.293200
477.000000	30.187200
476.000000	30.078200
475.000000	29.998700
474.000000	29.942400
473.000000	29.908400
472.000000	29.881600
471.000000	29.867600
470.000000	29.810300
469.000000	29.838300
468.000000	29.785200
467.000000	29.763600
466.000000	29.775300
465.000000	29.750200
464.000000	29.729800
463.000000	29.672100
462.000000	29.596000
461.000000	29.533200
460.000000	29.506500
459.000000	29.440200
458.000000	29.352200
457.000000	29.262900
456.000000	29.136800
455.000000	29.078800
454.000000	28.957400
453.000000	28.819000
452.000000	28.737900
451.000000	28.595200
450.000000	28.379600
449.000000	28.254600
448.000000	28.065800
447.000000	27.917300
446.000000	27.690200
445.000000	27.518000
444.000000	27.276400
443.000000	27.076800
442.000000	26.816400
441.000000	26.568500
440.000000	26.303700
439.000000	26.042500
438.000000	25.725000
437.000000	25.436900
436.000000	25.136200
435.000000	24.772500
434.000000	24.432900
433.000000	24.051600
432.000000	23.701200
431.000000	23.296400
430.000000	22.922000
429.000000	22.505200
428.000000	22.087500
427.000000	21.623200
426.000000	21.162900
425.000000	20.740900
424.000000	20.259000
423.000000	19.759000
422.000000	19.252400
421.000000	18.719200
420.000000	18.213100
419.000000	17.686300
418.000000	17.185100
417.000000	16.662200
416.000000	16.170300
415.000000	15.653700
414.000000	15.169000
413.000000	14.677100
412.000000	14.192200
411.000000	13.742900
410.000000	13.335800
409.000000	12.926600
408.000000	12.489300
407.000000	12.127000
406.000000	11.774300
405.000000	11.422800
404.000000	11.083000
403.000000	10.766900
402.000000	10.473400
401.000000	10.191700
400.000000	9.939600
399.000000	9.701000
398.000000	9.461500
397.000000	9.221400
396.000000	9.020400
395.000000	8.840000
394.000000	8.659200
393.000000	8.466500
392.000000	8.304600
391.000000	8.163700
390.000000	8.031000
389.000000	7.869200
388.000000	7.751900
387.000000	7.632600
386.000000	7.527500
385.000000	7.410800
384.000000	7.308900
383.000000	7.214700
382.000000	7.139300
381.000000	7.059100
380.000000	6.995200
379.000000	6.926800
378.000000	6.873400
377.000000	6.809100
376.000000	6.795100
375.000000	6.806300
374.000000	6.718000
373.000000	6.641800
372.000000	6.553800
371.000000	6.562300
370.000000	6.536500
369.000000	6.371700
368.000000	6.312400
367.000000	6.434800
366.000000	6.365800
365.000000	6.259600
364.000000	6.253400
363.000000	6.178400
362.000000	6.108600
361.000000	6.110900
360.000000	6.140300
359.000000	6.115000
358.000000	6.110400
357.000000	5.989600
356.000000	5.911100
355.000000	6.010400
354.000000	5.993100
353.000000	5.914400
352.000000	5.925000
351.000000	5.870200
350.000000	5.817300
349.000000	5.834500
348.000000	5.840400
347.000000	5.839700
346.000000	5.890100
345.000000	5.907700
344.000000	5.886300
343.000000	5.910500
342.000000	5.966600
341.000000	5.919400
340.000000	5.854600
339.000000	5.842100
338.000000	5.820400
337.000000	5.856900
336.000000	5.694600
335.000000	5.590000
334.000000	5.605400
333.000000	5.936700
332.000000	6.138100
331.000000	5.944100
330.000000	5.912000
329.000000	5.810900
328.000000	5.784400
327.000000	5.618600
326.000000	5.581600
325.000000	5.987500
324.000000	5.942100
323.000000	5.841100
322.000000	5.943100
321.000000	6.236500
320.000000	6.166700
319.000000	5.742400
318.000000	5.510900
317.000000	5.856300
316.000000	5.939900
315.000000	5.713500
314.000000	5.677800
313.000000	5.715400
312.000000	5.744700
311.000000	5.727500
310.000000	5.734500
309.000000	5.734400
308.000000	5.738000
307.000000	5.740200
306.000000	5.717900
305.000000	5.702300
304.000000	5.708600
303.000000	5.710400
302.000000	5.710900
301.000000	5.747700
300.000000	5.737700
299.000000	5.717200
298.000000	5.720700
297.000000	5.716900
296.000000	5.728500
295.000000	5.732400
294.000000	5.703300
293.000000	5.754100
292.000000	5.734700
291.000000	5.718800
290.000000	5.731500
289.000000	5.744500
288.000000	5.757900
287.000000	5.733500
286.000000	5.737400
285.000000	5.744000
284.000000	5.726500
283.000000	5.766200
282.000000	5.741100
281.000000	5.748300
280.000000	5.785100
279.000000	5.770500
278.000000	5.787000
277.000000	5.796500
276.000000	5.805100
275.000000	5.788300
274.000000	5.798000
273.000000	5.826600
272.000000	5.837200
271.000000	5.865300
270.000000	5.895900
269.000000	5.872200
268.000000	5.894500
267.000000	5.929300
266.000000	5.956900
265.000000	5.969700
264.000000	6.007100
263.000000	6.020000
262.000000	6.044100
261.000000	6.089500
260.000000	6.107700
259.000000	6.112400
258.000000	6.144700
257.000000	6.184600
256.000000	6.179400
255.000000	6.172100
254.000000	6.164500
253.000000	6.187600
252.000000	6.220800
251.000000	6.233900
250.000000	6.241300
