PE UV       SUBTECH     SPECTRUM    ASCII       PEDS        4.00        
   -1
CICIMAUCR0235-2.ASC
24/06/14
16:23:07.00
24/06/14
16:23:07.00
Vinicio Soto Monge
C. resplendens. Sex M. Dorsal.
250,000000
1
Lambda 1050
1050L1511233
PerkinElmer UV WinLab 6.3.2.0749 / 2.02.05 Lambda 900 UV/VIS/NIR, Aug  7 2015 09:38:08

0
0
3350/servo 860,8/2
0
0
UV/VIS
1
1
1
DoubleDePol,CommonBeamDepol,RBeamAtt,SBeamAtt,60mm sphere, WB InGaAs Detector
0
0
0
0
Program
Program
3350/servo 860,8/2
3350/0,2 860,8/0,2
3350/0,2 860,8/0,2
0
15.00
 
 
 
0
 
860,8
319,2
860,8
Front
100
on
S:100 R:100
0
0
0
0
 
0
 
 
 
0
 
 
0
0
0
0
0
 
 
 
 
0
0


0
0
#HDR
-1
-1
#GR
nm
%R
1.0
0.0
2500,000000
-1,000000
2251
8
91,556100
5,714300
#DATA
2500.000000	8.889417
2499.000000	8.845003
2498.000000	8.760905
2497.000000	8.769335
2496.000000	8.748773
2495.000000	8.792467
2494.000000	8.629926
2493.000000	8.785579
2492.000000	8.700864
2491.000000	8.701276
2490.000000	8.677424
2489.000000	8.664367
2488.000000	8.702920
2487.000000	8.700761
2486.000000	8.611523
2485.000000	8.739623
2484.000000	8.746100
2483.000000	8.659021
2482.000000	8.703537
2481.000000	8.694182
2480.000000	8.579446
2479.000000	8.696135
2478.000000	8.693668
2477.000000	8.735614
2476.000000	8.706930
2475.000000	8.705182
2474.000000	8.700145
2473.000000	8.755456
2472.000000	8.719678
2471.000000	8.736436
2470.000000	8.778794
2469.000000	8.758026
2468.000000	8.779513
2467.000000	8.777149
2466.000000	8.834722
2465.000000	8.835956
2464.000000	8.817861
2463.000000	8.839246
2462.000000	8.904633
2461.000000	8.932802
2460.000000	8.959224
2459.000000	8.975982
2458.000000	9.025434
2457.000000	9.062753
2456.000000	9.139963
2455.000000	9.162581
2454.000000	9.206173
2453.000000	9.244006
2452.000000	9.325123
2451.000000	9.394211
2450.000000	9.439344
2449.000000	9.512442
2448.000000	9.562202
2447.000000	9.640748
2446.000000	9.660385
2445.000000	9.746333
2444.000000	9.805654
2443.000000	9.888827
2442.000000	9.935811
2441.000000	9.999964
2440.000000	10.060005
2439.000000	10.118401
2438.000000	10.182040
2437.000000	10.239099
2436.000000	10.312608
2435.000000	10.374807
2434.000000	10.418398
2433.000000	10.491804
2432.000000	10.533339
2431.000000	10.578884
2430.000000	10.617232
2429.000000	10.659898
2428.000000	10.711919
2427.000000	10.760754
2426.000000	10.812056
2425.000000	10.844235
2424.000000	10.893584
2423.000000	10.937689
2422.000000	10.975626
2421.000000	10.995159
2420.000000	11.035255
2419.000000	11.079257
2418.000000	11.111437
2417.000000	11.131485
2416.000000	11.169421
2415.000000	11.211676
2414.000000	11.245706
2413.000000	11.275829
2412.000000	11.300092
2411.000000	11.332786
2410.000000	11.363217
2409.000000	11.383985
2408.000000	11.425931
2407.000000	11.454717
2406.000000	11.473326
2405.000000	11.495122
2404.000000	11.520413
2403.000000	11.545601
2402.000000	11.567705
2401.000000	11.606361
2400.000000	11.636382
2399.000000	11.677608
2398.000000	11.708143
2397.000000	11.743098
2396.000000	11.772707
2395.000000	11.798101
2394.000000	11.814036
2393.000000	11.833776
2392.000000	11.853310
2391.000000	11.896695
2390.000000	11.932473
2389.000000	11.941726
2388.000000	11.951493
2387.000000	11.987579
2386.000000	12.013487
2385.000000	12.023973
2384.000000	12.029936
2383.000000	12.044946
2382.000000	12.044432
2381.000000	12.045872
2380.000000	12.051937
2379.000000	12.053480
2378.000000	12.054199
2377.000000	12.045563
2376.000000	12.049984
2375.000000	12.049881
2374.000000	12.041965
2373.000000	12.023973
2372.000000	12.014206
2371.000000	12.005776
2370.000000	11.973185
2369.000000	11.959615
2368.000000	11.963110
2367.000000	11.932473
2366.000000	11.899163
2365.000000	11.866058
2364.000000	11.831822
2363.000000	11.811775
2362.000000	11.764071
2361.000000	11.718526
2360.000000	11.688300
2359.000000	11.641214
2358.000000	11.598651
2357.000000	11.569864
2356.000000	11.534498
2355.000000	11.498514
2354.000000	11.478878
2353.000000	11.462120
2352.000000	11.457391
2351.000000	11.447007
2350.000000	11.440016
2349.000000	11.461092
2348.000000	11.494505
2347.000000	11.516712
2346.000000	11.542414
2345.000000	11.580865
2344.000000	11.613044
2343.000000	11.656738
2342.000000	11.714620
2341.000000	11.756155
2340.000000	11.782577
2339.000000	11.819280
2338.000000	11.837888
2337.000000	11.856805
2336.000000	11.869451
2335.000000	11.884461
2334.000000	11.898443
2333.000000	11.888573
2332.000000	11.890835
2331.000000	11.874283
2330.000000	11.848992
2329.000000	11.836860
2328.000000	11.816709
2327.000000	11.772501
2326.000000	11.709685
2325.000000	11.656841
2324.000000	11.611502
2323.000000	11.550844
2322.000000	11.484018
2321.000000	11.416061
2320.000000	11.331449
2319.000000	11.249407
2318.000000	11.171066
2317.000000	11.079566
2316.000000	10.986421
2315.000000	10.895023
2314.000000	10.809383
2313.000000	10.721069
2312.000000	10.632756
2311.000000	10.556677
2310.000000	10.478953
2309.000000	10.396603
2308.000000	10.331319
2307.000000	10.277138
2306.000000	10.257810
2305.000000	10.246193
2304.000000	10.254829
2303.000000	10.260689
2302.000000	10.303458
2301.000000	10.344067
2300.000000	10.408734
2299.000000	10.487281
2298.000000	10.563051
2297.000000	10.626074
2296.000000	10.713256
2295.000000	10.789643
2294.000000	10.885770
2293.000000	10.966270
2292.000000	11.054172
2291.000000	11.107941
2290.000000	11.152663
2289.000000	11.215583
2288.000000	11.243547
2287.000000	11.254342
2286.000000	11.257323
2285.000000	11.241696
2284.000000	11.234911
2283.000000	11.232135
2282.000000	11.198722
2281.000000	11.160991
2280.000000	11.120073
2279.000000	11.063836
2278.000000	11.016955
2277.000000	10.968840
2276.000000	10.926483
2275.000000	10.880013
2274.000000	10.827374
2273.000000	10.805682
2272.000000	10.790569
2271.000000	10.764763
2270.000000	10.759726
2269.000000	10.768670
2268.000000	10.774119
2267.000000	10.821925
2266.000000	10.891013
2265.000000	10.975420
2264.000000	11.073603
2263.000000	11.185974
2262.000000	11.312429
2261.000000	11.492654
2260.000000	11.666505
2259.000000	11.860301
2258.000000	12.043404
2257.000000	12.268043
2256.000000	12.483840
2255.000000	12.715264
2254.000000	12.915639
2253.000000	13.154157
2252.000000	13.406554
2251.000000	13.601995
2250.000000	13.800520
2249.000000	13.979306
2248.000000	14.150895
2247.000000	14.376458
2246.000000	14.520083
2245.000000	14.672550
2244.000000	14.791706
2243.000000	14.948593
2242.000000	15.068469
2241.000000	15.170970
2240.000000	15.262676
2239.000000	15.360139
2238.000000	15.472818
2237.000000	15.546430
2236.000000	15.612125
2235.000000	15.668053
2234.000000	15.732926
2233.000000	15.774050
2232.000000	15.829464
2231.000000	15.872027
2230.000000	15.898141
2229.000000	15.921376
2228.000000	15.937106
2227.000000	15.953555
2226.000000	15.961574
2225.000000	15.963013
2224.000000	15.929909
2223.000000	15.932788
2222.000000	15.914179
2221.000000	15.904206
2220.000000	15.899683
2219.000000	15.866373
2218.000000	15.834810
2217.000000	15.813220
2216.000000	15.774050
2215.000000	15.763666
2214.000000	15.703625
2213.000000	15.700747
2212.000000	15.650164
2211.000000	15.609863
2210.000000	15.587553
2209.000000	15.562468
2208.000000	15.532345
2207.000000	15.500680
2206.000000	15.474257
2205.000000	15.477547
2204.000000	15.458836
2203.000000	15.418124
2202.000000	15.409076
2201.000000	15.383168
2200.000000	15.373401
2199.000000	15.351297
2198.000000	15.349961
2197.000000	15.332483
2196.000000	15.302155
2195.000000	15.308632
2194.000000	15.307603
2193.000000	15.274088
2192.000000	15.267508
2191.000000	15.254759
2190.000000	15.234814
2189.000000	15.205308
2188.000000	15.200373
2187.000000	15.195130
2186.000000	15.181251
2185.000000	15.169736
2184.000000	15.133341
2183.000000	15.136631
2182.000000	15.114733
2181.000000	15.122752
2180.000000	15.083993
2179.000000	15.062300
2178.000000	15.046056
2177.000000	15.034336
2176.000000	15.016961
2175.000000	15.017784
2174.000000	15.008120
2173.000000	15.003699
2172.000000	14.994960
2171.000000	14.994652
2170.000000	14.995885
2169.000000	15.015625
2168.000000	15.028167
2167.000000	15.014597
2166.000000	15.034644
2165.000000	15.047393
2164.000000	15.054075
2163.000000	15.071142
2162.000000	15.097564
2161.000000	15.099209
2160.000000	15.131799
2159.000000	15.159455
2158.000000	15.188961
2157.000000	15.199345
2156.000000	15.224019
2155.000000	15.277069
2154.000000	15.288995
2153.000000	15.331661
2152.000000	15.363943
2151.000000	15.394786
2150.000000	15.432517
2149.000000	15.498726
2148.000000	15.528027
2147.000000	15.559692
2146.000000	15.607396
2145.000000	15.639472
2144.000000	15.679876
2143.000000	15.726141
2142.000000	15.766133
2141.000000	15.785770
2140.000000	15.809827
2139.000000	15.833885
2138.000000	15.862569
2137.000000	15.895365
2136.000000	15.920450
2135.000000	15.956742
2134.000000	15.965070
2133.000000	15.993548
2132.000000	16.011025
2131.000000	16.004651
2130.000000	16.031279
2129.000000	16.062841
2128.000000	16.063870
2127.000000	16.062944
2126.000000	16.067057
2125.000000	16.078571
2124.000000	16.084431
2123.000000	16.073636
2122.000000	16.053486
2121.000000	16.050093
2120.000000	16.036419
2119.000000	16.021409
2118.000000	16.026653
2117.000000	16.015755
2116.000000	15.981725
2115.000000	15.965172
2114.000000	15.950265
2113.000000	15.922507
2112.000000	15.904412
2111.000000	15.877682
2110.000000	15.851260
2109.000000	15.836455
2108.000000	15.804379
2107.000000	15.772302
2106.000000	15.739917
2105.000000	15.722748
2104.000000	15.702597
2103.000000	15.671754
2102.000000	15.635977
2101.000000	15.610172
2100.000000	15.588582
2099.000000	15.559178
2098.000000	15.533887
2097.000000	15.503147
2096.000000	15.469323
2095.000000	15.444340
2094.000000	15.414422
2093.000000	15.381523
2092.000000	15.357363
2091.000000	15.346979
2090.000000	15.332175
2089.000000	15.304314
2088.000000	15.294649
2087.000000	15.268639
2086.000000	15.243450
2085.000000	15.222888
2084.000000	15.189167
2083.000000	15.165315
2082.000000	15.133650
2081.000000	15.109284
2080.000000	15.079161
2079.000000	15.030429
2078.000000	15.000203
2077.000000	14.962678
2076.000000	14.917442
2075.000000	14.879813
2074.000000	14.834063
2073.000000	14.793762
2072.000000	14.751404
2071.000000	14.712748
2070.000000	14.668026
2069.000000	14.613743
2068.000000	14.577657
2067.000000	14.541159
2066.000000	14.487801
2065.000000	14.436705
2064.000000	14.398254
2063.000000	14.352607
2062.000000	14.310044
2061.000000	14.253807
2060.000000	14.210318
2059.000000	14.186364
2058.000000	14.170428
2057.000000	14.146165
2056.000000	14.115220
2055.000000	14.107406
2054.000000	14.109874
2053.000000	14.120977
2052.000000	14.132080
2051.000000	14.150895
2050.000000	14.167755
2049.000000	14.193561
2048.000000	14.241675
2047.000000	14.297398
2046.000000	14.351784
2045.000000	14.393936
2044.000000	14.454491
2043.000000	14.524093
2042.000000	14.577862
2041.000000	14.636669
2040.000000	14.708739
2039.000000	14.784612
2038.000000	14.843419
2037.000000	14.888552
2036.000000	14.920218
2035.000000	14.981698
2034.000000	15.026111
2033.000000	15.066824
2032.000000	15.114939
2031.000000	15.144136
2030.000000	15.153698
2029.000000	15.190503
2028.000000	15.227926
2027.000000	15.240160
2026.000000	15.241600
2025.000000	15.263498
2024.000000	15.265349
2023.000000	15.268227
2022.000000	15.285191
2021.000000	15.283854
2020.000000	15.277891
2019.000000	15.288275
2018.000000	15.286836
2017.000000	15.279434
2016.000000	15.264732
2015.000000	15.237899
2014.000000	15.220729
2013.000000	15.210243
2012.000000	15.194513
2011.000000	15.165110
2010.000000	15.145267
2009.000000	15.114013
2008.000000	15.083582
2007.000000	15.047393
2006.000000	14.997222
2005.000000	14.950752
2004.000000	14.909525
2003.000000	14.892870
2002.000000	14.823371
2001.000000	14.770733
2000.000000	14.717683
1999.000000	14.655894
1998.000000	14.602022
1997.000000	14.534477
1996.000000	14.471249
1995.000000	14.409152
1994.000000	14.335746
1993.000000	14.257508
1992.000000	14.196439
1991.000000	14.098256
1990.000000	14.036365
1989.000000	13.966043
1988.000000	13.879786
1987.000000	13.808539
1986.000000	13.720432
1985.000000	13.629445
1984.000000	13.552030
1983.000000	13.467932
1982.000000	13.381880
1981.000000	13.306110
1980.000000	13.236919
1979.000000	13.141717
1978.000000	13.058442
1977.000000	12.967764
1976.000000	12.900835
1975.000000	12.817765
1974.000000	12.735620
1973.000000	12.643503
1972.000000	12.580275
1971.000000	12.481578
1970.000000	12.410948
1969.000000	12.337953
1968.000000	12.256528
1967.000000	12.183739
1966.000000	12.098304
1965.000000	12.033432
1964.000000	11.960334
1963.000000	11.901219
1962.000000	11.805092
1961.000000	11.749061
1960.000000	11.691899
1959.000000	11.591248
1958.000000	11.509001
1957.000000	11.460680
1956.000000	11.398275
1955.000000	11.358282
1954.000000	11.280147
1953.000000	11.237070
1952.000000	11.158318
1951.000000	11.101156
1950.000000	11.021479
1949.000000	10.984673
1948.000000	10.940156
1947.000000	10.895948
1946.000000	10.857806
1945.000000	10.801055
1944.000000	10.751398
1943.000000	10.709246
1942.000000	10.690329
1941.000000	10.690124
1940.000000	10.651776
1939.000000	10.612811
1938.000000	10.614148
1937.000000	10.606231
1936.000000	10.615073
1935.000000	10.621036
1934.000000	10.650953
1933.000000	10.650953
1932.000000	10.663393
1931.000000	10.703900
1930.000000	10.741734
1929.000000	10.796223
1928.000000	10.849478
1927.000000	10.906435
1926.000000	10.984467
1925.000000	11.075454
1924.000000	11.129737
1923.000000	11.218564
1922.000000	11.300401
1921.000000	11.437548
1920.000000	11.560303
1919.000000	11.691899
1918.000000	11.806223
1917.000000	11.926099
1916.000000	12.085042
1915.000000	12.230106
1914.000000	12.366020
1913.000000	12.553236
1912.000000	12.753098
1911.000000	12.942575
1910.000000	13.105631
1909.000000	13.310736
1908.000000	13.486746
1907.000000	13.698842
1906.000000	13.923480
1905.000000	14.149764
1904.000000	14.419227
1903.000000	14.679335
1902.000000	14.941499
1901.000000	15.184438
1900.000000	15.477136
1899.000000	15.776414
1898.000000	16.103143
1897.000000	16.446321
1896.000000	16.772021
1895.000000	17.070168
1894.000000	17.361838
1893.000000	17.700596
1892.000000	18.057241
1891.000000	18.462002
1890.000000	18.905419
1889.000000	19.320358
1888.000000	19.721418
1887.000000	20.178200
1886.000000	20.640534
1885.000000	21.087035
1884.000000	21.575791
1883.000000	22.111942
1882.000000	22.684180
1881.000000	23.194423
1880.000000	23.741780
1879.000000	24.216143
1878.000000	24.676935
1877.000000	25.195402
1876.000000	25.687860
1875.000000	26.134258
1874.000000	26.579629
1873.000000	27.023971
1872.000000	27.446518
1871.000000	27.835754
1870.000000	28.224991
1869.000000	28.561280
1868.000000	28.933656
1867.000000	29.211447
1866.000000	29.423646
1865.000000	29.613021
1864.000000	29.819873
1863.000000	30.004108
1862.000000	30.130974
1861.000000	30.297731
1860.000000	30.484433
1859.000000	30.631451
1858.000000	30.762224
1857.000000	30.861538
1856.000000	30.955712
1855.000000	31.018939
1854.000000	31.079597
1853.000000	31.154031
1852.000000	31.183126
1851.000000	31.214380
1850.000000	31.237307
1849.000000	31.237821
1848.000000	31.268869
1847.000000	31.303002
1846.000000	31.311124
1845.000000	31.288095
1844.000000	31.248410
1843.000000	31.234325
1842.000000	31.229493
1841.000000	31.240597
1840.000000	31.245943
1839.000000	31.244298
1838.000000	31.211193
1837.000000	31.199062
1836.000000	31.176238
1835.000000	31.140049
1834.000000	31.102729
1833.000000	31.056465
1832.000000	30.988199
1831.000000	30.954992
1830.000000	30.917981
1829.000000	30.856912
1828.000000	30.800058
1827.000000	30.741251
1826.000000	30.675864
1825.000000	30.628469
1824.000000	30.583747
1823.000000	30.543549
1822.000000	30.522267
1821.000000	30.499546
1820.000000	30.494611
1819.000000	30.474152
1818.000000	30.423570
1817.000000	30.394886
1816.000000	30.363941
1815.000000	30.351089
1814.000000	30.364763
1813.000000	30.364249
1812.000000	30.352323
1811.000000	30.318396
1810.000000	30.284058
1809.000000	30.260412
1808.000000	30.233989
1807.000000	30.195230
1806.000000	30.159658
1805.000000	30.133647
1804.000000	30.090468
1803.000000	30.038446
1802.000000	30.009145
1801.000000	29.976349
1800.000000	29.927720
1799.000000	29.878680
1798.000000	29.836631
1797.000000	29.799106
1796.000000	29.754384
1795.000000	29.714082
1794.000000	29.684987
1793.000000	29.641293
1792.000000	29.592767
1791.000000	29.555550
1790.000000	29.501986
1789.000000	29.451096
1788.000000	29.413673
1787.000000	29.377998
1786.000000	29.335332
1785.000000	29.275908
1784.000000	29.236018
1783.000000	29.196642
1782.000000	29.133209
1781.000000	29.065869
1780.000000	29.014156
1779.000000	28.964190
1778.000000	28.905486
1777.000000	28.837940
1776.000000	28.771114
1775.000000	28.708606
1774.000000	28.642294
1773.000000	28.551616
1772.000000	28.470705
1771.000000	28.387429
1770.000000	28.302920
1769.000000	28.224271
1768.000000	28.134621
1767.000000	28.051859
1766.000000	27.977323
1765.000000	27.910188
1764.000000	27.855493
1763.000000	27.818996
1762.000000	27.798023
1761.000000	27.817557
1760.000000	27.839969
1759.000000	27.873485
1758.000000	27.941956
1757.000000	28.018755
1756.000000	28.090413
1755.000000	28.159398
1754.000000	28.204840
1753.000000	28.243393
1752.000000	28.268993
1751.000000	28.301789
1750.000000	28.313818
1749.000000	28.313818
1748.000000	28.298294
1747.000000	28.271769
1746.000000	28.214504
1745.000000	28.162380
1744.000000	28.106965
1743.000000	28.011969
1742.000000	27.886336
1741.000000	27.746104
1740.000000	27.597031
1739.000000	27.434695
1738.000000	27.258068
1737.000000	27.089975
1736.000000	26.939667
1735.000000	26.814034
1734.000000	26.691896
1733.000000	26.622089
1732.000000	26.600807
1731.000000	26.606770
1730.000000	26.640183
1729.000000	26.701149
1728.000000	26.770854
1727.000000	26.855055
1726.000000	26.952724
1725.000000	27.039289
1724.000000	27.114032
1723.000000	27.172839
1722.000000	27.227739
1721.000000	27.286855
1720.000000	27.331782
1719.000000	27.380514
1718.000000	27.429554
1717.000000	27.490726
1716.000000	27.545215
1715.000000	27.631986
1714.000000	27.721430
1713.000000	27.794733
1712.000000	27.872251
1711.000000	27.953985
1710.000000	27.994081
1709.000000	28.016082
1708.000000	28.052785
1707.000000	28.051654
1706.000000	28.033148
1705.000000	28.014128
1704.000000	27.998090
1703.000000	27.940825
1702.000000	27.889729
1701.000000	27.794733
1700.000000	27.693157
1699.000000	27.548402
1698.000000	27.435928
1697.000000	27.324277
1696.000000	27.216739
1695.000000	27.129145
1694.000000	27.084526
1693.000000	27.090180
1692.000000	27.144155
1691.000000	27.253853
1690.000000	27.362008
1689.000000	27.487230
1688.000000	27.615948
1687.000000	27.693363
1686.000000	27.753301
1685.000000	27.821875
1684.000000	27.870504
1683.000000	27.962929
1682.000000	28.109124
1681.000000	28.337772
1680.000000	28.642808
1679.000000	29.009426
1678.000000	29.437319
1677.000000	29.884746
1676.000000	30.285086
1675.000000	30.671855
1674.000000	31.031893
1673.000000	31.357902
1672.000000	31.624795
1671.000000	31.864341
1670.000000	32.074278
1669.000000	32.277430
1668.000000	32.413755
1667.000000	32.553473
1666.000000	32.692060
1665.000000	32.763924
1664.000000	32.877939
1663.000000	32.966870
1662.000000	33.055286
1661.000000	33.112859
1660.000000	33.168479
1659.000000	33.239829
1658.000000	33.271185
1657.000000	33.313132
1656.000000	33.320226
1655.000000	33.372967
1654.000000	33.357443
1653.000000	33.364434
1652.000000	33.391884
1651.000000	33.379444
1650.000000	33.350143
1649.000000	33.326291
1648.000000	33.307580
1647.000000	33.281055
1646.000000	33.249184
1645.000000	33.217519
1644.000000	33.186573
1643.000000	33.115429
1642.000000	33.078007
1641.000000	33.051687
1640.000000	32.972730
1639.000000	32.940139
1638.000000	32.882669
1637.000000	32.824581
1636.000000	32.776261
1635.000000	32.737091
1634.000000	32.646104
1633.000000	32.602102
1632.000000	32.515022
1631.000000	32.473693
1630.000000	32.392473
1629.000000	32.305497
1628.000000	32.237848
1627.000000	32.176162
1626.000000	32.117972
1625.000000	32.024827
1624.000000	31.948748
1623.000000	31.873286
1622.000000	31.814787
1621.000000	31.742615
1620.000000	31.669620
1619.000000	31.591074
1618.000000	31.529388
1617.000000	31.453412
1616.000000	31.383810
1615.000000	31.327059
1614.000000	31.257971
1613.000000	31.203996
1612.000000	31.113113
1611.000000	31.055745
1610.000000	31.002387
1609.000000	30.944403
1608.000000	30.867810
1607.000000	30.809928
1606.000000	30.739812
1605.000000	30.666920
1604.000000	30.596496
1603.000000	30.526174
1602.000000	30.457703
1601.000000	30.383577
1600.000000	30.318499
1599.000000	30.259383
1598.000000	30.187725
1597.000000	30.112983
1596.000000	30.054484
1595.000000	29.999687
1594.000000	29.920524
1593.000000	29.859660
1592.000000	29.804966
1591.000000	29.733719
1590.000000	29.679127
1589.000000	29.636461
1588.000000	29.579505
1587.000000	29.521315
1586.000000	29.467031
1585.000000	29.427141
1584.000000	29.377381
1583.000000	29.316210
1582.000000	29.269431
1581.000000	29.227794
1580.000000	29.194483
1579.000000	29.137527
1578.000000	29.087870
1577.000000	29.065869
1576.000000	29.026801
1575.000000	29.009632
1574.000000	28.976836
1573.000000	28.952778
1572.000000	28.933553
1571.000000	28.907234
1570.000000	28.892841
1569.000000	28.883382
1568.000000	28.882354
1567.000000	28.862203
1566.000000	28.847604
1565.000000	28.841950
1564.000000	28.830024
1563.000000	28.819229
1562.000000	28.802368
1561.000000	28.791573
1560.000000	28.785405
1559.000000	28.756824
1558.000000	28.733794
1557.000000	28.718476
1556.000000	28.692362
1555.000000	28.672006
1554.000000	28.640546
1553.000000	28.600039
1552.000000	28.564981
1551.000000	28.534344
1550.000000	28.486332
1549.000000	28.448704
1548.000000	28.410048
1547.000000	28.369438
1546.000000	28.326463
1545.000000	28.286162
1544.000000	28.249870
1543.000000	28.219747
1542.000000	28.190652
1541.000000	28.175334
1540.000000	28.134724
1539.000000	28.103573
1538.000000	28.080029
1537.000000	28.045177
1536.000000	28.002511
1535.000000	27.978145
1534.000000	27.943396
1533.000000	27.898571
1532.000000	27.853437
1531.000000	27.800388
1530.000000	27.763685
1529.000000	27.730786
1528.000000	27.691615
1527.000000	27.649258
1526.000000	27.597133
1525.000000	27.547682
1524.000000	27.501418
1523.000000	27.454742
1522.000000	27.397375
1521.000000	27.336203
1520.000000	27.274209
1519.000000	27.215813
1518.000000	27.158446
1517.000000	27.104265
1516.000000	27.056973
1515.000000	26.994362
1514.000000	26.937714
1513.000000	26.875617
1512.000000	26.794500
1511.000000	26.737338
1510.000000	26.678120
1509.000000	26.606873
1508.000000	26.545599
1507.000000	26.474146
1506.000000	26.402385
1505.000000	26.339260
1504.000000	26.260200
1503.000000	26.187719
1502.000000	26.125211
1501.000000	26.059002
1500.000000	25.990325
1499.000000	25.924218
1498.000000	25.864589
1497.000000	25.810922
1496.000000	25.755200
1495.000000	25.690738
1494.000000	25.631520
1493.000000	25.585873
1492.000000	25.528402
1491.000000	25.489540
1490.000000	25.450164
1489.000000	25.395367
1488.000000	25.342934
1487.000000	25.294408
1486.000000	25.275594
1485.000000	25.225834
1484.000000	25.157157
1483.000000	25.120352
1482.000000	25.080564
1481.000000	25.054142
1480.000000	25.035123
1479.000000	24.997186
1478.000000	24.951847
1477.000000	24.925322
1476.000000	24.906302
1475.000000	24.898797
1474.000000	24.875974
1473.000000	24.876179
1472.000000	24.874020
1471.000000	24.867852
1470.000000	24.861580
1469.000000	24.838345
1468.000000	24.821279
1467.000000	24.820559
1466.000000	24.819223
1465.000000	24.827962
1464.000000	24.839168
1463.000000	24.843589
1462.000000	24.854898
1461.000000	24.865384
1460.000000	24.894788
1459.000000	24.934678
1458.000000	24.964081
1457.000000	24.993279
1456.000000	25.041908
1455.000000	25.096911
1454.000000	25.138549
1453.000000	25.178130
1452.000000	25.248761
1451.000000	25.328643
1450.000000	25.398554
1449.000000	25.448519
1448.000000	25.500438
1447.000000	25.584433
1446.000000	25.663288
1445.000000	25.752835
1444.000000	25.840634
1443.000000	25.919900
1442.000000	25.990428
1441.000000	26.105369
1440.000000	26.195635
1439.000000	26.306875
1438.000000	26.391487
1437.000000	26.508176
1436.000000	26.608929
1435.000000	26.719141
1434.000000	26.832643
1433.000000	26.957350
1432.000000	27.083703
1431.000000	27.206663
1430.000000	27.351727
1429.000000	27.474790
1428.000000	27.640416
1427.000000	27.784761
1426.000000	27.955013
1425.000000	28.122798
1424.000000	28.319267
1423.000000	28.529101
1422.000000	28.732663
1421.000000	28.931188
1420.000000	29.134751
1419.000000	29.384989
1418.000000	29.636358
1417.000000	29.888961
1416.000000	30.097973
1415.000000	30.353762
1414.000000	30.650470
1413.000000	30.952010
1412.000000	31.235353
1411.000000	31.489293
1410.000000	31.811292
1409.000000	32.160947
1408.000000	32.549772
1407.000000	32.937055
1406.000000	33.296374
1405.000000	33.688078
1404.000000	34.106820
1403.000000	34.467476
1402.000000	34.908220
1401.000000	35.287484
1400.000000	35.765548
1399.000000	36.203413
1398.000000	36.566022
1397.000000	36.822017
1396.000000	37.176813
1395.000000	37.636679
1394.000000	38.054291
1393.000000	38.360046
1392.000000	38.648632
1391.000000	39.021419
1390.000000	39.423096
1389.000000	39.782723
1388.000000	40.160856
1387.000000	40.663594
1386.000000	41.143097
1385.000000	41.627227
1384.000000	42.124002
1383.000000	42.668275
1382.000000	43.243391
1381.000000	43.746232
1380.000000	44.193864
1379.000000	44.433307
1378.000000	44.763942
1377.000000	44.976861
1376.000000	45.208182
1375.000000	45.403828
1374.000000	45.612737
1373.000000	45.858349
1372.000000	46.164515
1371.000000	46.453718
1370.000000	46.782708
1369.000000	47.075715
1368.000000	47.326981
1367.000000	47.607857
1366.000000	47.869095
1365.000000	48.073378
1364.000000	48.289175
1363.000000	48.458399
1362.000000	48.641914
1361.000000	48.813503
1360.000000	48.997223
1359.000000	49.083994
1358.000000	49.152877
1357.000000	49.241293
1356.000000	49.370935
1355.000000	49.567507
1354.000000	49.832036
1353.000000	50.132342
1352.000000	50.439639
1351.000000	50.870102
1350.000000	51.283910
1349.000000	51.653407
1348.000000	52.001006
1347.000000	52.364643
1346.000000	52.691474
1345.000000	53.002678
1344.000000	53.338865
1343.000000	53.642873
1342.000000	53.920766
1341.000000	54.221895
1340.000000	54.513360
1339.000000	54.790843
1338.000000	55.086214
1337.000000	55.358968
1336.000000	55.628739
1335.000000	55.879594
1334.000000	56.154918
1333.000000	56.418316
1332.000000	56.667731
1331.000000	56.931129
1330.000000	57.165021
1329.000000	57.382360
1328.000000	57.617382
1327.000000	57.851171
1326.000000	58.040546
1325.000000	58.254389
1324.000000	58.443456
1323.000000	58.648972
1322.000000	58.846983
1321.000000	59.016310
1320.000000	59.174636
1319.000000	59.346328
1318.000000	59.490261
1317.000000	59.653934
1316.000000	59.803933
1315.000000	59.954446
1314.000000	60.072574
1313.000000	60.220105
1312.000000	60.356328
1311.000000	60.469007
1310.000000	60.580247
1309.000000	60.704338
1308.000000	60.793576
1307.000000	60.884460
1306.000000	60.985419
1305.000000	61.063040
1304.000000	61.133156
1303.000000	61.204608
1302.000000	61.259920
1301.000000	61.320475
1300.000000	61.371365
1299.000000	61.433565
1298.000000	61.472427
1297.000000	61.505943
1296.000000	61.536580
1295.000000	61.566806
1294.000000	61.582433
1293.000000	61.607930
1292.000000	61.627464
1291.000000	61.637642
1290.000000	61.655633
1289.000000	61.639698
1288.000000	61.628903
1287.000000	61.625716
1286.000000	61.604023
1285.000000	61.575031
1284.000000	61.552413
1283.000000	61.528355
1282.000000	61.500597
1281.000000	61.454127
1280.000000	61.412078
1279.000000	61.378151
1278.000000	61.336205
1277.000000	61.306081
1276.000000	61.269790
1275.000000	61.245938
1274.000000	61.209029
1273.000000	61.175308
1272.000000	61.158961
1271.000000	61.130174
1270.000000	61.103958
1269.000000	61.087920
1268.000000	61.064993
1267.000000	61.036207
1266.000000	61.015953
1265.000000	60.998578
1264.000000	60.964651
1263.000000	60.929388
1262.000000	60.891245
1261.000000	60.872123
1260.000000	60.837990
1259.000000	60.786894
1258.000000	60.745873
1257.000000	60.721096
1256.000000	60.690870
1255.000000	60.644503
1254.000000	60.585799
1253.000000	60.535730
1252.000000	60.494709
1251.000000	60.427780
1250.000000	60.350879
1249.000000	60.297213
1248.000000	60.240050
1247.000000	60.162635
1246.000000	60.080387
1245.000000	59.986934
1244.000000	59.890190
1243.000000	59.797559
1242.000000	59.699787
1241.000000	59.593893
1240.000000	59.487177
1239.000000	59.383031
1238.000000	59.276007
1237.000000	59.156131
1236.000000	59.034816
1235.000000	58.921828
1234.000000	58.806990
1233.000000	58.676730
1232.000000	58.547396
1231.000000	58.412510
1230.000000	58.276082
1229.000000	58.136981
1228.000000	58.000861
1227.000000	57.858162
1226.000000	57.710425
1225.000000	57.559706
1224.000000	57.413614
1223.000000	57.280887
1222.000000	57.126261
1221.000000	56.965879
1220.000000	56.829245
1219.000000	56.682536
1218.000000	56.540351
1217.000000	56.401455
1216.000000	56.275205
1215.000000	56.153684
1214.000000	56.017565
1213.000000	55.892034
1212.000000	55.782234
1211.000000	55.675004
1210.000000	55.565100
1209.000000	55.464347
1208.000000	55.348070
1207.000000	55.244129
1206.000000	55.166611
1205.000000	55.071615
1204.000000	55.008079
1203.000000	54.969114
1202.000000	54.924906
1201.000000	54.883474
1200.000000	54.837724
1199.000000	54.788067
1198.000000	54.738821
1197.000000	54.652770
1196.000000	54.551605
1195.000000	54.427206
1194.000000	54.267337
1193.000000	54.066447
1192.000000	53.824845
1191.000000	53.510865
1190.000000	53.182081
1189.000000	52.856689
1188.000000	52.549083
1187.000000	52.310874
1186.000000	52.150080
1185.000000	52.065673
1184.000000	52.052514
1183.000000	52.164576
1182.000000	52.393224
1181.000000	52.687567
1180.000000	53.038662
1179.000000	53.416486
1178.000000	53.804489
1177.000000	54.173369
1176.000000	54.512640
1175.000000	54.810685
1174.000000	55.070587
1173.000000	55.318975
1172.000000	55.576718
1171.000000	55.826236
1170.000000	56.091485
1169.000000	56.361051
1168.000000	56.645936
1167.000000	56.926092
1166.000000	57.209126
1165.000000	57.490310
1164.000000	57.798429
1163.000000	58.118167
1162.000000	58.436362
1161.000000	58.736565
1160.000000	59.060312
1159.000000	59.382106
1158.000000	59.686833
1157.000000	59.994028
1156.000000	60.274183
1155.000000	60.551666
1154.000000	60.785557
1153.000000	60.997756
1152.000000	61.169859
1151.000000	61.310605
1150.000000	61.432126
1149.000000	61.530103
1148.000000	61.634660
1147.000000	61.733357
1146.000000	61.853747
1145.000000	62.011251
1144.000000	62.198673
1143.000000	62.440275
1142.000000	62.719608
1141.000000	63.014363
1140.000000	63.338212
1139.000000	63.690232
1138.000000	64.033821
1137.000000	64.400851
1136.000000	64.791424
1135.000000	65.189707
1134.000000	65.617292
1133.000000	66.007556
1132.000000	66.340659
1131.000000	66.680033
1130.000000	66.978900
1129.000000	67.275402
1128.000000	67.515565
1127.000000	67.719230
1126.000000	67.883725
1125.000000	68.033108
1124.000000	68.143628
1123.000000	68.239343
1122.000000	68.348321
1121.000000	68.401577
1120.000000	68.453907
1119.000000	68.522583
1118.000000	68.567614
1117.000000	68.586942
1116.000000	68.609663
1115.000000	68.604008
1114.000000	68.623851
1113.000000	68.626421
1112.000000	68.629505
1111.000000	68.619327
1110.000000	68.620972
1109.000000	68.621177
1108.000000	68.618916
1107.000000	68.618299
1106.000000	68.615215
1105.000000	68.628271
1104.000000	68.620972
1103.000000	68.623748
1102.000000	68.617271
1101.000000	68.620252
1100.000000	68.592905
1099.000000	68.611411
1098.000000	68.606476
1097.000000	68.599690
1096.000000	68.603494
1095.000000	68.580362
1094.000000	68.560211
1093.000000	68.557641
1092.000000	68.538416
1091.000000	68.521555
1090.000000	68.509218
1089.000000	68.463776
1088.000000	68.448046
1087.000000	68.435401
1086.000000	68.410727
1085.000000	68.386772
1084.000000	68.369706
1083.000000	68.327040
1082.000000	68.298150
1081.000000	68.261036
1080.000000	68.255896
1079.000000	68.207267
1078.000000	68.177144
1077.000000	68.155245
1076.000000	68.136842
1075.000000	68.109598
1074.000000	68.080194
1073.000000	68.039687
1072.000000	68.015527
1071.000000	67.977076
1070.000000	67.951991
1069.000000	67.938214
1068.000000	67.891539
1067.000000	67.851855
1066.000000	67.835405
1065.000000	67.798394
1064.000000	67.770224
1063.000000	67.737119
1062.000000	67.696304
1061.000000	67.649937
1060.000000	67.626085
1059.000000	67.579615
1058.000000	67.539108
1057.000000	67.505078
1056.000000	67.456552
1055.000000	67.438561
1054.000000	67.394353
1053.000000	67.334826
1052.000000	67.305422
1051.000000	67.299357
1050.000000	67.268617
1049.000000	67.223072
1048.000000	67.194697
1047.000000	67.170639
1046.000000	67.146685
1045.000000	67.117487
1044.000000	67.097336
1043.000000	67.072456
1042.000000	67.052306
1041.000000	67.019098
1040.000000	67.006761
1039.000000	66.972628
1038.000000	66.948057
1037.000000	66.938393
1036.000000	66.921429
1035.000000	66.876810
1034.000000	66.874857
1033.000000	66.835995
1032.000000	66.809264
1031.000000	66.798366
1030.000000	66.770916
1029.000000	66.752102
1028.000000	66.726605
1027.000000	66.686510
1026.000000	66.677668
1025.000000	66.669341
1024.000000	66.647853
1023.000000	66.605599
1022.000000	66.583906
1021.000000	66.566428
1020.000000	66.532296
1019.000000	66.520473
1018.000000	66.506490
1017.000000	66.485723
1016.000000	66.468657
1015.000000	66.441720
1014.000000	66.446141
1013.000000	66.452001
1012.000000	66.457245
1011.000000	66.462488
1010.000000	66.503201
1009.000000	66.537950
1008.000000	66.576298
1007.000000	66.614235
1006.000000	66.648984
1005.000000	66.694426
1004.000000	66.754775
1003.000000	66.794460
1002.000000	66.839285
1001.000000	66.874240
1000.000000	66.914541
999.000000	66.944973
998.000000	66.992265
997.000000	67.034725
996.000000	67.070092
995.000000	67.124786
994.000000	67.193771
993.000000	67.236232
992.000000	67.291543
991.000000	67.366080
990.000000	67.424373
989.000000	67.487498
988.000000	67.545791
987.000000	67.624337
986.000000	67.701342
985.000000	67.776392
984.000000	67.846714
983.000000	67.934616
982.000000	68.006583
981.000000	68.070839
980.000000	68.159563
979.000000	68.246746
978.000000	68.315525
977.000000	68.379061
976.000000	68.452981
975.000000	68.532247
974.000000	68.614906
973.000000	68.691499
972.000000	68.764083
971.000000	68.843863
970.000000	68.920970
969.000000	69.000955
968.000000	69.072511
967.000000	69.154656
966.000000	69.247081
965.000000	69.335395
964.000000	69.419081
963.000000	69.508012
962.000000	69.604241
961.000000	69.705303
960.000000	69.788167
959.000000	69.877611
958.000000	69.978776
957.000000	70.076650
956.000000	70.178226
955.000000	70.272400
954.000000	70.348170
953.000000	70.436997
952.000000	70.539704
951.000000	70.621335
950.000000	70.710573
949.000000	70.832197
948.000000	70.923800
947.000000	71.007281
946.000000	71.106184
945.000000	71.183600
944.000000	71.268726
943.000000	71.365058
942.000000	71.454091
941.000000	71.521637
940.000000	71.591856
939.000000	71.673281
938.000000	71.758715
937.000000	71.837981
936.000000	71.895144
935.000000	71.954670
934.000000	72.028385
933.000000	72.104875
932.000000	72.164299
931.000000	72.219918
930.000000	72.280473
929.000000	72.346066
928.000000	72.412069
927.000000	72.473447
926.000000	72.528552
925.000000	72.602781
924.000000	72.664569
923.000000	72.721217
922.000000	72.759051
921.000000	72.814671
920.000000	72.874198
919.000000	72.927967
918.000000	72.982764
917.000000	73.062030
916.000000	73.109528
915.000000	73.143044
914.000000	73.189411
913.000000	73.239068
912.000000	73.325942
911.000000	73.367477
910.000000	73.403872
909.000000	73.451267
908.000000	73.510588
907.000000	73.595509
906.000000	73.657914
905.000000	73.711169
904.000000	73.775939
903.000000	73.843691
902.000000	73.916068
901.000000	74.004073
900.000000	74.081592
899.000000	74.158493
898.000000	74.237039
897.000000	74.309931
896.000000	74.384262
895.000000	74.433303
894.000000	74.517812
893.000000	74.590601
892.000000	74.643239
891.000000	74.687550
890.000000	74.752937
889.000000	74.806090
888.000000	74.862738
887.000000	74.884019
886.000000	74.918152
885.000000	74.936966
884.000000	74.976959
883.000000	74.982716
882.000000	75.025896
881.000000	75.037719
880.000000	75.049131
879.000000	75.064758
878.000000	75.084600
877.000000	75.074731
876.000000	75.087787
875.000000	75.067945
874.000000	75.011914
873.000000	74.912909
872.000000	74.813903
871.000000	74.783780
870.000000	74.732992
869.000000	74.722094
868.000000	74.796220
867.000000	74.864999
866.000000	75.002250
865.000000	75.087376
864.000000	75.150090
863.000000	75.213523
862.000000	75.328567
861.000000	75.425311
860.000000	75.508689
859.000000	75.596180
858.000000	75.688400
857.000000	75.598700
856.000000	75.541700
855.000000	75.924800
854.000000	76.512300
853.000000	76.883700
852.000000	76.516700
851.000000	77.190500
850.000000	77.284500
849.000000	77.422500
848.000000	77.536600
847.000000	77.738600
846.000000	77.910900
845.000000	78.247400
844.000000	78.189200
843.000000	78.095100
842.000000	78.776300
841.000000	79.439600
840.000000	78.917900
839.000000	78.945100
838.000000	79.021200
837.000000	79.517800
836.000000	79.472400
835.000000	79.995800
834.000000	80.163000
833.000000	80.249500
832.000000	80.522100
831.000000	80.799200
830.000000	80.995400
829.000000	81.253300
828.000000	81.179300
827.000000	81.505600
826.000000	81.670400
825.000000	81.804300
824.000000	82.403200
823.000000	82.609900
822.000000	82.803900
821.000000	82.857600
820.000000	83.326600
819.000000	83.382500
818.000000	83.617000
817.000000	83.835700
816.000000	84.210800
815.000000	84.394400
814.000000	84.629500
813.000000	84.768800
812.000000	84.777800
811.000000	85.069700
810.000000	85.184000
809.000000	85.387100
808.000000	85.573200
807.000000	85.682300
806.000000	85.667800
805.000000	86.095800
804.000000	85.881500
803.000000	86.112100
802.000000	85.957800
801.000000	86.222700
800.000000	86.064600
799.000000	86.241100
798.000000	86.232400
797.000000	86.294900
796.000000	86.382000
795.000000	86.433200
794.000000	86.413300
793.000000	86.392600
792.000000	86.527000
791.000000	86.525200
790.000000	86.499000
789.000000	86.641400
788.000000	86.757100
787.000000	86.783600
786.000000	86.846300
785.000000	86.949100
784.000000	86.871500
783.000000	86.841000
782.000000	87.060200
781.000000	87.143100
780.000000	87.271400
779.000000	87.424200
778.000000	87.574100
777.000000	87.377900
776.000000	87.693900
775.000000	87.715000
774.000000	87.815700
773.000000	87.879600
772.000000	88.038200
771.000000	88.200800
770.000000	88.074700
769.000000	88.364300
768.000000	88.266700
767.000000	88.273500
766.000000	88.495400
765.000000	88.408700
764.000000	88.354300
763.000000	88.543900
762.000000	88.572700
761.000000	88.320000
760.000000	88.519500
759.000000	88.447700
758.000000	88.423600
757.000000	88.336200
756.000000	88.280000
755.000000	88.139000
754.000000	88.123000
753.000000	87.964500
752.000000	87.921000
751.000000	87.715600
750.000000	87.589800
749.000000	87.400600
748.000000	87.253100
747.000000	87.125800
746.000000	86.820500
745.000000	86.736000
744.000000	86.560500
743.000000	86.265600
742.000000	86.066800
741.000000	85.863700
740.000000	85.674000
739.000000	85.435500
738.000000	85.214000
737.000000	85.071700
736.000000	84.703200
735.000000	84.452400
734.000000	84.113700
733.000000	83.794400
732.000000	83.439600
731.000000	83.216800
730.000000	82.893400
729.000000	82.507300
728.000000	82.119000
727.000000	81.738500
726.000000	81.447800
725.000000	81.007000
724.000000	80.603200
723.000000	80.323100
722.000000	79.938200
721.000000	79.519100
720.000000	79.208300
719.000000	78.793600
718.000000	78.529700
717.000000	78.253500
716.000000	77.890000
715.000000	77.600300
714.000000	77.351000
713.000000	77.089700
712.000000	76.792900
711.000000	76.547100
710.000000	76.367300
709.000000	76.099100
708.000000	75.888600
707.000000	75.732900
706.000000	75.533200
705.000000	75.420400
704.000000	75.294200
703.000000	75.165900
702.000000	75.041900
701.000000	74.986500
700.000000	74.892300
699.000000	74.810200
698.000000	74.808100
697.000000	74.688500
696.000000	74.662000
695.000000	74.633500
694.000000	74.554800
693.000000	74.439000
692.000000	74.400100
691.000000	74.371200
690.000000	74.299200
689.000000	74.175600
688.000000	73.983400
687.000000	73.869800
686.000000	73.793100
685.000000	73.676900
684.000000	73.559800
683.000000	73.349400
682.000000	73.199800
681.000000	73.026100
680.000000	72.846700
679.000000	72.672400
678.000000	72.419400
677.000000	72.093100
676.000000	71.820700
675.000000	71.515700
674.000000	71.117200
673.000000	70.756900
672.000000	70.307500
671.000000	69.810400
670.000000	69.307900
669.000000	68.796500
668.000000	68.259400
667.000000	67.625300
666.000000	67.046100
665.000000	66.417300
664.000000	65.703800
663.000000	65.007500
662.000000	64.338600
661.000000	63.637400
660.000000	62.919700
659.000000	62.175600
658.000000	61.448100
657.000000	60.752800
656.000000	60.041600
655.000000	59.334600
654.000000	58.695700
653.000000	58.068000
652.000000	57.487000
651.000000	57.002300
650.000000	56.602100
649.000000	56.252500
648.000000	55.997000
647.000000	55.878800
646.000000	55.786800
645.000000	55.790200
644.000000	55.943400
643.000000	56.185300
642.000000	56.500100
641.000000	56.924300
640.000000	57.428000
639.000000	58.000900
638.000000	58.670600
637.000000	59.418400
636.000000	60.220300
635.000000	61.066800
634.000000	61.959200
633.000000	62.884500
632.000000	63.842400
631.000000	64.790800
630.000000	65.789000
629.000000	66.773800
628.000000	67.765000
627.000000	68.798100
626.000000	69.775400
625.000000	70.723100
624.000000	71.676100
623.000000	72.608000
622.000000	73.515300
621.000000	74.388500
620.000000	75.224800
619.000000	76.049100
618.000000	76.839600
617.000000	77.619500
616.000000	78.346700
615.000000	79.075600
614.000000	79.752900
613.000000	80.441100
612.000000	81.134600
611.000000	81.793000
610.000000	82.380300
609.000000	83.046500
608.000000	83.647600
607.000000	84.195400
606.000000	84.716200
605.000000	85.200400
604.000000	85.676900
603.000000	86.110000
602.000000	86.553300
601.000000	86.992900
600.000000	87.392800
599.000000	87.757200
598.000000	88.096700
597.000000	88.418400
596.000000	88.728600
595.000000	89.070100
594.000000	89.350600
593.000000	89.633500
592.000000	89.944300
591.000000	90.190700
590.000000	90.435300
589.000000	90.646200
588.000000	90.846600
587.000000	91.036500
586.000000	91.181900
585.000000	91.299900
584.000000	91.334600
583.000000	91.451800
582.000000	91.510100
581.000000	91.499700
580.000000	91.542800
579.000000	91.556100
578.000000	91.546800
577.000000	91.537300
576.000000	91.491800
575.000000	91.450700
574.000000	91.424500
573.000000	91.300800
572.000000	91.272000
571.000000	91.183600
570.000000	91.088300
569.000000	90.994800
568.000000	90.869400
567.000000	90.731100
566.000000	90.539400
565.000000	90.385500
564.000000	90.261100
563.000000	90.043100
562.000000	89.791500
561.000000	89.541500
560.000000	89.316000
559.000000	89.039100
558.000000	88.742300
557.000000	88.389800
556.000000	88.036400
555.000000	87.688900
554.000000	87.315800
553.000000	86.910000
552.000000	86.453200
551.000000	85.988500
550.000000	85.546500
549.000000	84.994400
548.000000	84.455400
547.000000	83.915100
546.000000	83.295700
545.000000	82.663700
544.000000	81.933700
543.000000	81.234000
542.000000	80.432300
541.000000	79.583100
540.000000	78.658300
539.000000	77.700800
538.000000	76.693500
537.000000	75.630900
536.000000	74.526500
535.000000	73.318800
534.000000	72.077900
533.000000	70.769600
532.000000	69.417900
531.000000	67.995200
530.000000	66.551000
529.000000	65.047400
528.000000	63.544400
527.000000	62.008200
526.000000	60.431500
525.000000	58.904300
524.000000	57.323900
523.000000	55.806600
522.000000	54.282500
521.000000	52.788800
520.000000	51.360700
519.000000	50.025900
518.000000	48.721900
517.000000	47.542700
516.000000	46.414100
515.000000	45.411400
514.000000	44.456800
513.000000	43.615800
512.000000	42.828600
511.000000	42.134700
510.000000	41.509500
509.000000	41.011000
508.000000	40.501200
507.000000	40.118500
506.000000	39.690000
505.000000	39.304500
504.000000	38.911300
503.000000	38.557000
502.000000	38.174100
501.000000	37.793400
500.000000	37.446700
499.000000	36.992600
498.000000	36.601600
497.000000	36.125700
496.000000	35.704800
495.000000	35.230600
494.000000	34.781800
493.000000	34.269200
492.000000	33.798700
491.000000	33.271400
490.000000	32.781700
489.000000	32.323500
488.000000	31.882300
487.000000	31.425300
486.000000	31.057100
485.000000	30.676300
484.000000	30.309400
483.000000	30.032600
482.000000	29.798200
481.000000	29.586100
480.000000	29.441600
479.000000	29.303300
478.000000	29.242900
477.000000	29.194600
476.000000	29.214400
475.000000	29.234800
474.000000	29.263000
473.000000	29.330900
472.000000	29.414800
471.000000	29.491700
470.000000	29.615300
469.000000	29.693400
468.000000	29.788800
467.000000	29.892100
466.000000	29.982300
465.000000	30.014400
464.000000	30.052600
463.000000	30.103000
462.000000	30.112900
461.000000	30.159600
460.000000	30.169300
459.000000	30.199200
458.000000	30.101800
457.000000	30.102600
456.000000	30.019100
455.000000	29.975400
454.000000	29.852600
453.000000	29.750400
452.000000	29.600000
451.000000	29.487400
450.000000	29.312700
449.000000	29.175800
448.000000	29.049700
447.000000	28.818500
446.000000	28.625500
445.000000	28.399400
444.000000	28.170300
443.000000	27.937400
442.000000	27.694900
441.000000	27.388800
440.000000	27.063100
439.000000	26.764200
438.000000	26.440600
437.000000	26.116100
436.000000	25.799100
435.000000	25.405700
434.000000	25.027800
433.000000	24.630400
432.000000	24.212000
431.000000	23.823200
430.000000	23.344500
429.000000	22.877100
428.000000	22.417000
427.000000	21.931700
426.000000	21.454300
425.000000	20.935900
424.000000	20.340700
423.000000	19.822600
422.000000	19.259200
421.000000	18.667300
420.000000	18.102100
419.000000	17.543900
418.000000	16.982000
417.000000	16.406900
416.000000	15.855300
415.000000	15.320500
414.000000	14.775600
413.000000	14.233000
412.000000	13.726600
411.000000	13.249400
410.000000	12.796900
409.000000	12.348900
408.000000	11.933900
407.000000	11.540800
406.000000	11.150500
405.000000	10.822800
404.000000	10.492700
403.000000	10.174000
402.000000	9.899100
401.000000	9.667500
400.000000	9.428300
399.000000	9.205700
398.000000	9.026000
397.000000	8.842300
396.000000	8.666800
395.000000	8.517500
394.000000	8.393000
393.000000	8.261100
392.000000	8.135000
391.000000	8.010900
390.000000	7.898600
389.000000	7.822900
388.000000	7.745600
387.000000	7.633600
386.000000	7.552300
385.000000	7.470600
384.000000	7.393200
383.000000	7.318700
382.000000	7.261900
381.000000	7.213300
380.000000	7.137900
379.000000	7.068500
378.000000	7.016200
377.000000	6.972500
376.000000	6.965000
375.000000	6.863800
374.000000	6.618300
373.000000	6.655400
372.000000	6.556800
371.000000	6.484500
370.000000	6.683800
369.000000	6.723500
368.000000	6.553000
367.000000	6.523000
366.000000	6.364500
365.000000	6.359100
364.000000	6.419000
363.000000	6.367700
362.000000	6.498600
361.000000	6.369000
360.000000	6.239200
359.000000	6.154000
358.000000	6.067200
357.000000	6.119800
356.000000	6.205200
355.000000	6.097300
354.000000	5.985000
353.000000	6.101100
352.000000	6.147300
351.000000	6.023500
350.000000	6.050100
349.000000	6.100700
348.000000	5.981000
347.000000	5.926400
346.000000	5.872000
345.000000	5.895900
344.000000	5.995500
343.000000	6.018500
342.000000	6.039800
341.000000	5.998700
340.000000	6.082200
339.000000	5.911500
338.000000	5.794000
337.000000	6.047400
336.000000	5.917000
335.000000	5.759700
334.000000	5.947200
333.000000	5.922700
332.000000	5.855800
331.000000	5.973800
330.000000	6.032900
329.000000	5.958500
328.000000	5.772600
327.000000	5.925700
326.000000	6.120400
325.000000	6.346900
324.000000	6.125500
323.000000	6.107600
322.000000	6.251300
321.000000	6.182200
320.000000	6.432400
319.000000	6.455700
318.000000	6.218100
317.000000	5.988800
316.000000	5.802100
315.000000	5.714300
314.000000	5.728900
313.000000	5.758400
312.000000	5.751700
311.000000	5.738900
310.000000	5.765400
309.000000	5.809500
308.000000	5.801700
307.000000	5.801000
306.000000	5.802000
305.000000	5.775900
304.000000	5.755300
303.000000	5.771200
302.000000	5.761800
301.000000	5.779700
300.000000	5.767800
299.000000	5.791200
298.000000	5.792000
297.000000	5.751800
296.000000	5.774800
295.000000	5.799600
294.000000	5.806600
293.000000	5.827400
292.000000	5.803000
291.000000	5.809900
290.000000	5.799700
289.000000	5.786900
288.000000	5.805600
287.000000	5.795800
286.000000	5.816200
285.000000	5.800900
284.000000	5.785400
283.000000	5.810800
282.000000	5.800200
281.000000	5.818000
280.000000	5.833700
279.000000	5.820000
278.000000	5.833900
277.000000	5.849200
276.000000	5.847500
275.000000	5.840900
274.000000	5.860700
273.000000	5.903200
272.000000	5.943900
271.000000	5.926300
270.000000	5.938700
269.000000	5.955600
268.000000	5.943500
267.000000	5.969000
266.000000	6.000400
265.000000	6.032900
264.000000	6.069500
263.000000	6.116800
262.000000	6.066400
261.000000	6.092800
260.000000	6.162100
259.000000	6.178800
258.000000	6.215300
257.000000	6.224800
256.000000	6.232700
255.000000	6.239800
254.000000	6.242500
253.000000	6.227000
252.000000	6.268500
251.000000	6.263900
250.000000	6.325000
