PE UV       SUBTECH     SPECTRUM    ASCII       PEDS        4.00        
   -1
CICIMAUCR0210-1.ASC
24/06/06
15:45:06.00
24/06/06
15:45:06.00
Vinicio Soto Monge
C. resplendens. Sex F. Dorsal
250,000000
1
Lambda 1050
1050L1511233
PerkinElmer UV WinLab 6.3.2.0749 / 2.02.05 Lambda 900 UV/VIS/NIR, Aug  7 2015 09:38:08

0
0
3350/servo 860,8/2
0
0
UV/VIS
1
1
1
DoubleDePol,CommonBeamDepol,RBeamAtt,SBeamAtt,60mm sphere, WB InGaAs Detector
0
0
0
0
Program
Program
3350/servo 860,8/2
3350/0,2 860,8/0,2
3350/0,2 860,8/0,2
0
15.00
 
 
 
0
 
860,8
319,2
860,8
Front
100
on
S:100 R:100
0
0
0
0
 
0
 
 
 
0
 
 
0
0
0
0
0
 
 
 
 
0
0


0
0
#HDR
-1
-1
#GR
nm
%R
1.0
0.0
2500,000000
-1,000000
2251
8
90,354900
5,149100
#DATA
2482.000000	5.463204
2481.000000	5.479667
2480.000000	5.483571
2479.000000	5.476079
2478.000000	5.479561
2477.000000	5.436717
2476.000000	5.477029
2475.000000	5.486526
2474.000000	5.453601
2473.000000	5.489586
2472.000000	5.527682
2471.000000	5.505416
2470.000000	5.455184
2469.000000	5.447797
2468.000000	5.462888
2467.000000	5.433762
2466.000000	5.492225
2465.000000	5.494757
2464.000000	5.542245
2463.000000	5.532748
2462.000000	5.560818
2461.000000	5.601130
2460.000000	5.531798
2459.000000	5.577703
2458.000000	5.594798
2457.000000	5.659593
2456.000000	5.635849
2455.000000	5.666030
2454.000000	5.699060
2453.000000	5.723015
2452.000000	5.729136
2451.000000	5.774724
2450.000000	5.791503
2449.000000	5.809232
2448.000000	5.843001
2447.000000	5.868433
2446.000000	5.919087
2445.000000	5.933017
2444.000000	5.967947
2443.000000	5.969952
2442.000000	5.991268
2441.000000	6.048148
2440.000000	6.099435
2439.000000	6.114420
2438.000000	6.138269
2437.000000	6.180797
2436.000000	6.194727
2435.000000	6.230607
2434.000000	6.237677
2433.000000	6.264481
2432.000000	6.289175
2431.000000	6.300255
2430.000000	6.349643
2429.000000	6.373703
2428.000000	6.395864
2427.000000	6.421613
2426.000000	6.448101
2425.000000	6.468573
2424.000000	6.473533
2423.000000	6.488096
2422.000000	6.518805
2421.000000	6.532735
2420.000000	6.550147
2419.000000	6.576740
2418.000000	6.579589
2417.000000	6.588348
2416.000000	6.622750
2415.000000	6.626022
2414.000000	6.647338
2413.000000	6.664012
2412.000000	6.663379
2411.000000	6.683007
2410.000000	6.693876
2409.000000	6.709917
2408.000000	6.734716
2407.000000	6.749384
2406.000000	6.762364
2405.000000	6.773761
2404.000000	6.787902
2403.000000	6.805736
2402.000000	6.813546
2401.000000	6.831485
2400.000000	6.856496
2399.000000	6.893008
2398.000000	6.943451
2397.000000	6.990622
2396.000000	7.040959
2395.000000	7.066497
2394.000000	7.069135
2393.000000	7.079266
2392.000000	7.099739
2391.000000	7.118100
2390.000000	7.131925
2389.000000	7.158834
2388.000000	7.188277
2387.000000	7.191654
2386.000000	7.201890
2385.000000	7.226795
2384.000000	7.250539
2383.000000	7.262463
2382.000000	7.273755
2381.000000	7.275232
2380.000000	7.276604
2379.000000	7.275443
2378.000000	7.271222
2377.000000	7.277448
2376.000000	7.295388
2375.000000	7.288318
2374.000000	7.287474
2373.000000	7.298448
2372.000000	7.288529
2371.000000	7.277976
2370.000000	7.285046
2369.000000	7.284308
2368.000000	7.262463
2367.000000	7.243679
2366.000000	7.221307
2365.000000	7.206744
2364.000000	7.192920
2363.000000	7.182051
2362.000000	7.165166
2361.000000	7.125382
2360.000000	7.101849
2359.000000	7.090030
2358.000000	7.055311
2357.000000	7.020381
2356.000000	7.013205
2355.000000	7.004341
2354.000000	6.985557
2353.000000	6.981125
2352.000000	6.982391
2351.000000	6.976587
2350.000000	6.983235
2349.000000	6.994949
2348.000000	7.013838
2347.000000	7.047819
2346.000000	7.077789
2345.000000	7.101955
2344.000000	7.113879
2343.000000	7.145960
2342.000000	7.199357
2341.000000	7.230383
2340.000000	7.239036
2339.000000	7.263941
2338.000000	7.304991
2337.000000	7.317338
2336.000000	7.335594
2335.000000	7.352373
2334.000000	7.341610
2333.000000	7.353112
2332.000000	7.357544
2331.000000	7.337072
2330.000000	7.316705
2329.000000	7.319449
2328.000000	7.294649
2327.000000	7.264996
2326.000000	7.245051
2325.000000	7.207694
2324.000000	7.179096
2323.000000	7.151342
2322.000000	7.128442
2321.000000	7.083804
2320.000000	7.025658
2319.000000	6.974898
2318.000000	6.934481
2317.000000	6.881189
2316.000000	6.840666
2315.000000	6.790962
2314.000000	6.735666
2313.000000	6.683535
2312.000000	6.625283
2311.000000	6.577373
2310.000000	6.551413
2309.000000	6.509096
2308.000000	6.492001
2307.000000	6.460131
2306.000000	6.445674
2305.000000	6.461608
2304.000000	6.459603
2303.000000	6.470789
2302.000000	6.484719
2301.000000	6.513739
2300.000000	6.569142
2299.000000	6.600378
2298.000000	6.658419
2297.000000	6.705273
2296.000000	6.747907
2295.000000	6.795817
2294.000000	6.854068
2293.000000	6.924245
2292.000000	6.962446
2291.000000	6.982496
2290.000000	7.027874
2289.000000	7.068186
2288.000000	7.079160
2287.000000	7.078527
2286.000000	7.075995
2285.000000	7.075784
2284.000000	7.087181
2283.000000	7.061326
2282.000000	7.043386
2281.000000	7.015421
2280.000000	6.994949
2279.000000	6.982813
2278.000000	6.930999
2277.000000	6.904194
2276.000000	6.873697
2275.000000	6.856285
2274.000000	6.836867
2273.000000	6.803098
2272.000000	6.796872
2271.000000	6.793179
2270.000000	6.811540
2269.000000	6.817028
2268.000000	6.834335
2267.000000	6.846365
2266.000000	6.895225
2265.000000	6.948833
2264.000000	6.998537
2263.000000	7.087814
2262.000000	7.156618
2261.000000	7.264257
2260.000000	7.352268
2259.000000	7.506128
2258.000000	7.618622
2257.000000	7.740823
2256.000000	7.909563
2255.000000	8.057620
2254.000000	8.215279
2253.000000	8.361858
2252.000000	8.498306
2251.000000	8.650478
2250.000000	8.816580
2249.000000	8.940470
2248.000000	9.070164
2247.000000	9.214211
2246.000000	9.336413
2245.000000	9.465368
2244.000000	9.563299
2243.000000	9.654475
2242.000000	9.723491
2241.000000	9.842421
2240.000000	9.915447
2239.000000	10.008734
2238.000000	10.074267
2237.000000	10.147504
2236.000000	10.214092
2235.000000	10.243957
2234.000000	10.337138
2233.000000	10.388003
2232.000000	10.421878
2231.000000	10.450792
2230.000000	10.516114
2229.000000	10.542496
2228.000000	10.553999
2227.000000	10.602437
2226.000000	10.605602
2225.000000	10.613834
2224.000000	10.639688
2223.000000	10.633990
2222.000000	10.646547
2221.000000	10.636839
2220.000000	10.658050
2219.000000	10.657206
2218.000000	10.605919
2217.000000	10.599165
2216.000000	10.594944
2215.000000	10.556848
2214.000000	10.570884
2213.000000	10.545662
2212.000000	10.543341
2211.000000	10.506933
2210.000000	10.507250
2209.000000	10.510943
2208.000000	10.485300
2207.000000	10.468521
2206.000000	10.478968
2205.000000	10.461240
2204.000000	10.473586
2203.000000	10.449420
2202.000000	10.434224
2201.000000	10.427893
2200.000000	10.422300
2199.000000	10.406365
2198.000000	10.413330
2197.000000	10.415440
2196.000000	10.393912
2195.000000	10.399189
2194.000000	10.390008
2193.000000	10.388425
2192.000000	10.354339
2191.000000	10.359616
2190.000000	10.347797
2189.000000	10.343575
2188.000000	10.324686
2187.000000	10.313394
2186.000000	10.307801
2185.000000	10.308962
2184.000000	10.284163
2183.000000	10.274032
2182.000000	10.277409
2181.000000	10.253982
2180.000000	10.232665
2179.000000	10.224539
2178.000000	10.222323
2177.000000	10.203856
2176.000000	10.202167
2175.000000	10.194358
2174.000000	10.189082
2173.000000	10.181695
2172.000000	10.192037
2171.000000	10.176841
2170.000000	10.201007
2169.000000	10.178951
2168.000000	10.179795
2167.000000	10.176946
2166.000000	10.176630
2165.000000	10.197208
2164.000000	10.222640
2163.000000	10.229394
2162.000000	10.241741
2161.000000	10.230238
2160.000000	10.233193
2159.000000	10.261791
2158.000000	10.296299
2157.000000	10.283635
2156.000000	10.293238
2155.000000	10.325108
2154.000000	10.346636
2153.000000	10.342415
2152.000000	10.376500
2151.000000	10.368902
2150.000000	10.392330
2149.000000	10.410480
2148.000000	10.430320
2147.000000	10.451003
2146.000000	10.474853
2145.000000	10.481923
2144.000000	10.500074
2143.000000	10.518330
2142.000000	10.514742
2141.000000	10.536692
2140.000000	10.565924
2139.000000	10.571411
2138.000000	10.584075
2137.000000	10.585552
2136.000000	10.597688
2135.000000	10.614256
2134.000000	10.620376
2133.000000	10.626180
2132.000000	10.640954
2131.000000	10.636417
2130.000000	10.626603
2129.000000	10.626497
2128.000000	10.636839
2127.000000	10.643593
2126.000000	10.622804
2125.000000	10.616155
2124.000000	10.602120
2123.000000	10.597266
2122.000000	10.590406
2121.000000	10.577426
2120.000000	10.564130
2119.000000	10.548301
2118.000000	10.553155
2117.000000	10.542602
2116.000000	10.519280
2115.000000	10.494059
2114.000000	10.470843
2113.000000	10.456385
2112.000000	10.438973
2111.000000	10.426521
2110.000000	10.399505
2109.000000	10.360988
2108.000000	10.352440
2107.000000	10.357927
2106.000000	10.337244
2105.000000	10.301048
2104.000000	10.276670
2103.000000	10.259047
2102.000000	10.244062
2101.000000	10.216203
2100.000000	10.189398
2099.000000	10.180218
2098.000000	10.152252
2097.000000	10.139695
2096.000000	10.132097
2095.000000	10.107614
2094.000000	10.087141
2093.000000	10.068568
2092.000000	10.046724
2091.000000	10.035855
2090.000000	10.022664
2089.000000	10.001452
2088.000000	9.977814
2087.000000	9.959241
2086.000000	9.947105
2085.000000	9.940563
2084.000000	9.925472
2083.000000	9.913758
2082.000000	9.896241
2081.000000	9.858989
2080.000000	9.836089
2079.000000	9.827436
2078.000000	9.809918
2077.000000	9.783220
2076.000000	9.753039
2075.000000	9.742169
2074.000000	9.738792
2073.000000	9.724124
2072.000000	9.699008
2071.000000	9.657641
2070.000000	9.622606
2069.000000	9.615957
2068.000000	9.599284
2067.000000	9.570897
2066.000000	9.550108
2065.000000	9.524781
2064.000000	9.502092
2063.000000	9.486896
2062.000000	9.470117
2061.000000	9.453655
2060.000000	9.447217
2059.000000	9.432654
2058.000000	9.426956
2057.000000	9.416720
2056.000000	9.421468
2055.000000	9.415031
2054.000000	9.406272
2053.000000	9.436137
2052.000000	9.459459
2051.000000	9.488057
2050.000000	9.510323
2049.000000	9.522248
2048.000000	9.549474
2047.000000	9.598545
2046.000000	9.642973
2045.000000	9.681174
2044.000000	9.719586
2043.000000	9.768024
2042.000000	9.808230
2041.000000	9.861838
2040.000000	9.895924
2039.000000	9.924417
2038.000000	9.953543
2037.000000	9.997970
2036.000000	10.036171
2035.000000	10.076694
2034.000000	10.116162
2033.000000	10.134629
2032.000000	10.148559
2031.000000	10.173886
2030.000000	10.201112
2029.000000	10.234143
2028.000000	10.250499
2027.000000	10.259469
2026.000000	10.276670
2025.000000	10.304530
2024.000000	10.304741
2023.000000	10.297882
2022.000000	10.312022
2021.000000	10.310545
2020.000000	10.318776
2019.000000	10.313183
2018.000000	10.328696
2017.000000	10.320148
2016.000000	10.323103
2015.000000	10.305269
2014.000000	10.301575
2013.000000	10.280892
2012.000000	10.278992
2011.000000	10.268228
2010.000000	10.250077
2009.000000	10.237625
2008.000000	10.216097
2007.000000	10.201534
2006.000000	10.178107
2005.000000	10.157318
2004.000000	10.131147
2003.000000	10.094317
2002.000000	10.084081
2001.000000	10.040709
2000.000000	9.994804
1999.000000	9.969899
1998.000000	9.926105
1997.000000	9.891597
1996.000000	9.848331
1995.000000	9.808336
1994.000000	9.776994
1993.000000	9.720114
1992.000000	9.692360
1991.000000	9.654475
1990.000000	9.591369
1989.000000	9.546942
1988.000000	9.505152
1987.000000	9.456715
1986.000000	9.417775
1985.000000	9.368071
1984.000000	9.327759
1983.000000	9.281749
1982.000000	9.227613
1981.000000	9.168200
1980.000000	9.118708
1979.000000	9.060456
1978.000000	9.020461
1977.000000	8.980360
1976.000000	8.944586
1975.000000	8.876625
1974.000000	8.855836
1973.000000	8.811725
1972.000000	8.744820
1971.000000	8.711368
1970.000000	8.670317
1969.000000	8.598769
1968.000000	8.561623
1967.000000	8.519517
1966.000000	8.478994
1965.000000	8.443642
1964.000000	8.416838
1963.000000	8.365024
1962.000000	8.321230
1961.000000	8.278807
1960.000000	8.261078
1959.000000	8.213907
1958.000000	8.186153
1957.000000	8.141409
1956.000000	8.084846
1955.000000	8.075137
1954.000000	8.026278
1953.000000	7.983750
1952.000000	7.973936
1951.000000	7.932041
1950.000000	7.892468
1949.000000	7.866191
1948.000000	7.830100
1947.000000	7.805618
1946.000000	7.797387
1945.000000	7.766467
1944.000000	7.726894
1943.000000	7.739557
1942.000000	7.709270
1941.000000	7.693969
1940.000000	7.669908
1939.000000	7.654079
1938.000000	7.663260
1937.000000	7.650069
1936.000000	7.634240
1935.000000	7.662416
1934.000000	7.654923
1933.000000	7.679828
1932.000000	7.650491
1931.000000	7.670964
1930.000000	7.708321
1929.000000	7.722039
1928.000000	7.760557
1927.000000	7.817015
1926.000000	7.836749
1925.000000	7.891835
1924.000000	7.906186
1923.000000	7.946815
1922.000000	8.016253
1921.000000	8.073765
1920.000000	8.130751
1919.000000	8.201033
1918.000000	8.294636
1917.000000	8.349722
1916.000000	8.453140
1915.000000	8.522261
1914.000000	8.619242
1913.000000	8.722132
1912.000000	8.815630
1911.000000	8.932239
1910.000000	9.031858
1909.000000	9.169256
1908.000000	9.276050
1907.000000	9.397830
1906.000000	9.505680
1905.000000	9.667244
1904.000000	9.819522
1903.000000	9.970638
1902.000000	10.130830
1901.000000	10.271711
1900.000000	10.466199
1899.000000	10.657100
1898.000000	10.840931
1897.000000	11.073937
1896.000000	11.296391
1895.000000	11.464815
1894.000000	11.679143
1893.000000	11.901069
1892.000000	12.134498
1891.000000	12.431138
1890.000000	12.719441
1889.000000	13.049956
1888.000000	13.336466
1887.000000	13.649674
1886.000000	14.004355
1885.000000	14.380669
1884.000000	14.799828
1883.000000	15.253283
1882.000000	15.715076
1881.000000	16.209160
1880.000000	16.741972
1879.000000	17.208408
1878.000000	17.672099
1877.000000	18.174942
1876.000000	18.663433
1875.000000	19.120899
1874.000000	19.572244
1873.000000	20.015357
1872.000000	20.466597
1871.000000	20.870981
1870.000000	21.277582
1869.000000	21.658645
1868.000000	22.036226
1867.000000	22.319992
1866.000000	22.586556
1865.000000	22.791070
1864.000000	23.022494
1863.000000	23.199571
1862.000000	23.361029
1861.000000	23.519111
1860.000000	23.692177
1859.000000	23.841711
1858.000000	23.981641
1857.000000	24.109331
1856.000000	24.208633
1855.000000	24.270789
1854.000000	24.323553
1853.000000	24.386237
1852.000000	24.399639
1851.000000	24.415996
1850.000000	24.442484
1849.000000	24.459368
1848.000000	24.476042
1847.000000	24.480158
1846.000000	24.477836
1845.000000	24.462429
1844.000000	24.401222
1843.000000	24.357534
1842.000000	24.357323
1841.000000	24.374207
1840.000000	24.397107
1839.000000	24.375790
1838.000000	24.333262
1837.000000	24.306669
1836.000000	24.289995
1835.000000	24.276488
1834.000000	24.229950
1833.000000	24.167055
1832.000000	24.095823
1831.000000	24.037466
1830.000000	23.989345
1829.000000	23.929510
1828.000000	23.871259
1827.000000	23.801293
1826.000000	23.720775
1825.000000	23.660096
1824.000000	23.595935
1823.000000	23.543804
1822.000000	23.498216
1821.000000	23.466874
1820.000000	23.455371
1819.000000	23.433316
1818.000000	23.383929
1817.000000	23.350054
1816.000000	23.332009
1815.000000	23.311642
1814.000000	23.292330
1813.000000	23.272280
1812.000000	23.265315
1811.000000	23.238088
1810.000000	23.199782
1809.000000	23.172661
1808.000000	23.133404
1807.000000	23.096892
1806.000000	23.051725
1805.000000	22.991047
1804.000000	22.940921
1803.000000	22.890056
1802.000000	22.848056
1801.000000	22.796452
1800.000000	22.738623
1799.000000	22.681954
1798.000000	22.624652
1797.000000	22.560174
1796.000000	22.516380
1795.000000	22.466148
1794.000000	22.400404
1793.000000	22.352389
1792.000000	22.304795
1791.000000	22.250237
1790.000000	22.188503
1789.000000	22.135317
1788.000000	22.075482
1787.000000	22.010160
1786.000000	21.949904
1785.000000	21.886903
1784.000000	21.809867
1783.000000	21.749505
1782.000000	21.682495
1781.000000	21.603665
1780.000000	21.522619
1779.000000	21.459513
1778.000000	21.391764
1777.000000	21.305231
1776.000000	21.215004
1775.000000	21.142084
1774.000000	21.058505
1773.000000	20.960575
1772.000000	20.858423
1771.000000	20.761548
1770.000000	20.648633
1769.000000	20.533818
1768.000000	20.434094
1767.000000	20.324766
1766.000000	20.239500
1765.000000	20.169218
1764.000000	20.110333
1763.000000	20.067910
1762.000000	20.049865
1761.000000	20.051659
1760.000000	20.075931
1759.000000	20.142730
1758.000000	20.221665
1757.000000	20.282133
1756.000000	20.358008
1755.000000	20.431245
1754.000000	20.508491
1753.000000	20.572019
1752.000000	20.595447
1751.000000	20.616552
1750.000000	20.617819
1749.000000	20.605472
1748.000000	20.590276
1747.000000	20.545848
1746.000000	20.505009
1745.000000	20.445385
1744.000000	20.348194
1743.000000	20.253957
1742.000000	20.123840
1741.000000	19.968503
1740.000000	19.795225
1739.000000	19.592399
1738.000000	19.398544
1737.000000	19.192763
1736.000000	19.012943
1735.000000	18.855811
1734.000000	18.750177
1733.000000	18.669765
1732.000000	18.633463
1731.000000	18.648554
1730.000000	18.690976
1729.000000	18.776137
1728.000000	18.898339
1727.000000	18.997219
1726.000000	19.096944
1725.000000	19.200045
1724.000000	19.288583
1723.000000	19.381343
1722.000000	19.448142
1721.000000	19.467770
1720.000000	19.495419
1719.000000	19.534675
1718.000000	19.549660
1717.000000	19.570450
1716.000000	19.591133
1715.000000	19.638093
1714.000000	19.699722
1713.000000	19.761034
1712.000000	19.816542
1711.000000	19.858014
1710.000000	19.896427
1709.000000	19.910673
1708.000000	19.918693
1707.000000	19.901070
1706.000000	19.871628
1705.000000	19.837014
1704.000000	19.776230
1703.000000	19.717767
1702.000000	19.619626
1701.000000	19.516208
1700.000000	19.403187
1699.000000	19.253020
1698.000000	19.112245
1697.000000	18.956169
1696.000000	18.822781
1695.000000	18.732132
1694.000000	18.682639
1693.000000	18.710710
1692.000000	18.796610
1691.000000	18.910686
1690.000000	19.042491
1689.000000	19.227271
1688.000000	19.359393
1687.000000	19.464394
1686.000000	19.559053
1685.000000	19.576676
1684.000000	19.619204
1683.000000	19.675872
1682.000000	19.810421
1681.000000	20.027810
1680.000000	20.370882
1679.000000	20.790358
1678.000000	21.281381
1677.000000	21.784857
1676.000000	22.307117
1675.000000	22.755718
1674.000000	23.160947
1673.000000	23.515839
1672.000000	23.835696
1671.000000	24.094979
1670.000000	24.309307
1669.000000	24.507806
1668.000000	24.709576
1667.000000	24.814577
1666.000000	24.944060
1665.000000	25.023945
1664.000000	25.097815
1663.000000	25.192791
1662.000000	25.230992
1661.000000	25.305917
1660.000000	25.349606
1659.000000	25.379048
1658.000000	25.408913
1657.000000	25.388018
1656.000000	25.428541
1655.000000	25.443315
1654.000000	25.436878
1653.000000	25.404586
1652.000000	25.380842
1651.000000	25.358048
1650.000000	25.344118
1649.000000	25.320163
1648.000000	25.257585
1647.000000	25.222233
1646.000000	25.173268
1645.000000	25.116388
1644.000000	25.050222
1643.000000	25.004950
1642.000000	24.949337
1641.000000	24.871562
1640.000000	24.800014
1639.000000	24.736380
1638.000000	24.691214
1637.000000	24.616817
1636.000000	24.540098
1635.000000	24.462007
1634.000000	24.381700
1633.000000	24.322604
1632.000000	24.239131
1631.000000	24.140251
1630.000000	24.065114
1629.000000	23.997893
1628.000000	23.898380
1627.000000	23.815012
1626.000000	23.755600
1625.000000	23.662313
1624.000000	23.568181
1623.000000	23.485553
1622.000000	23.400813
1621.000000	23.309320
1620.000000	23.229224
1619.000000	23.161158
1618.000000	23.075469
1617.000000	23.011308
1616.000000	22.915172
1615.000000	22.836236
1614.000000	22.770809
1613.000000	22.700738
1612.000000	22.629401
1611.000000	22.565662
1610.000000	22.495907
1609.000000	22.425625
1608.000000	22.357876
1607.000000	22.283795
1606.000000	22.211508
1605.000000	22.133840
1604.000000	22.079598
1603.000000	22.008155
1602.000000	21.950009
1601.000000	21.876350
1600.000000	21.808179
1599.000000	21.720590
1598.000000	21.669304
1597.000000	21.603770
1596.000000	21.532750
1595.000000	21.478086
1594.000000	21.410654
1593.000000	21.349764
1592.000000	21.281381
1591.000000	21.234632
1590.000000	21.186089
1589.000000	21.136280
1588.000000	21.095862
1587.000000	21.041621
1586.000000	20.971655
1585.000000	20.949600
1584.000000	20.900318
1583.000000	20.839850
1582.000000	20.783076
1581.000000	20.746563
1580.000000	20.715855
1579.000000	20.667206
1578.000000	20.642935
1577.000000	20.618663
1576.000000	20.581623
1575.000000	20.560200
1574.000000	20.536140
1573.000000	20.510285
1572.000000	20.495617
1571.000000	20.461215
1570.000000	20.452245
1569.000000	20.438209
1568.000000	20.427340
1567.000000	20.407079
1566.000000	20.412038
1565.000000	20.391882
1564.000000	20.396526
1563.000000	20.394943
1562.000000	20.365606
1561.000000	20.352520
1560.000000	20.344289
1559.000000	20.337008
1558.000000	20.331837
1557.000000	20.305349
1556.000000	20.302183
1555.000000	20.276223
1554.000000	20.238444
1553.000000	20.224198
1552.000000	20.213434
1551.000000	20.189374
1550.000000	20.153388
1549.000000	20.121308
1548.000000	20.083845
1547.000000	20.072659
1546.000000	20.046066
1545.000000	20.005649
1544.000000	19.986548
1543.000000	19.955523
1542.000000	19.927980
1541.000000	19.906874
1540.000000	19.891361
1539.000000	19.864135
1538.000000	19.843135
1537.000000	19.810210
1536.000000	19.766943
1535.000000	19.738767
1534.000000	19.719350
1533.000000	19.697717
1532.000000	19.660676
1531.000000	19.614033
1530.000000	19.570027
1529.000000	19.531615
1528.000000	19.487504
1527.000000	19.453630
1526.000000	19.425559
1525.000000	19.366463
1524.000000	19.315599
1523.000000	19.281407
1522.000000	19.240462
1521.000000	19.195402
1520.000000	19.147492
1519.000000	19.099160
1518.000000	19.043757
1517.000000	18.984450
1516.000000	18.930948
1515.000000	18.880505
1514.000000	18.835444
1513.000000	18.787640
1512.000000	18.726645
1511.000000	18.665227
1510.000000	18.616367
1509.000000	18.558116
1508.000000	18.509467
1507.000000	18.464196
1506.000000	18.403622
1505.000000	18.341360
1504.000000	18.275722
1503.000000	18.220214
1502.000000	18.169560
1501.000000	18.112469
1500.000000	18.052529
1499.000000	17.993222
1498.000000	17.944152
1497.000000	17.906478
1496.000000	17.864161
1495.000000	17.809814
1494.000000	17.781005
1493.000000	17.744070
1492.000000	17.693733
1491.000000	17.653843
1490.000000	17.603401
1489.000000	17.561295
1488.000000	17.540928
1487.000000	17.498927
1486.000000	17.466319
1485.000000	17.436560
1484.000000	17.394138
1483.000000	17.366067
1482.000000	17.331665
1481.000000	17.330188
1480.000000	17.309610
1479.000000	17.277423
1478.000000	17.242599
1477.000000	17.221282
1476.000000	17.209358
1475.000000	17.188146
1474.000000	17.175694
1473.000000	17.170945
1472.000000	17.178332
1471.000000	17.174850
1470.000000	17.158071
1469.000000	17.137282
1468.000000	17.123668
1467.000000	17.131689
1466.000000	17.142980
1465.000000	17.142453
1464.000000	17.146568
1463.000000	17.160603
1462.000000	17.153639
1461.000000	17.171895
1460.000000	17.194056
1459.000000	17.206614
1458.000000	17.241438
1457.000000	17.272041
1456.000000	17.312670
1455.000000	17.361741
1454.000000	17.414399
1453.000000	17.468957
1452.000000	17.521933
1451.000000	17.593375
1450.000000	17.657431
1449.000000	17.717793
1448.000000	17.768130
1447.000000	17.848860
1446.000000	17.921463
1445.000000	18.025514
1444.000000	18.086509
1443.000000	18.156897
1442.000000	18.230767
1441.000000	18.329119
1440.000000	18.408793
1439.000000	18.504929
1438.000000	18.607186
1437.000000	18.698891
1436.000000	18.796504
1435.000000	18.900978
1434.000000	19.014104
1433.000000	19.126492
1432.000000	19.242256
1431.000000	19.364036
1430.000000	19.486027
1429.000000	19.625008
1428.000000	19.756074
1427.000000	19.896954
1426.000000	20.077091
1425.000000	20.238550
1424.000000	20.413938
1423.000000	20.613492
1422.000000	20.791835
1421.000000	20.991284
1420.000000	21.202763
1419.000000	21.437880
1418.000000	21.696846
1417.000000	21.919933
1416.000000	22.124236
1415.000000	22.398294
1414.000000	22.669818
1413.000000	22.962870
1412.000000	23.214134
1411.000000	23.477849
1410.000000	23.799711
1409.000000	24.162095
1408.000000	24.535032
1407.000000	24.897522
1406.000000	25.263917
1405.000000	25.672101
1404.000000	26.107511
1403.000000	26.508202
1402.000000	26.947200
1401.000000	27.373324
1400.000000	27.831633
1399.000000	28.289732
1398.000000	28.678921
1397.000000	28.967330
1396.000000	29.342694
1395.000000	29.770717
1394.000000	30.172781
1393.000000	30.509100
1392.000000	30.820092
1391.000000	31.202316
1390.000000	31.590871
1389.000000	31.975522
1388.000000	32.410299
1387.000000	32.929287
1386.000000	33.435507
1385.000000	33.974757
1384.000000	34.550309
1383.000000	35.148866
1382.000000	35.780453
1381.000000	36.375211
1380.000000	36.879004
1379.000000	37.165935
1378.000000	37.556390
1377.000000	37.805649
1376.000000	38.034223
1375.000000	38.271873
1374.000000	38.500236
1373.000000	38.751499
1372.000000	39.125703
1371.000000	39.479329
1370.000000	39.868623
1369.000000	40.235440
1368.000000	40.543582
1367.000000	40.871670
1366.000000	41.173376
1365.000000	41.406699
1364.000000	41.633796
1363.000000	41.845381
1362.000000	42.043457
1361.000000	42.246388
1360.000000	42.436973
1359.000000	42.481717
1358.000000	42.595371
1357.000000	42.725804
1356.000000	42.875760
1355.000000	43.076791
1354.000000	43.368050
1353.000000	43.764625
1352.000000	44.150543
1351.000000	44.663305
1350.000000	45.163087
1349.000000	45.620342
1348.000000	46.054380
1347.000000	46.458870
1346.000000	46.854180
1345.000000	47.194509
1344.000000	47.549295
1343.000000	47.896695
1342.000000	48.230797
1341.000000	48.567011
1340.000000	48.896787
1339.000000	49.227302
1338.000000	49.537555
1337.000000	49.845593
1336.000000	50.151836
1335.000000	50.475492
1334.000000	50.766117
1333.000000	51.049461
1332.000000	51.335865
1331.000000	51.614671
1330.000000	51.884823
1329.000000	52.176715
1328.000000	52.426289
1327.000000	52.688949
1326.000000	52.914991
1325.000000	53.136179
1324.000000	53.378788
1323.000000	53.598604
1322.000000	53.796786
1321.000000	53.997818
1320.000000	54.188402
1319.000000	54.366851
1318.000000	54.551842
1317.000000	54.730185
1316.000000	54.889111
1315.000000	55.063549
1314.000000	55.206435
1313.000000	55.351747
1312.000000	55.507613
1311.000000	55.636568
1310.000000	55.758559
1309.000000	55.883399
1308.000000	56.003385
1307.000000	56.113979
1306.000000	56.222145
1305.000000	56.306673
1304.000000	56.387825
1303.000000	56.458634
1302.000000	56.531238
1301.000000	56.610912
1300.000000	56.648585
1299.000000	56.685626
1298.000000	56.731109
1297.000000	56.778491
1296.000000	56.810994
1295.000000	56.851200
1294.000000	56.870195
1293.000000	56.889612
1292.000000	56.903648
1291.000000	56.918527
1290.000000	56.913040
1289.000000	56.913356
1288.000000	56.900060
1287.000000	56.884547
1286.000000	56.857743
1285.000000	56.831572
1284.000000	56.803396
1283.000000	56.754114
1282.000000	56.708948
1281.000000	56.650168
1280.000000	56.592128
1279.000000	56.551077
1278.000000	56.501479
1277.000000	56.439745
1276.000000	56.399116
1275.000000	56.358804
1274.000000	56.302558
1273.000000	56.251377
1272.000000	56.201989
1271.000000	56.165265
1270.000000	56.127381
1269.000000	56.088757
1268.000000	56.052667
1267.000000	56.000641
1266.000000	55.947455
1265.000000	55.893530
1264.000000	55.847625
1263.000000	55.791695
1262.000000	55.732282
1261.000000	55.692604
1260.000000	55.644272
1259.000000	55.590030
1258.000000	55.532939
1257.000000	55.483869
1256.000000	55.437225
1255.000000	55.372009
1254.000000	55.306475
1253.000000	55.241892
1252.000000	55.166334
1251.000000	55.090248
1250.000000	55.013845
1249.000000	54.918764
1248.000000	54.834658
1247.000000	54.765009
1246.000000	54.662330
1245.000000	54.557646
1244.000000	54.449374
1243.000000	54.320418
1242.000000	54.198533
1241.000000	54.067256
1240.000000	53.929013
1239.000000	53.793515
1238.000000	53.667936
1237.000000	53.529061
1236.000000	53.376572
1235.000000	53.227988
1234.000000	53.072545
1233.000000	52.906866
1232.000000	52.744985
1231.000000	52.573396
1230.000000	52.395686
1229.000000	52.231800
1228.000000	52.054196
1227.000000	51.861924
1226.000000	51.689279
1225.000000	51.509142
1224.000000	51.303678
1223.000000	51.111617
1222.000000	50.923460
1221.000000	50.728021
1220.000000	50.532794
1219.000000	50.360044
1218.000000	50.187083
1217.000000	50.006312
1216.000000	49.836095
1215.000000	49.671471
1214.000000	49.519616
1213.000000	49.375253
1212.000000	49.218860
1211.000000	49.067954
1210.000000	48.920425
1209.000000	48.795374
1208.000000	48.667685
1207.000000	48.534930
1206.000000	48.439638
1205.000000	48.362075
1204.000000	48.299496
1203.000000	48.226893
1202.000000	48.166953
1201.000000	48.132762
1200.000000	48.087068
1199.000000	48.032826
1198.000000	47.967082
1197.000000	47.890363
1196.000000	47.765628
1195.000000	47.604275
1194.000000	47.392691
1193.000000	47.128448
1192.000000	46.808591
1191.000000	46.423624
1190.000000	46.000455
1189.000000	45.572643
1188.000000	45.162454
1187.000000	44.815582
1186.000000	44.591229
1185.000000	44.475253
1184.000000	44.482007
1183.000000	44.638611
1182.000000	44.901377
1181.000000	45.291093
1180.000000	45.760695
1179.000000	46.266598
1178.000000	46.783687
1177.000000	47.258775
1176.000000	47.714025
1175.000000	48.087173
1174.000000	48.420960
1173.000000	48.755590
1172.000000	49.080512
1171.000000	49.417253
1170.000000	49.755577
1169.000000	50.081554
1168.000000	50.421145
1167.000000	50.778253
1166.000000	51.134094
1165.000000	51.509459
1164.000000	51.867728
1163.000000	52.239715
1162.000000	52.628060
1161.000000	53.003635
1160.000000	53.400422
1159.000000	53.782962
1158.000000	54.147985
1157.000000	54.523982
1156.000000	54.855342
1155.000000	55.172454
1154.000000	55.465507
1153.000000	55.706639
1152.000000	55.899439
1151.000000	56.049501
1150.000000	56.169381
1149.000000	56.271216
1148.000000	56.356588
1147.000000	56.455363
1146.000000	56.595188
1145.000000	56.741767
1144.000000	56.975934
1143.000000	57.268248
1142.000000	57.608894
1141.000000	57.968745
1140.000000	58.351391
1139.000000	58.774982
1138.000000	59.174935
1137.000000	59.596837
1136.000000	60.043433
1135.000000	60.529392
1134.000000	61.023159
1133.000000	61.494132
1132.000000	61.888808
1131.000000	62.261007
1130.000000	62.624025
1129.000000	62.962032
1128.000000	63.247486
1127.000000	63.478488
1126.000000	63.670022
1125.000000	63.821666
1124.000000	63.977109
1123.000000	64.099733
1122.000000	64.188905
1121.000000	64.269951
1120.000000	64.339388
1119.000000	64.389409
1118.000000	64.460007
1117.000000	64.480269
1116.000000	64.517731
1115.000000	64.545802
1114.000000	64.554877
1113.000000	64.560048
1112.000000	64.578410
1111.000000	64.575666
1110.000000	64.595928
1109.000000	64.589702
1108.000000	64.608908
1107.000000	64.622732
1106.000000	64.622204
1105.000000	64.627586
1104.000000	64.635079
1103.000000	64.634235
1102.000000	64.617245
1101.000000	64.637295
1100.000000	64.624209
1099.000000	64.644893
1098.000000	64.617878
1097.000000	64.602154
1096.000000	64.615345
1095.000000	64.604476
1094.000000	64.575350
1093.000000	64.572395
1092.000000	64.551184
1091.000000	64.516782
1090.000000	64.497153
1089.000000	64.485123
1088.000000	64.413680
1087.000000	64.399856
1086.000000	64.380122
1085.000000	64.317333
1084.000000	64.279554
1083.000000	64.230589
1082.000000	64.191965
1081.000000	64.150915
1080.000000	64.099522
1079.000000	64.064381
1078.000000	64.020798
1077.000000	63.973521
1076.000000	63.945451
1075.000000	63.890893
1074.000000	63.827470
1073.000000	63.792646
1072.000000	63.745580
1071.000000	63.704319
1070.000000	63.670233
1069.000000	63.604489
1068.000000	63.581061
1067.000000	63.497800
1066.000000	63.474267
1065.000000	63.422347
1064.000000	63.362829
1063.000000	63.327266
1062.000000	63.272602
1061.000000	63.233240
1060.000000	63.190501
1059.000000	63.148290
1058.000000	63.080224
1057.000000	63.049198
1056.000000	62.997701
1055.000000	62.933434
1054.000000	62.901986
1053.000000	62.835081
1052.000000	62.796247
1051.000000	62.749498
1050.000000	62.707286
1049.000000	62.683543
1048.000000	62.641120
1047.000000	62.606823
1046.000000	62.570522
1045.000000	62.558491
1044.000000	62.543295
1043.000000	62.506360
1042.000000	62.481139
1041.000000	62.466576
1040.000000	62.432491
1039.000000	62.412546
1038.000000	62.371495
1037.000000	62.365691
1036.000000	62.342053
1035.000000	62.315248
1034.000000	62.279791
1033.000000	62.236630
1032.000000	62.204233
1031.000000	62.166770
1030.000000	62.138911
1029.000000	62.125931
1028.000000	62.100182
1027.000000	62.057865
1026.000000	62.032116
1025.000000	61.995814
1024.000000	61.944633
1023.000000	61.897567
1022.000000	61.879311
1021.000000	61.843959
1020.000000	61.809768
1019.000000	61.782541
1018.000000	61.752782
1017.000000	61.748561
1016.000000	61.730305
1015.000000	61.699385
1014.000000	61.701073
1013.000000	61.691259
1012.000000	61.707299
1011.000000	61.730727
1010.000000	61.747400
1009.000000	61.776210
1008.000000	61.818315
1007.000000	61.861160
1006.000000	61.919412
1005.000000	61.949487
1004.000000	62.004256
1003.000000	62.048578
1002.000000	62.094167
1001.000000	62.149358
1000.000000	62.198956
999.000000	62.254886
998.000000	62.323058
997.000000	62.379515
996.000000	62.449058
995.000000	62.512059
994.000000	62.601758
993.000000	62.682171
992.000000	62.751081
991.000000	62.827167
990.000000	62.927313
989.000000	63.020389
988.000000	63.102068
987.000000	63.207280
986.000000	63.294446
985.000000	63.405990
984.000000	63.521121
983.000000	63.640685
982.000000	63.759193
981.000000	63.881817
980.000000	64.004441
979.000000	64.151126
978.000000	64.279765
977.000000	64.403972
976.000000	64.545591
975.000000	64.682883
974.000000	64.817537
973.000000	64.962956
972.000000	65.114811
971.000000	65.258752
970.000000	65.396361
969.000000	65.545683
968.000000	65.717061
967.000000	65.873877
966.000000	66.024466
965.000000	66.183180
964.000000	66.349704
963.000000	66.517494
962.000000	66.683385
961.000000	66.833130
960.000000	66.992372
959.000000	67.174831
958.000000	67.358872
957.000000	67.515687
956.000000	67.657517
955.000000	67.821297
954.000000	68.004178
953.000000	68.150335
952.000000	68.280240
951.000000	68.454151
950.000000	68.603579
949.000000	68.731480
948.000000	68.874471
947.000000	69.015879
946.000000	69.160664
945.000000	69.321172
944.000000	69.450339
943.000000	69.549219
942.000000	69.666039
941.000000	69.802593
940.000000	69.926905
939.000000	70.037288
938.000000	70.152103
937.000000	70.280636
936.000000	70.387326
935.000000	70.479874
934.000000	70.586458
933.000000	70.701167
932.000000	70.823158
931.000000	70.928581
930.000000	71.022501
929.000000	71.106924
928.000000	71.235668
927.000000	71.351644
926.000000	71.429735
925.000000	71.523444
924.000000	71.608817
923.000000	71.739988
922.000000	71.852376
921.000000	71.930678
920.000000	72.012568
919.000000	72.090237
918.000000	72.170861
917.000000	72.242726
916.000000	72.315435
915.000000	72.382129
914.000000	72.458109
913.000000	72.513828
912.000000	72.604582
911.000000	72.673070
910.000000	72.695126
909.000000	72.740714
908.000000	72.820177
907.000000	72.886343
906.000000	72.928977
905.000000	72.990183
904.000000	73.067113
903.000000	73.157657
902.000000	73.216541
901.000000	73.285135
900.000000	73.353201
899.000000	73.403643
898.000000	73.454613
897.000000	73.518775
896.000000	73.587579
895.000000	73.645725
894.000000	73.664193
893.000000	73.701022
892.000000	73.743867
891.000000	73.763706
890.000000	73.761068
889.000000	73.762440
888.000000	73.783440
887.000000	73.790510
886.000000	73.750410
885.000000	73.715796
884.000000	73.655856
883.000000	73.620293
882.000000	73.549061
881.000000	73.501785
880.000000	73.406493
879.000000	73.330090
878.000000	73.228466
877.000000	73.128953
876.000000	72.945439
875.000000	72.742825
874.000000	72.539260
873.000000	72.382129
872.000000	72.104272
871.000000	71.803833
870.000000	71.624540
869.000000	71.620003
868.000000	71.653561
867.000000	71.719832
866.000000	71.775868
865.000000	71.801195
864.000000	71.839818
863.000000	71.875170
862.000000	71.901236
861.000000	71.931100
860.000000	71.961703
859.000000	71.999799
858.000000	72.018267
857.000000	71.674300
856.000000	72.553200
855.000000	71.827300
854.000000	72.323100
853.000000	72.359800
852.000000	72.765300
851.000000	72.568900
850.000000	72.075200
849.000000	71.966600
848.000000	72.348900
847.000000	72.177500
846.000000	72.315700
845.000000	72.384400
844.000000	72.477800
843.000000	72.280400
842.000000	72.324100
841.000000	72.116300
840.000000	72.138800
839.000000	72.321100
838.000000	72.567700
837.000000	72.425400
836.000000	72.437500
835.000000	72.576400
834.000000	72.602300
833.000000	72.671200
832.000000	72.361500
831.000000	73.026400
830.000000	72.849500
829.000000	73.169800
828.000000	73.124500
827.000000	73.528600
826.000000	73.708300
825.000000	74.008100
824.000000	74.227800
823.000000	74.423400
822.000000	74.899500
821.000000	74.974400
820.000000	75.225800
819.000000	75.521500
818.000000	75.584400
817.000000	75.909000
816.000000	76.351200
815.000000	76.759200
814.000000	76.928600
813.000000	77.074800
812.000000	77.538300
811.000000	78.076400
810.000000	78.263200
809.000000	78.439000
808.000000	78.692900
807.000000	78.923600
806.000000	79.212700
805.000000	79.466300
804.000000	79.986300
803.000000	80.090500
802.000000	80.357600
801.000000	80.654700
800.000000	80.875600
799.000000	81.105000
798.000000	81.353500
797.000000	81.492700
796.000000	81.813800
795.000000	82.023300
794.000000	82.260000
793.000000	82.362100
792.000000	82.610200
791.000000	82.888000
790.000000	83.085900
789.000000	83.179900
788.000000	83.316800
787.000000	83.508700
786.000000	83.921300
785.000000	83.836900
784.000000	84.091000
783.000000	84.448400
782.000000	84.390800
781.000000	84.752400
780.000000	84.713400
779.000000	84.889700
778.000000	84.925200
777.000000	84.932900
776.000000	85.178100
775.000000	85.267500
774.000000	85.519600
773.000000	85.729300
772.000000	85.811700
771.000000	85.710500
770.000000	86.012900
769.000000	86.036700
768.000000	86.196000
767.000000	86.228400
766.000000	86.390400
765.000000	86.527800
764.000000	86.678200
763.000000	86.750500
762.000000	86.832300
761.000000	86.858200
760.000000	86.957400
759.000000	86.961000
758.000000	87.146400
757.000000	87.133800
756.000000	87.270800
755.000000	87.325300
754.000000	87.344400
753.000000	87.218700
752.000000	87.361200
751.000000	87.348100
750.000000	87.426900
749.000000	87.403300
748.000000	87.378900
747.000000	87.213300
746.000000	87.173500
745.000000	87.276300
744.000000	87.237500
743.000000	87.112200
742.000000	87.047600
741.000000	86.902400
740.000000	86.786200
739.000000	86.639800
738.000000	86.598600
737.000000	86.423300
736.000000	86.246000
735.000000	86.123000
734.000000	86.012500
733.000000	85.792200
732.000000	85.547600
731.000000	85.397100
730.000000	85.206200
729.000000	84.903400
728.000000	84.663000
727.000000	84.270000
726.000000	83.969900
725.000000	83.639600
724.000000	83.357100
723.000000	82.822900
722.000000	82.406100
721.000000	82.044800
720.000000	81.606700
719.000000	81.064700
718.000000	80.595600
717.000000	80.062700
716.000000	79.477300
715.000000	78.930100
714.000000	78.513100
713.000000	77.943900
712.000000	77.402700
711.000000	76.959500
710.000000	76.540900
709.000000	75.946400
708.000000	75.455100
707.000000	75.084800
706.000000	74.644700
705.000000	74.227300
704.000000	73.773500
703.000000	73.371800
702.000000	72.947500
701.000000	72.542600
700.000000	72.212700
699.000000	71.847600
698.000000	71.454400
697.000000	71.151500
696.000000	70.898400
695.000000	70.589300
694.000000	70.359200
693.000000	70.018900
692.000000	69.792400
691.000000	69.588400
690.000000	69.439800
689.000000	69.226700
688.000000	69.043000
687.000000	68.972600
686.000000	68.892200
685.000000	68.790300
684.000000	68.734500
683.000000	68.623700
682.000000	68.507800
681.000000	68.442100
680.000000	68.369800
679.000000	68.318600
678.000000	68.217300
677.000000	68.084400
676.000000	67.998800
675.000000	67.860900
674.000000	67.712200
673.000000	67.586200
672.000000	67.450600
671.000000	67.278000
670.000000	67.050600
669.000000	66.873600
668.000000	66.667000
667.000000	66.476400
666.000000	66.244900
665.000000	65.953500
664.000000	65.689400
663.000000	65.401100
662.000000	65.063900
661.000000	64.635500
660.000000	64.258000
659.000000	63.845800
658.000000	63.316800
657.000000	62.781300
656.000000	62.236400
655.000000	61.674300
654.000000	61.050400
653.000000	60.391300
652.000000	59.762000
651.000000	59.072500
650.000000	58.378800
649.000000	57.733300
648.000000	57.086100
647.000000	56.451300
646.000000	55.888100
645.000000	55.328400
644.000000	54.803000
643.000000	54.354900
642.000000	53.951900
641.000000	53.628300
640.000000	53.332300
639.000000	53.185300
638.000000	53.098900
637.000000	53.045600
636.000000	53.117800
635.000000	53.281200
634.000000	53.555300
633.000000	53.935500
632.000000	54.408300
631.000000	54.970100
630.000000	55.619000
629.000000	56.364700
628.000000	57.170100
627.000000	58.021200
626.000000	58.946700
625.000000	59.940100
624.000000	60.965500
623.000000	62.049500
622.000000	63.153900
621.000000	64.269600
620.000000	65.429600
619.000000	66.563700
618.000000	67.684500
617.000000	68.851700
616.000000	69.965100
615.000000	71.092300
614.000000	72.230900
613.000000	73.327800
612.000000	74.397300
611.000000	75.451400
610.000000	76.456300
609.000000	77.406700
608.000000	78.326500
607.000000	79.184200
606.000000	80.019900
605.000000	80.842800
604.000000	81.587100
603.000000	82.338400
602.000000	83.028300
601.000000	83.730000
600.000000	84.356500
599.000000	84.910600
598.000000	85.519600
597.000000	85.984700
596.000000	86.450900
595.000000	86.918000
594.000000	87.352200
593.000000	87.759300
592.000000	88.127100
591.000000	88.472000
590.000000	88.803300
589.000000	89.099000
588.000000	89.338900
587.000000	89.507300
586.000000	89.669000
585.000000	89.816200
584.000000	89.928700
583.000000	90.044500
582.000000	90.165800
581.000000	90.218000
580.000000	90.279100
579.000000	90.324500
578.000000	90.354900
577.000000	90.337400
576.000000	90.341800
575.000000	90.303200
574.000000	90.265400
573.000000	90.218700
572.000000	90.132700
571.000000	90.065900
570.000000	89.981600
569.000000	89.865000
568.000000	89.730500
567.000000	89.562100
566.000000	89.388700
565.000000	89.235300
564.000000	89.037100
563.000000	88.766600
562.000000	88.516100
561.000000	88.196100
560.000000	87.856600
559.000000	87.527200
558.000000	87.188600
557.000000	86.832100
556.000000	86.411200
555.000000	85.950600
554.000000	85.470800
553.000000	84.963100
552.000000	84.446700
551.000000	83.920100
550.000000	83.359800
549.000000	82.760700
548.000000	82.180700
547.000000	81.506600
546.000000	80.839100
545.000000	80.135500
544.000000	79.458400
543.000000	78.691400
542.000000	77.941600
541.000000	77.118200
540.000000	76.251500
539.000000	75.406400
538.000000	74.512500
537.000000	73.551100
536.000000	72.598700
535.000000	71.625100
534.000000	70.590600
533.000000	69.508600
532.000000	68.379700
531.000000	67.193400
530.000000	65.971500
529.000000	64.712700
528.000000	63.394000
527.000000	62.062600
526.000000	60.671300
525.000000	59.242900
524.000000	57.800300
523.000000	56.287000
522.000000	54.755500
521.000000	53.214900
520.000000	51.625100
519.000000	50.085100
518.000000	48.519000
517.000000	47.024700
516.000000	45.516400
515.000000	44.051000
514.000000	42.616900
513.000000	41.210300
512.000000	39.891700
511.000000	38.678200
510.000000	37.544400
509.000000	36.504300
508.000000	35.564000
507.000000	34.672000
506.000000	33.900700
505.000000	33.251700
504.000000	32.692700
503.000000	32.157300
502.000000	31.742000
501.000000	31.408100
500.000000	31.182000
499.000000	30.992900
498.000000	30.826600
497.000000	30.730200
496.000000	30.634400
495.000000	30.659000
494.000000	30.635300
493.000000	30.648800
492.000000	30.672200
491.000000	30.664700
490.000000	30.657100
489.000000	30.686200
488.000000	30.651500
487.000000	30.614900
486.000000	30.612300
485.000000	30.566000
484.000000	30.492200
483.000000	30.411500
482.000000	30.287900
481.000000	30.194700
480.000000	30.059200
479.000000	29.883400
478.000000	29.711400
477.000000	29.553400
476.000000	29.343600
475.000000	29.142700
474.000000	28.923700
473.000000	28.734100
472.000000	28.524400
471.000000	28.313800
470.000000	28.079900
469.000000	27.854200
468.000000	27.644000
467.000000	27.380800
466.000000	27.172100
465.000000	26.954300
464.000000	26.692800
463.000000	26.434700
462.000000	26.206000
461.000000	25.930300
460.000000	25.647700
459.000000	25.394800
458.000000	25.126400
457.000000	24.851100
456.000000	24.531900
455.000000	24.227900
454.000000	23.908600
453.000000	23.565200
452.000000	23.210600
451.000000	22.854500
450.000000	22.445100
449.000000	22.054400
448.000000	21.668300
447.000000	21.225200
446.000000	20.725400
445.000000	20.295100
444.000000	19.830900
443.000000	19.316000
442.000000	18.828200
441.000000	18.277900
440.000000	17.775300
439.000000	17.208800
438.000000	16.706000
437.000000	16.139000
436.000000	15.604200
435.000000	15.079300
434.000000	14.574600
433.000000	14.041400
432.000000	13.547600
431.000000	13.037900
430.000000	12.557100
429.000000	12.118700
428.000000	11.667300
427.000000	11.223700
426.000000	10.834200
425.000000	10.471600
424.000000	10.106900
423.000000	9.775700
422.000000	9.454700
421.000000	9.145600
420.000000	8.896800
419.000000	8.656700
418.000000	8.419600
417.000000	8.225100
416.000000	7.998700
415.000000	7.823400
414.000000	7.655500
413.000000	7.517900
412.000000	7.394500
411.000000	7.274300
410.000000	7.153500
409.000000	7.059600
408.000000	6.971100
407.000000	6.896300
406.000000	6.820600
405.000000	6.748400
404.000000	6.699900
403.000000	6.660400
402.000000	6.614400
401.000000	6.562300
400.000000	6.497900
399.000000	6.490900
398.000000	6.449400
397.000000	6.420600
396.000000	6.389800
395.000000	6.370600
394.000000	6.346000
393.000000	6.328200
392.000000	6.319600
391.000000	6.283600
390.000000	6.253400
389.000000	6.244400
388.000000	6.234300
387.000000	6.226100
386.000000	6.218900
385.000000	6.196800
384.000000	6.162500
383.000000	6.113000
382.000000	6.103900
381.000000	6.081500
380.000000	6.047600
379.000000	6.039400
378.000000	6.043300
377.000000	6.001400
376.000000	5.994000
375.000000	5.983100
374.000000	5.906900
373.000000	5.922400
372.000000	5.874400
371.000000	5.891100
370.000000	5.864600
369.000000	5.804800
368.000000	5.815100
367.000000	5.791600
366.000000	5.773500
365.000000	5.791100
364.000000	5.798700
363.000000	5.742500
362.000000	5.709600
361.000000	5.731600
360.000000	5.736700
359.000000	5.736300
358.000000	5.704700
357.000000	5.673300
356.000000	5.669200
355.000000	5.617300
354.000000	5.607600
353.000000	5.594800
352.000000	5.550200
351.000000	5.568000
350.000000	5.562300
349.000000	5.488900
348.000000	5.446400
347.000000	5.487500
346.000000	5.481900
345.000000	5.478700
344.000000	5.475800
343.000000	5.449200
342.000000	5.425400
341.000000	5.397100
340.000000	5.401200
339.000000	5.387900
338.000000	5.375200
337.000000	5.435200
336.000000	5.426900
335.000000	5.360200
334.000000	5.404000
333.000000	5.367200
332.000000	5.320100
331.000000	5.393800
330.000000	5.472900
329.000000	5.455400
328.000000	5.334500
327.000000	5.347100
326.000000	5.341100
325.000000	5.363900
324.000000	5.323800
323.000000	5.218300
322.000000	5.210300
321.000000	5.259800
320.000000	5.395100
319.000000	5.397600
318.000000	5.352400
317.000000	5.218300
316.000000	5.203900
315.000000	5.295700
314.000000	5.302300
313.000000	5.277900
312.000000	5.279000
311.000000	5.286500
310.000000	5.288500
309.000000	5.299600
308.000000	5.307300
307.000000	5.320500
306.000000	5.308700
305.000000	5.284500
304.000000	5.313600
303.000000	5.320300
302.000000	5.323100
301.000000	5.310600
300.000000	5.323200
299.000000	5.318500
298.000000	5.342900
297.000000	5.340100
296.000000	5.371600
295.000000	5.380100
294.000000	5.373700
293.000000	5.398800
292.000000	5.397300
291.000000	5.425000
290.000000	5.410000
289.000000	5.430400
288.000000	5.443400
287.000000	5.411000
286.000000	5.423100
285.000000	5.470600
284.000000	5.479300
283.000000	5.460400
282.000000	5.475600
281.000000	5.496500
280.000000	5.515000
279.000000	5.553000
278.000000	5.530900
277.000000	5.529800
276.000000	5.547600
275.000000	5.552400
274.000000	5.568300
273.000000	5.572500
272.000000	5.583700
271.000000	5.602900
270.000000	5.620100
269.000000	5.609100
268.000000	5.597900
267.000000	5.654000
266.000000	5.675700
265.000000	5.675200
264.000000	5.698400
263.000000	5.728000
262.000000	5.731900
261.000000	5.732500
260.000000	5.816400
259.000000	5.820300
258.000000	5.845500
257.000000	5.827100
256.000000	5.842100
255.000000	5.843900
254.000000	5.865000
253.000000	5.873500
252.000000	5.894800
251.000000	5.854400
250.000000	5.876600
