PE UV       SUBTECH     SPECTRUM    ASCII       PEDS        4.00        
   -1
CICIMAUCR0253-3.Sample.ASC
24/06/26
14:04:18.00
24/06/26
14:04:18.00
Vinicio Soto Monge
C. resplendens. Sex M. Dorsal.
250,000000
1
Lambda 1050
1050L1511233
PerkinElmer UV WinLab 6.3.2.0749 / 2.02.05 Lambda 900 UV/VIS/NIR, Aug  7 2015 09:38:08

0
0
3350/servo 860,8/2
0
0
UV/VIS
1
1
1
DoubleDePol,CommonBeamDepol,RBeamAtt,SBeamAtt,60mm sphere, WB InGaAs Detector
0
0
0
0
Program
Program
3350/servo 860,8/2
3350/0,2 860,8/0,2
3350/0,2 860,8/0,2
0
15.00
 
 
 
0
 
860,8
319,2
860,8
Front
100
on
S:100 R:100
0
0
0
0
 
0
 
 
 
0
 
 
0
0
0
0
0
 
 
 
 
0
0


0
0
#HDR
-1
-1
#GR
nm
%R
1.0
0.0
2500,000000
-1,000000
2251
8
90,933900
5,761100
#DATA
2500.000000	9.670082
2499.000000	9.767049
2498.000000	9.664396
2497.000000	9.652424
2496.000000	9.633969
2495.000000	9.590274
2494.000000	9.574811
2493.000000	9.630477
2492.000000	9.631674
2491.000000	9.619803
2490.000000	9.510465
2489.000000	9.540992
2488.000000	9.547676
2487.000000	9.479041
2486.000000	9.555856
2485.000000	9.557253
2484.000000	9.559148
2483.000000	9.551168
2482.000000	9.590573
2481.000000	9.555358
2480.000000	9.605936
2479.000000	9.617109
2478.000000	9.547476
2477.000000	9.571519
2476.000000	9.598354
2475.000000	9.587680
2474.000000	9.618007
2473.000000	9.572915
2472.000000	9.673175
2471.000000	9.643546
2470.000000	9.699711
2469.000000	9.687839
2468.000000	9.722357
2467.000000	9.730936
2466.000000	9.718466
2465.000000	9.774531
2464.000000	9.798973
2463.000000	9.847955
2462.000000	9.869503
2461.000000	9.909208
2460.000000	9.895541
2459.000000	9.994802
2458.000000	10.021838
2457.000000	10.113019
2456.000000	10.131973
2455.000000	10.233230
2454.000000	10.309547
2453.000000	10.376386
2452.000000	10.450209
2451.000000	10.506175
2450.000000	10.592767
2449.000000	10.650927
2448.000000	10.742208
2447.000000	10.839474
2446.000000	10.918485
2445.000000	10.989315
2444.000000	11.058548
2443.000000	11.155715
2442.000000	11.242806
2441.000000	11.311641
2440.000000	11.389953
2439.000000	11.469961
2438.000000	11.557151
2437.000000	11.635962
2436.000000	11.725647
2435.000000	11.793584
2434.000000	11.859525
2433.000000	11.943524
2432.000000	12.015750
2431.000000	12.078998
2430.000000	12.137059
2429.000000	12.170778
2428.000000	12.254577
2427.000000	12.325207
2426.000000	12.395339
2425.000000	12.432350
2424.000000	12.498990
2423.000000	12.549169
2422.000000	12.609225
2421.000000	12.666288
2420.000000	12.724947
2419.000000	12.774828
2418.000000	12.827302
2417.000000	12.856831
2416.000000	12.902920
2415.000000	12.938734
2414.000000	12.999089
2413.000000	13.055953
2412.000000	13.100346
2411.000000	13.132269
2410.000000	13.163594
2409.000000	13.207389
2408.000000	13.257668
2407.000000	13.298770
2406.000000	13.316926
2405.000000	13.367006
2404.000000	13.407209
2403.000000	13.434145
2402.000000	13.473251
2401.000000	13.510062
2400.000000	13.540589
2399.000000	13.583486
2398.000000	13.627979
2397.000000	13.676263
2396.000000	13.699707
2395.000000	13.722652
2394.000000	13.759064
2393.000000	13.780613
2392.000000	13.783705
2391.000000	13.823909
2390.000000	13.871195
2389.000000	13.892344
2388.000000	13.915489
2387.000000	13.939930
2386.000000	13.953597
2385.000000	13.966666
2384.000000	13.979735
2383.000000	13.991905
2382.000000	13.993901
2381.000000	14.003178
2380.000000	14.016147
2379.000000	14.020636
2378.000000	14.013853
2377.000000	14.009463
2376.000000	14.009962
2375.000000	14.007468
2374.000000	13.997692
2373.000000	13.998390
2372.000000	13.991606
2371.000000	13.972851
2370.000000	13.959184
2369.000000	13.941826
2368.000000	13.924767
2367.000000	13.899926
2366.000000	13.883665
2365.000000	13.845158
2364.000000	13.792085
2363.000000	13.768941
2362.000000	13.735321
2361.000000	13.687037
2360.000000	13.660800
2359.000000	13.621195
2358.000000	13.566128
2357.000000	13.517943
2356.000000	13.482030
2355.000000	13.441826
2354.000000	13.418981
2353.000000	13.405114
2352.000000	13.372094
2351.000000	13.355434
2350.000000	13.356930
2349.000000	13.369799
2348.000000	13.377181
2347.000000	13.380773
2346.000000	13.389452
2345.000000	13.415090
2344.000000	13.466866
2343.000000	13.506571
2342.000000	13.535401
2341.000000	13.581092
2340.000000	13.608227
2339.000000	13.642245
2338.000000	13.678358
2337.000000	13.698610
2336.000000	13.716666
2335.000000	13.732528
2334.000000	13.725345
2333.000000	13.738314
2332.000000	13.749088
2331.000000	13.734823
2330.000000	13.711778
2329.000000	13.666886
2328.000000	13.637855
2327.000000	13.604136
2326.000000	13.556451
2325.000000	13.501383
2324.000000	13.436140
2323.000000	13.371695
2322.000000	13.309943
2321.000000	13.224747
2320.000000	13.119999
2319.000000	13.020139
2318.000000	12.918483
2317.000000	12.793583
2316.000000	12.698910
2315.000000	12.602342
2314.000000	12.487717
2313.000000	12.360223
2312.000000	12.243404
2311.000000	12.129078
2310.000000	12.046077
2309.000000	11.969062
2308.000000	11.871796
2307.000000	11.814334
2306.000000	11.765252
2305.000000	11.729837
2304.000000	11.712079
2303.000000	11.712877
2302.000000	11.728041
2301.000000	11.764454
2300.000000	11.819521
2299.000000	11.874290
2298.000000	11.956692
2297.000000	12.041289
2296.000000	12.124689
2295.000000	12.218264
2294.000000	12.290890
2293.000000	12.367605
2292.000000	12.464473
2291.000000	12.525526
2290.000000	12.601045
2289.000000	12.645438
2288.000000	12.693822
2287.000000	12.730534
2286.000000	12.752082
2285.000000	12.753379
2284.000000	12.741807
2283.000000	12.732828
2282.000000	12.715869
2281.000000	12.678559
2280.000000	12.651025
2279.000000	12.590370
2278.000000	12.547473
2277.000000	12.511859
2276.000000	12.466767
2275.000000	12.420379
2274.000000	12.374589
2273.000000	12.336380
2272.000000	12.313934
2271.000000	12.290989
2270.000000	12.280115
2269.000000	12.282609
2268.000000	12.325207
2267.000000	12.358328
2266.000000	12.427861
2265.000000	12.497893
2264.000000	12.617306
2263.000000	12.742106
2262.000000	12.874688
2261.000000	13.056152
2260.000000	13.248490
2259.000000	13.461379
2258.000000	13.680353
2257.000000	13.912995
2256.000000	14.126083
2255.000000	14.387356
2254.000000	14.642643
2253.000000	14.849446
2252.000000	15.094259
2251.000000	15.328297
2250.000000	15.543081
2249.000000	15.780611
2248.000000	15.975842
2247.000000	16.151819
2246.000000	16.323008
2245.000000	16.473547
2244.000000	16.621991
2243.000000	16.757964
2242.000000	16.872788
2241.000000	16.999484
2240.000000	17.093658
2239.000000	17.186834
2238.000000	17.266044
2237.000000	17.344456
2236.000000	17.415984
2235.000000	17.469655
2234.000000	17.529013
2233.000000	17.572010
2232.000000	17.591862
2231.000000	17.636255
2230.000000	17.667879
2229.000000	17.664288
2228.000000	17.694116
2227.000000	17.685138
2226.000000	17.672668
2225.000000	17.668977
2224.000000	17.672867
2223.000000	17.635357
2222.000000	17.616702
2221.000000	17.582285
2220.000000	17.535497
2219.000000	17.509061
2218.000000	17.480729
2217.000000	17.433742
2216.000000	17.389548
2215.000000	17.345553
2214.000000	17.302058
2213.000000	17.258063
2212.000000	17.212972
2211.000000	17.173267
2210.000000	17.139149
2209.000000	17.101838
2208.000000	17.067720
2207.000000	17.032106
2206.000000	17.004472
2205.000000	16.963770
2204.000000	16.943020
2203.000000	16.906308
2202.000000	16.887852
2201.000000	16.859620
2200.000000	16.828794
2199.000000	16.836077
2198.000000	16.792581
2197.000000	16.770634
2196.000000	16.736416
2195.000000	16.731428
2194.000000	16.701200
2193.000000	16.704492
2192.000000	16.692322
2191.000000	16.675263
2190.000000	16.665287
2189.000000	16.628774
2188.000000	16.638750
2187.000000	16.602936
2186.000000	16.572709
2185.000000	16.582685
2184.000000	16.554353
2183.000000	16.517940
2182.000000	16.502078
2181.000000	16.482725
2180.000000	16.472250
2179.000000	16.460279
2178.000000	16.450502
2177.000000	16.439928
2176.000000	16.422470
2175.000000	16.398727
2174.000000	16.400023
2173.000000	16.407306
2172.000000	16.399026
2171.000000	16.404413
2170.000000	16.420973
2169.000000	16.426560
2168.000000	16.422869
2167.000000	16.450403
2166.000000	16.453395
2165.000000	16.467561
2164.000000	16.484620
2163.000000	16.525522
2162.000000	16.559441
2161.000000	16.567222
2160.000000	16.598347
2159.000000	16.635857
2158.000000	16.663092
2157.000000	16.689129
2156.000000	16.731528
2155.000000	16.777417
2154.000000	16.822210
2153.000000	16.880669
2152.000000	16.929552
2151.000000	16.965466
2150.000000	17.016144
2149.000000	17.051559
2148.000000	17.100841
2147.000000	17.151220
2146.000000	17.184340
2145.000000	17.216962
2144.000000	17.256567
2143.000000	17.289488
2142.000000	17.337273
2141.000000	17.373586
2140.000000	17.413789
2139.000000	17.443219
2138.000000	17.476938
2137.000000	17.509160
2136.000000	17.518638
2135.000000	17.543777
2134.000000	17.567520
2133.000000	17.586275
2132.000000	17.606826
2131.000000	17.612313
2130.000000	17.623586
2129.000000	17.630469
2128.000000	17.630768
2127.000000	17.622289
2126.000000	17.632165
2125.000000	17.628274
2124.000000	17.615405
2123.000000	17.601140
2122.000000	17.583682
2121.000000	17.580489
2120.000000	17.571411
2119.000000	17.550661
2118.000000	17.520533
2117.000000	17.494196
2116.000000	17.475441
2115.000000	17.445613
2114.000000	17.406208
2113.000000	17.380370
2112.000000	17.359420
2111.000000	17.329093
2110.000000	17.289288
2109.000000	17.248686
2108.000000	17.225541
2107.000000	17.203295
2106.000000	17.171671
2105.000000	17.139149
2104.000000	17.096950
2103.000000	17.058842
2102.000000	17.033403
2101.000000	17.005969
2100.000000	16.957385
2099.000000	16.914887
2098.000000	16.890845
2097.000000	16.865705
2096.000000	16.838371
2095.000000	16.814029
2094.000000	16.784101
2093.000000	16.755969
2092.000000	16.715566
2091.000000	16.687633
2090.000000	16.671771
2089.000000	16.640047
2088.000000	16.609221
2087.000000	16.578794
2086.000000	16.554253
2085.000000	16.516045
2084.000000	16.475941
2083.000000	16.442023
2082.000000	16.407206
2081.000000	16.372091
2080.000000	16.316723
2079.000000	16.269936
2078.000000	16.219956
2077.000000	16.169976
2076.000000	16.133264
2075.000000	16.075902
2074.000000	16.009860
2073.000000	15.946612
2072.000000	15.869597
2071.000000	15.803855
2070.000000	15.750284
2069.000000	15.680551
2068.000000	15.616804
2067.000000	15.545775
2066.000000	15.474147
2065.000000	15.405013
2064.000000	15.319717
2063.000000	15.253177
2062.000000	15.181948
2061.000000	15.095556
2060.000000	15.048568
2059.000000	15.002978
2058.000000	14.944019
2057.000000	14.890149
2056.000000	14.856430
2055.000000	14.825005
2054.000000	14.787096
2053.000000	14.765448
2052.000000	14.763453
2051.000000	14.768341
2050.000000	14.773229
2049.000000	14.804055
2048.000000	14.840767
2047.000000	14.867104
2046.000000	14.911298
2045.000000	14.953696
2044.000000	15.011258
2043.000000	15.075803
2042.000000	15.150623
2041.000000	15.228237
2040.000000	15.281010
2039.000000	15.343859
2038.000000	15.409302
2037.000000	15.461876
2036.000000	15.500982
2035.000000	15.537395
2034.000000	15.599545
2033.000000	15.637454
2032.000000	15.672869
2031.000000	15.713871
2030.000000	15.725244
2029.000000	15.768340
2028.000000	15.797370
2027.000000	15.798667
2026.000000	15.819118
2025.000000	15.811636
2024.000000	15.816325
2023.000000	15.816924
2022.000000	15.832686
2021.000000	15.830890
2020.000000	15.814529
2019.000000	15.814829
2018.000000	15.800363
2017.000000	15.779912
2016.000000	15.775822
2015.000000	15.753775
2014.000000	15.707686
2013.000000	15.686038
2012.000000	15.668879
2011.000000	15.632766
2010.000000	15.608923
2009.000000	15.582686
2008.000000	15.535100
2007.000000	15.501082
2006.000000	15.446812
2005.000000	15.407906
2004.000000	15.361916
2003.000000	15.294578
2002.000000	15.229833
2001.000000	15.189630
2000.000000	15.137455
1999.000000	15.068421
1998.000000	15.004374
1997.000000	14.931649
1996.000000	14.869299
1995.000000	14.787994
1994.000000	14.739810
1993.000000	14.650524
1992.000000	14.575005
1991.000000	14.502480
1990.000000	14.408804
1989.000000	14.342663
1988.000000	14.243701
1987.000000	14.151722
1986.000000	14.077400
1985.000000	13.997891
1984.000000	13.915688
1983.000000	13.835082
1982.000000	13.742704
1981.000000	13.675565
1980.000000	13.576303
1979.000000	13.474448
1978.000000	13.377481
1977.000000	13.304057
1976.000000	13.200605
1975.000000	13.117904
1974.000000	13.035901
1973.000000	12.966368
1972.000000	12.879676
1971.000000	12.798770
1970.000000	12.716069
1969.000000	12.627781
1968.000000	12.528918
1967.000000	12.463774
1966.000000	12.384664
1965.000000	12.315032
1964.000000	12.246496
1963.000000	12.178260
1962.000000	12.074808
1961.000000	12.044082
1960.000000	11.950008
1959.000000	11.877781
1958.000000	11.798173
1957.000000	11.736720
1956.000000	11.689932
1955.000000	11.608727
1954.000000	11.537199
1953.000000	11.467666
1952.000000	11.406812
1951.000000	11.327902
1950.000000	11.290491
1949.000000	11.239115
1948.000000	11.171278
1947.000000	11.140651
1946.000000	11.104937
1945.000000	11.036501
1944.000000	11.006473
1943.000000	10.970161
1942.000000	10.922974
1941.000000	10.913098
1940.000000	10.896936
1939.000000	10.867308
1938.000000	10.841370
1937.000000	10.847655
1936.000000	10.796677
1935.000000	10.813138
1934.000000	10.801565
1933.000000	10.849650
1932.000000	10.906912
1931.000000	10.922076
1930.000000	10.967766
1929.000000	10.996398
1928.000000	11.038197
1927.000000	11.084386
1926.000000	11.150428
1925.000000	11.211780
1924.000000	11.297475
1923.000000	11.406912
1922.000000	11.497794
1921.000000	11.581393
1920.000000	11.708687
1919.000000	11.814234
1918.000000	11.902921
1917.000000	12.070618
1916.000000	12.221257
1915.000000	12.397434
1914.000000	12.541787
1913.000000	12.723451
1912.000000	12.881571
1911.000000	13.051264
1910.000000	13.235322
1909.000000	13.463474
1908.000000	13.697313
1907.000000	13.931949
1906.000000	14.175465
1905.000000	14.441027
1904.000000	14.677958
1903.000000	14.947012
1902.000000	15.220655
1901.000000	15.526421
1900.000000	15.822710
1899.000000	16.193120
1898.000000	16.548268
1897.000000	16.874085
1896.000000	17.250182
1895.000000	17.629272
1894.000000	18.003873
1893.000000	18.419674
1892.000000	18.832383
1891.000000	19.331086
1890.000000	19.786792
1889.000000	20.248384
1888.000000	20.725438
1887.000000	21.246288
1886.000000	21.781403
1885.000000	22.301055
1884.000000	22.835871
1883.000000	23.402710
1882.000000	23.963264
1881.000000	24.484513
1880.000000	25.036886
1879.000000	25.542273
1878.000000	26.024116
1877.000000	26.524614
1876.000000	26.983612
1875.000000	27.433532
1874.000000	27.874174
1873.000000	28.285886
1872.000000	28.695203
1871.000000	29.057732
1870.000000	29.410286
1869.000000	29.713558
1868.000000	30.031295
1867.000000	30.317109
1866.000000	30.537479
1865.000000	30.739395
1864.000000	30.956473
1863.000000	31.130356
1862.000000	31.304737
1861.000000	31.484506
1860.000000	31.669960
1859.000000	31.827781
1858.000000	31.954178
1857.000000	32.059226
1856.000000	32.161181
1855.000000	32.252761
1854.000000	32.339154
1853.000000	32.411181
1852.000000	32.460163
1851.000000	32.517725
1850.000000	32.571196
1849.000000	32.636540
1848.000000	32.671555
1847.000000	32.693702
1846.000000	32.688415
1845.000000	32.672154
1844.000000	32.677342
1843.000000	32.683227
1842.000000	32.716248
1841.000000	32.750466
1840.000000	32.739891
1839.000000	32.738794
1838.000000	32.721535
1837.000000	32.714951
1836.000000	32.684624
1835.000000	32.650805
1834.000000	32.625965
1833.000000	32.592146
1832.000000	32.565809
1831.000000	32.548451
1830.000000	32.538276
1829.000000	32.496276
1828.000000	32.446795
1827.000000	32.386839
1826.000000	32.342545
1825.000000	32.326783
1824.000000	32.285283
1823.000000	32.258447
1822.000000	32.279297
1821.000000	32.288675
1820.000000	32.252961
1819.000000	32.199888
1818.000000	32.153998
1817.000000	32.127462
1816.000000	32.129357
1815.000000	32.130953
1814.000000	32.109006
1813.000000	32.100127
1812.000000	32.087358
1811.000000	32.064413
1810.000000	32.041967
1809.000000	32.005156
1808.000000	31.979218
1807.000000	31.942506
1806.000000	31.914373
1805.000000	31.876065
1804.000000	31.834166
1803.000000	31.799150
1802.000000	31.754956
1801.000000	31.730315
1800.000000	31.683827
1799.000000	31.630156
1798.000000	31.593444
1797.000000	31.554138
1796.000000	31.528699
1795.000000	31.504158
1794.000000	31.469242
1793.000000	31.426744
1792.000000	31.386740
1791.000000	31.352722
1790.000000	31.317507
1789.000000	31.285483
1788.000000	31.262140
1787.000000	31.231214
1786.000000	31.202682
1785.000000	31.168664
1784.000000	31.121677
1783.000000	31.072694
1782.000000	31.033489
1781.000000	30.992786
1780.000000	30.936422
1779.000000	30.887140
1778.000000	30.830376
1777.000000	30.777902
1776.000000	30.725628
1775.000000	30.672455
1774.000000	30.620879
1773.000000	30.553142
1772.000000	30.488198
1771.000000	30.417567
1770.000000	30.348134
1769.000000	30.267129
1768.000000	30.178741
1767.000000	30.098434
1766.000000	30.023214
1765.000000	29.963557
1764.000000	29.914575
1763.000000	29.882253
1762.000000	29.879659
1761.000000	29.891929
1760.000000	29.912979
1759.000000	29.965453
1758.000000	30.008948
1757.000000	30.083869
1756.000000	30.157891
1755.000000	30.215652
1754.000000	30.282891
1753.000000	30.333170
1752.000000	30.369183
1751.000000	30.419363
1750.000000	30.446697
1749.000000	30.442507
1748.000000	30.442308
1747.000000	30.432432
1746.000000	30.421358
1745.000000	30.385444
1744.000000	30.337360
1743.000000	30.258549
1742.000000	30.152703
1741.000000	30.057731
1740.000000	29.928442
1739.000000	29.787979
1738.000000	29.653901
1737.000000	29.503263
1736.000000	29.365094
1735.000000	29.223933
1734.000000	29.123474
1733.000000	29.047756
1732.000000	28.991791
1731.000000	28.972138
1730.000000	28.984009
1729.000000	29.015135
1728.000000	29.079181
1727.000000	29.160486
1726.000000	29.246379
1725.000000	29.326487
1724.000000	29.403203
1723.000000	29.478322
1722.000000	29.534089
1721.000000	29.626766
1720.000000	29.699791
1719.000000	29.787779
1718.000000	29.884348
1717.000000	29.990293
1716.000000	30.087560
1715.000000	30.174152
1714.000000	30.307931
1713.000000	30.425149
1712.000000	30.523313
1711.000000	30.618684
1710.000000	30.710265
1709.000000	30.776007
1708.000000	30.843744
1707.000000	30.880556
1706.000000	30.900209
1705.000000	30.908489
1704.000000	30.896817
1703.000000	30.881853
1702.000000	30.841849
1701.000000	30.801944
1700.000000	30.743784
1699.000000	30.677643
1698.000000	30.590951
1697.000000	30.509247
1696.000000	30.423852
1695.000000	30.379758
1694.000000	30.362599
1693.000000	30.359108
1692.000000	30.404499
1691.000000	30.499171
1690.000000	30.607412
1689.000000	30.682032
1688.000000	30.794562
1687.000000	30.905396
1686.000000	30.997375
1685.000000	31.066010
1684.000000	31.163975
1683.000000	31.279897
1682.000000	31.433927
1681.000000	31.634645
1680.000000	31.879856
1679.000000	32.206372
1678.000000	32.532689
1677.000000	32.897313
1676.000000	33.222632
1675.000000	33.567804
1674.000000	33.855513
1673.000000	34.111698
1672.000000	34.345037
1671.000000	34.558026
1670.000000	34.728118
1669.000000	34.889530
1668.000000	35.038672
1667.000000	35.141725
1666.000000	35.248169
1665.000000	35.353117
1664.000000	35.441405
1663.000000	35.517822
1662.000000	35.613991
1661.000000	35.644418
1660.000000	35.697690
1659.000000	35.747570
1658.000000	35.796951
1657.000000	35.837354
1656.000000	35.849525
1655.000000	35.885838
1654.000000	35.869876
1653.000000	35.883943
1652.000000	35.874964
1651.000000	35.863392
1650.000000	35.853815
1649.000000	35.855112
1648.000000	35.822690
1647.000000	35.801740
1646.000000	35.768021
1645.000000	35.734202
1644.000000	35.679733
1643.000000	35.664869
1642.000000	35.622670
1641.000000	35.585459
1640.000000	35.540567
1639.000000	35.511138
1638.000000	35.449486
1637.000000	35.437814
1636.000000	35.365587
1635.000000	35.308823
1634.000000	35.274606
1633.000000	35.218640
1632.000000	35.153696
1631.000000	35.091944
1630.000000	35.034482
1629.000000	34.966645
1628.000000	34.902200
1627.000000	34.830372
1626.000000	34.769618
1625.000000	34.713154
1624.000000	34.643022
1623.000000	34.555033
1622.000000	34.506749
1621.000000	34.450684
1620.000000	34.372172
1619.000000	34.322292
1618.000000	34.260640
1617.000000	34.200385
1616.000000	34.138633
1615.000000	34.063214
1614.000000	34.006650
1613.000000	33.937815
1612.000000	33.901602
1611.000000	33.839551
1610.000000	33.768621
1609.000000	33.718641
1608.000000	33.646415
1607.000000	33.600425
1606.000000	33.528398
1605.000000	33.473131
1604.000000	33.408187
1603.000000	33.337556
1602.000000	33.268722
1601.000000	33.206770
1600.000000	33.136938
1599.000000	33.088055
1598.000000	33.013634
1597.000000	32.934025
1596.000000	32.887936
1595.000000	32.821196
1594.000000	32.744780
1593.000000	32.697992
1592.000000	32.657290
1591.000000	32.593842
1590.000000	32.559125
1589.000000	32.483906
1588.000000	32.425247
1587.000000	32.374369
1586.000000	32.317506
1585.000000	32.271716
1584.000000	32.223531
1583.000000	32.173252
1582.000000	32.123272
1581.000000	32.072494
1580.000000	32.022813
1579.000000	31.986800
1578.000000	31.946995
1577.000000	31.902901
1576.000000	31.866289
1575.000000	31.823891
1574.000000	31.805335
1573.000000	31.780894
1572.000000	31.736102
1571.000000	31.712059
1570.000000	31.699390
1569.000000	31.660084
1568.000000	31.638835
1567.000000	31.629458
1566.000000	31.619482
1565.000000	31.604218
1564.000000	31.586162
1563.000000	31.563316
1562.000000	31.554238
1561.000000	31.518524
1560.000000	31.494282
1559.000000	31.475128
1558.000000	31.427243
1557.000000	31.394422
1556.000000	31.373672
1555.000000	31.323193
1554.000000	31.270719
1553.000000	31.229019
1552.000000	31.171158
1551.000000	31.118484
1550.000000	31.063616
1549.000000	30.989793
1548.000000	30.936521
1547.000000	30.881753
1546.000000	30.814115
1545.000000	30.759945
1544.000000	30.705975
1543.000000	30.653102
1542.000000	30.609407
1541.000000	30.549052
1540.000000	30.499371
1539.000000	30.445800
1538.000000	30.397416
1537.000000	30.343944
1536.000000	30.301646
1535.000000	30.260245
1534.000000	30.217049
1533.000000	30.166370
1532.000000	30.114495
1531.000000	30.057432
1530.000000	29.995481
1529.000000	29.940313
1528.000000	29.875070
1527.000000	29.812720
1526.000000	29.757153
1525.000000	29.690114
1524.000000	29.618386
1523.000000	29.557832
1522.000000	29.501866
1521.000000	29.435226
1520.000000	29.355118
1519.000000	29.281695
1518.000000	29.225031
1517.000000	29.162182
1516.000000	29.092648
1515.000000	29.013937
1514.000000	28.936025
1513.000000	28.857314
1512.000000	28.788080
1511.000000	28.711364
1510.000000	28.623076
1509.000000	28.552046
1508.000000	28.480119
1507.000000	28.406795
1506.000000	28.331177
1505.000000	28.254261
1504.000000	28.176049
1503.000000	28.107414
1502.000000	28.037482
1501.000000	27.957374
1500.000000	27.876169
1499.000000	27.803643
1498.000000	27.733711
1497.000000	27.674553
1496.000000	27.609310
1495.000000	27.553145
1494.000000	27.507455
1493.000000	27.446700
1492.000000	27.395024
1491.000000	27.352826
1490.000000	27.300950
1489.000000	27.235308
1488.000000	27.171162
1487.000000	27.119686
1486.000000	27.084370
1485.000000	27.041972
1484.000000	26.990196
1483.000000	26.936825
1482.000000	26.897619
1481.000000	26.871980
1480.000000	26.828684
1479.000000	26.779004
1478.000000	26.753864
1477.000000	26.738102
1476.000000	26.701589
1475.000000	26.660488
1474.000000	26.645025
1473.000000	26.649115
1472.000000	26.647619
1471.000000	26.633952
1470.000000	26.620983
1469.000000	26.606318
1468.000000	26.590556
1467.000000	26.580979
1466.000000	26.589060
1465.000000	26.590556
1464.000000	26.577687
1463.000000	26.591853
1462.000000	26.595444
1461.000000	26.615097
1460.000000	26.630959
1459.000000	26.648816
1458.000000	26.682934
1457.000000	26.724135
1456.000000	26.764937
1455.000000	26.803046
1454.000000	26.843449
1453.000000	26.866294
1452.000000	26.941912
1451.000000	27.016633
1450.000000	27.083772
1449.000000	27.127267
1448.000000	27.163780
1447.000000	27.234510
1446.000000	27.327287
1445.000000	27.398516
1444.000000	27.439717
1443.000000	27.520523
1442.000000	27.604122
1441.000000	27.680339
1440.000000	27.772119
1439.000000	27.879661
1438.000000	27.964557
1437.000000	28.054940
1436.000000	28.145323
1435.000000	28.262043
1434.000000	28.381755
1433.000000	28.510945
1432.000000	28.619684
1431.000000	28.735805
1430.000000	28.849732
1429.000000	28.990194
1428.000000	29.156595
1427.000000	29.301347
1426.000000	29.453083
1425.000000	29.637141
1424.000000	29.833969
1423.000000	30.027903
1422.000000	30.210564
1421.000000	30.406394
1420.000000	30.630755
1419.000000	30.895320
1418.000000	31.117786
1417.000000	31.346836
1416.000000	31.550447
1415.000000	31.835563
1414.000000	32.125866
1413.000000	32.390231
1412.000000	32.703978
1411.000000	32.964951
1410.000000	33.320497
1409.000000	33.675246
1408.000000	34.029894
1407.000000	34.394219
1406.000000	34.744578
1405.000000	35.123568
1404.000000	35.508145
1403.000000	35.869777
1402.000000	36.254054
1401.000000	36.658583
1400.000000	37.137034
1399.000000	37.513330
1398.000000	37.831467
1397.000000	38.157883
1396.000000	38.544654
1395.000000	38.947587
1394.000000	39.345831
1393.000000	39.661074
1392.000000	39.997167
1391.000000	40.394513
1390.000000	40.789265
1389.000000	41.161072
1388.000000	41.595828
1387.000000	42.110094
1386.000000	42.543154
1385.000000	42.989682
1384.000000	43.471824
1383.000000	43.922642
1382.000000	44.426133
1381.000000	44.844827
1380.000000	45.211647
1379.000000	45.461447
1378.000000	45.708354
1377.000000	45.925134
1376.000000	46.133733
1375.000000	46.315197
1374.000000	46.502547
1373.000000	46.702866
1372.000000	46.949674
1371.000000	47.190096
1370.000000	47.451170
1369.000000	47.666952
1368.000000	47.871161
1367.000000	48.089337
1366.000000	48.276189
1365.000000	48.412960
1364.000000	48.605598
1363.000000	48.758630
1362.000000	48.896300
1361.000000	49.034169
1360.000000	49.155877
1359.000000	49.162062
1358.000000	49.268207
1357.000000	49.355697
1356.000000	49.472018
1355.000000	49.637021
1354.000000	49.800928
1353.000000	50.036762
1352.000000	50.212839
1351.000000	50.529878
1350.000000	50.813297
1349.000000	51.090033
1348.000000	51.340930
1347.000000	51.613975
1346.000000	51.865970
1345.000000	52.092625
1344.000000	52.344521
1343.000000	52.587637
1342.000000	52.805813
1341.000000	53.028478
1340.000000	53.277979
1339.000000	53.512317
1338.000000	53.725305
1337.000000	53.956151
1336.000000	54.200165
1335.000000	54.405173
1334.000000	54.594020
1333.000000	54.812096
1332.000000	55.016106
1331.000000	55.228696
1330.000000	55.422032
1329.000000	55.609781
1328.000000	55.811796
1327.000000	56.000343
1326.000000	56.166245
1325.000000	56.328256
1324.000000	56.511117
1323.000000	56.661456
1322.000000	56.825661
1321.000000	56.985278
1320.000000	57.142102
1319.000000	57.290845
1318.000000	57.432903
1317.000000	57.558203
1316.000000	57.694076
1315.000000	57.820573
1314.000000	57.945972
1313.000000	58.072967
1312.000000	58.192081
1311.000000	58.301318
1310.000000	58.398286
1309.000000	58.493158
1308.000000	58.580049
1307.000000	58.677914
1306.000000	58.768596
1305.000000	58.842319
1304.000000	58.909857
1303.000000	58.965823
1302.000000	59.031565
1301.000000	59.097108
1300.000000	59.152375
1299.000000	59.204550
1298.000000	59.235874
1297.000000	59.269893
1296.000000	59.315184
1295.000000	59.333540
1294.000000	59.364865
1293.000000	59.391501
1292.000000	59.409657
1291.000000	59.426617
1290.000000	59.424422
1289.000000	59.421429
1288.000000	59.432004
1287.000000	59.422826
1286.000000	59.429111
1285.000000	59.409358
1284.000000	59.387510
1283.000000	59.369354
1282.000000	59.340922
1281.000000	59.305807
1280.000000	59.289047
1279.000000	59.264705
1278.000000	59.235276
1277.000000	59.211034
1276.000000	59.189286
1275.000000	59.171230
1274.000000	59.156266
1273.000000	59.146888
1272.000000	59.108281
1271.000000	59.100400
1270.000000	59.097108
1269.000000	59.076657
1268.000000	59.066980
1267.000000	59.060795
1266.000000	59.042539
1265.000000	59.020691
1264.000000	59.010017
1263.000000	58.999442
1262.000000	58.984777
1261.000000	58.965224
1260.000000	58.950460
1259.000000	58.930508
1258.000000	58.915444
1257.000000	58.893896
1256.000000	58.866362
1255.000000	58.841521
1254.000000	58.821469
1253.000000	58.789845
1252.000000	58.753433
1251.000000	58.703652
1250.000000	58.655269
1249.000000	58.624742
1248.000000	58.562192
1247.000000	58.502136
1246.000000	58.447567
1245.000000	58.384519
1244.000000	58.316382
1243.000000	58.240464
1242.000000	58.166841
1241.000000	58.089627
1240.000000	58.022588
1239.000000	57.950361
1238.000000	57.864068
1237.000000	57.785357
1236.000000	57.709240
1235.000000	57.634220
1234.000000	57.554611
1233.000000	57.460537
1232.000000	57.356188
1231.000000	57.257225
1230.000000	57.159560
1229.000000	57.063091
1228.000000	56.958542
1227.000000	56.847509
1226.000000	56.738670
1225.000000	56.634421
1224.000000	56.529273
1223.000000	56.410758
1222.000000	56.283763
1221.000000	56.165147
1220.000000	56.047131
1219.000000	55.927418
1218.000000	55.813691
1217.000000	55.704553
1216.000000	55.610180
1215.000000	55.492363
1214.000000	55.382127
1213.000000	55.287953
1212.000000	55.200364
1211.000000	55.108285
1210.000000	55.012914
1209.000000	54.936298
1208.000000	54.853896
1207.000000	54.754235
1206.000000	54.682208
1205.000000	54.632727
1204.000000	54.566486
1203.000000	54.509223
1202.000000	54.470516
1201.000000	54.428816
1200.000000	54.389112
1199.000000	54.352100
1198.000000	54.299626
1197.000000	54.247252
1196.000000	54.168541
1195.000000	54.082947
1194.000000	53.972213
1193.000000	53.828258
1192.000000	53.657269
1191.000000	53.470517
1190.000000	53.264212
1189.000000	53.043143
1188.000000	52.856691
1187.000000	52.699668
1186.000000	52.599708
1185.000000	52.542645
1184.000000	52.556412
1183.000000	52.644500
1182.000000	52.796136
1181.000000	53.006032
1180.000000	53.262117
1179.000000	53.535461
1178.000000	53.811199
1177.000000	54.094419
1176.000000	54.345217
1175.000000	54.573469
1174.000000	54.778078
1173.000000	54.970615
1172.000000	55.170436
1171.000000	55.371154
1170.000000	55.568181
1169.000000	55.763113
1168.000000	55.977099
1167.000000	56.175123
1166.000000	56.391703
1165.000000	56.620354
1164.000000	56.868060
1163.000000	57.114568
1162.000000	57.349204
1161.000000	57.604192
1160.000000	57.849104
1159.000000	58.088430
1158.000000	58.326358
1157.000000	58.577156
1156.000000	58.811693
1155.000000	59.047926
1154.000000	59.242858
1153.000000	59.424322
1152.000000	59.595711
1151.000000	59.741161
1150.000000	59.865563
1149.000000	59.985874
1148.000000	60.103392
1147.000000	60.242059
1146.000000	60.380127
1145.000000	60.538447
1144.000000	60.726795
1143.000000	60.947365
1142.000000	61.154767
1141.000000	61.419731
1140.000000	61.699360
1139.000000	61.978789
1138.000000	62.293433
1137.000000	62.598301
1136.000000	62.952451
1135.000000	63.289542
1134.000000	63.664242
1133.000000	63.993751
1132.000000	64.265498
1131.000000	64.540937
1130.000000	64.792732
1129.000000	65.037146
1128.000000	65.240358
1127.000000	65.414739
1126.000000	65.557097
1125.000000	65.681898
1124.000000	65.779962
1123.000000	65.871542
1122.000000	65.953645
1121.000000	66.006618
1120.000000	66.044128
1119.000000	66.068270
1118.000000	66.102488
1117.000000	66.142990
1116.000000	66.153864
1115.000000	66.160249
1114.000000	66.162843
1113.000000	66.156159
1112.000000	66.150173
1111.000000	66.156857
1110.000000	66.146881
1109.000000	66.143888
1108.000000	66.139299
1107.000000	66.125433
1106.000000	66.128425
1105.000000	66.109770
1104.000000	66.098597
1103.000000	66.083034
1102.000000	66.075752
1101.000000	66.065277
1100.000000	66.039140
1099.000000	66.038940
1098.000000	66.009311
1097.000000	65.993948
1096.000000	65.947759
1095.000000	65.939280
1094.000000	65.922121
1093.000000	65.886007
1092.000000	65.834930
1091.000000	65.811287
1090.000000	65.766893
1089.000000	65.739060
1088.000000	65.692173
1087.000000	65.636307
1086.000000	65.587025
1085.000000	65.555501
1084.000000	65.522381
1083.000000	65.469308
1082.000000	65.405162
1081.000000	65.398378
1080.000000	65.339619
1079.000000	65.287844
1078.000000	65.217114
1077.000000	65.211726
1076.000000	65.139699
1075.000000	65.097900
1074.000000	65.054604
1073.000000	64.994149
1072.000000	64.956340
1071.000000	64.904065
1070.000000	64.865159
1069.000000	64.804105
1068.000000	64.755821
1067.000000	64.717812
1066.000000	64.663543
1065.000000	64.617553
1064.000000	64.557198
1063.000000	64.509413
1062.000000	64.472601
1061.000000	64.388503
1060.000000	64.327549
1059.000000	64.296923
1058.000000	64.228587
1057.000000	64.174118
1056.000000	64.116656
1055.000000	64.062785
1054.000000	64.004824
1053.000000	63.928009
1052.000000	63.863264
1051.000000	63.816576
1050.000000	63.747542
1049.000000	63.683196
1048.000000	63.612666
1047.000000	63.559793
1046.000000	63.496046
1045.000000	63.425216
1044.000000	63.367953
1043.000000	63.315679
1042.000000	63.236369
1041.000000	63.182100
1040.000000	63.099697
1039.000000	63.040839
1038.000000	62.975396
1037.000000	62.889103
1036.000000	62.816976
1035.000000	62.747244
1034.000000	62.664243
1033.000000	62.595209
1032.000000	62.501633
1031.000000	62.423820
1030.000000	62.319371
1029.000000	62.235971
1028.000000	62.155365
1027.000000	62.064982
1026.000000	61.964124
1025.000000	61.873442
1024.000000	61.787348
1023.000000	61.692576
1022.000000	61.611969
1021.000000	61.520888
1020.000000	61.420130
1019.000000	61.348203
1018.000000	61.258618
1017.000000	61.171627
1016.000000	61.097305
1015.000000	61.041938
1014.000000	60.971008
1013.000000	60.911451
1012.000000	60.846009
1011.000000	60.797226
1010.000000	60.734277
1009.000000	60.694772
1008.000000	60.679608
1007.000000	60.645290
1006.000000	60.597804
1005.000000	60.575259
1004.000000	60.558798
1003.000000	60.541639
1002.000000	60.519493
1001.000000	60.498942
1000.000000	60.482182
999.000000	60.476596
998.000000	60.471707
997.000000	60.448663
996.000000	60.434397
995.000000	60.442876
994.000000	60.455945
993.000000	60.456544
992.000000	60.463228
991.000000	60.469313
990.000000	60.462230
989.000000	60.477394
988.000000	60.487868
987.000000	60.502334
986.000000	60.503032
985.000000	60.512509
984.000000	60.542338
983.000000	60.567876
982.000000	60.579548
981.000000	60.590123
980.000000	60.622346
979.000000	60.644393
978.000000	60.658559
977.000000	60.681903
976.000000	60.719812
975.000000	60.754827
974.000000	60.777174
973.000000	60.818774
972.000000	60.845909
971.000000	60.878930
970.000000	60.907062
969.000000	60.958040
968.000000	61.001535
967.000000	61.031962
966.000000	61.066379
965.000000	61.107082
964.000000	61.151575
963.000000	61.203151
962.000000	61.245350
961.000000	61.294831
960.000000	61.360274
959.000000	61.433897
958.000000	61.506124
957.000000	61.565282
956.000000	61.640301
955.000000	61.731981
954.000000	61.827153
953.000000	61.927213
952.000000	62.029966
951.000000	62.152871
950.000000	62.272783
949.000000	62.375935
948.000000	62.497942
947.000000	62.618253
946.000000	62.714822
945.000000	62.822064
944.000000	62.929406
943.000000	63.006521
942.000000	63.089821
941.000000	63.204945
940.000000	63.290539
939.000000	63.362666
938.000000	63.453049
937.000000	63.552011
936.000000	63.662347
935.000000	63.767095
934.000000	63.885710
933.000000	64.010910
932.000000	64.127829
931.000000	64.262905
930.000000	64.390897
929.000000	64.498738
928.000000	64.638603
927.000000	64.780462
926.000000	64.897481
925.000000	65.023379
924.000000	65.149576
923.000000	65.262105
922.000000	65.371642
921.000000	65.466814
920.000000	65.558394
919.000000	65.669228
918.000000	65.778266
917.000000	65.881718
916.000000	65.980381
915.000000	66.103186
914.000000	66.221801
913.000000	66.314080
912.000000	66.436785
911.000000	66.567571
910.000000	66.710827
909.000000	66.848896
908.000000	66.990555
907.000000	67.125731
906.000000	67.254322
905.000000	67.390495
904.000000	67.517490
903.000000	67.641193
902.000000	67.766592
901.000000	67.876129
900.000000	68.003025
899.000000	68.118148
898.000000	68.239656
897.000000	68.365654
896.000000	68.498535
895.000000	68.632812
894.000000	68.782054
893.000000	68.927704
892.000000	69.097397
891.000000	69.258211
890.000000	69.439476
889.000000	69.616052
888.000000	69.790333
887.000000	69.966710
886.000000	70.146378
885.000000	70.333030
884.000000	70.512898
883.000000	70.676007
882.000000	70.866449
881.000000	71.035843
880.000000	71.180595
879.000000	71.329737
878.000000	71.480974
877.000000	71.579837
876.000000	71.656552
875.000000	71.694162
874.000000	71.692366
873.000000	71.694960
872.000000	71.678599
871.000000	71.709226
870.000000	71.830734
869.000000	72.014693
868.000000	72.173711
867.000000	72.343703
866.000000	72.465710
865.000000	72.579536
864.000000	72.689871
863.000000	72.793024
862.000000	72.893682
861.000000	72.982469
860.000000	73.074448
859.000000	73.148869
858.000000	73.219400
857.000000	73.126200
856.000000	73.457400
855.000000	73.074600
854.000000	72.575100
853.000000	72.973200
852.000000	72.989600
851.000000	72.769900
850.000000	72.698200
849.000000	72.913400
848.000000	73.208200
847.000000	73.612900
846.000000	73.011500
845.000000	73.222100
844.000000	72.817700
843.000000	73.510600
842.000000	73.107200
841.000000	73.484500
840.000000	73.338900
839.000000	73.365800
838.000000	73.568500
837.000000	73.697900
836.000000	73.800000
835.000000	74.057400
834.000000	74.152800
833.000000	74.148100
832.000000	74.532300
831.000000	74.877100
830.000000	75.032300
829.000000	75.623200
828.000000	75.766100
827.000000	75.930400
826.000000	76.402000
825.000000	76.590500
824.000000	77.013600
823.000000	77.210800
822.000000	77.500000
821.000000	77.829200
820.000000	78.075000
819.000000	78.446900
818.000000	78.708100
817.000000	78.769100
816.000000	79.075500
815.000000	79.282200
814.000000	79.301900
813.000000	79.475200
812.000000	79.773500
811.000000	80.070000
810.000000	80.242600
809.000000	80.606700
808.000000	80.704800
807.000000	81.100800
806.000000	81.289600
805.000000	81.687400
804.000000	82.040500
803.000000	82.100500
802.000000	82.347100
801.000000	82.650300
800.000000	82.915600
799.000000	83.288300
798.000000	83.561100
797.000000	83.644700
796.000000	84.051100
795.000000	84.381300
794.000000	84.584300
793.000000	84.966800
792.000000	85.257500
791.000000	85.533400
790.000000	85.758800
789.000000	86.237200
788.000000	86.353900
787.000000	86.794500
786.000000	86.963400
785.000000	87.472700
784.000000	87.596300
783.000000	87.768900
782.000000	87.925400
781.000000	87.984600
780.000000	87.976500
779.000000	88.050200
778.000000	88.319700
777.000000	88.366000
776.000000	88.360600
775.000000	88.577400
774.000000	88.740000
773.000000	88.682700
772.000000	88.803400
771.000000	88.970000
770.000000	89.035000
769.000000	89.014000
768.000000	89.317300
767.000000	89.323800
766.000000	89.425600
765.000000	89.647700
764.000000	89.792600
763.000000	89.817200
762.000000	90.008400
761.000000	90.059500
760.000000	90.234800
759.000000	90.353400
758.000000	90.200000
757.000000	90.291200
756.000000	90.354600
755.000000	90.447100
754.000000	90.461700
753.000000	90.636300
752.000000	90.602200
751.000000	90.631800
750.000000	90.775300
749.000000	90.740100
748.000000	90.841000
747.000000	90.760000
746.000000	90.771400
745.000000	90.933900
744.000000	90.791000
743.000000	90.768100
742.000000	90.841500
741.000000	90.728900
740.000000	90.489300
739.000000	90.392400
738.000000	90.243000
737.000000	90.052100
736.000000	89.801800
735.000000	89.496000
734.000000	89.339900
733.000000	89.055700
732.000000	88.869800
731.000000	88.568400
730.000000	88.384700
729.000000	88.183500
728.000000	87.894300
727.000000	87.725700
726.000000	87.570600
725.000000	87.508700
724.000000	87.277900
723.000000	87.090800
722.000000	87.020100
721.000000	86.927600
720.000000	86.875300
719.000000	86.741900
718.000000	86.662400
717.000000	86.459300
716.000000	86.302800
715.000000	86.237300
714.000000	86.057300
713.000000	85.830500
712.000000	85.696800
711.000000	85.509200
710.000000	85.190900
709.000000	84.944700
708.000000	84.718500
707.000000	84.492700
706.000000	84.211100
705.000000	84.048500
704.000000	83.782800
703.000000	83.549600
702.000000	83.292700
701.000000	83.076400
700.000000	82.891500
699.000000	82.686900
698.000000	82.415000
697.000000	82.130700
696.000000	81.825600
695.000000	81.585800
694.000000	81.324600
693.000000	81.023100
692.000000	80.588200
691.000000	80.211500
690.000000	79.797700
689.000000	79.258000
688.000000	78.701800
687.000000	78.168000
686.000000	77.573700
685.000000	76.954000
684.000000	76.291400
683.000000	75.660100
682.000000	74.994000
681.000000	74.337000
680.000000	73.754100
679.000000	73.103200
678.000000	72.454200
677.000000	71.850600
676.000000	71.248600
675.000000	70.718500
674.000000	70.159000
673.000000	69.598000
672.000000	68.988100
671.000000	68.350000
670.000000	67.691600
669.000000	66.995100
668.000000	66.233600
667.000000	65.457600
666.000000	64.569100
665.000000	63.567200
664.000000	62.563400
663.000000	61.502100
662.000000	60.390500
661.000000	59.266700
660.000000	58.142900
659.000000	57.093200
658.000000	56.145300
657.000000	55.239300
656.000000	54.441600
655.000000	53.834100
654.000000	53.364600
653.000000	52.989900
652.000000	52.775200
651.000000	52.746500
650.000000	52.893100
649.000000	53.141400
648.000000	53.500500
647.000000	53.942800
646.000000	54.475500
645.000000	55.086300
644.000000	55.693100
643.000000	56.410700
642.000000	57.178600
641.000000	57.914500
640.000000	58.675200
639.000000	59.489400
638.000000	60.330200
637.000000	61.164300
636.000000	62.042300
635.000000	63.000300
634.000000	64.043200
633.000000	65.072800
632.000000	66.123500
631.000000	67.236400
630.000000	68.411700
629.000000	69.615600
628.000000	70.806200
627.000000	71.972200
626.000000	73.100900
625.000000	74.229300
624.000000	75.287300
623.000000	76.283600
622.000000	77.257800
621.000000	78.158300
620.000000	78.982400
619.000000	79.692700
618.000000	80.373500
617.000000	81.013900
616.000000	81.555700
615.000000	82.076200
614.000000	82.571300
613.000000	83.019600
612.000000	83.438100
611.000000	83.809500
610.000000	84.170400
609.000000	84.505000
608.000000	84.868400
607.000000	85.155300
606.000000	85.458000
605.000000	85.815100
604.000000	86.148300
603.000000	86.425900
602.000000	86.708300
601.000000	87.061200
600.000000	87.340600
599.000000	87.592000
598.000000	87.858400
597.000000	88.071600
596.000000	88.250400
595.000000	88.403300
594.000000	88.579200
593.000000	88.689400
592.000000	88.732000
591.000000	88.830100
590.000000	88.853800
589.000000	88.846300
588.000000	88.790100
587.000000	88.751600
586.000000	88.696900
585.000000	88.590700
584.000000	88.473000
583.000000	88.381000
582.000000	88.239000
581.000000	88.060000
580.000000	87.874500
579.000000	87.705900
578.000000	87.546200
577.000000	87.383600
576.000000	87.170300
575.000000	86.977900
574.000000	86.771600
573.000000	86.542500
572.000000	86.364700
571.000000	86.128600
570.000000	85.901900
569.000000	85.693000
568.000000	85.382800
567.000000	85.102000
566.000000	84.784800
565.000000	84.450900
564.000000	84.098900
563.000000	83.737700
562.000000	83.324300
561.000000	82.928900
560.000000	82.538700
559.000000	82.048800
558.000000	81.569500
557.000000	81.107000
556.000000	80.648800
555.000000	80.127600
554.000000	79.544000
553.000000	78.933600
552.000000	78.311000
551.000000	77.678000
550.000000	76.972100
549.000000	76.151400
548.000000	75.345000
547.000000	74.472400
546.000000	73.488000
545.000000	72.451400
544.000000	71.347900
543.000000	70.141700
542.000000	68.904200
541.000000	67.615900
540.000000	66.259600
539.000000	64.892600
538.000000	63.487900
537.000000	62.074300
536.000000	60.614300
535.000000	59.178000
534.000000	57.752500
533.000000	56.288700
532.000000	54.882200
531.000000	53.496400
530.000000	52.121400
529.000000	50.851300
528.000000	49.583900
527.000000	48.339500
526.000000	47.195000
525.000000	46.040200
524.000000	44.940600
523.000000	43.883000
522.000000	42.889100
521.000000	41.976700
520.000000	41.113900
519.000000	40.338300
518.000000	39.605100
517.000000	38.935700
516.000000	38.329200
515.000000	37.751400
514.000000	37.202800
513.000000	36.692100
512.000000	36.229600
511.000000	35.776900
510.000000	35.363600
509.000000	34.898300
508.000000	34.506600
507.000000	34.051300
506.000000	33.629500
505.000000	33.199700
504.000000	32.773900
503.000000	32.297100
502.000000	31.839800
501.000000	31.373500
500.000000	30.871000
499.000000	30.392800
498.000000	29.933900
497.000000	29.429000
496.000000	28.905600
495.000000	28.411400
494.000000	27.891700
493.000000	27.375300
492.000000	26.896700
491.000000	26.395500
490.000000	25.910700
489.000000	25.473000
488.000000	25.053700
487.000000	24.672400
486.000000	24.325600
485.000000	23.990900
484.000000	23.714900
483.000000	23.447100
482.000000	23.245900
481.000000	23.068300
480.000000	22.947500
479.000000	22.882800
478.000000	22.862900
477.000000	22.879800
476.000000	22.919700
475.000000	22.999100
474.000000	23.129400
473.000000	23.231300
472.000000	23.350800
471.000000	23.501900
470.000000	23.686600
469.000000	23.868700
468.000000	23.989700
467.000000	24.160200
466.000000	24.332100
465.000000	24.508400
464.000000	24.636200
463.000000	24.783100
462.000000	24.914200
461.000000	25.034500
460.000000	25.153600
459.000000	25.216200
458.000000	25.276500
457.000000	25.326700
456.000000	25.414900
455.000000	25.403100
454.000000	25.402000
453.000000	25.368500
452.000000	25.294500
451.000000	25.228100
450.000000	25.165400
449.000000	25.090600
448.000000	24.986600
447.000000	24.842800
446.000000	24.692500
445.000000	24.535600
444.000000	24.348100
443.000000	24.125000
442.000000	23.962900
441.000000	23.718800
440.000000	23.513200
439.000000	23.270500
438.000000	22.974800
437.000000	22.686900
436.000000	22.384200
435.000000	22.110600
434.000000	21.770100
433.000000	21.446100
432.000000	21.114500
431.000000	20.755400
430.000000	20.435400
429.000000	20.064700
428.000000	19.684500
427.000000	19.284700
426.000000	18.917800
425.000000	18.532800
424.000000	18.148100
423.000000	17.757500
422.000000	17.319100
421.000000	16.913200
420.000000	16.502800
419.000000	16.112900
418.000000	15.689800
417.000000	15.268700
416.000000	14.898300
415.000000	14.494700
414.000000	14.100400
413.000000	13.713000
412.000000	13.322700
411.000000	12.957900
410.000000	12.610400
409.000000	12.261000
408.000000	11.954400
407.000000	11.629300
406.000000	11.310100
405.000000	11.004600
404.000000	10.752200
403.000000	10.489000
402.000000	10.244900
401.000000	9.978800
400.000000	9.759100
399.000000	9.536900
398.000000	9.348600
397.000000	9.176400
396.000000	8.990000
395.000000	8.830700
394.000000	8.676700
393.000000	8.535300
392.000000	8.403400
391.000000	8.270900
390.000000	8.146300
389.000000	8.037300
388.000000	7.937300
387.000000	7.840200
386.000000	7.726100
385.000000	7.647600
384.000000	7.560300
383.000000	7.463400
382.000000	7.411900
381.000000	7.334100
380.000000	7.277700
379.000000	7.246800
378.000000	7.164800
377.000000	7.103400
376.000000	7.033200
375.000000	6.814500
374.000000	6.652500
373.000000	6.785900
372.000000	6.700500
371.000000	6.693800
370.000000	6.690000
369.000000	6.679000
368.000000	6.773200
367.000000	6.721100
366.000000	6.646900
365.000000	6.535900
364.000000	6.606100
363.000000	6.642000
362.000000	6.547000
361.000000	6.422200
360.000000	6.208300
359.000000	6.278500
358.000000	6.381600
357.000000	6.529500
356.000000	6.487500
355.000000	6.448000
354.000000	6.389500
353.000000	6.312800
352.000000	6.408900
351.000000	6.361900
350.000000	6.326500
349.000000	6.163400
348.000000	5.950900
347.000000	6.058800
346.000000	6.138200
345.000000	6.086700
344.000000	5.998300
343.000000	6.117900
342.000000	6.178500
341.000000	6.131600
340.000000	6.053700
339.000000	5.851900
338.000000	5.937200
337.000000	5.998200
336.000000	6.174000
335.000000	6.272600
334.000000	6.132300
333.000000	6.128600
332.000000	6.128900
331.000000	6.123400
330.000000	6.215800
329.000000	6.040600
328.000000	5.937700
327.000000	6.193500
326.000000	6.379700
325.000000	6.554100
324.000000	6.464300
323.000000	5.840800
322.000000	5.761100
321.000000	5.987600
320.000000	6.454200
319.000000	6.618800
318.000000	6.452200
317.000000	6.531300
316.000000	6.187600
315.000000	5.816000
314.000000	5.793900
313.000000	5.815600
312.000000	5.819600
311.000000	5.823600
310.000000	5.805400
309.000000	5.777300
308.000000	5.808200
307.000000	5.794800
306.000000	5.811400
305.000000	5.846300
304.000000	5.857700
303.000000	5.884200
302.000000	5.831500
301.000000	5.835500
300.000000	5.826600
299.000000	5.872000
298.000000	5.854200
297.000000	5.803400
296.000000	5.834700
295.000000	5.855700
294.000000	5.823700
293.000000	5.837800
292.000000	5.825500
291.000000	5.854700
290.000000	5.865400
289.000000	5.878600
288.000000	5.905100
287.000000	5.876800
286.000000	5.891000
285.000000	5.914400
284.000000	5.925600
283.000000	5.900500
282.000000	5.898400
281.000000	5.893800
280.000000	5.909200
279.000000	5.897000
278.000000	5.905200
277.000000	5.904500
276.000000	5.944300
275.000000	5.957400
274.000000	5.974100
273.000000	5.999100
272.000000	6.020900
271.000000	6.022700
270.000000	6.039800
269.000000	6.050600
268.000000	6.034400
267.000000	6.049900
266.000000	6.045400
265.000000	6.094600
264.000000	6.133800
263.000000	6.164000
262.000000	6.200500
261.000000	6.226800
260.000000	6.205600
259.000000	6.261200
258.000000	6.291800
257.000000	6.316800
256.000000	6.330800
255.000000	6.299000
254.000000	6.326700
253.000000	6.346800
252.000000	6.370200
251.000000	6.315700
250.000000	6.320300
