PE UV       SUBTECH     SPECTRUM    ASCII       PEDS        4.00        
   -1
CICIMAUCR0236-2..ASC
24/06/17
13:53:45.00
24/06/17
13:53:45.00
Vinicio Soto Monge
C. resplendens. Sex M. Dorsal.
250,000000
1
Lambda 1050
1050L1511233
PerkinElmer UV WinLab 6.3.2.0749 / 2.02.05 Lambda 900 UV/VIS/NIR, Aug  7 2015 09:38:08

0
0
3350/servo 860,8/2
0
0
UV/VIS
1
1
1
DoubleDePol,CommonBeamDepol,RBeamAtt,SBeamAtt,60mm sphere, WB InGaAs Detector
0
0
0
0
Program
Program
3350/servo 860,8/2
3350/0,2 860,8/0,2
3350/0,2 860,8/0,2
0
15.00
 
 
 
0
 
860,8
319,2
860,8
Front
100
on
S:100 R:100
0
0
0
0
 
0
 
 
 
0
 
 
0
0
0
0
0
 
 
 
 
0
0


0
0
#HDR
-1
-1
#GR
nm
%R
1.0
0.0
2500,000000
-1,000000
2251
8
91,742500
5,485700
#DATA
2500.000000	8.498847
2499.000000	8.599537
2498.000000	8.676258
2497.000000	8.534643
2496.000000	8.604352
2495.000000	8.650719
2494.000000	8.462737
2493.000000	8.445677
2492.000000	8.460435
2491.000000	8.366653
2490.000000	8.435629
2489.000000	8.418672
2488.000000	8.459179
2487.000000	8.476553
2486.000000	8.434163
2485.000000	8.404019
2484.000000	8.462423
2483.000000	8.420138
2482.000000	8.413648
2481.000000	8.458865
2480.000000	8.485031
2479.000000	8.446933
2478.000000	8.472053
2477.000000	8.457609
2476.000000	8.481054
2475.000000	8.511721
2474.000000	8.509419
2473.000000	8.546471
2472.000000	8.507221
2471.000000	8.548983
2470.000000	8.590117
2469.000000	8.569602
2468.000000	8.547413
2467.000000	8.549401
2466.000000	8.593466
2465.000000	8.642764
2464.000000	8.695726
2463.000000	8.678874
2462.000000	8.703471
2461.000000	8.752246
2460.000000	8.760933
2459.000000	8.814732
2458.000000	8.842259
2457.000000	8.882033
2456.000000	8.921178
2455.000000	8.986072
2454.000000	9.036312
2453.000000	9.094821
2452.000000	9.153748
2451.000000	9.224922
2450.000000	9.256426
2449.000000	9.318284
2448.000000	9.381085
2447.000000	9.440849
2446.000000	9.481879
2445.000000	9.563519
2444.000000	9.612398
2443.000000	9.676455
2442.000000	9.745221
2441.000000	9.809486
2440.000000	9.863390
2439.000000	9.930481
2438.000000	10.002178
2437.000000	10.070002
2436.000000	10.095436
2435.000000	10.157399
2434.000000	10.222606
2433.000000	10.274312
2432.000000	10.322249
2431.000000	10.374687
2430.000000	10.429742
2429.000000	10.485111
2428.000000	10.528338
2427.000000	10.583184
2426.000000	10.620969
2425.000000	10.675291
2424.000000	10.732544
2423.000000	10.772526
2422.000000	10.807904
2421.000000	10.847677
2420.000000	10.881589
2419.000000	10.946797
2418.000000	10.977359
2417.000000	10.989187
2416.000000	11.039218
2415.000000	11.071350
2414.000000	11.109868
2413.000000	11.137290
2412.000000	11.177901
2411.000000	11.230130
2410.000000	11.265403
2409.000000	11.293872
2408.000000	11.332704
2407.000000	11.374047
2406.000000	11.414134
2405.000000	11.462700
2404.000000	11.516708
2403.000000	11.548003
2402.000000	11.581497
2401.000000	11.612269
2400.000000	11.643564
2399.000000	11.681454
2398.000000	11.705632
2397.000000	11.754825
2396.000000	11.800983
2395.000000	11.813334
2394.000000	11.841175
2393.000000	11.882728
2392.000000	11.905231
2391.000000	11.929096
2390.000000	11.951390
2389.000000	11.982790
2388.000000	12.017120
2387.000000	12.045485
2386.000000	12.076781
2385.000000	12.095621
2384.000000	12.111635
2383.000000	12.115612
2382.000000	12.130579
2381.000000	12.166899
2380.000000	12.172865
2379.000000	12.179877
2378.000000	12.170457
2377.000000	12.174121
2376.000000	12.187727
2375.000000	12.193275
2374.000000	12.207195
2373.000000	12.212847
2372.000000	12.199136
2371.000000	12.197775
2370.000000	12.199136
2369.000000	12.204997
2368.000000	12.188983
2367.000000	12.166585
2366.000000	12.160933
2365.000000	12.161875
2364.000000	12.155909
2363.000000	12.134138
2362.000000	12.114775
2361.000000	12.089864
2360.000000	12.061708
2359.000000	12.031774
2358.000000	12.007910
2357.000000	11.990744
2356.000000	11.969811
2355.000000	11.954844
2354.000000	11.953169
2353.000000	11.941551
2352.000000	11.942493
2351.000000	11.949401
2350.000000	11.961124
2349.000000	11.977242
2348.000000	11.989802
2347.000000	12.006130
2346.000000	12.041194
2345.000000	12.095830
2344.000000	12.131835
2343.000000	12.156223
2342.000000	12.219965
2341.000000	12.269682
2340.000000	12.292394
2339.000000	12.319398
2338.000000	12.351112
2337.000000	12.392037
2336.000000	12.428775
2335.000000	12.456721
2334.000000	12.472212
2333.000000	12.485400
2332.000000	12.504973
2331.000000	12.508113
2330.000000	12.505601
2329.000000	12.508427
2328.000000	12.496285
2327.000000	12.468235
2326.000000	12.455361
2325.000000	12.428671
2324.000000	12.387746
2323.000000	12.351217
2322.000000	12.313014
2321.000000	12.286114
2320.000000	12.239014
2319.000000	12.166480
2318.000000	12.099179
2317.000000	12.049253
2316.000000	11.965938
2315.000000	11.887647
2314.000000	11.807682
2313.000000	11.750952
2312.000000	11.670778
2311.000000	11.612688
2310.000000	11.551248
2309.000000	11.497135
2308.000000	11.453070
2307.000000	11.419786
2306.000000	11.404819
2305.000000	11.382316
2304.000000	11.382944
2303.000000	11.408796
2302.000000	11.438208
2301.000000	11.468980
2300.000000	11.512103
2299.000000	11.567053
2298.000000	11.656962
2297.000000	11.728030
2296.000000	11.805170
2295.000000	11.879483
2294.000000	11.974835
2293.000000	12.067779
2292.000000	12.142407
2291.000000	12.203532
2290.000000	12.245713
2289.000000	12.289045
2288.000000	12.336040
2287.000000	12.371313
2286.000000	12.379896
2285.000000	12.402295
2284.000000	12.407214
2283.000000	12.409831
2282.000000	12.398108
2281.000000	12.375919
2280.000000	12.342111
2279.000000	12.309874
2278.000000	12.265600
2277.000000	12.223000
2276.000000	12.201020
2275.000000	12.164491
2274.000000	12.133405
2273.000000	12.097923
2272.000000	12.081491
2271.000000	12.062336
2270.000000	12.074164
2269.000000	12.074164
2268.000000	12.112577
2267.000000	12.153606
2266.000000	12.198717
2265.000000	12.294488
2264.000000	12.369638
2263.000000	12.502356
2262.000000	12.628794
2261.000000	12.769257
2260.000000	12.945306
2259.000000	13.132346
2258.000000	13.299604
2257.000000	13.484969
2256.000000	13.684255
2255.000000	13.889716
2254.000000	14.124065
2253.000000	14.313303
2252.000000	14.501389
2251.000000	14.701512
2250.000000	14.889389
2249.000000	15.069730
2248.000000	15.231545
2247.000000	15.393256
2246.000000	15.538743
2245.000000	15.676798
2244.000000	15.815901
2243.000000	15.928313
2242.000000	16.014559
2241.000000	16.137437
2240.000000	16.210809
2239.000000	16.280308
2238.000000	16.346981
2237.000000	16.422550
2236.000000	16.480117
2235.000000	16.556628
2234.000000	16.596611
2233.000000	16.647793
2232.000000	16.651143
2231.000000	16.677205
2230.000000	16.731422
2229.000000	16.736760
2228.000000	16.745343
2227.000000	16.727549
2226.000000	16.726084
2225.000000	16.719699
2224.000000	16.690707
2223.000000	16.680345
2222.000000	16.677937
2221.000000	16.617440
2220.000000	16.629372
2219.000000	16.579132
2218.000000	16.537998
2217.000000	16.489956
2216.000000	16.470278
2215.000000	16.427469
2214.000000	16.389789
2213.000000	16.345725
2212.000000	16.327094
2211.000000	16.276749
2210.000000	16.241581
2209.000000	16.226614
2208.000000	16.196470
2207.000000	16.158475
2206.000000	16.132623
2205.000000	16.102165
2204.000000	16.093268
2203.000000	16.056425
2202.000000	16.064799
2201.000000	16.067729
2200.000000	16.024188
2199.000000	15.990276
2198.000000	15.982530
2197.000000	15.973110
2196.000000	15.976355
2195.000000	15.959294
2194.000000	15.945478
2193.000000	15.923812
2192.000000	15.911566
2191.000000	15.892517
2190.000000	15.893982
2189.000000	15.871793
2188.000000	15.851487
2187.000000	15.832961
2186.000000	15.818831
2185.000000	15.815482
2184.000000	15.803131
2183.000000	15.793816
2182.000000	15.749856
2181.000000	15.728190
2180.000000	15.732272
2179.000000	15.733737
2178.000000	15.679310
2177.000000	15.698046
2176.000000	15.661098
2175.000000	15.657121
2174.000000	15.653353
2173.000000	15.631059
2172.000000	15.635978
2171.000000	15.627710
2170.000000	15.622581
2169.000000	15.641002
2168.000000	15.634304
2167.000000	15.657121
2166.000000	15.653144
2165.000000	15.676694
2164.000000	15.692603
2163.000000	15.709140
2162.000000	15.709350
2161.000000	15.728085
2160.000000	15.767126
2159.000000	15.789734
2158.000000	15.796747
2157.000000	15.836834
2156.000000	15.877445
2155.000000	15.926115
2154.000000	15.955526
2153.000000	15.978448
2152.000000	16.023560
2151.000000	16.057472
2150.000000	16.093268
2149.000000	16.148323
2148.000000	16.191446
2147.000000	16.220229
2146.000000	16.260840
2145.000000	16.318616
2144.000000	16.355249
2143.000000	16.384451
2142.000000	16.423701
2141.000000	16.460649
2140.000000	16.491421
2139.000000	16.515704
2138.000000	16.562594
2137.000000	16.583946
2136.000000	16.619847
2135.000000	16.653341
2134.000000	16.674483
2133.000000	16.700022
2132.000000	16.723153
2131.000000	16.744191
2130.000000	16.758635
2129.000000	16.775278
2128.000000	16.776743
2127.000000	16.802910
2126.000000	16.805003
2125.000000	16.793594
2124.000000	16.803538
2123.000000	16.827088
2122.000000	16.836822
2121.000000	16.837554
2120.000000	16.809399
2119.000000	16.792757
2118.000000	16.792338
2117.000000	16.780720
2116.000000	16.774336
2115.000000	16.773917
2114.000000	16.747541
2113.000000	16.724095
2112.000000	16.692905
2111.000000	16.680449
2110.000000	16.689241
2109.000000	16.671762
2108.000000	16.642874
2107.000000	16.606031
2106.000000	16.579341
2105.000000	16.582586
2104.000000	16.566781
2103.000000	16.527531
2102.000000	16.487339
2101.000000	16.456043
2100.000000	16.438459
2099.000000	16.406327
2098.000000	16.397744
2097.000000	16.369484
2096.000000	16.334421
2095.000000	16.319453
2094.000000	16.289100
2093.000000	16.267852
2092.000000	16.245244
2091.000000	16.217508
2090.000000	16.200656
2089.000000	16.189352
2088.000000	16.172292
2087.000000	16.142985
2086.000000	16.120691
2085.000000	16.085313
2084.000000	16.052971
2083.000000	16.036643
2082.000000	16.006499
2081.000000	15.969028
2080.000000	15.939408
2079.000000	15.896599
2078.000000	15.847405
2077.000000	15.796956
2076.000000	15.750170
2075.000000	15.703174
2074.000000	15.664448
2073.000000	15.614522
2072.000000	15.556955
2071.000000	15.508913
2070.000000	15.441089
2069.000000	15.382161
2068.000000	15.335794
2067.000000	15.276866
2066.000000	15.219299
2065.000000	15.170106
2064.000000	15.114947
2063.000000	15.047960
2062.000000	14.990393
2061.000000	14.954283
2060.000000	14.911474
2059.000000	14.850035
2058.000000	14.799794
2057.000000	14.793828
2056.000000	14.784304
2055.000000	14.759184
2054.000000	14.732598
2053.000000	14.714491
2052.000000	14.730819
2051.000000	14.742332
2050.000000	14.759498
2049.000000	14.785664
2048.000000	14.819681
2047.000000	14.863955
2046.000000	14.892320
2045.000000	14.917859
2044.000000	14.972704
2043.000000	15.023049
2042.000000	15.064078
2041.000000	15.104061
2040.000000	15.157441
2039.000000	15.183294
2038.000000	15.211973
2037.000000	15.256561
2036.000000	15.298846
2035.000000	15.323757
2034.000000	15.337364
2033.000000	15.355785
2032.000000	15.376509
2031.000000	15.402048
2030.000000	15.394930
2029.000000	15.393988
2028.000000	15.398280
2027.000000	15.413247
2026.000000	15.401629
2025.000000	15.383731
2024.000000	15.389069
2023.000000	15.387918
2022.000000	15.362693
2021.000000	15.360600
2020.000000	15.343016
2019.000000	15.305545
2018.000000	15.284298
2017.000000	15.270272
2016.000000	15.227987
2015.000000	15.215741
2014.000000	15.192609
2013.000000	15.173141
2012.000000	15.116203
2011.000000	15.065020
2010.000000	15.021165
2009.000000	14.983904
2008.000000	14.952190
2007.000000	14.886459
2006.000000	14.833916
2005.000000	14.781373
2004.000000	14.722864
2003.000000	14.670740
2002.000000	14.597159
2001.000000	14.553932
2000.000000	14.493434
1999.000000	14.409492
1998.000000	14.347634
1997.000000	14.254271
1996.000000	14.199844
1995.000000	14.141021
1994.000000	14.058753
1993.000000	13.964762
1992.000000	13.892019
1991.000000	13.807448
1990.000000	13.721935
1989.000000	13.656099
1988.000000	13.584716
1987.000000	13.501402
1986.000000	13.415156
1985.000000	13.330167
1984.000000	13.237013
1983.000000	13.183947
1982.000000	13.084723
1981.000000	12.990313
1980.000000	12.909929
1979.000000	12.827870
1978.000000	12.738694
1977.000000	12.659042
1976.000000	12.587974
1975.000000	12.480376
1974.000000	12.413808
1973.000000	12.332796
1972.000000	12.260366
1971.000000	12.167003
1970.000000	12.093737
1969.000000	12.032925
1968.000000	11.942493
1967.000000	11.869959
1966.000000	11.811450
1965.000000	11.728030
1964.000000	11.650054
1963.000000	11.589033
1962.000000	11.509905
1961.000000	11.435068
1960.000000	11.389956
1959.000000	11.305281
1958.000000	11.239236
1957.000000	11.158433
1956.000000	11.110705
1955.000000	11.039950
1954.000000	10.991175
1953.000000	10.913408
1952.000000	10.851236
1951.000000	10.808322
1950.000000	10.764258
1949.000000	10.722182
1948.000000	10.664301
1947.000000	10.612281
1946.000000	10.555447
1945.000000	10.513266
1944.000000	10.480924
1943.000000	10.437278
1942.000000	10.435290
1941.000000	10.404727
1940.000000	10.367989
1939.000000	10.367361
1938.000000	10.365477
1937.000000	10.349986
1936.000000	10.334391
1935.000000	10.356999
1934.000000	10.340147
1933.000000	10.396772
1932.000000	10.382956
1931.000000	10.426184
1930.000000	10.456118
1929.000000	10.488565
1928.000000	10.557017
1927.000000	10.617515
1926.000000	10.725740
1925.000000	10.746988
1924.000000	10.855213
1923.000000	10.896871
1922.000000	10.993478
1921.000000	11.122323
1920.000000	11.246667
1919.000000	11.398016
1918.000000	11.489076
1917.000000	11.614886
1916.000000	11.741951
1915.000000	11.863365
1914.000000	12.046322
1913.000000	12.233153
1912.000000	12.432020
1911.000000	12.603360
1910.000000	12.779200
1909.000000	12.958390
1908.000000	13.109215
1907.000000	13.328597
1906.000000	13.570272
1905.000000	13.846384
1904.000000	14.124274
1903.000000	14.391280
1902.000000	14.644364
1901.000000	14.935129
1900.000000	15.245257
1899.000000	15.578935
1898.000000	15.924545
1897.000000	16.292240
1896.000000	16.643397
1895.000000	16.969016
1894.000000	17.301752
1893.000000	17.666097
1892.000000	18.091568
1891.000000	18.566965
1890.000000	19.054504
1889.000000	19.494733
1888.000000	19.954325
1887.000000	20.401462
1886.000000	20.884500
1885.000000	21.348802
1884.000000	21.871718
1883.000000	22.431895
1882.000000	22.973128
1881.000000	23.461294
1880.000000	23.958253
1879.000000	24.393039
1878.000000	24.858074
1877.000000	25.323109
1876.000000	25.723669
1875.000000	26.131870
1874.000000	26.559225
1873.000000	26.977160
1872.000000	27.386826
1871.000000	27.761115
1870.000000	28.162722
1869.000000	28.493679
1868.000000	28.831334
1867.000000	29.091850
1866.000000	29.303172
1865.000000	29.502249
1864.000000	29.680392
1863.000000	29.814051
1862.000000	29.975343
1861.000000	30.154638
1860.000000	30.331106
1859.000000	30.464766
1858.000000	30.603031
1857.000000	30.745587
1856.000000	30.844288
1855.000000	30.899133
1854.000000	31.000032
1853.000000	31.093290
1852.000000	31.119457
1851.000000	31.163103
1850.000000	31.178280
1849.000000	31.198899
1848.000000	31.243278
1847.000000	31.322615
1846.000000	31.345014
1845.000000	31.321673
1844.000000	31.301891
1843.000000	31.274678
1842.000000	31.294460
1841.000000	31.346584
1840.000000	31.350143
1839.000000	31.346480
1838.000000	31.327221
1837.000000	31.316859
1836.000000	31.298961
1835.000000	31.286610
1834.000000	31.254268
1833.000000	31.215018
1832.000000	31.178175
1831.000000	31.136622
1830.000000	31.111607
1829.000000	31.084394
1828.000000	31.026303
1827.000000	30.959945
1826.000000	30.931999
1825.000000	30.904890
1824.000000	30.870454
1823.000000	30.845230
1822.000000	30.832251
1821.000000	30.833507
1820.000000	30.814562
1819.000000	30.807131
1818.000000	30.767253
1817.000000	30.721618
1816.000000	30.704767
1815.000000	30.716280
1814.000000	30.714082
1813.000000	30.696812
1812.000000	30.673785
1811.000000	30.652329
1810.000000	30.619673
1809.000000	30.581469
1808.000000	30.544208
1807.000000	30.520658
1806.000000	30.518250
1805.000000	30.489676
1804.000000	30.431586
1803.000000	30.396941
1802.000000	30.363657
1801.000000	30.318441
1800.000000	30.288402
1799.000000	30.248419
1798.000000	30.191690
1797.000000	30.145741
1796.000000	30.112875
1795.000000	30.078545
1794.000000	30.054157
1793.000000	30.029770
1792.000000	29.987485
1791.000000	29.954096
1790.000000	29.911496
1789.000000	29.867641
1788.000000	29.833520
1787.000000	29.806620
1786.000000	29.780244
1785.000000	29.732516
1784.000000	29.691382
1783.000000	29.653911
1782.000000	29.608276
1781.000000	29.559397
1780.000000	29.513971
1779.000000	29.474617
1778.000000	29.439449
1777.000000	29.396535
1776.000000	29.346190
1775.000000	29.284123
1774.000000	29.229068
1773.000000	29.176839
1772.000000	29.114981
1771.000000	29.052600
1770.000000	28.978914
1769.000000	28.931710
1768.000000	28.863362
1767.000000	28.788944
1766.000000	28.739018
1765.000000	28.690243
1764.000000	28.655389
1763.000000	28.643248
1762.000000	28.632048
1761.000000	28.636026
1760.000000	28.667530
1759.000000	28.687417
1758.000000	28.728970
1757.000000	28.788839
1756.000000	28.848918
1755.000000	28.892669
1754.000000	28.940920
1753.000000	28.974623
1752.000000	29.006965
1751.000000	29.024654
1750.000000	29.032399
1749.000000	29.041505
1748.000000	29.031352
1747.000000	28.991893
1746.000000	28.956830
1745.000000	28.912137
1744.000000	28.859280
1743.000000	28.788002
1742.000000	28.691604
1741.000000	28.584111
1740.000000	28.478188
1739.000000	28.355728
1738.000000	28.239233
1737.000000	28.101178
1736.000000	27.992115
1735.000000	27.886611
1734.000000	27.812716
1733.000000	27.776501
1732.000000	27.751276
1731.000000	27.736414
1730.000000	27.749392
1729.000000	27.793771
1728.000000	27.842441
1727.000000	27.909219
1726.000000	27.973589
1725.000000	28.028330
1724.000000	28.076790
1723.000000	28.135299
1722.000000	28.174863
1721.000000	28.234628
1720.000000	28.271261
1719.000000	28.322758
1718.000000	28.392989
1717.000000	28.436949
1716.000000	28.534185
1715.000000	28.606614
1714.000000	28.668891
1713.000000	28.740169
1712.000000	28.827252
1711.000000	28.897169
1710.000000	28.918940
1709.000000	28.965412
1708.000000	28.991893
1707.000000	29.002569
1706.000000	28.999115
1705.000000	28.965936
1704.000000	28.939350
1703.000000	28.899158
1702.000000	28.836881
1701.000000	28.760893
1700.000000	28.688987
1699.000000	28.594787
1698.000000	28.506553
1697.000000	28.401153
1696.000000	28.296277
1695.000000	28.252212
1694.000000	28.248863
1693.000000	28.262783
1692.000000	28.292299
1691.000000	28.369962
1690.000000	28.457150
1689.000000	28.572283
1688.000000	28.662925
1687.000000	28.736401
1686.000000	28.795643
1685.000000	28.874666
1684.000000	28.945840
1683.000000	29.051762
1682.000000	29.200599
1681.000000	29.402815
1680.000000	29.656737
1679.000000	29.971889
1678.000000	30.279505
1677.000000	30.607741
1676.000000	30.948327
1675.000000	31.242231
1674.000000	31.529123
1673.000000	31.751226
1672.000000	31.993321
1671.000000	32.171883
1670.000000	32.345525
1669.000000	32.515399
1668.000000	32.639220
1667.000000	32.730490
1666.000000	32.806687
1665.000000	32.919832
1664.000000	32.987656
1663.000000	33.055376
1662.000000	33.123933
1661.000000	33.169568
1660.000000	33.228076
1659.000000	33.277898
1658.000000	33.296110
1657.000000	33.342373
1656.000000	33.351688
1655.000000	33.356293
1654.000000	33.372726
1653.000000	33.377017
1652.000000	33.379320
1651.000000	33.349071
1650.000000	33.332325
1649.000000	33.312752
1648.000000	33.304902
1647.000000	33.280514
1646.000000	33.239694
1645.000000	33.202328
1644.000000	33.165590
1643.000000	33.129689
1642.000000	33.095359
1641.000000	33.060714
1640.000000	33.005973
1639.000000	32.975724
1638.000000	32.925170
1637.000000	32.861637
1636.000000	32.828353
1635.000000	32.758227
1634.000000	32.718453
1633.000000	32.644872
1632.000000	32.595993
1631.000000	32.528692
1630.000000	32.458042
1629.000000	32.403196
1628.000000	32.337570
1627.000000	32.273619
1626.000000	32.199619
1625.000000	32.146553
1624.000000	32.085428
1623.000000	32.012161
1622.000000	31.947686
1621.000000	31.872640
1620.000000	31.804502
1619.000000	31.751331
1618.000000	31.679739
1617.000000	31.608147
1616.000000	31.532159
1615.000000	31.476580
1614.000000	31.443820
1613.000000	31.364692
1612.000000	31.301682
1611.000000	31.240138
1610.000000	31.187595
1609.000000	31.108467
1608.000000	31.049958
1607.000000	30.998881
1606.000000	30.936813
1605.000000	30.874327
1604.000000	30.794466
1603.000000	30.733550
1602.000000	30.671064
1601.000000	30.608997
1600.000000	30.532485
1599.000000	30.469999
1598.000000	30.418503
1597.000000	30.354970
1596.000000	30.299811
1595.000000	30.220054
1594.000000	30.177350
1593.000000	30.115701
1592.000000	30.052169
1591.000000	29.999312
1590.000000	29.942373
1589.000000	29.890354
1588.000000	29.835194
1587.000000	29.787675
1586.000000	29.745285
1585.000000	29.697453
1584.000000	29.636432
1583.000000	29.598542
1582.000000	29.558874
1581.000000	29.511355
1580.000000	29.466767
1579.000000	29.430552
1578.000000	29.400199
1577.000000	29.369740
1576.000000	29.338654
1575.000000	29.308406
1574.000000	29.285170
1573.000000	29.264969
1572.000000	29.241524
1571.000000	29.225719
1570.000000	29.212426
1569.000000	29.183433
1568.000000	29.169199
1567.000000	29.169722
1566.000000	29.153708
1565.000000	29.135287
1564.000000	29.108806
1563.000000	29.109225
1562.000000	29.105352
1561.000000	29.075627
1560.000000	29.061287
1559.000000	29.040668
1558.000000	29.015966
1557.000000	29.000057
1556.000000	28.967506
1555.000000	28.949189
1554.000000	28.894657
1553.000000	28.847453
1552.000000	28.829450
1551.000000	28.785490
1550.000000	28.748333
1549.000000	28.707722
1548.000000	28.658529
1547.000000	28.597089
1546.000000	28.556897
1545.000000	28.518694
1544.000000	28.486038
1543.000000	28.446578
1542.000000	28.413608
1541.000000	28.380638
1540.000000	28.341912
1539.000000	28.301929
1538.000000	28.262469
1537.000000	28.232849
1536.000000	28.196739
1535.000000	28.152360
1534.000000	28.112900
1533.000000	28.070510
1532.000000	28.036389
1531.000000	27.983427
1530.000000	27.931303
1529.000000	27.881063
1528.000000	27.829881
1527.000000	27.773989
1526.000000	27.712654
1525.000000	27.654564
1524.000000	27.601079
1523.000000	27.533360
1522.000000	27.475270
1521.000000	27.421785
1520.000000	27.357310
1519.000000	27.281531
1518.000000	27.208788
1517.000000	27.137510
1516.000000	27.066022
1515.000000	26.997151
1514.000000	26.930792
1513.000000	26.854176
1512.000000	26.778397
1511.000000	26.715074
1510.000000	26.640865
1509.000000	26.560690
1508.000000	26.498728
1507.000000	26.426717
1506.000000	26.331470
1505.000000	26.256738
1504.000000	26.178551
1503.000000	26.102982
1502.000000	26.024482
1501.000000	25.940644
1500.000000	25.883705
1499.000000	25.804891
1498.000000	25.734869
1497.000000	25.668614
1496.000000	25.593987
1495.000000	25.535269
1494.000000	25.469538
1493.000000	25.405482
1492.000000	25.352625
1491.000000	25.287208
1490.000000	25.247435
1489.000000	25.200439
1488.000000	25.140465
1487.000000	25.089178
1486.000000	25.041974
1485.000000	24.995606
1484.000000	24.946099
1483.000000	24.904441
1482.000000	24.866343
1481.000000	24.827407
1480.000000	24.801554
1479.000000	24.756338
1478.000000	24.726089
1477.000000	24.706307
1476.000000	24.689246
1475.000000	24.672081
1474.000000	24.651880
1473.000000	24.641309
1472.000000	24.649787
1471.000000	24.640681
1470.000000	24.620689
1469.000000	24.605408
1468.000000	24.607292
1467.000000	24.618910
1466.000000	24.628749
1465.000000	24.635657
1464.000000	24.635133
1463.000000	24.648635
1462.000000	24.688514
1461.000000	24.716355
1460.000000	24.745662
1459.000000	24.774236
1458.000000	24.810136
1457.000000	24.870006
1456.000000	24.909361
1455.000000	24.980325
1454.000000	25.029518
1453.000000	25.102785
1452.000000	25.174482
1451.000000	25.234456
1450.000000	25.330226
1449.000000	25.384548
1448.000000	25.447139
1447.000000	25.524069
1446.000000	25.628004
1445.000000	25.714040
1444.000000	25.791389
1443.000000	25.866016
1442.000000	25.945458
1441.000000	26.050544
1440.000000	26.142755
1439.000000	26.257784
1438.000000	26.358893
1437.000000	26.470049
1436.000000	26.567912
1435.000000	26.685244
1434.000000	26.808123
1433.000000	26.933723
1432.000000	27.079733
1431.000000	27.201042
1430.000000	27.334179
1429.000000	27.450568
1428.000000	27.625781
1427.000000	27.763836
1426.000000	27.916545
1425.000000	28.108504
1424.000000	28.304022
1423.000000	28.475257
1422.000000	28.659262
1421.000000	28.879167
1420.000000	29.081907
1419.000000	29.322850
1418.000000	29.560758
1417.000000	29.763288
1416.000000	29.968854
1415.000000	30.249047
1414.000000	30.551116
1413.000000	30.824296
1412.000000	31.087429
1411.000000	31.327535
1410.000000	31.665086
1409.000000	32.024826
1408.000000	32.356515
1407.000000	32.706940
1406.000000	33.032245
1405.000000	33.422233
1404.000000	33.761145
1403.000000	34.177719
1402.000000	34.528562
1401.000000	34.923471
1400.000000	35.391750
1399.000000	35.772843
1398.000000	36.085587
1397.000000	36.376352
1396.000000	36.804335
1395.000000	37.291350
1394.000000	37.654021
1393.000000	37.942169
1392.000000	38.336972
1391.000000	38.721309
1390.000000	39.123230
1389.000000	39.484854
1388.000000	39.989139
1387.000000	40.446533
1386.000000	40.917430
1385.000000	41.350751
1384.000000	41.841743
1383.000000	42.348645
1382.000000	42.819960
1381.000000	43.267516
1380.000000	43.631338
1379.000000	43.880968
1378.000000	44.139391
1377.000000	44.320360
1376.000000	44.538590
1375.000000	44.744889
1374.000000	44.945640
1373.000000	45.178105
1372.000000	45.410466
1371.000000	45.693485
1370.000000	45.945942
1369.000000	46.177569
1368.000000	46.445203
1367.000000	46.674004
1366.000000	46.851729
1365.000000	46.991669
1364.000000	47.223401
1363.000000	47.341361
1362.000000	47.486534
1361.000000	47.646569
1360.000000	47.786509
1359.000000	47.820316
1358.000000	47.926867
1357.000000	48.013741
1356.000000	48.139446
1355.000000	48.354327
1354.000000	48.562928
1353.000000	48.801464
1352.000000	49.076528
1351.000000	49.354105
1350.000000	49.676060
1349.000000	49.974361
1348.000000	50.250158
1347.000000	50.531922
1346.000000	50.791286
1345.000000	51.013494
1344.000000	51.303107
1343.000000	51.555355
1342.000000	51.788448
1341.000000	52.025518
1340.000000	52.272951
1339.000000	52.525198
1338.000000	52.739451
1337.000000	52.963020
1336.000000	53.209406
1335.000000	53.441138
1334.000000	53.653612
1333.000000	53.868388
1332.000000	54.091538
1331.000000	54.288312
1330.000000	54.512194
1329.000000	54.716085
1328.000000	54.911394
1327.000000	55.070278
1326.000000	55.274588
1325.000000	55.436403
1324.000000	55.608685
1323.000000	55.768302
1322.000000	55.930954
1321.000000	56.092979
1320.000000	56.247676
1319.000000	56.386464
1318.000000	56.527555
1317.000000	56.674508
1316.000000	56.794561
1315.000000	56.925918
1314.000000	57.054763
1313.000000	57.168954
1312.000000	57.269853
1311.000000	57.384882
1310.000000	57.493108
1309.000000	57.579562
1308.000000	57.671774
1307.000000	57.769010
1306.000000	57.847824
1305.000000	57.908949
1304.000000	57.983158
1303.000000	58.038736
1302.000000	58.095989
1301.000000	58.153242
1300.000000	58.210494
1299.000000	58.239173
1298.000000	58.278423
1297.000000	58.313905
1296.000000	58.360168
1295.000000	58.382148
1294.000000	58.404338
1293.000000	58.412816
1292.000000	58.432388
1291.000000	58.439506
1290.000000	58.462846
1289.000000	58.466719
1288.000000	58.454787
1287.000000	58.438250
1286.000000	58.423387
1285.000000	58.407687
1284.000000	58.373566
1283.000000	58.353051
1282.000000	58.327826
1281.000000	58.300717
1280.000000	58.284703
1279.000000	58.233103
1278.000000	58.191968
1277.000000	58.165802
1276.000000	58.132099
1275.000000	58.100908
1274.000000	58.069404
1273.000000	58.043655
1272.000000	58.023245
1271.000000	58.004301
1270.000000	57.990485
1269.000000	57.953956
1268.000000	57.931557
1267.000000	57.915753
1266.000000	57.882259
1265.000000	57.857244
1264.000000	57.825844
1263.000000	57.799049
1262.000000	57.774348
1261.000000	57.739075
1260.000000	57.686846
1259.000000	57.643619
1258.000000	57.624465
1257.000000	57.584586
1256.000000	57.536126
1255.000000	57.485990
1254.000000	57.441611
1253.000000	57.399326
1252.000000	57.346783
1251.000000	57.295706
1250.000000	57.238034
1249.000000	57.165814
1248.000000	57.099141
1247.000000	57.028073
1246.000000	56.957946
1245.000000	56.892215
1244.000000	56.800108
1243.000000	56.709467
1242.000000	56.639340
1241.000000	56.560316
1240.000000	56.469047
1239.000000	56.378300
1238.000000	56.297288
1237.000000	56.209787
1236.000000	56.122390
1235.000000	56.029760
1234.000000	55.934303
1233.000000	55.832777
1232.000000	55.730517
1231.000000	55.639666
1230.000000	55.538035
1229.000000	55.427716
1228.000000	55.323886
1227.000000	55.206973
1226.000000	55.098015
1225.000000	54.997221
1224.000000	54.895275
1223.000000	54.787992
1222.000000	54.660507
1221.000000	54.543699
1220.000000	54.442068
1219.000000	54.335517
1218.000000	54.229803
1217.000000	54.126602
1216.000000	54.028215
1215.000000	53.933596
1214.000000	53.842117
1213.000000	53.754511
1212.000000	53.663137
1211.000000	53.567157
1210.000000	53.479132
1209.000000	53.411517
1208.000000	53.328098
1207.000000	53.246144
1206.000000	53.177691
1205.000000	53.112903
1204.000000	53.063081
1203.000000	53.011062
1202.000000	52.973382
1201.000000	52.942819
1200.000000	52.907546
1199.000000	52.858562
1198.000000	52.790738
1197.000000	52.727205
1196.000000	52.647868
1195.000000	52.540165
1194.000000	52.399074
1193.000000	52.241341
1192.000000	52.042370
1191.000000	51.811893
1190.000000	51.561635
1189.000000	51.332100
1188.000000	51.113346
1187.000000	50.941588
1186.000000	50.839852
1185.000000	50.787309
1184.000000	50.805730
1183.000000	50.909560
1182.000000	51.081423
1181.000000	51.314202
1180.000000	51.580998
1179.000000	51.873437
1178.000000	52.163993
1177.000000	52.433719
1176.000000	52.661474
1175.000000	52.866726
1174.000000	53.073653
1173.000000	53.276497
1172.000000	53.458303
1171.000000	53.651518
1170.000000	53.842326
1169.000000	54.048311
1168.000000	54.263924
1167.000000	54.486760
1166.000000	54.708235
1165.000000	54.930234
1164.000000	55.160082
1163.000000	55.408457
1162.000000	55.664158
1161.000000	55.907927
1160.000000	56.147405
1159.000000	56.389081
1158.000000	56.638084
1157.000000	56.902368
1156.000000	57.123005
1155.000000	57.327211
1154.000000	57.539998
1153.000000	57.715629
1152.000000	57.875665
1151.000000	58.009325
1150.000000	58.117760
1149.000000	58.237813
1148.000000	58.336932
1147.000000	58.464521
1146.000000	58.613462
1145.000000	58.779464
1144.000000	58.976133
1143.000000	59.192270
1142.000000	59.421700
1141.000000	59.707126
1140.000000	59.993600
1139.000000	60.272746
1138.000000	60.602342
1137.000000	60.917704
1136.000000	61.249498
1135.000000	61.615413
1134.000000	61.971595
1133.000000	62.251683
1132.000000	62.526434
1131.000000	62.829340
1130.000000	63.071435
1129.000000	63.308400
1128.000000	63.511454
1127.000000	63.673583
1126.000000	63.803579
1125.000000	63.945298
1124.000000	64.051117
1123.000000	64.148457
1122.000000	64.223922
1121.000000	64.295619
1120.000000	64.345545
1119.000000	64.399762
1118.000000	64.459841
1117.000000	64.507360
1116.000000	64.544202
1115.000000	64.578847
1114.000000	64.619981
1113.000000	64.620923
1112.000000	64.651381
1111.000000	64.693981
1110.000000	64.733126
1109.000000	64.730614
1108.000000	64.769550
1107.000000	64.792577
1106.000000	64.827012
1105.000000	64.859459
1104.000000	64.883742
1103.000000	64.921736
1102.000000	64.931679
1101.000000	64.957427
1100.000000	64.982024
1099.000000	65.007667
1098.000000	65.047546
1097.000000	65.034043
1096.000000	65.057698
1095.000000	65.079155
1094.000000	65.073084
1093.000000	65.084702
1092.000000	65.076015
1091.000000	65.072038
1090.000000	65.065967
1089.000000	65.049430
1088.000000	65.036032
1087.000000	65.021274
1086.000000	65.006516
1085.000000	64.989037
1084.000000	64.957637
1083.000000	64.923934
1082.000000	64.899861
1081.000000	64.876310
1080.000000	64.851923
1079.000000	64.805346
1078.000000	64.778447
1077.000000	64.730405
1076.000000	64.697539
1075.000000	64.643008
1074.000000	64.624063
1073.000000	64.590361
1072.000000	64.556867
1071.000000	64.526723
1070.000000	64.473134
1069.000000	64.438280
1068.000000	64.421114
1067.000000	64.395366
1066.000000	64.353395
1065.000000	64.357163
1064.000000	64.334345
1063.000000	64.325030
1062.000000	64.306923
1061.000000	64.300852
1060.000000	64.295409
1059.000000	64.306713
1058.000000	64.301061
1057.000000	64.325763
1056.000000	64.342195
1055.000000	64.357372
1054.000000	64.388772
1053.000000	64.420381
1052.000000	64.446444
1051.000000	64.482658
1050.000000	64.540853
1049.000000	64.584918
1048.000000	64.635472
1047.000000	64.689899
1046.000000	64.729358
1045.000000	64.779912
1044.000000	64.844387
1043.000000	64.897349
1042.000000	64.949682
1041.000000	64.992595
1040.000000	65.020960
1039.000000	65.069630
1038.000000	65.114742
1037.000000	65.155143
1036.000000	65.173460
1035.000000	65.215536
1034.000000	65.231655
1033.000000	65.254786
1032.000000	65.295711
1031.000000	65.292780
1030.000000	65.299793
1029.000000	65.315493
1028.000000	65.308375
1027.000000	65.307329
1026.000000	65.305968
1025.000000	65.296025
1024.000000	65.258240
1023.000000	65.269544
1022.000000	65.245680
1021.000000	65.224851
1020.000000	65.208105
1019.000000	65.194916
1018.000000	65.176076
1017.000000	65.176704
1016.000000	65.160272
1015.000000	65.166028
1014.000000	65.167075
1013.000000	65.177018
1012.000000	65.175134
1011.000000	65.212501
1010.000000	65.231550
1009.000000	65.256147
1008.000000	65.285349
1007.000000	65.337263
1006.000000	65.396400
1005.000000	65.454072
1004.000000	65.498450
1003.000000	65.574334
1002.000000	65.646973
1001.000000	65.717937
1000.000000	65.796751
999.000000	65.867087
998.000000	65.952286
997.000000	66.048266
996.000000	66.133779
995.000000	66.225257
994.000000	66.331285
993.000000	66.429463
992.000000	66.518325
991.000000	66.616921
990.000000	66.729438
989.000000	66.844571
988.000000	66.944319
987.000000	67.054847
986.000000	67.175424
985.000000	67.312328
984.000000	67.439289
983.000000	67.589800
982.000000	67.718226
981.000000	67.854816
980.000000	68.001664
979.000000	68.164735
978.000000	68.305093
977.000000	68.469944
976.000000	68.632701
975.000000	68.793260
974.000000	68.951725
973.000000	69.115529
972.000000	69.286345
971.000000	69.455592
970.000000	69.630176
969.000000	69.800783
968.000000	69.970762
967.000000	70.125983
966.000000	70.301405
965.000000	70.489282
964.000000	70.652562
963.000000	70.799515
962.000000	70.963528
961.000000	71.140101
960.000000	71.312592
959.000000	71.476605
958.000000	71.626802
957.000000	71.771766
956.000000	71.952107
955.000000	72.121772
954.000000	72.262863
953.000000	72.407512
952.000000	72.560954
951.000000	72.706336
950.000000	72.857475
949.000000	72.999194
948.000000	73.135575
947.000000	73.276038
946.000000	73.420269
945.000000	73.554976
944.000000	73.677436
943.000000	73.811305
942.000000	73.936277
941.000000	74.065541
940.000000	74.202026
939.000000	74.362376
938.000000	74.517283
937.000000	74.654083
936.000000	74.814118
935.000000	74.997599
934.000000	75.191442
933.000000	75.388216
932.000000	75.590119
931.000000	75.792126
930.000000	75.998948
929.000000	76.229110
928.000000	76.463041
927.000000	76.695506
926.000000	76.928390
925.000000	77.172368
924.000000	77.420219
923.000000	77.656243
922.000000	77.910898
921.000000	78.167541
920.000000	78.407333
919.000000	78.663557
918.000000	78.950554
917.000000	79.214629
916.000000	79.457037
915.000000	79.682804
914.000000	79.935993
913.000000	80.183635
912.000000	80.461316
911.000000	80.735648
910.000000	80.982453
909.000000	81.233967
908.000000	81.466746
907.000000	81.702561
906.000000	81.960041
905.000000	82.230919
904.000000	82.484632
903.000000	82.733320
902.000000	82.995930
901.000000	83.258225
900.000000	83.521148
899.000000	83.766173
898.000000	84.015071
897.000000	84.230476
896.000000	84.434157
895.000000	84.657203
894.000000	84.895006
893.000000	85.119307
892.000000	85.283739
891.000000	85.486269
890.000000	85.675611
889.000000	85.834077
888.000000	86.022896
887.000000	86.204389
886.000000	86.344642
885.000000	86.486885
884.000000	86.598669
883.000000	86.728874
882.000000	86.839403
881.000000	86.938313
880.000000	87.025814
879.000000	87.123887
878.000000	87.191397
877.000000	87.262466
876.000000	87.275340
875.000000	87.250325
874.000000	87.179465
873.000000	87.071659
872.000000	87.012836
871.000000	86.982796
870.000000	87.099081
869.000000	87.293866
868.000000	87.493152
867.000000	87.656328
866.000000	87.820550
865.000000	87.966456
864.000000	88.114036
863.000000	88.271665
862.000000	88.402498
861.000000	88.531657
860.000000	88.693472
859.000000	88.808710
858.000000	88.951267
857.000000	88.166600
856.000000	88.905400
855.000000	89.781800
854.000000	89.963400
853.000000	90.268000
852.000000	89.802600
851.000000	89.822400
850.000000	90.316800
849.000000	90.213300
848.000000	90.401600
847.000000	90.617500
846.000000	90.438500
845.000000	90.530700
844.000000	90.741700
843.000000	90.435600
842.000000	90.540700
841.000000	90.832300
840.000000	91.127100
839.000000	91.325800
838.000000	91.017600
837.000000	91.395600
836.000000	91.547000
835.000000	91.347500
834.000000	91.504200
833.000000	91.650900
832.000000	91.742500
831.000000	91.739300
830.000000	91.490000
829.000000	91.298800
828.000000	91.273900
827.000000	91.319900
826.000000	91.286100
825.000000	91.318800
824.000000	91.283800
823.000000	91.207100
822.000000	91.352200
821.000000	90.930800
820.000000	91.115000
819.000000	90.983100
818.000000	90.875900
817.000000	90.799400
816.000000	90.746100
815.000000	90.468200
814.000000	90.368100
813.000000	90.199000
812.000000	89.872500
811.000000	89.759200
810.000000	89.794700
809.000000	89.543500
808.000000	89.369300
807.000000	89.243500
806.000000	88.904300
805.000000	88.684200
804.000000	88.499900
803.000000	88.215900
802.000000	88.134000
801.000000	87.816700
800.000000	87.511400
799.000000	87.322300
798.000000	87.124000
797.000000	86.596800
796.000000	86.492500
795.000000	86.211200
794.000000	86.075600
793.000000	85.590200
792.000000	85.276600
791.000000	84.843700
790.000000	84.471700
789.000000	84.035400
788.000000	83.404300
787.000000	83.276100
786.000000	82.705000
785.000000	82.275400
784.000000	81.914200
783.000000	81.393500
782.000000	80.982600
781.000000	80.579200
780.000000	79.989100
779.000000	79.778600
778.000000	79.199800
777.000000	78.860700
776.000000	78.333700
775.000000	77.818200
774.000000	77.490200
773.000000	77.129300
772.000000	76.643000
771.000000	76.307900
770.000000	75.859300
769.000000	75.543200
768.000000	74.999900
767.000000	74.818500
766.000000	74.566300
765.000000	74.252700
764.000000	74.100500
763.000000	73.688100
762.000000	73.705600
761.000000	73.544200
760.000000	73.346600
759.000000	73.225500
758.000000	73.073500
757.000000	72.855800
756.000000	73.007400
755.000000	73.005700
754.000000	72.932900
753.000000	73.025800
752.000000	72.988200
751.000000	72.969400
750.000000	73.056400
749.000000	73.081100
748.000000	73.209000
747.000000	73.244100
746.000000	73.304900
745.000000	73.396900
744.000000	73.490600
743.000000	73.595800
742.000000	73.684500
741.000000	73.850800
740.000000	74.030600
739.000000	74.121800
738.000000	74.276600
737.000000	74.352300
736.000000	74.456700
735.000000	74.606200
734.000000	74.720200
733.000000	74.845700
732.000000	74.985200
731.000000	75.051900
730.000000	75.081900
729.000000	75.269300
728.000000	75.284500
727.000000	75.350300
726.000000	75.328200
725.000000	75.366700
724.000000	75.334100
723.000000	75.287000
722.000000	75.332100
721.000000	75.249900
720.000000	75.190700
719.000000	75.058300
718.000000	74.868000
717.000000	74.680800
716.000000	74.501800
715.000000	74.270800
714.000000	73.992700
713.000000	73.694800
712.000000	73.392500
711.000000	73.006200
710.000000	72.661900
709.000000	72.224700
708.000000	71.727000
707.000000	71.294700
706.000000	70.750300
705.000000	70.246900
704.000000	69.660200
703.000000	68.934200
702.000000	68.313600
701.000000	67.629900
700.000000	66.939300
699.000000	66.257300
698.000000	65.470400
697.000000	64.800000
696.000000	64.089000
695.000000	63.350900
694.000000	62.572700
693.000000	61.822200
692.000000	61.101600
691.000000	60.412700
690.000000	59.638200
689.000000	58.896700
688.000000	58.191400
687.000000	57.551200
686.000000	56.966700
685.000000	56.317400
684.000000	55.765500
683.000000	55.245400
682.000000	54.759300
681.000000	54.348500
680.000000	54.044900
679.000000	53.837500
678.000000	53.687300
677.000000	53.651600
676.000000	53.747000
675.000000	53.911300
674.000000	54.186300
673.000000	54.509300
672.000000	54.960900
671.000000	55.546100
670.000000	56.206600
669.000000	56.981700
668.000000	57.738900
667.000000	58.567600
666.000000	59.424800
665.000000	60.296300
664.000000	61.192600
663.000000	62.103000
662.000000	62.982100
661.000000	63.803300
660.000000	64.653000
659.000000	65.443700
658.000000	66.255900
657.000000	67.082700
656.000000	67.885200
655.000000	68.661000
654.000000	69.469100
653.000000	70.288600
652.000000	71.133400
651.000000	72.007800
650.000000	72.853400
649.000000	73.668100
648.000000	74.539400
647.000000	75.429200
646.000000	76.260000
645.000000	77.102900
644.000000	77.938700
643.000000	78.748200
642.000000	79.478000
641.000000	80.108600
640.000000	80.739300
639.000000	81.351900
638.000000	81.836200
637.000000	82.248900
636.000000	82.644900
635.000000	83.018400
634.000000	83.380600
633.000000	83.749100
632.000000	84.109900
631.000000	84.445800
630.000000	84.766700
629.000000	85.112500
628.000000	85.459300
627.000000	85.797400
626.000000	86.167900
625.000000	86.566100
624.000000	86.943400
623.000000	87.296500
622.000000	87.602900
621.000000	87.896800
620.000000	88.136300
619.000000	88.359500
618.000000	88.570700
617.000000	88.766000
616.000000	88.893000
615.000000	88.976400
614.000000	89.053000
613.000000	89.107800
612.000000	89.178200
611.000000	89.216000
610.000000	89.272600
609.000000	89.312900
608.000000	89.433000
607.000000	89.546900
606.000000	89.628100
605.000000	89.760900
604.000000	89.941500
603.000000	90.065500
602.000000	90.165700
601.000000	90.307500
600.000000	90.413500
599.000000	90.430100
598.000000	90.472900
597.000000	90.519800
596.000000	90.499200
595.000000	90.471100
594.000000	90.389600
593.000000	90.309500
592.000000	90.171200
591.000000	90.012600
590.000000	89.824000
589.000000	89.628700
588.000000	89.395000
587.000000	89.202100
586.000000	88.987300
585.000000	88.736600
584.000000	88.464100
583.000000	88.211100
582.000000	88.017600
581.000000	87.759300
580.000000	87.458400
579.000000	87.124400
578.000000	86.798300
577.000000	86.481900
576.000000	86.170900
575.000000	85.783000
574.000000	85.367500
573.000000	84.944500
572.000000	84.466300
571.000000	83.956600
570.000000	83.436000
569.000000	82.842600
568.000000	82.239100
567.000000	81.643800
566.000000	80.957400
565.000000	80.237100
564.000000	79.504400
563.000000	78.737500
562.000000	77.907400
561.000000	77.017100
560.000000	76.094000
559.000000	75.170800
558.000000	74.186200
557.000000	73.190500
556.000000	72.131700
555.000000	71.043600
554.000000	69.880200
553.000000	68.746500
552.000000	67.565100
551.000000	66.370800
550.000000	65.186000
549.000000	63.988200
548.000000	62.852500
547.000000	61.675600
546.000000	60.568100
545.000000	59.499600
544.000000	58.445500
543.000000	57.437100
542.000000	56.445300
541.000000	55.534400
540.000000	54.673800
539.000000	53.826100
538.000000	53.039900
537.000000	52.261300
536.000000	51.567100
535.000000	50.869800
534.000000	50.195300
533.000000	49.567600
532.000000	48.999000
531.000000	48.369800
530.000000	47.799100
529.000000	47.228100
528.000000	46.670600
527.000000	46.099100
526.000000	45.553700
525.000000	44.993100
524.000000	44.399600
523.000000	43.780100
522.000000	43.144300
521.000000	42.486200
520.000000	41.806600
519.000000	41.128000
518.000000	40.416500
517.000000	39.745500
516.000000	39.053700
515.000000	38.367100
514.000000	37.673800
513.000000	37.069500
512.000000	36.472400
511.000000	35.930700
510.000000	35.484400
509.000000	35.084000
508.000000	34.742000
507.000000	34.477300
506.000000	34.278100
505.000000	34.118700
504.000000	34.011300
503.000000	33.903600
502.000000	33.881700
501.000000	33.844400
500.000000	33.849000
499.000000	33.854900
498.000000	33.856500
497.000000	33.852200
496.000000	33.833700
495.000000	33.828700
494.000000	33.841900
493.000000	33.770500
492.000000	33.744900
491.000000	33.698000
490.000000	33.627200
489.000000	33.583800
488.000000	33.504600
487.000000	33.444300
486.000000	33.325700
485.000000	33.232600
484.000000	33.114200
483.000000	33.016500
482.000000	32.885600
481.000000	32.754300
480.000000	32.590000
479.000000	32.439600
478.000000	32.251200
477.000000	32.105700
476.000000	31.980300
475.000000	31.836500
474.000000	31.664900
473.000000	31.491900
472.000000	31.294900
471.000000	31.146400
470.000000	30.957900
469.000000	30.763000
468.000000	30.561900
467.000000	30.382700
466.000000	30.153100
465.000000	29.940500
464.000000	29.724600
463.000000	29.545500
462.000000	29.314000
461.000000	29.002100
460.000000	28.830200
459.000000	28.503300
458.000000	28.229000
457.000000	27.940300
456.000000	27.638000
455.000000	27.285100
454.000000	26.985500
453.000000	26.603600
452.000000	26.172400
451.000000	25.787000
450.000000	25.417900
449.000000	24.962800
448.000000	24.488700
447.000000	24.009300
446.000000	23.489200
445.000000	23.006700
444.000000	22.480000
443.000000	21.871000
442.000000	21.287100
441.000000	20.682100
440.000000	20.072400
439.000000	19.505200
438.000000	18.865600
437.000000	18.248900
436.000000	17.639400
435.000000	17.019800
434.000000	16.375500
433.000000	15.807700
432.000000	15.205400
431.000000	14.632600
430.000000	14.090800
429.000000	13.567000
428.000000	13.065200
427.000000	12.579600
426.000000	12.114900
425.000000	11.679200
424.000000	11.281100
423.000000	10.876200
422.000000	10.537600
421.000000	10.182800
420.000000	9.882900
419.000000	9.585200
418.000000	9.324600
417.000000	9.081000
416.000000	8.856500
415.000000	8.648100
414.000000	8.478300
413.000000	8.316800
412.000000	8.158500
411.000000	8.008300
410.000000	7.887400
409.000000	7.767200
408.000000	7.662000
407.000000	7.560400
406.000000	7.484000
405.000000	7.399500
404.000000	7.327300
403.000000	7.256600
402.000000	7.196300
401.000000	7.144100
400.000000	7.075200
399.000000	7.046800
398.000000	7.009000
397.000000	6.972200
396.000000	6.918000
395.000000	6.881700
394.000000	6.843700
393.000000	6.822500
392.000000	6.776500
391.000000	6.730100
390.000000	6.718000
389.000000	6.689300
388.000000	6.664300
387.000000	6.623200
386.000000	6.574400
385.000000	6.548300
384.000000	6.521300
383.000000	6.501000
382.000000	6.463600
381.000000	6.430000
380.000000	6.395900
379.000000	6.367700
378.000000	6.323600
377.000000	6.299800
376.000000	6.360100
375.000000	6.363100
374.000000	6.241700
373.000000	6.274800
372.000000	6.219300
371.000000	6.198200
370.000000	6.195900
369.000000	6.096000
368.000000	6.177700
367.000000	6.129000
366.000000	6.099100
365.000000	6.087800
364.000000	6.029700
363.000000	6.043600
362.000000	6.034300
361.000000	5.946400
360.000000	5.903000
359.000000	5.868000
358.000000	5.819300
357.000000	5.810200
356.000000	5.864500
355.000000	5.800900
354.000000	5.766600
353.000000	5.733600
352.000000	5.687500
351.000000	5.719900
350.000000	5.680900
349.000000	5.577000
348.000000	5.581500
347.000000	5.600400
346.000000	5.598600
345.000000	5.660500
344.000000	5.661900
343.000000	5.670100
342.000000	5.631700
341.000000	5.583300
340.000000	5.607000
339.000000	5.598200
338.000000	5.564200
337.000000	5.527900
336.000000	5.528700
335.000000	5.521400
334.000000	5.556800
333.000000	5.631900
332.000000	5.553300
331.000000	5.573700
330.000000	5.629500
329.000000	5.603500
328.000000	5.546900
327.000000	5.493500
326.000000	5.490600
325.000000	5.586300
324.000000	5.528900
323.000000	5.558800
322.000000	5.583400
321.000000	5.526700
320.000000	5.516700
319.000000	5.485700
318.000000	5.563000
317.000000	5.706400
316.000000	5.654800
315.000000	5.553800
314.000000	5.560200
313.000000	5.580700
312.000000	5.571300
311.000000	5.568200
310.000000	5.557700
309.000000	5.554700
308.000000	5.563200
307.000000	5.586100
306.000000	5.589400
305.000000	5.583600
304.000000	5.579600
303.000000	5.602000
302.000000	5.623800
301.000000	5.611400
300.000000	5.630500
299.000000	5.628700
298.000000	5.615300
297.000000	5.640700
296.000000	5.652500
295.000000	5.639200
294.000000	5.630400
293.000000	5.659900
292.000000	5.666100
291.000000	5.630700
290.000000	5.618300
289.000000	5.647300
288.000000	5.669500
287.000000	5.664500
286.000000	5.714700
285.000000	5.713000
284.000000	5.705900
283.000000	5.736600
282.000000	5.737000
281.000000	5.771200
280.000000	5.741100
279.000000	5.747900
278.000000	5.766700
277.000000	5.763700
276.000000	5.780000
275.000000	5.824000
274.000000	5.835900
273.000000	5.819300
272.000000	5.858000
271.000000	5.867300
270.000000	5.887000
269.000000	5.908100
268.000000	5.975100
267.000000	5.967300
266.000000	5.997800
265.000000	5.994500
264.000000	6.027200
263.000000	6.089400
262.000000	6.107500
261.000000	6.143800
260.000000	6.140100
259.000000	6.165700
258.000000	6.176600
257.000000	6.189400
256.000000	6.178600
255.000000	6.229800
254.000000	6.259500
253.000000	6.280900
252.000000	6.273000
251.000000	6.265700
250.000000	6.262700
