PE UV       SUBTECH     SPECTRUM    ASCII       PEDS        4.00        
   -1
CICIMAUCR0233-1.Sample.ASC
24/06/13
16:07:02.00
24/06/13
16:07:02.00
Vinicio Soto Monge
C. resplendens. Sex F. Dorsal.
250,000000
1
Lambda 1050
1050L1511233
PerkinElmer UV WinLab 6.3.2.0749 / 2.02.05 Lambda 900 UV/VIS/NIR, Aug  7 2015 09:38:08

0
0
3350/servo 860,8/2
0
0
UV/VIS
1
1
1
DoubleDePol,CommonBeamDepol,RBeamAtt,SBeamAtt,60mm sphere, WB InGaAs Detector
0
0
0
0
Program
Program
3350/servo 860,8/2
3350/0,2 860,8/0,2
3350/0,2 860,8/0,2
0
15.00
 
 
 
0
 
860,8
319,2
860,8
Front
100
on
S:100 R:100
0
0
0
0
 
0
 
 
 
0
 
 
0
0
0
0
0
 
 
 
 
0
0


0
0
#HDR
-1
-1
#GR
nm
%R
1.0
0.0
2500,000000
-1,000000
2251
8
93,098000
5,375400
#DATA
2482.000000	6.466960
2481.000000	6.524201
2480.000000	6.503703
2479.000000	6.517114
2478.000000	6.460964
2477.000000	6.462381
2476.000000	6.513407
2475.000000	6.461400
2474.000000	6.500214
2473.000000	6.469032
2472.000000	6.455948
2471.000000	6.488112
2470.000000	6.534013
2469.000000	6.534340
2468.000000	6.509046
2467.000000	6.546006
2466.000000	6.567594
2465.000000	6.558436
2464.000000	6.578824
2463.000000	6.553966
2462.000000	6.574899
2461.000000	6.575117
2460.000000	6.571955
2459.000000	6.635847
2458.000000	6.650784
2457.000000	6.663976
2456.000000	6.659615
2455.000000	6.684474
2454.000000	6.716201
2453.000000	6.745094
2452.000000	6.754797
2451.000000	6.805823
2450.000000	6.810402
2449.000000	6.815854
2448.000000	6.873312
2447.000000	6.878109
2446.000000	6.926300
2445.000000	6.956611
2444.000000	6.982996
2443.000000	6.984958
2442.000000	7.029987
2441.000000	7.039800
2440.000000	7.070982
2439.000000	7.115030
2438.000000	7.149374
2437.000000	7.149592
2436.000000	7.178921
2435.000000	7.214029
2434.000000	7.240632
2433.000000	7.280863
2432.000000	7.283807
2431.000000	7.319024
2430.000000	7.379753
2429.000000	7.391746
2428.000000	7.400905
2427.000000	7.426199
2426.000000	7.449096
2425.000000	7.477116
2424.000000	7.493143
2423.000000	7.498377
2422.000000	7.518983
2421.000000	7.551365
2420.000000	7.576660
2419.000000	7.601518
2418.000000	7.607842
2417.000000	7.631611
2416.000000	7.646548
2415.000000	7.644367
2414.000000	7.674459
2413.000000	7.683072
2412.000000	7.713819
2411.000000	7.734752
2410.000000	7.743802
2409.000000	7.768442
2408.000000	7.787958
2407.000000	7.793083
2406.000000	7.802459
2405.000000	7.826882
2404.000000	7.838112
2403.000000	7.851959
2402.000000	7.861335
2401.000000	7.884340
2400.000000	7.903857
2399.000000	7.915414
2398.000000	7.936565
2397.000000	7.957935
2396.000000	7.968402
2395.000000	7.968511
2394.000000	7.982358
2393.000000	7.995332
2392.000000	8.011577
2391.000000	8.039380
2390.000000	8.043632
2389.000000	8.051918
2388.000000	8.073288
2387.000000	8.085172
2386.000000	8.081356
2385.000000	8.078412
2384.000000	8.098256
2383.000000	8.102181
2382.000000	8.103489
2381.000000	8.115155
2380.000000	8.121806
2379.000000	8.129547
2378.000000	8.130092
2377.000000	8.145574
2376.000000	8.147428
2375.000000	8.130637
2374.000000	8.127912
2373.000000	8.127257
2372.000000	8.128021
2371.000000	8.121806
2370.000000	8.129656
2369.000000	8.129983
2368.000000	8.127476
2367.000000	8.116900
2366.000000	8.107087
2365.000000	8.084845
2364.000000	8.057806
2363.000000	8.048974
2362.000000	8.060859
2361.000000	8.047884
2360.000000	8.022916
2359.000000	8.025424
2358.000000	8.001220
2357.000000	7.979523
2356.000000	7.965022
2355.000000	7.951938
2354.000000	7.955427
2353.000000	7.944634
2352.000000	7.928497
2351.000000	7.937110
2350.000000	7.943979
2349.000000	7.948559
2348.000000	7.966875
2347.000000	7.983012
2346.000000	7.987482
2345.000000	8.004927
2344.000000	8.036000
2343.000000	8.055952
2342.000000	8.063802
2341.000000	8.090842
2340.000000	8.098910
2339.000000	8.121915
2338.000000	8.138160
2337.000000	8.156695
2336.000000	8.159312
2335.000000	8.164000
2334.000000	8.162692
2333.000000	8.178610
2332.000000	8.178610
2331.000000	8.188096
2330.000000	8.181881
2329.000000	8.166181
2328.000000	8.158549
2327.000000	8.124641
2326.000000	8.101963
2325.000000	8.090188
2324.000000	8.070889
2323.000000	8.034692
2322.000000	7.999148
2321.000000	7.973090
2320.000000	7.934167
2319.000000	7.913560
2318.000000	7.856211
2317.000000	7.799625
2316.000000	7.777274
2315.000000	7.743038
2314.000000	7.691795
2313.000000	7.646766
2312.000000	7.611440
2311.000000	7.570663
2310.000000	7.527270
2309.000000	7.503937
2308.000000	7.465232
2307.000000	7.441027
2306.000000	7.433504
2305.000000	7.426199
2304.000000	7.398288
2303.000000	7.401559
2302.000000	7.417368
2301.000000	7.437211
2300.000000	7.467522
2299.000000	7.491290
2298.000000	7.520292
2297.000000	7.569355
2296.000000	7.606316
2295.000000	7.649164
2294.000000	7.682963
2293.000000	7.722759
2292.000000	7.761573
2291.000000	7.790357
2290.000000	7.820013
2289.000000	7.842691
2288.000000	7.856211
2287.000000	7.865914
2286.000000	7.889901
2285.000000	7.888265
2284.000000	7.882378
2283.000000	7.861444
2282.000000	7.866351
2281.000000	7.836586
2280.000000	7.820122
2279.000000	7.810419
2278.000000	7.774984
2277.000000	7.733553
2276.000000	7.709130
2275.000000	7.691359
2274.000000	7.682418
2273.000000	7.647093
2272.000000	7.632810
2271.000000	7.616892
2270.000000	7.624633
2269.000000	7.613948
2268.000000	7.624633
2267.000000	7.633791
2266.000000	7.648074
2265.000000	7.688633
2264.000000	7.756449
2263.000000	7.819032
2262.000000	7.877362
2261.000000	7.948777
2260.000000	8.035455
2259.000000	8.149063
2258.000000	8.240866
2257.000000	8.347388
2256.000000	8.454018
2255.000000	8.567190
2254.000000	8.688867
2253.000000	8.808581
2252.000000	8.941270
2251.000000	9.056514
2250.000000	9.149516
2249.000000	9.253748
2248.000000	9.376187
2247.000000	9.490232
2246.000000	9.554232
2245.000000	9.641456
2244.000000	9.736093
2243.000000	9.786901
2242.000000	9.864856
2241.000000	9.948264
2240.000000	9.996237
2239.000000	10.057620
2238.000000	10.111481
2237.000000	10.155965
2236.000000	10.212333
2235.000000	10.215385
2234.000000	10.271426
2233.000000	10.303481
2232.000000	10.290507
2231.000000	10.331065
2230.000000	10.355270
2229.000000	10.380129
2228.000000	10.369444
2227.000000	10.389723
2226.000000	10.415999
2225.000000	10.426139
2224.000000	10.421669
2223.000000	10.426793
2222.000000	10.392231
2221.000000	10.368462
2220.000000	10.405423
2219.000000	10.397028
2218.000000	10.359958
2217.000000	10.327468
2216.000000	10.334009
2215.000000	10.293014
2214.000000	10.307406
2213.000000	10.270881
2212.000000	10.275352
2211.000000	10.254091
2210.000000	10.254309
2209.000000	10.222799
2208.000000	10.203828
2207.000000	10.190309
2206.000000	10.185402
2205.000000	10.196305
2204.000000	10.174063
2203.000000	10.157818
2202.000000	10.146479
2201.000000	10.140046
2200.000000	10.127726
2199.000000	10.112026
2198.000000	10.097307
2197.000000	10.105920
2196.000000	10.094145
2195.000000	10.075501
2194.000000	10.048135
2193.000000	10.055658
2192.000000	10.034615
2191.000000	10.017388
2190.000000	10.042247
2189.000000	9.998635
2188.000000	10.022949
2187.000000	10.002669
2186.000000	9.978356
2185.000000	9.984352
2184.000000	9.977702
2183.000000	9.959276
2182.000000	9.949899
2181.000000	9.941613
2180.000000	9.935289
2179.000000	9.936489
2178.000000	9.919698
2177.000000	9.905851
2176.000000	9.899855
2175.000000	9.895276
2174.000000	9.909995
2173.000000	9.888189
2172.000000	9.890369
2171.000000	9.896148
2170.000000	9.901599
2169.000000	9.895494
2168.000000	9.881320
2167.000000	9.885354
2166.000000	9.915228
2165.000000	9.908686
2164.000000	9.917190
2163.000000	9.914247
2162.000000	9.925913
2161.000000	9.962220
2160.000000	9.971596
2159.000000	9.979882
2158.000000	9.975521
2157.000000	10.019787
2156.000000	10.042247
2155.000000	10.038867
2154.000000	10.064925
2153.000000	10.078990
2152.000000	10.096435
2151.000000	10.111699
2150.000000	10.137211
2149.000000	10.163378
2148.000000	10.172537
2147.000000	10.189873
2146.000000	10.211897
2145.000000	10.224544
2144.000000	10.253001
2143.000000	10.258779
2142.000000	10.267065
2141.000000	10.291706
2140.000000	10.299556
2139.000000	10.313185
2138.000000	10.319181
2137.000000	10.346002
2136.000000	10.346657
2135.000000	10.352326
2134.000000	10.348074
2133.000000	10.366718
2132.000000	10.366173
2131.000000	10.378711
2130.000000	10.391577
2129.000000	10.396156
2128.000000	10.372388
2127.000000	10.370643
2126.000000	10.379038
2125.000000	10.352217
2124.000000	10.349491
2123.000000	10.348401
2122.000000	10.340006
2121.000000	10.319181
2120.000000	10.306098
2119.000000	10.294323
2118.000000	10.292469
2117.000000	10.263794
2116.000000	10.249294
2115.000000	10.243406
2114.000000	10.213532
2113.000000	10.194343
2112.000000	10.175808
2111.000000	10.161416
2110.000000	10.139828
2109.000000	10.114970
2108.000000	10.096107
2107.000000	10.081934
2106.000000	10.044428
2105.000000	10.031126
2104.000000	10.003433
2103.000000	9.966254
2102.000000	9.946628
2101.000000	9.928639
2100.000000	9.905197
2099.000000	9.876959
2098.000000	9.862349
2097.000000	9.858969
2096.000000	9.845558
2095.000000	9.810669
2094.000000	9.785919
2093.000000	9.773272
2092.000000	9.760188
2091.000000	9.739255
2090.000000	9.719520
2089.000000	9.704256
2088.000000	9.683323
2087.000000	9.675473
2086.000000	9.663916
2085.000000	9.641565
2084.000000	9.630771
2083.000000	9.613435
2082.000000	9.592065
2081.000000	9.560774
2080.000000	9.534825
2079.000000	9.511929
2078.000000	9.482491
2077.000000	9.461339
2076.000000	9.432992
2075.000000	9.401591
2074.000000	9.372044
2073.000000	9.345114
2072.000000	9.326797
2071.000000	9.302593
2070.000000	9.266395
2069.000000	9.236412
2068.000000	9.217550
2067.000000	9.188548
2066.000000	9.159437
2065.000000	9.125311
2064.000000	9.091076
2063.000000	9.058912
2062.000000	9.031873
2061.000000	8.997093
2060.000000	8.975614
2059.000000	8.961985
2058.000000	8.949447
2057.000000	8.924370
2056.000000	8.909869
2055.000000	8.900057
2054.000000	8.896132
2053.000000	8.896786
2052.000000	8.891225
2051.000000	8.885011
2050.000000	8.906817
2049.000000	8.901365
2048.000000	8.907471
2047.000000	8.938435
2046.000000	8.955989
2045.000000	8.956970
2044.000000	8.972997
2043.000000	8.995675
2042.000000	9.020534
2041.000000	9.027512
2040.000000	9.056623
2039.000000	9.060548
2038.000000	9.073849
2037.000000	9.096309
2036.000000	9.093475
2035.000000	9.118442
2034.000000	9.119642
2033.000000	9.128037
2032.000000	9.141666
2031.000000	9.151042
2030.000000	9.147444
2029.000000	9.141120
2028.000000	9.138504
2027.000000	9.139921
2026.000000	9.130108
2025.000000	9.137413
2024.000000	9.138068
2023.000000	9.117243
2022.000000	9.111246
2021.000000	9.118878
2020.000000	9.094347
2019.000000	9.085952
2018.000000	9.077229
2017.000000	9.058694
2016.000000	9.039287
2015.000000	9.028493
2014.000000	9.011267
2013.000000	8.998401
2012.000000	8.980847
2011.000000	8.962749
2010.000000	8.922299
2009.000000	8.898094
2008.000000	8.879668
2007.000000	8.843252
2006.000000	8.813269
2005.000000	8.797569
2004.000000	8.748070
2003.000000	8.744254
2002.000000	8.723974
2001.000000	8.674039
2000.000000	8.631082
1999.000000	8.603388
1998.000000	8.564901
1997.000000	8.533064
1996.000000	8.508097
1995.000000	8.476478
1994.000000	8.398958
1993.000000	8.382168
1992.000000	8.345207
1991.000000	8.327980
1990.000000	8.262890
1989.000000	8.215898
1988.000000	8.192457
1987.000000	8.144375
1986.000000	8.111448
1985.000000	8.066310
1984.000000	8.029458
1983.000000	7.989117
1982.000000	7.931986
1981.000000	7.912143
1980.000000	7.888156
1979.000000	7.829499
1978.000000	7.794064
1977.000000	7.747182
1976.000000	7.714473
1975.000000	7.667590
1974.000000	7.621907
1973.000000	7.580040
1972.000000	7.535992
1971.000000	7.519638
1970.000000	7.492489
1969.000000	7.431215
1968.000000	7.413552
1967.000000	7.367978
1966.000000	7.335705
1965.000000	7.311501
1964.000000	7.272577
1963.000000	7.250335
1962.000000	7.209994
1961.000000	7.163984
1960.000000	7.150574
1959.000000	7.110996
1958.000000	7.067384
1957.000000	7.041871
1956.000000	7.037292
1955.000000	6.993244
1954.000000	6.962934
1953.000000	6.944617
1952.000000	6.929135
1951.000000	6.902205
1950.000000	6.856195
1949.000000	6.825339
1948.000000	6.824576
1947.000000	6.806259
1946.000000	6.773441
1945.000000	6.746729
1944.000000	6.726232
1943.000000	6.721544
1942.000000	6.718927
1941.000000	6.697993
1940.000000	6.695049
1939.000000	6.677605
1938.000000	6.693959
1937.000000	6.687308
1936.000000	6.670191
1935.000000	6.692433
1934.000000	6.684474
1933.000000	6.676405
1932.000000	6.685128
1931.000000	6.685455
1930.000000	6.720126
1929.000000	6.751963
1928.000000	6.758286
1927.000000	6.778457
1926.000000	6.806259
1925.000000	6.826757
1924.000000	6.863282
1923.000000	6.900460
1922.000000	6.900897
1921.000000	6.978089
1920.000000	7.037510
1919.000000	7.091916
1918.000000	7.150901
1917.000000	7.180557
1916.000000	7.208468
1915.000000	7.299726
1914.000000	7.353259
1913.000000	7.422165
1912.000000	7.504701
1911.000000	7.634118
1910.000000	7.701389
1909.000000	7.772040
1908.000000	7.840838
1907.000000	7.917376
1906.000000	8.018337
1905.000000	8.170651
1904.000000	8.305193
1903.000000	8.440826
1902.000000	8.556506
1901.000000	8.704894
1900.000000	8.839545
1899.000000	9.020643
1898.000000	9.215369
1897.000000	9.405080
1896.000000	9.577346
1895.000000	9.742526
1894.000000	9.920134
1893.000000	10.119876
1892.000000	10.375222
1891.000000	10.637002
1890.000000	10.949152
1889.000000	11.250400
1888.000000	11.549467
1887.000000	11.850715
1886.000000	12.155670
1885.000000	12.512304
1884.000000	12.868394
1883.000000	13.262862
1882.000000	13.645881
1881.000000	14.026830
1880.000000	14.400473
1879.000000	14.762123
1878.000000	15.104584
1877.000000	15.507447
1876.000000	15.876838
1875.000000	16.237397
1874.000000	16.604281
1873.000000	16.984139
1872.000000	17.370211
1871.000000	17.722921
1870.000000	18.072796
1869.000000	18.412204
1868.000000	18.761860
1867.000000	19.008594
1866.000000	19.233630
1865.000000	19.419743
1864.000000	19.582632
1863.000000	19.727641
1862.000000	19.849318
1861.000000	20.011008
1860.000000	20.205516
1859.000000	20.357612
1858.000000	20.536202
1857.000000	20.693749
1856.000000	20.791440
1855.000000	20.871794
1854.000000	20.967522
1853.000000	21.077968
1852.000000	21.130957
1851.000000	21.159086
1850.000000	21.210984
1849.000000	21.239223
1848.000000	21.261029
1847.000000	21.347925
1846.000000	21.450303
1845.000000	21.447360
1844.000000	21.411489
1843.000000	21.372129
1842.000000	21.350760
1841.000000	21.384014
1840.000000	21.447905
1839.000000	21.473854
1838.000000	21.468838
1837.000000	21.460443
1836.000000	21.464259
1835.000000	21.472000
1834.000000	21.454119
1833.000000	21.417158
1832.000000	21.354249
1831.000000	21.287305
1830.000000	21.263427
1829.000000	21.258739
1828.000000	21.244565
1827.000000	21.181328
1826.000000	21.141751
1825.000000	21.142296
1824.000000	21.087345
1823.000000	21.022145
1822.000000	20.978643
1821.000000	20.959890
1820.000000	20.980060
1819.000000	20.983440
1818.000000	20.953021
1817.000000	20.898179
1816.000000	20.855440
1815.000000	20.842465
1814.000000	20.835924
1813.000000	20.822186
1812.000000	20.803433
1811.000000	20.768980
1810.000000	20.738342
1809.000000	20.715555
1808.000000	20.671398
1807.000000	20.644577
1806.000000	20.620046
1805.000000	20.576652
1804.000000	20.538819
1803.000000	20.492372
1802.000000	20.453122
1801.000000	20.429899
1800.000000	20.393483
1799.000000	20.355759
1798.000000	20.319016
1797.000000	20.260249
1796.000000	20.222961
1795.000000	20.197012
1794.000000	20.152964
1793.000000	20.116222
1792.000000	20.092780
1791.000000	20.051240
1790.000000	20.003376
1789.000000	19.971104
1788.000000	19.936323
1787.000000	19.903069
1786.000000	19.866763
1785.000000	19.825332
1784.000000	19.792078
1783.000000	19.760568
1782.000000	19.721754
1781.000000	19.678251
1780.000000	19.640418
1779.000000	19.599423
1778.000000	19.556574
1777.000000	19.524520
1776.000000	19.500861
1775.000000	19.453760
1774.000000	19.407422
1773.000000	19.356724
1772.000000	19.304608
1771.000000	19.256962
1770.000000	19.202993
1769.000000	19.168648
1768.000000	19.119803
1767.000000	19.070086
1766.000000	19.026147
1765.000000	18.988096
1764.000000	18.951680
1763.000000	18.939360
1762.000000	18.931619
1761.000000	18.944484
1760.000000	18.961057
1759.000000	18.991585
1758.000000	19.036069
1757.000000	19.090583
1756.000000	19.151531
1755.000000	19.201575
1754.000000	19.263177
1753.000000	19.306788
1752.000000	19.348656
1751.000000	19.365446
1750.000000	19.396956
1749.000000	19.422578
1748.000000	19.419961
1747.000000	19.394339
1746.000000	19.391068
1745.000000	19.384090
1744.000000	19.349637
1743.000000	19.300247
1742.000000	19.243224
1741.000000	19.163742
1740.000000	19.081316
1739.000000	18.999217
1738.000000	18.906651
1737.000000	18.789663
1736.000000	18.688048
1735.000000	18.604313
1734.000000	18.535407
1733.000000	18.481873
1732.000000	18.460940
1731.000000	18.456251
1730.000000	18.479257
1729.000000	18.510657
1728.000000	18.582398
1727.000000	18.643673
1726.000000	18.699932
1725.000000	18.763278
1724.000000	18.831857
1723.000000	18.900873
1722.000000	18.946338
1721.000000	19.002815
1720.000000	19.042284
1719.000000	19.081970
1718.000000	19.113698
1717.000000	19.166795
1716.000000	19.217821
1715.000000	19.272117
1714.000000	19.341896
1713.000000	19.395647
1712.000000	19.429337
1711.000000	19.473712
1710.000000	19.537821
1709.000000	19.582414
1708.000000	19.609781
1707.000000	19.619266
1706.000000	19.597678
1705.000000	19.569222
1704.000000	19.552758
1703.000000	19.525610
1702.000000	19.452997
1701.000000	19.397610
1700.000000	19.335572
1699.000000	19.249112
1698.000000	19.167013
1697.000000	19.072812
1696.000000	18.969016
1695.000000	18.916464
1694.000000	18.870017
1693.000000	18.872743
1692.000000	18.879503
1691.000000	18.928348
1690.000000	19.000634
1689.000000	19.100396
1688.000000	19.186747
1687.000000	19.272444
1686.000000	19.311804
1685.000000	19.373405
1684.000000	19.432390
1683.000000	19.465862
1682.000000	19.556683
1681.000000	19.682503
1680.000000	19.897727
1679.000000	20.135411
1678.000000	20.410819
1677.000000	20.698656
1676.000000	20.974718
1675.000000	21.259175
1674.000000	21.505690
1673.000000	21.745773
1672.000000	21.944533
1671.000000	22.116581
1670.000000	22.261699
1669.000000	22.404527
1668.000000	22.516609
1667.000000	22.587805
1666.000000	22.671431
1665.000000	22.730416
1664.000000	22.805537
1663.000000	22.845987
1662.000000	22.892760
1661.000000	22.931902
1660.000000	22.947602
1659.000000	22.998518
1658.000000	22.998628
1657.000000	23.032863
1656.000000	23.024685
1655.000000	23.039186
1654.000000	23.035261
1653.000000	23.042784
1652.000000	23.034716
1651.000000	23.012583
1650.000000	23.009203
1649.000000	22.953271
1648.000000	22.938879
1647.000000	22.897121
1646.000000	22.876515
1645.000000	22.822654
1644.000000	22.817530
1643.000000	22.768467
1642.000000	22.733468
1641.000000	22.676991
1640.000000	22.630436
1639.000000	22.592385
1638.000000	22.546047
1637.000000	22.476050
1636.000000	22.453045
1635.000000	22.416629
1634.000000	22.337801
1633.000000	22.295934
1632.000000	22.228881
1631.000000	22.172622
1630.000000	22.125412
1629.000000	22.065882
1628.000000	22.023906
1627.000000	21.942897
1626.000000	21.878134
1625.000000	21.831797
1624.000000	21.735851
1623.000000	21.700743
1622.000000	21.637397
1621.000000	21.594004
1620.000000	21.539925
1619.000000	21.469820
1618.000000	21.433295
1617.000000	21.375618
1616.000000	21.332225
1615.000000	21.267788
1614.000000	21.217417
1613.000000	21.171734
1612.000000	21.114929
1611.000000	21.066411
1610.000000	21.030214
1609.000000	20.965341
1608.000000	20.892510
1607.000000	20.861000
1606.000000	20.800053
1605.000000	20.737906
1604.000000	20.695494
1603.000000	20.641961
1602.000000	20.585701
1601.000000	20.531732
1600.000000	20.489538
1599.000000	20.426737
1598.000000	20.360992
1597.000000	20.315200
1596.000000	20.266246
1595.000000	20.213149
1594.000000	20.157435
1593.000000	20.110007
1592.000000	20.066613
1591.000000	20.012971
1590.000000	19.961836
1589.000000	19.910592
1588.000000	19.867526
1587.000000	19.808432
1586.000000	19.769618
1585.000000	19.712486
1584.000000	19.669638
1583.000000	19.640200
1582.000000	19.569767
1581.000000	19.530953
1580.000000	19.495409
1579.000000	19.444492
1578.000000	19.413855
1577.000000	19.369589
1576.000000	19.322489
1575.000000	19.294250
1574.000000	19.262523
1573.000000	19.240172
1572.000000	19.201466
1571.000000	19.169303
1570.000000	19.125037
1569.000000	19.100069
1568.000000	19.080662
1567.000000	19.048716
1566.000000	19.029309
1565.000000	19.002706
1564.000000	18.970542
1563.000000	18.943939
1562.000000	18.924641
1561.000000	18.905452
1560.000000	18.864784
1559.000000	18.831094
1558.000000	18.802419
1557.000000	18.769710
1556.000000	18.747359
1555.000000	18.702439
1554.000000	18.669076
1553.000000	18.631788
1552.000000	18.581417
1551.000000	18.547618
1550.000000	18.497137
1549.000000	18.447856
1548.000000	18.422670
1547.000000	18.378077
1546.000000	18.333266
1545.000000	18.302520
1544.000000	18.256946
1543.000000	18.231433
1542.000000	18.194908
1541.000000	18.150970
1540.000000	18.117389
1539.000000	18.085334
1538.000000	18.041613
1537.000000	18.000182
1536.000000	17.971180
1535.000000	17.917320
1534.000000	17.866621
1533.000000	17.819630
1532.000000	17.788229
1531.000000	17.754648
1530.000000	17.710164
1529.000000	17.665135
1528.000000	17.620106
1527.000000	17.563956
1526.000000	17.511622
1525.000000	17.474334
1524.000000	17.437809
1523.000000	17.384276
1522.000000	17.321257
1521.000000	17.262272
1520.000000	17.214299
1519.000000	17.155424
1518.000000	17.101236
1517.000000	17.052391
1516.000000	16.999839
1515.000000	16.944452
1514.000000	16.878816
1513.000000	16.823102
1512.000000	16.776656
1511.000000	16.721923
1510.000000	16.653562
1509.000000	16.593596
1508.000000	16.536574
1507.000000	16.481078
1506.000000	16.419694
1505.000000	16.354822
1504.000000	16.288532
1503.000000	16.233363
1502.000000	16.182338
1501.000000	16.118446
1500.000000	16.057390
1499.000000	15.995571
1498.000000	15.944545
1497.000000	15.893737
1496.000000	15.833553
1495.000000	15.781110
1494.000000	15.740442
1493.000000	15.683420
1492.000000	15.627270
1491.000000	15.597069
1490.000000	15.558145
1489.000000	15.497198
1488.000000	15.451078
1487.000000	15.409865
1486.000000	15.389041
1485.000000	15.346410
1484.000000	15.292550
1483.000000	15.248284
1482.000000	15.205981
1481.000000	15.159207
1480.000000	15.128570
1479.000000	15.105456
1478.000000	15.067623
1477.000000	15.033715
1476.000000	15.009074
1475.000000	14.993265
1474.000000	14.961210
1473.000000	14.933081
1472.000000	14.935479
1471.000000	14.912583
1470.000000	14.891540
1469.000000	14.871370
1468.000000	14.857523
1467.000000	14.858832
1466.000000	14.844549
1465.000000	14.816964
1464.000000	14.828413
1463.000000	14.829721
1462.000000	14.827649
1461.000000	14.844331
1460.000000	14.835172
1459.000000	14.848256
1458.000000	14.868753
1457.000000	14.876494
1456.000000	14.913346
1455.000000	14.949653
1454.000000	14.977565
1453.000000	15.023575
1452.000000	15.055848
1451.000000	15.099023
1450.000000	15.154955
1449.000000	15.191262
1448.000000	15.220373
1447.000000	15.269436
1446.000000	15.330056
1445.000000	15.394056
1444.000000	15.459147
1443.000000	15.500905
1442.000000	15.543099
1441.000000	15.629014
1440.000000	15.702391
1439.000000	15.777948
1438.000000	15.834316
1437.000000	15.936259
1436.000000	15.997315
1435.000000	16.079741
1434.000000	16.168491
1433.000000	16.265745
1432.000000	16.363217
1431.000000	16.468321
1430.000000	16.584110
1429.000000	16.686380
1428.000000	16.798244
1427.000000	16.926353
1426.000000	17.035055
1425.000000	17.187260
1424.000000	17.342845
1423.000000	17.481530
1422.000000	17.647472
1421.000000	17.800877
1420.000000	17.966165
1419.000000	18.162745
1418.000000	18.391379
1417.000000	18.583598
1416.000000	18.759353
1415.000000	18.974576
1414.000000	19.193616
1413.000000	19.448308
1412.000000	19.678796
1411.000000	19.892712
1410.000000	20.157108
1409.000000	20.473183
1408.000000	20.789477
1407.000000	21.102500
1406.000000	21.416831
1405.000000	21.732907
1404.000000	22.155722
1403.000000	22.482265
1402.000000	22.837482
1401.000000	23.158682
1400.000000	23.605266
1399.000000	24.050215
1398.000000	24.418406
1397.000000	24.715075
1396.000000	25.038237
1395.000000	25.536828
1394.000000	25.987882
1393.000000	26.333723
1392.000000	26.682616
1391.000000	27.146209
1390.000000	27.609256
1389.000000	27.994456
1388.000000	28.464808
1387.000000	29.021076
1386.000000	29.535148
1385.000000	30.048676
1384.000000	30.532657
1383.000000	31.121197
1382.000000	31.701886
1381.000000	32.226971
1380.000000	32.735375
1379.000000	33.065079
1378.000000	33.411138
1377.000000	33.625380
1376.000000	33.890539
1375.000000	34.129859
1374.000000	34.356966
1373.000000	34.600429
1372.000000	34.914869
1371.000000	35.159422
1370.000000	35.525215
1369.000000	35.807491
1368.000000	36.050300
1367.000000	36.347077
1366.000000	36.581599
1365.000000	36.768693
1364.000000	37.019242
1363.000000	37.171556
1362.000000	37.360068
1361.000000	37.537349
1360.000000	37.735455
1359.000000	37.840560
1358.000000	37.928110
1357.000000	38.041282
1356.000000	38.146496
1355.000000	38.328575
1354.000000	38.590790
1353.000000	38.849625
1352.000000	39.115984
1351.000000	39.506744
1350.000000	39.866214
1349.000000	40.215325
1348.000000	40.583953
1347.000000	40.914312
1346.000000	41.245870
1345.000000	41.537523
1344.000000	41.827323
1343.000000	42.156809
1342.000000	42.443665
1341.000000	42.728995
1340.000000	43.032859
1339.000000	43.324730
1338.000000	43.662612
1337.000000	43.954810
1336.000000	44.259656
1335.000000	44.529394
1334.000000	44.820611
1333.000000	45.105614
1332.000000	45.398139
1331.000000	45.684232
1330.000000	45.954188
1329.000000	46.236792
1328.000000	46.498244
1327.000000	46.741816
1326.000000	47.009373
1325.000000	47.245858
1324.000000	47.482124
1323.000000	47.718718
1322.000000	47.943318
1321.000000	48.158542
1320.000000	48.397316
1319.000000	48.590843
1318.000000	48.781535
1317.000000	48.961651
1316.000000	49.123450
1315.000000	49.327553
1314.000000	49.523043
1313.000000	49.681244
1312.000000	49.842934
1311.000000	50.007132
1310.000000	50.151269
1309.000000	50.286792
1308.000000	50.423951
1307.000000	50.543229
1306.000000	50.656292
1305.000000	50.766303
1304.000000	50.874351
1303.000000	50.974113
1302.000000	51.048798
1301.000000	51.119340
1300.000000	51.199803
1299.000000	51.272417
1298.000000	51.338052
1297.000000	51.415899
1296.000000	51.467906
1295.000000	51.515443
1294.000000	51.548697
1293.000000	51.594053
1292.000000	51.633849
1291.000000	51.671791
1290.000000	51.683239
1289.000000	51.696758
1288.000000	51.708316
1287.000000	51.733174
1286.000000	51.716602
1285.000000	51.694360
1284.000000	51.674626
1283.000000	51.671246
1282.000000	51.657399
1281.000000	51.616731
1280.000000	51.599613
1279.000000	51.591000
1278.000000	51.541828
1277.000000	51.507811
1276.000000	51.487640
1275.000000	51.444574
1274.000000	51.433344
1273.000000	51.410775
1272.000000	51.380247
1271.000000	51.356478
1270.000000	51.317555
1269.000000	51.297384
1268.000000	51.272962
1267.000000	51.234584
1266.000000	51.199040
1265.000000	51.176035
1264.000000	51.161861
1263.000000	51.126972
1262.000000	51.087394
1261.000000	51.034406
1260.000000	50.992430
1259.000000	50.962774
1258.000000	50.923959
1257.000000	50.874460
1256.000000	50.824634
1255.000000	50.774589
1254.000000	50.728797
1253.000000	50.683441
1252.000000	50.621185
1251.000000	50.547263
1250.000000	50.482173
1249.000000	50.407597
1248.000000	50.337273
1247.000000	50.256809
1246.000000	50.171003
1245.000000	50.082144
1244.000000	49.996447
1243.000000	49.895486
1242.000000	49.779588
1241.000000	49.673830
1240.000000	49.580501
1239.000000	49.467001
1238.000000	49.360480
1237.000000	49.255376
1236.000000	49.145038
1235.000000	49.036336
1234.000000	48.896779
1233.000000	48.762782
1232.000000	48.644049
1231.000000	48.511578
1230.000000	48.371803
1229.000000	48.230283
1228.000000	48.079713
1227.000000	47.935795
1226.000000	47.799072
1225.000000	47.639671
1224.000000	47.482778
1223.000000	47.338642
1222.000000	47.176188
1221.000000	47.019731
1220.000000	46.863819
1219.000000	46.711615
1218.000000	46.550360
1217.000000	46.400009
1216.000000	46.276152
1215.000000	46.149460
1214.000000	46.011647
1213.000000	45.872853
1212.000000	45.754556
1211.000000	45.636041
1210.000000	45.518726
1209.000000	45.395741
1208.000000	45.274500
1207.000000	45.169287
1206.000000	45.070070
1205.000000	44.985028
1204.000000	44.896605
1203.000000	44.830097
1202.000000	44.787358
1201.000000	44.730989
1200.000000	44.680291
1199.000000	44.637224
1198.000000	44.570280
1197.000000	44.494505
1196.000000	44.412079
1195.000000	44.292910
1194.000000	44.134709
1193.000000	43.941182
1192.000000	43.733699
1191.000000	43.458509
1190.000000	43.148539
1189.000000	42.853724
1188.000000	42.559781
1187.000000	42.310976
1186.000000	42.140673
1185.000000	42.051051
1184.000000	42.057920
1183.000000	42.136530
1182.000000	42.303017
1181.000000	42.578534
1180.000000	42.914453
1179.000000	43.282972
1178.000000	43.665011
1177.000000	44.029386
1176.000000	44.359963
1175.000000	44.649436
1174.000000	44.914050
1173.000000	45.170813
1172.000000	45.416456
1171.000000	45.671585
1170.000000	45.917228
1169.000000	46.179116
1168.000000	46.453651
1167.000000	46.731894
1166.000000	46.994000
1165.000000	47.284672
1164.000000	47.599767
1163.000000	47.907011
1162.000000	48.221779
1161.000000	48.545595
1160.000000	48.880751
1159.000000	49.199008
1158.000000	49.507887
1157.000000	49.823527
1156.000000	50.138295
1155.000000	50.437362
1154.000000	50.716259
1153.000000	50.948273
1152.000000	51.179633
1151.000000	51.366509
1150.000000	51.541283
1149.000000	51.715839
1148.000000	51.867825
1147.000000	52.033986
1146.000000	52.222170
1145.000000	52.438920
1144.000000	52.696993
1143.000000	52.987774
1142.000000	53.321948
1141.000000	53.708893
1140.000000	54.093984
1139.000000	54.492268
1138.000000	54.913448
1137.000000	55.350546
1136.000000	55.796694
1135.000000	56.289070
1134.000000	56.781228
1133.000000	57.280909
1132.000000	57.669053
1131.000000	58.052836
1130.000000	58.420374
1129.000000	58.753676
1128.000000	59.019380
1127.000000	59.287919
1126.000000	59.483300
1125.000000	59.630053
1124.000000	59.747695
1123.000000	59.896738
1122.000000	59.987560
1121.000000	60.058756
1120.000000	60.133332
1119.000000	60.186320
1118.000000	60.229060
1117.000000	60.260787
1116.000000	60.284773
1115.000000	60.299274
1114.000000	60.297203
1113.000000	60.328058
1112.000000	60.329257
1111.000000	60.331220
1110.000000	60.322716
1109.000000	60.320753
1108.000000	60.320862
1107.000000	60.318136
1106.000000	60.333619
1105.000000	60.322061
1104.000000	60.325005
1103.000000	60.320317
1102.000000	60.308215
1101.000000	60.305162
1100.000000	60.317046
1099.000000	60.296767
1098.000000	60.277469
1097.000000	60.266457
1096.000000	60.249448
1095.000000	60.248903
1094.000000	60.213032
1093.000000	60.191881
1092.000000	60.180323
1091.000000	60.153393
1090.000000	60.103349
1089.000000	60.075764
1088.000000	60.034878
1087.000000	60.020814
1086.000000	59.964882
1085.000000	59.936316
1084.000000	59.876350
1083.000000	59.830667
1082.000000	59.777242
1081.000000	59.750530
1080.000000	59.679879
1079.000000	59.642373
1078.000000	59.572485
1077.000000	59.544138
1076.000000	59.477303
1075.000000	59.418318
1074.000000	59.373507
1073.000000	59.312015
1072.000000	59.266331
1071.000000	59.205929
1070.000000	59.137350
1069.000000	59.091012
1068.000000	59.012293
1067.000000	58.963666
1066.000000	58.885601
1065.000000	58.843516
1064.000000	58.767850
1063.000000	58.699052
1062.000000	58.647045
1061.000000	58.578684
1060.000000	58.506070
1059.000000	58.447958
1058.000000	58.380578
1057.000000	58.309927
1056.000000	58.233497
1055.000000	58.161974
1054.000000	58.081838
1053.000000	58.003773
1052.000000	57.921674
1051.000000	57.850805
1050.000000	57.781789
1049.000000	57.730436
1048.000000	57.677557
1047.000000	57.591206
1046.000000	57.543342
1045.000000	57.476725
1044.000000	57.406838
1043.000000	57.352541
1042.000000	57.282108
1041.000000	57.221488
1040.000000	57.162939
1039.000000	57.107334
1038.000000	57.031668
1037.000000	56.966033
1036.000000	56.912063
1035.000000	56.833344
1034.000000	56.764983
1033.000000	56.694441
1032.000000	56.635020
1031.000000	56.549323
1030.000000	56.471476
1029.000000	56.410420
1028.000000	56.333227
1027.000000	56.271952
1026.000000	56.185819
1025.000000	56.111570
1024.000000	56.034814
1023.000000	55.956204
1022.000000	55.872687
1021.000000	55.786009
1020.000000	55.738472
1019.000000	55.652557
1018.000000	55.568932
1017.000000	55.521831
1016.000000	55.454233
1015.000000	55.406587
1014.000000	55.342805
1013.000000	55.294832
1012.000000	55.247732
1011.000000	55.217749
1010.000000	55.183732
1009.000000	55.157128
1008.000000	55.144808
1007.000000	55.119731
1006.000000	55.124638
1005.000000	55.126382
1004.000000	55.118314
1003.000000	55.111118
1002.000000	55.106321
1001.000000	55.099997
1000.000000	55.111554
999.000000	55.118096
998.000000	55.116351
997.000000	55.125728
996.000000	55.154294
995.000000	55.186021
994.000000	55.217858
993.000000	55.249694
992.000000	55.285783
991.000000	55.315330
990.000000	55.366574
989.000000	55.420870
988.000000	55.467753
987.000000	55.541238
986.000000	55.617450
985.000000	55.670438
984.000000	55.745341
983.000000	55.825042
982.000000	55.908013
981.000000	55.999052
980.000000	56.092926
979.000000	56.188654
978.000000	56.280021
977.000000	56.387414
976.000000	56.497207
975.000000	56.585957
974.000000	56.691497
973.000000	56.814700
972.000000	56.927763
971.000000	57.038428
970.000000	57.150946
969.000000	57.261829
968.000000	57.384051
967.000000	57.506708
966.000000	57.631002
965.000000	57.750825
964.000000	57.878498
963.000000	58.020781
962.000000	58.162519
961.000000	58.313525
960.000000	58.460278
959.000000	58.604415
958.000000	58.763925
957.000000	58.922671
956.000000	59.091339
955.000000	59.271674
954.000000	59.453644
953.000000	59.637903
952.000000	59.823471
951.000000	60.019832
950.000000	60.224153
949.000000	60.413537
948.000000	60.618512
947.000000	60.836789
946.000000	61.047106
945.000000	61.259168
944.000000	61.459454
943.000000	61.679148
942.000000	61.885650
941.000000	62.085827
940.000000	62.317624
939.000000	62.518019
938.000000	62.728337
937.000000	62.962314
936.000000	63.181244
935.000000	63.412386
934.000000	63.644291
933.000000	63.875760
932.000000	64.108429
931.000000	64.332484
930.000000	64.569295
929.000000	64.792042
928.000000	65.011300
927.000000	65.253345
926.000000	65.490047
925.000000	65.716501
924.000000	65.942410
923.000000	66.167882
922.000000	66.404912
921.000000	66.656442
920.000000	66.904702
919.000000	67.140641
918.000000	67.377343
917.000000	67.617971
916.000000	67.855655
915.000000	68.096827
914.000000	68.348140
913.000000	68.596072
912.000000	68.846622
911.000000	69.089648
910.000000	69.331584
909.000000	69.575155
908.000000	69.824287
907.000000	70.082577
906.000000	70.333235
905.000000	70.571137
904.000000	70.843165
903.000000	71.102545
902.000000	71.357783
901.000000	71.605170
900.000000	71.869893
899.000000	72.143557
898.000000	72.397704
897.000000	72.656212
896.000000	72.918318
895.000000	73.160145
894.000000	73.407533
893.000000	73.679997
892.000000	73.924767
891.000000	74.162124
890.000000	74.411038
889.000000	74.660933
888.000000	74.897199
887.000000	75.105772
886.000000	75.319905
885.000000	75.504710
884.000000	75.727021
883.000000	75.928289
882.000000	76.147001
881.000000	76.333550
880.000000	76.555643
879.000000	76.736195
878.000000	76.957525
877.000000	77.131971
876.000000	77.307508
875.000000	77.441287
874.000000	77.525131
873.000000	77.577247
872.000000	77.622821
871.000000	77.699469
870.000000	77.895830
869.000000	78.252465
868.000000	78.622292
867.000000	79.014361
866.000000	79.386914
865.000000	79.756196
864.000000	80.132674
863.000000	80.517983
862.000000	80.895770
861.000000	81.319893
860.000000	81.710763
859.000000	82.110355
858.000000	82.535133
857.000000	81.435400
856.000000	82.761300
855.000000	83.408700
854.000000	83.629800
853.000000	84.292000
852.000000	84.643400
851.000000	85.060200
850.000000	85.438300
849.000000	85.937800
848.000000	85.968400
847.000000	86.522900
846.000000	86.920500
845.000000	87.283800
844.000000	87.833000
843.000000	87.851400
842.000000	88.073400
841.000000	88.251500
840.000000	88.455200
839.000000	88.843200
838.000000	89.236400
837.000000	89.524000
836.000000	89.509200
835.000000	89.520900
834.000000	89.784300
833.000000	89.751000
832.000000	89.652900
831.000000	89.920500
830.000000	89.665000
829.000000	89.954200
828.000000	89.947400
827.000000	89.898200
826.000000	89.980100
825.000000	90.183800
824.000000	89.836000
823.000000	90.355900
822.000000	90.092800
821.000000	90.375600
820.000000	90.339100
819.000000	90.117700
818.000000	90.400800
817.000000	90.464400
816.000000	90.639500
815.000000	90.365200
814.000000	90.782100
813.000000	90.719500
812.000000	90.987200
811.000000	91.230900
810.000000	91.434300
809.000000	91.689200
808.000000	91.637300
807.000000	91.999200
806.000000	92.035300
805.000000	92.240300
804.000000	92.243000
803.000000	92.393900
802.000000	92.712200
801.000000	92.594700
800.000000	92.846600
799.000000	92.885300
798.000000	92.827500
797.000000	92.714700
796.000000	93.098000
795.000000	92.803100
794.000000	92.937100
793.000000	93.006200
792.000000	92.854100
791.000000	92.568300
790.000000	92.627100
789.000000	92.720200
788.000000	92.572300
787.000000	92.492400
786.000000	92.333700
785.000000	92.132200
784.000000	92.125300
783.000000	92.060600
782.000000	91.892300
781.000000	91.544300
780.000000	91.369400
779.000000	91.376900
778.000000	91.168500
777.000000	90.760700
776.000000	90.775900
775.000000	90.574600
774.000000	90.261200
773.000000	90.213800
772.000000	90.040200
771.000000	89.959900
770.000000	89.711000
769.000000	89.445100
768.000000	89.116300
767.000000	88.915000
766.000000	88.484800
765.000000	88.209600
764.000000	87.941700
763.000000	87.542300
762.000000	87.156900
761.000000	86.751600
760.000000	86.170400
759.000000	85.576000
758.000000	85.166000
757.000000	84.656200
756.000000	84.124900
755.000000	83.582400
754.000000	82.805200
753.000000	82.148600
752.000000	81.721800
751.000000	80.939400
750.000000	80.169300
749.000000	79.567500
748.000000	78.992000
747.000000	78.345900
746.000000	77.704800
745.000000	77.220500
744.000000	76.592700
743.000000	76.182000
742.000000	75.761600
741.000000	75.191300
740.000000	74.707100
739.000000	74.508100
738.000000	74.140600
737.000000	73.949700
736.000000	73.644300
735.000000	73.574800
734.000000	73.311000
733.000000	73.326100
732.000000	73.372500
731.000000	73.289800
730.000000	73.366600
729.000000	73.432900
728.000000	73.689900
727.000000	73.829000
726.000000	74.012900
725.000000	74.190500
724.000000	74.509200
723.000000	74.719000
722.000000	75.039900
721.000000	75.252600
720.000000	75.556400
719.000000	75.737900
718.000000	75.976200
717.000000	76.289200
716.000000	76.558600
715.000000	76.720800
714.000000	76.793800
713.000000	76.960100
712.000000	77.140700
711.000000	77.224900
710.000000	77.327700
709.000000	77.349300
708.000000	77.375400
707.000000	77.305000
706.000000	77.180700
705.000000	77.125400
704.000000	77.055500
703.000000	76.828900
702.000000	76.689000
701.000000	76.513700
700.000000	76.317500
699.000000	75.929900
698.000000	75.691800
697.000000	75.463400
696.000000	75.208900
695.000000	74.963400
694.000000	74.619200
693.000000	74.358800
692.000000	74.109800
691.000000	73.860700
690.000000	73.578700
689.000000	73.254200
688.000000	72.951400
687.000000	72.661700
686.000000	72.366100
685.000000	72.128700
684.000000	71.844400
683.000000	71.561900
682.000000	71.212900
681.000000	70.855200
680.000000	70.441400
679.000000	70.049900
678.000000	69.573900
677.000000	69.055900
676.000000	68.582300
675.000000	67.992100
674.000000	67.408300
673.000000	66.736500
672.000000	65.970600
671.000000	65.216500
670.000000	64.430800
669.000000	63.600400
668.000000	62.736400
667.000000	61.890000
666.000000	61.037300
665.000000	60.165400
664.000000	59.328300
663.000000	58.539500
662.000000	57.837000
661.000000	57.136700
660.000000	56.513700
659.000000	56.014100
658.000000	55.532600
657.000000	55.192700
656.000000	54.956900
655.000000	54.818600
654.000000	54.764100
653.000000	54.765400
652.000000	54.895600
651.000000	55.116500
650.000000	55.423500
649.000000	55.830600
648.000000	56.318300
647.000000	56.889600
646.000000	57.559100
645.000000	58.316400
644.000000	59.124000
643.000000	59.981300
642.000000	60.900600
641.000000	61.880400
640.000000	62.904200
639.000000	63.913100
638.000000	64.950100
637.000000	66.008200
636.000000	67.043500
635.000000	68.080000
634.000000	69.139200
633.000000	70.226700
632.000000	71.313600
631.000000	72.359900
630.000000	73.384600
629.000000	74.363500
628.000000	75.332500
627.000000	76.264100
626.000000	77.151800
625.000000	78.038400
624.000000	78.864700
623.000000	79.646900
622.000000	80.442600
621.000000	81.217100
620.000000	81.929600
619.000000	82.615800
618.000000	83.301300
617.000000	83.992200
616.000000	84.660100
615.000000	85.276500
614.000000	85.889800
613.000000	86.429500
612.000000	86.954800
611.000000	87.510800
610.000000	87.965500
609.000000	88.380300
608.000000	88.801500
607.000000	89.155000
606.000000	89.510400
605.000000	89.833800
604.000000	90.105000
603.000000	90.385500
602.000000	90.605600
601.000000	90.814200
600.000000	91.033700
599.000000	91.211600
598.000000	91.364500
597.000000	91.438100
596.000000	91.544900
595.000000	91.647100
594.000000	91.690900
593.000000	91.767300
592.000000	91.743000
591.000000	91.756700
590.000000	91.759100
589.000000	91.756200
588.000000	91.712500
587.000000	91.674500
586.000000	91.595300
585.000000	91.506300
584.000000	91.446300
583.000000	91.338800
582.000000	91.208100
581.000000	91.100400
580.000000	90.999900
579.000000	90.860800
578.000000	90.726000
577.000000	90.591900
576.000000	90.428200
575.000000	90.273000
574.000000	90.132200
573.000000	89.947100
572.000000	89.719500
571.000000	89.530100
570.000000	89.280500
569.000000	89.057800
568.000000	88.757200
567.000000	88.510500
566.000000	88.189300
565.000000	87.874200
564.000000	87.492100
563.000000	87.156400
562.000000	86.771100
561.000000	86.324600
560.000000	85.895700
559.000000	85.490500
558.000000	85.011300
557.000000	84.549300
556.000000	84.082300
555.000000	83.604000
554.000000	83.054300
553.000000	82.470100
552.000000	81.932000
551.000000	81.329100
550.000000	80.661800
549.000000	79.985400
548.000000	79.245800
547.000000	78.513600
546.000000	77.712200
545.000000	76.912500
544.000000	76.053000
543.000000	75.069400
542.000000	74.050700
541.000000	73.034300
540.000000	71.912600
539.000000	70.759900
538.000000	69.573400
537.000000	68.301900
536.000000	67.043200
535.000000	65.739800
534.000000	64.369700
533.000000	63.021300
532.000000	61.673600
531.000000	60.333300
530.000000	58.980000
529.000000	57.649500
528.000000	56.294500
527.000000	55.025300
526.000000	53.756600
525.000000	52.489700
524.000000	51.239300
523.000000	50.026500
522.000000	48.798300
521.000000	47.688100
520.000000	46.567000
519.000000	45.448600
518.000000	44.462200
517.000000	43.449200
516.000000	42.497800
515.000000	41.548600
514.000000	40.623200
513.000000	39.730700
512.000000	38.874500
511.000000	38.003000
510.000000	37.163800
509.000000	36.388400
508.000000	35.595200
507.000000	34.858300
506.000000	34.197500
505.000000	33.519500
504.000000	32.853300
503.000000	32.261600
502.000000	31.760900
501.000000	31.256900
500.000000	30.747300
499.000000	30.385400
498.000000	30.051400
497.000000	29.743200
496.000000	29.556600
495.000000	29.363300
494.000000	29.237000
493.000000	29.127000
492.000000	29.099600
491.000000	29.107200
490.000000	29.143400
489.000000	29.160700
488.000000	29.182700
487.000000	29.200800
486.000000	29.214700
485.000000	29.247400
484.000000	29.235600
483.000000	29.178100
482.000000	29.069900
481.000000	28.931500
480.000000	28.750400
479.000000	28.527500
478.000000	28.247300
477.000000	27.972800
476.000000	27.622500
475.000000	27.229100
474.000000	26.822100
473.000000	26.371100
472.000000	25.910100
471.000000	25.423500
470.000000	24.943000
469.000000	24.447000
468.000000	23.963200
467.000000	23.505700
466.000000	23.072700
465.000000	22.648600
464.000000	22.273300
463.000000	21.941700
462.000000	21.688100
461.000000	21.475500
460.000000	21.332200
459.000000	21.223700
458.000000	21.214800
457.000000	21.220400
456.000000	21.270100
455.000000	21.404600
454.000000	21.549200
453.000000	21.696900
452.000000	21.845300
451.000000	22.040000
450.000000	22.255600
449.000000	22.478800
448.000000	22.657700
447.000000	22.844400
446.000000	23.015800
445.000000	23.180000
444.000000	23.277300
443.000000	23.388000
442.000000	23.493700
441.000000	23.540200
440.000000	23.575200
439.000000	23.547000
438.000000	23.551600
437.000000	23.513400
436.000000	23.474500
435.000000	23.465600
434.000000	23.366300
433.000000	23.253200
432.000000	23.183900
431.000000	23.038000
430.000000	22.918900
429.000000	22.771900
428.000000	22.617900
427.000000	22.440400
426.000000	22.263900
425.000000	22.078100
424.000000	21.861800
423.000000	21.648600
422.000000	21.472600
421.000000	21.210400
420.000000	20.933300
419.000000	20.664600
418.000000	20.419500
417.000000	20.098700
416.000000	19.808300
415.000000	19.511200
414.000000	19.174200
413.000000	18.804100
412.000000	18.448000
411.000000	18.048100
410.000000	17.679400
409.000000	17.275200
408.000000	16.873000
407.000000	16.451700
406.000000	16.012900
405.000000	15.606900
404.000000	15.151900
403.000000	14.711500
402.000000	14.279100
401.000000	13.844000
400.000000	13.428400
399.000000	12.997200
398.000000	12.572900
397.000000	12.160100
396.000000	11.797600
395.000000	11.450800
394.000000	11.084800
393.000000	10.746900
392.000000	10.417300
391.000000	10.082600
390.000000	9.780800
389.000000	9.534800
388.000000	9.252800
387.000000	9.014300
386.000000	8.819700
385.000000	8.629100
384.000000	8.417800
383.000000	8.239600
382.000000	8.071400
381.000000	7.924500
380.000000	7.799600
379.000000	7.673500
378.000000	7.559700
377.000000	7.448600
376.000000	7.251100
375.000000	7.047500
374.000000	6.908000
373.000000	6.743300
372.000000	6.809800
371.000000	6.844200
370.000000	6.779900
369.000000	6.682100
368.000000	6.607000
367.000000	6.723800
366.000000	6.673600
365.000000	6.515300
364.000000	6.585800
363.000000	6.483000
362.000000	6.488500
361.000000	6.473000
360.000000	6.314600
359.000000	6.346700
358.000000	6.499100
357.000000	6.424200
356.000000	6.325900
355.000000	6.350200
354.000000	6.457800
353.000000	6.367900
352.000000	6.129300
351.000000	6.128200
350.000000	6.084400
349.000000	5.984300
348.000000	5.981200
347.000000	5.976300
346.000000	5.940400
345.000000	5.935900
344.000000	5.869800
343.000000	5.899800
342.000000	5.938200
341.000000	5.952200
340.000000	5.972400
339.000000	5.945000
338.000000	5.897900
337.000000	5.656300
336.000000	5.669500
335.000000	5.672800
334.000000	5.671700
333.000000	5.832200
332.000000	5.806500
331.000000	5.803200
330.000000	5.742300
329.000000	5.841600
328.000000	5.873600
327.000000	5.561200
326.000000	5.375400
325.000000	5.702100
324.000000	6.146200
323.000000	6.134300
322.000000	5.727700
321.000000	5.396900
320.000000	5.850300
319.000000	6.133400
318.000000	6.144100
317.000000	6.114800
316.000000	5.761200
315.000000	5.540400
314.000000	5.540900
313.000000	5.565700
312.000000	5.566200
311.000000	5.570800
310.000000	5.571600
309.000000	5.579700
308.000000	5.573000
307.000000	5.585300
306.000000	5.592100
305.000000	5.581600
304.000000	5.596400
303.000000	5.582200
302.000000	5.598200
301.000000	5.625600
300.000000	5.630800
299.000000	5.618200
298.000000	5.618500
297.000000	5.636200
296.000000	5.629000
295.000000	5.641100
294.000000	5.669100
293.000000	5.656300
292.000000	5.666700
291.000000	5.689900
290.000000	5.686300
289.000000	5.694700
288.000000	5.698500
287.000000	5.747000
286.000000	5.732700
285.000000	5.733400
284.000000	5.740100
283.000000	5.736900
282.000000	5.799900
281.000000	5.802200
280.000000	5.770400
279.000000	5.733700
278.000000	5.761300
277.000000	5.816100
276.000000	5.845300
275.000000	5.870900
274.000000	5.885800
273.000000	5.884600
272.000000	5.911700
271.000000	5.915300
270.000000	5.952400
269.000000	5.966000
268.000000	5.997200
267.000000	6.021700
266.000000	6.099800
265.000000	6.119900
264.000000	6.058000
263.000000	6.104300
262.000000	6.148600
261.000000	6.198700
260.000000	6.217000
259.000000	6.214900
258.000000	6.267000
257.000000	6.296500
256.000000	6.248200
255.000000	6.285500
254.000000	6.304000
253.000000	6.289700
252.000000	6.281800
251.000000	6.312100
250.000000	6.383000
