PE UV       SUBTECH     SPECTRUM    ASCII       PEDS        4.00        
   -1
CICIMAUCR0215-1.ASC
24/06/12
16:09:18.00
24/06/12
16:09:18.00
Vinicio Soto Monge
C. cupreomarginata. Sex M. Dorsal.
250,000000
1
Lambda 1050
1050L1511233
PerkinElmer UV WinLab 6.3.2.0749 / 2.02.05 Lambda 900 UV/VIS/NIR, Aug  7 2015 09:38:08

0
0
3350/servo 860,8/2
0
0
UV/VIS
1
1
1
DoubleDePol,CommonBeamDepol,RBeamAtt,SBeamAtt,60mm sphere, WB InGaAs Detector
0
0
0
0
Program
Program
3350/servo 860,8/2
3350/0,2 860,8/0,2
3350/0,2 860,8/0,2
0
15.00
 
 
 
0
 
860,8
319,2
860,8
Front
100
on
S:100 R:100
0
0
0
0
 
0
 
 
 
0
 
 
0
0
0
0
0
 
 
 
 
0
0


0
0
#HDR
-1
-1
#GR
nm
%R
1.0
0.0
2500,000000
-1,000000
2251
8
70,764800
5,818800
#DATA
2500.000000	12.659216
2499.000000	12.430248
2498.000000	12.446973
2497.000000	12.581411
2496.000000	12.455230
2495.000000	12.458194
2494.000000	12.451843
2493.000000	12.304807
2492.000000	12.319839
2491.000000	12.409288
2490.000000	12.032649
2489.000000	12.186036
2488.000000	12.248915
2487.000000	12.047152
2486.000000	12.131520
2485.000000	12.013383
2484.000000	12.024287
2483.000000	12.071393
2482.000000	12.045034
2481.000000	12.082296
2480.000000	12.153750
2479.000000	12.188576
2478.000000	12.233566
2477.000000	12.093411
2476.000000	12.140623
2475.000000	12.248386
2474.000000	12.272839
2473.000000	12.163488
2472.000000	12.136812
2471.000000	12.229967
2470.000000	12.215676
2469.000000	12.172380
2468.000000	12.269875
2467.000000	12.239811
2466.000000	12.214723
2465.000000	12.255584
2464.000000	12.333706
2463.000000	12.345245
2462.000000	12.318145
2461.000000	12.369803
2460.000000	12.441045
2459.000000	12.472485
2458.000000	12.536528
2457.000000	12.665674
2456.000000	12.686951
2455.000000	12.840761
2454.000000	12.959003
2453.000000	12.997747
2452.000000	13.086031
2451.000000	13.206285
2450.000000	13.313306
2449.000000	13.430701
2448.000000	13.525655
2447.000000	13.666233
2446.000000	13.741180
2445.000000	13.832428
2444.000000	13.941673
2443.000000	14.033662
2442.000000	14.140895
2441.000000	14.260831
2440.000000	14.346364
2439.000000	14.430202
2438.000000	14.548021
2437.000000	14.617887
2436.000000	14.723638
2435.000000	14.853842
2434.000000	14.953347
2433.000000	15.011251
2432.000000	15.098265
2431.000000	15.167496
2430.000000	15.264355
2429.000000	15.328822
2428.000000	15.390960
2427.000000	15.490677
2426.000000	15.555991
2425.000000	15.594734
2424.000000	15.661001
2423.000000	15.721868
2422.000000	15.816610
2421.000000	15.808354
2420.000000	15.866892
2419.000000	15.957612
2418.000000	15.989263
2417.000000	16.009693
2416.000000	16.076913
2415.000000	16.124760
2414.000000	16.181076
2413.000000	16.229135
2412.000000	16.265338
2411.000000	16.296883
2410.000000	16.329170
2409.000000	16.373206
2408.000000	16.423700
2407.000000	16.454610
2406.000000	16.495365
2405.000000	16.528922
2404.000000	16.543424
2403.000000	16.579945
2402.000000	16.630968
2401.000000	16.668441
2400.000000	16.723910
2399.000000	16.750268
2398.000000	16.773451
2397.000000	16.831461
2396.000000	16.856337
2395.000000	16.867558
2394.000000	16.904078
2393.000000	16.948962
2392.000000	16.958171
2391.000000	17.001890
2390.000000	17.025390
2389.000000	17.036400
2388.000000	17.074720
2387.000000	17.109441
2386.000000	17.104466
2385.000000	17.113569
2384.000000	17.139716
2383.000000	17.147232
2382.000000	17.122567
2381.000000	17.100231
2380.000000	17.104254
2379.000000	17.096632
2378.000000	17.081812
2377.000000	17.095150
2376.000000	17.089646
2375.000000	17.066145
2374.000000	17.052702
2373.000000	17.034600
2372.000000	17.028354
2371.000000	17.016393
2370.000000	16.976908
2369.000000	16.947162
2368.000000	16.913394
2367.000000	16.870628
2366.000000	16.838024
2365.000000	16.773557
2364.000000	16.725180
2363.000000	16.688448
2362.000000	16.626627
2361.000000	16.562584
2360.000000	16.492613
2359.000000	16.415337
2358.000000	16.350764
2357.000000	16.305987
2356.000000	16.243849
2355.000000	16.194837
2354.000000	16.163715
2353.000000	16.126348
2352.000000	16.105388
2351.000000	16.084005
2350.000000	16.076701
2349.000000	16.107611
2348.000000	16.145084
2347.000000	16.182028
2346.000000	16.189227
2345.000000	16.246919
2344.000000	16.313926
2343.000000	16.366537
2342.000000	16.417348
2341.000000	16.455457
2340.000000	16.494836
2339.000000	16.539401
2338.000000	16.565230
2337.000000	16.589683
2336.000000	16.622181
2335.000000	16.625569
2334.000000	16.614560
2333.000000	16.611278
2332.000000	16.610643
2331.000000	16.570206
2330.000000	16.526169
2329.000000	16.479063
2328.000000	16.443072
2327.000000	16.399670
2326.000000	16.327688
2325.000000	16.263750
2324.000000	16.195896
2323.000000	16.107505
2322.000000	15.995826
2321.000000	15.896109
2320.000000	15.800203
2319.000000	15.672327
2318.000000	15.536407
2317.000000	15.404933
2316.000000	15.278646
2315.000000	15.135209
2314.000000	14.987962
2313.000000	14.841457
2312.000000	14.709453
2311.000000	14.601267
2310.000000	14.495199
2309.000000	14.397704
2308.000000	14.309631
2307.000000	14.236273
2306.000000	14.202504
2305.000000	14.194459
2304.000000	14.198587
2303.000000	14.211714
2302.000000	14.254903
2301.000000	14.310372
2300.000000	14.374522
2299.000000	14.468417
2298.000000	14.555855
2297.000000	14.650173
2296.000000	14.735282
2295.000000	14.851513
2294.000000	14.972190
2293.000000	15.040256
2292.000000	15.126423
2291.000000	15.173530
2290.000000	15.233445
2289.000000	15.268377
2288.000000	15.296218
2287.000000	15.309979
2286.000000	15.320565
2285.000000	15.312096
2284.000000	15.277481
2283.000000	15.239902
2282.000000	15.203381
2281.000000	15.157016
2280.000000	15.093925
2279.000000	15.043431
2278.000000	14.989444
2277.000000	14.937151
2276.000000	14.875119
2275.000000	14.834999
2274.000000	14.807900
2273.000000	14.770744
2272.000000	14.760899
2271.000000	14.762699
2270.000000	14.755712
2269.000000	14.776884
2268.000000	14.813193
2267.000000	14.902113
2266.000000	15.008605
2265.000000	15.131293
2264.000000	15.249111
2263.000000	15.414460
2262.000000	15.598228
2261.000000	15.808777
2260.000000	16.035946
2259.000000	16.269784
2258.000000	16.523523
2257.000000	16.795999
2256.000000	17.054607
2255.000000	17.304853
2254.000000	17.593630
2253.000000	17.850227
2252.000000	18.110106
2251.000000	18.356965
2250.000000	18.604881
2249.000000	18.813737
2248.000000	19.004809
2247.000000	19.229861
2246.000000	19.410347
2245.000000	19.565321
2244.000000	19.723260
2243.000000	19.900252
2242.000000	20.008967
2241.000000	20.113131
2240.000000	20.212530
2239.000000	20.321669
2238.000000	20.409212
2237.000000	20.497815
2236.000000	20.566092
2235.000000	20.606000
2234.000000	20.667927
2233.000000	20.717150
2232.000000	20.746261
2231.000000	20.786910
2230.000000	20.791885
2229.000000	20.829570
2228.000000	20.819090
2227.000000	20.797178
2226.000000	20.822690
2225.000000	20.786169
2224.000000	20.763198
2223.000000	20.729959
2222.000000	20.693544
2221.000000	20.660834
2220.000000	20.604095
2219.000000	20.571597
2218.000000	20.510729
2217.000000	20.491675
2216.000000	20.434830
2215.000000	20.374280
2214.000000	20.325374
2213.000000	20.272763
2212.000000	20.228515
2211.000000	20.151557
2210.000000	20.128692
2209.000000	20.100110
2208.000000	20.036279
2207.000000	20.021459
2206.000000	19.994359
2205.000000	19.941113
2204.000000	19.932221
2203.000000	19.904381
2202.000000	19.876858
2201.000000	19.845207
2200.000000	19.816308
2199.000000	19.785504
2198.000000	19.751312
2197.000000	19.751629
2196.000000	19.713944
2195.000000	19.706005
2194.000000	19.694467
2193.000000	19.668955
2192.000000	19.642279
2191.000000	19.633811
2190.000000	19.643549
2189.000000	19.595385
2188.000000	19.590515
2187.000000	19.546055
2186.000000	19.550925
2185.000000	19.544361
2184.000000	19.508794
2183.000000	19.517791
2182.000000	19.485505
2181.000000	19.457982
2180.000000	19.451207
2179.000000	19.453325
2178.000000	19.423049
2177.000000	19.408970
2176.000000	19.402619
2175.000000	19.398597
2174.000000	19.409182
2173.000000	19.421567
2172.000000	19.417651
2171.000000	19.409923
2170.000000	19.426543
2169.000000	19.446867
2168.000000	19.473967
2167.000000	19.493550
2166.000000	19.510487
2165.000000	19.544256
2164.000000	19.594644
2163.000000	19.628835
2162.000000	19.654770
2161.000000	19.703888
2160.000000	19.750041
2159.000000	19.791220
2158.000000	19.841819
2157.000000	19.886597
2156.000000	19.969271
2155.000000	20.027810
2154.000000	20.080738
2153.000000	20.135043
2152.000000	20.206602
2151.000000	20.267364
2150.000000	20.329396
2149.000000	20.405719
2148.000000	20.480560
2147.000000	20.549261
2146.000000	20.605789
2145.000000	20.659670
2144.000000	20.723607
2143.000000	20.778230
2142.000000	20.857516
2141.000000	20.903458
2140.000000	20.953529
2139.000000	21.004869
2138.000000	21.073359
2137.000000	21.124382
2136.000000	21.175828
2135.000000	21.209279
2134.000000	21.255115
2133.000000	21.296293
2132.000000	21.338848
2131.000000	21.366794
2130.000000	21.397493
2129.000000	21.442270
2128.000000	21.463124
2127.000000	21.473921
2126.000000	21.487577
2125.000000	21.501550
2124.000000	21.504302
2123.000000	21.500915
2122.000000	21.508431
2121.000000	21.514782
2120.000000	21.507795
2119.000000	21.523251
2118.000000	21.510336
2117.000000	21.490012
2116.000000	21.479638
2115.000000	21.463759
2114.000000	21.445869
2113.000000	21.429779
2112.000000	21.402044
2111.000000	21.386589
2110.000000	21.361184
2109.000000	21.335778
2108.000000	21.304444
2107.000000	21.284014
2106.000000	21.267289
2105.000000	21.250987
2104.000000	21.224522
2103.000000	21.181862
2102.000000	21.154657
2101.000000	21.133909
2100.000000	21.103634
2099.000000	21.075264
2098.000000	21.059915
2097.000000	21.043295
2096.000000	21.013232
2095.000000	20.985709
2094.000000	20.960621
2093.000000	20.936803
2092.000000	20.919125
2091.000000	20.905258
2090.000000	20.882075
2089.000000	20.872548
2088.000000	20.853070
2087.000000	20.838462
2086.000000	20.823854
2085.000000	20.784687
2084.000000	20.763621
2083.000000	20.734405
2082.000000	20.694709
2081.000000	20.664222
2080.000000	20.626748
2079.000000	20.577737
2078.000000	20.535394
2077.000000	20.494004
2076.000000	20.432395
2075.000000	20.375021
2074.000000	20.322727
2073.000000	20.268846
2072.000000	20.210625
2071.000000	20.145523
2070.000000	20.080633
2069.000000	20.011190
2068.000000	19.939419
2067.000000	19.879504
2066.000000	19.812815
2065.000000	19.748242
2064.000000	19.680282
2063.000000	19.620261
2062.000000	19.564263
2061.000000	19.508264
2060.000000	19.455971
2059.000000	19.406112
2058.000000	19.370439
2057.000000	19.333283
2056.000000	19.308195
2055.000000	19.310841
2054.000000	19.309571
2053.000000	19.312006
2052.000000	19.329049
2051.000000	19.372238
2050.000000	19.422097
2049.000000	19.484341
2048.000000	19.557382
2047.000000	19.638892
2046.000000	19.721989
2045.000000	19.814085
2044.000000	19.905439
2043.000000	20.009497
2042.000000	20.111543
2041.000000	20.211472
2040.000000	20.308331
2039.000000	20.401908
2038.000000	20.493263
2037.000000	20.604942
2036.000000	20.676184
2035.000000	20.760975
2034.000000	20.833487
2033.000000	20.909704
2032.000000	20.977452
2031.000000	21.033768
2030.000000	21.090719
2029.000000	21.155610
2028.000000	21.221029
2027.000000	21.246964
2026.000000	21.284649
2025.000000	21.332920
2024.000000	21.358114
2023.000000	21.385001
2022.000000	21.431049
2021.000000	21.443329
2020.000000	21.456349
2019.000000	21.469158
2018.000000	21.500703
2017.000000	21.516793
2016.000000	21.524838
2015.000000	21.530237
2014.000000	21.523356
2013.000000	21.514359
2012.000000	21.508854
2011.000000	21.486942
2010.000000	21.457513
2009.000000	21.447563
2008.000000	21.411677
2007.000000	21.376745
2006.000000	21.338636
2005.000000	21.314607
2004.000000	21.282744
2003.000000	21.226004
2002.000000	21.178580
2001.000000	21.134015
2000.000000	21.062350
1999.000000	20.996083
1998.000000	20.939450
1997.000000	20.890015
1996.000000	20.809140
1995.000000	20.728583
1994.000000	20.667080
1993.000000	20.572020
1992.000000	20.484688
1991.000000	20.403814
1990.000000	20.306637
1989.000000	20.210201
1988.000000	20.133879
1987.000000	20.036279
1986.000000	19.941325
1985.000000	19.850076
1984.000000	19.743796
1983.000000	19.641326
1982.000000	19.545949
1981.000000	19.444115
1980.000000	19.371921
1979.000000	19.252514
1978.000000	19.142740
1977.000000	19.030850
1976.000000	18.953045
1975.000000	18.855127
1974.000000	18.759327
1973.000000	18.660668
1972.000000	18.561692
1971.000000	18.448107
1970.000000	18.345109
1969.000000	18.274925
1968.000000	18.179972
1967.000000	18.080360
1966.000000	17.984348
1965.000000	17.886219
1964.000000	17.819952
1963.000000	17.737702
1962.000000	17.635020
1961.000000	17.542713
1960.000000	17.445007
1959.000000	17.362545
1958.000000	17.281988
1957.000000	17.196879
1956.000000	17.094621
1955.000000	17.023273
1954.000000	16.913394
1953.000000	16.856760
1952.000000	16.765829
1951.000000	16.692153
1950.000000	16.610961
1949.000000	16.511032
1948.000000	16.455880
1947.000000	16.408668
1946.000000	16.334357
1945.000000	16.265761
1944.000000	16.191132
1943.000000	16.153976
1942.000000	16.110893
1941.000000	16.069397
1940.000000	16.085381
1939.000000	16.038169
1938.000000	16.030335
1937.000000	16.032558
1936.000000	16.016574
1935.000000	16.021549
1934.000000	16.033829
1933.000000	16.039968
1932.000000	16.074266
1931.000000	16.134499
1930.000000	16.190815
1929.000000	16.235592
1928.000000	16.291590
1927.000000	16.435026
1926.000000	16.517489
1925.000000	16.626522
1924.000000	16.726980
1923.000000	16.802773
1922.000000	16.951502
1921.000000	17.123626
1920.000000	17.308346
1919.000000	17.472742
1918.000000	17.613955
1917.000000	17.794335
1916.000000	17.959789
1915.000000	18.106084
1914.000000	18.290169
1913.000000	18.537980
1912.000000	18.805798
1911.000000	19.075310
1910.000000	19.260559
1909.000000	19.476401
1908.000000	19.672766
1907.000000	19.923118
1906.000000	20.202474
1905.000000	20.552860
1904.000000	20.873501
1903.000000	21.201975
1902.000000	21.504196
1901.000000	21.825578
1900.000000	22.132986
1899.000000	22.497663
1898.000000	22.900767
1897.000000	23.244378
1896.000000	23.588625
1895.000000	23.893704
1894.000000	24.212757
1893.000000	24.571612
1892.000000	24.964976
1891.000000	25.415292
1890.000000	25.880744
1889.000000	26.310206
1888.000000	26.695208
1887.000000	27.153039
1886.000000	27.582500
1885.000000	28.042343
1884.000000	28.502608
1883.000000	29.016332
1882.000000	29.513648
1881.000000	30.008211
1880.000000	30.480651
1879.000000	30.933612
1878.000000	31.358734
1877.000000	31.799310
1876.000000	32.204107
1875.000000	32.614832
1874.000000	32.996446
1873.000000	33.375731
1872.000000	33.736068
1871.000000	34.063590
1870.000000	34.362212
1869.000000	34.621350
1868.000000	34.875935
1867.000000	35.049541
1866.000000	35.207797
1865.000000	35.336095
1864.000000	35.448410
1863.000000	35.574591
1862.000000	35.691245
1861.000000	35.832882
1860.000000	35.970073
1859.000000	36.095195
1858.000000	36.197453
1857.000000	36.284891
1856.000000	36.354227
1855.000000	36.378786
1854.000000	36.435949
1853.000000	36.488454
1852.000000	36.504544
1851.000000	36.518729
1850.000000	36.553344
1849.000000	36.595793
1848.000000	36.627867
1847.000000	36.616964
1846.000000	36.606167
1845.000000	36.571657
1844.000000	36.522328
1843.000000	36.506979
1842.000000	36.529526
1841.000000	36.569540
1840.000000	36.589230
1839.000000	36.574198
1838.000000	36.555779
1837.000000	36.532914
1836.000000	36.490571
1835.000000	36.458708
1834.000000	36.413719
1833.000000	36.365025
1832.000000	36.328504
1831.000000	36.276105
1830.000000	36.244348
1829.000000	36.224553
1828.000000	36.196395
1827.000000	36.128011
1826.000000	36.069472
1825.000000	36.044913
1824.000000	36.002571
1823.000000	35.980870
1822.000000	35.989974
1821.000000	36.007334
1820.000000	36.003417
1819.000000	35.974730
1818.000000	35.931541
1817.000000	35.911110
1816.000000	35.906558
1815.000000	35.903277
1814.000000	35.905288
1813.000000	35.895655
1812.000000	35.884858
1811.000000	35.873849
1810.000000	35.849290
1809.000000	35.822931
1808.000000	35.801866
1807.000000	35.781118
1806.000000	35.764710
1805.000000	35.727025
1804.000000	35.694421
1803.000000	35.668804
1802.000000	35.634506
1801.000000	35.618416
1800.000000	35.582636
1799.000000	35.538494
1798.000000	35.501867
1797.000000	35.474980
1796.000000	35.451374
1795.000000	35.421628
1794.000000	35.390506
1793.000000	35.355361
1792.000000	35.327733
1791.000000	35.297352
1790.000000	35.265701
1789.000000	35.239448
1788.000000	35.214678
1787.000000	35.190754
1786.000000	35.154974
1785.000000	35.122265
1784.000000	35.084791
1783.000000	35.031651
1782.000000	34.982851
1781.000000	34.948447
1780.000000	34.917220
1779.000000	34.865879
1778.000000	34.817185
1777.000000	34.754518
1776.000000	34.687616
1775.000000	34.627489
1774.000000	34.574878
1773.000000	34.504801
1772.000000	34.418634
1771.000000	34.329290
1770.000000	34.252438
1769.000000	34.177386
1768.000000	34.095347
1767.000000	34.018495
1766.000000	33.951487
1765.000000	33.888502
1764.000000	33.839490
1763.000000	33.806675
1762.000000	33.806463
1761.000000	33.799582
1760.000000	33.814297
1759.000000	33.864367
1758.000000	33.900993
1757.000000	33.952863
1756.000000	34.011614
1755.000000	34.054486
1754.000000	34.104344
1753.000000	34.141077
1752.000000	34.139066
1751.000000	34.141394
1750.000000	34.140336
1749.000000	34.126257
1748.000000	34.091747
1747.000000	34.060096
1746.000000	34.010873
1745.000000	33.955192
1744.000000	33.854099
1743.000000	33.752582
1742.000000	33.635081
1741.000000	33.503606
1740.000000	33.346197
1739.000000	33.169840
1738.000000	33.008408
1737.000000	32.866136
1736.000000	32.714443
1735.000000	32.600965
1734.000000	32.504317
1733.000000	32.438474
1732.000000	32.406188
1731.000000	32.399307
1730.000000	32.422596
1729.000000	32.471713
1728.000000	32.529405
1727.000000	32.588262
1726.000000	32.650717
1725.000000	32.711797
1724.000000	32.777428
1723.000000	32.835226
1722.000000	32.855550
1721.000000	32.895776
1720.000000	32.948387
1719.000000	33.008090
1718.000000	33.057949
1717.000000	33.134060
1716.000000	33.219063
1715.000000	33.307771
1714.000000	33.410770
1713.000000	33.495985
1712.000000	33.554524
1711.000000	33.638151
1710.000000	33.696795
1709.000000	33.712674
1708.000000	33.750147
1707.000000	33.745913
1706.000000	33.744325
1705.000000	33.714368
1704.000000	33.677106
1703.000000	33.625871
1702.000000	33.569873
1701.000000	33.486140
1700.000000	33.367792
1699.000000	33.252831
1698.000000	33.117335
1697.000000	32.998669
1696.000000	32.915995
1695.000000	32.834273
1694.000000	32.803681
1693.000000	32.798811
1692.000000	32.851210
1691.000000	32.914407
1690.000000	33.014971
1689.000000	33.117123
1688.000000	33.192175
1687.000000	33.252196
1686.000000	33.293904
1685.000000	33.350008
1684.000000	33.418603
1683.000000	33.525942
1682.000000	33.675201
1681.000000	33.925552
1680.000000	34.216553
1679.000000	34.571385
1678.000000	34.952047
1677.000000	35.335884
1676.000000	35.685212
1675.000000	36.015485
1674.000000	36.310191
1673.000000	36.553450
1672.000000	36.785171
1671.000000	37.008211
1670.000000	37.173136
1669.000000	37.348965
1668.000000	37.489331
1667.000000	37.600798
1666.000000	37.702738
1665.000000	37.797269
1664.000000	37.892963
1663.000000	38.004325
1662.000000	38.073767
1661.000000	38.127966
1660.000000	38.195820
1659.000000	38.238692
1658.000000	38.271402
1657.000000	38.320202
1656.000000	38.342961
1655.000000	38.348995
1654.000000	38.349418
1653.000000	38.374718
1652.000000	38.382234
1651.000000	38.361380
1650.000000	38.359792
1649.000000	38.315015
1648.000000	38.303582
1647.000000	38.294479
1646.000000	38.249489
1645.000000	38.214027
1644.000000	38.196984
1643.000000	38.163004
1642.000000	38.109652
1641.000000	38.071226
1640.000000	38.011735
1639.000000	38.011629
1638.000000	37.946209
1637.000000	37.908524
1636.000000	37.865864
1635.000000	37.822674
1634.000000	37.775462
1633.000000	37.737565
1632.000000	37.675321
1631.000000	37.592118
1630.000000	37.556656
1629.000000	37.510185
1628.000000	37.466572
1627.000000	37.367490
1626.000000	37.310644
1625.000000	37.260786
1624.000000	37.207116
1623.000000	37.120525
1622.000000	37.082205
1621.000000	37.028218
1620.000000	36.970632
1619.000000	36.932418
1618.000000	36.866681
1617.000000	36.809835
1616.000000	36.761353
1615.000000	36.705037
1614.000000	36.677726
1613.000000	36.616752
1612.000000	36.569434
1611.000000	36.512166
1610.000000	36.467812
1609.000000	36.400381
1608.000000	36.359732
1607.000000	36.298335
1606.000000	36.234397
1605.000000	36.202005
1604.000000	36.130869
1603.000000	36.087997
1602.000000	36.036551
1601.000000	35.974413
1600.000000	35.918308
1599.000000	35.876389
1598.000000	35.815098
1597.000000	35.755077
1596.000000	35.705642
1595.000000	35.651973
1594.000000	35.619263
1593.000000	35.571098
1592.000000	35.522721
1591.000000	35.472333
1590.000000	35.422792
1589.000000	35.386378
1588.000000	35.360443
1587.000000	35.324557
1586.000000	35.287613
1585.000000	35.243365
1584.000000	35.207373
1583.000000	35.161749
1582.000000	35.146188
1581.000000	35.114537
1580.000000	35.066795
1579.000000	35.040014
1578.000000	35.024982
1577.000000	35.008892
1576.000000	34.994178
1575.000000	34.981792
1574.000000	34.965385
1573.000000	34.966337
1572.000000	34.952576
1571.000000	34.956704
1570.000000	34.954799
1569.000000	34.954375
1568.000000	34.963691
1567.000000	34.961785
1566.000000	34.971313
1565.000000	34.971736
1564.000000	34.981792
1563.000000	34.984756
1562.000000	34.985709
1561.000000	34.990367
1560.000000	34.992061
1559.000000	34.984862
1558.000000	34.965596
1557.000000	34.943684
1556.000000	34.923148
1555.000000	34.920290
1554.000000	34.897742
1553.000000	34.857728
1552.000000	34.829253
1551.000000	34.801624
1550.000000	34.751236
1549.000000	34.721173
1548.000000	34.688357
1547.000000	34.639345
1546.000000	34.605259
1545.000000	34.562811
1544.000000	34.522585
1543.000000	34.495168
1542.000000	34.466375
1541.000000	34.441710
1540.000000	34.406037
1539.000000	34.379043
1538.000000	34.354061
1537.000000	34.320398
1536.000000	34.296369
1535.000000	34.261330
1534.000000	34.231055
1533.000000	34.191994
1532.000000	34.145099
1531.000000	34.089207
1530.000000	34.048240
1529.000000	34.018812
1528.000000	33.976787
1527.000000	33.920259
1526.000000	33.865743
1525.000000	33.815038
1524.000000	33.752900
1523.000000	33.694361
1522.000000	33.648525
1521.000000	33.591891
1520.000000	33.526895
1519.000000	33.464122
1518.000000	33.396797
1517.000000	33.321109
1516.000000	33.260030
1515.000000	33.200432
1514.000000	33.136601
1513.000000	33.069170
1512.000000	32.989459
1511.000000	32.920441
1510.000000	32.850575
1509.000000	32.770547
1508.000000	32.691049
1507.000000	32.610386
1506.000000	32.541791
1505.000000	32.475842
1504.000000	32.392532
1503.000000	32.312716
1502.000000	32.249202
1501.000000	32.176373
1500.000000	32.097192
1499.000000	32.035795
1498.000000	31.976832
1497.000000	31.916176
1496.000000	31.844723
1495.000000	31.796135
1494.000000	31.760037
1493.000000	31.705627
1492.000000	31.654816
1491.000000	31.619989
1490.000000	31.572353
1489.000000	31.527364
1488.000000	31.483327
1487.000000	31.448818
1486.000000	31.423836
1485.000000	31.383928
1484.000000	31.341585
1483.000000	31.305276
1482.000000	31.276377
1481.000000	31.255841
1480.000000	31.229694
1479.000000	31.219003
1478.000000	31.203336
1477.000000	31.174543
1476.000000	31.166498
1475.000000	31.154112
1474.000000	31.151889
1473.000000	31.164169
1472.000000	31.187457
1471.000000	31.185234
1470.000000	31.165227
1469.000000	31.165862
1468.000000	31.172002
1467.000000	31.193385
1466.000000	31.206300
1465.000000	31.231388
1464.000000	31.239856
1463.000000	31.249807
1462.000000	31.282517
1461.000000	31.323060
1460.000000	31.370272
1459.000000	31.422565
1458.000000	31.453899
1457.000000	31.503440
1456.000000	31.562402
1455.000000	31.623905
1454.000000	31.693983
1453.000000	31.755909
1452.000000	31.854779
1451.000000	31.930890
1450.000000	32.020022
1449.000000	32.083007
1448.000000	32.140381
1447.000000	32.229195
1446.000000	32.357600
1445.000000	32.453824
1444.000000	32.531734
1443.000000	32.625100
1442.000000	32.718466
1441.000000	32.820935
1440.000000	32.929756
1439.000000	33.041329
1438.000000	33.160524
1437.000000	33.280354
1436.000000	33.382506
1435.000000	33.489739
1434.000000	33.638997
1433.000000	33.760945
1432.000000	33.905228
1431.000000	34.034691
1430.000000	34.171034
1429.000000	34.290123
1428.000000	34.460130
1427.000000	34.637016
1426.000000	34.809140
1425.000000	35.000635
1424.000000	35.214995
1423.000000	35.424168
1422.000000	35.627096
1421.000000	35.795514
1420.000000	36.022472
1419.000000	36.289760
1418.000000	36.503591
1417.000000	36.749709
1416.000000	36.957823
1415.000000	37.221513
1414.000000	37.526910
1413.000000	37.799915
1412.000000	38.045715
1411.000000	38.280929
1410.000000	38.613108
1409.000000	38.957460
1408.000000	39.301072
1407.000000	39.649447
1406.000000	39.965853
1405.000000	40.325555
1404.000000	40.674777
1403.000000	41.011931
1402.000000	41.361894
1401.000000	41.757905
1400.000000	42.176887
1399.000000	42.488000
1398.000000	42.758253
1397.000000	43.007440
1396.000000	43.342371
1395.000000	43.707154
1394.000000	43.996779
1393.000000	44.208810
1392.000000	44.481180
1391.000000	44.779167
1390.000000	45.080436
1389.000000	45.371437
1388.000000	45.743524
1387.000000	46.098250
1386.000000	46.466526
1385.000000	46.828451
1384.000000	47.309571
1383.000000	47.672554
1382.000000	48.071317
1381.000000	48.431760
1380.000000	48.717362
1379.000000	48.892026
1378.000000	49.100140
1377.000000	49.224522
1376.000000	49.393893
1375.000000	49.548868
1374.000000	49.693998
1373.000000	49.874801
1372.000000	50.096148
1371.000000	50.338984
1370.000000	50.567846
1369.000000	50.755637
1368.000000	50.971373
1367.000000	51.154294
1366.000000	51.329487
1365.000000	51.455351
1364.000000	51.622075
1363.000000	51.738412
1362.000000	51.902808
1361.000000	51.990352
1360.000000	52.090175
1359.000000	52.056406
1358.000000	52.147761
1357.000000	52.231070
1356.000000	52.329094
1355.000000	52.477929
1354.000000	52.673552
1353.000000	52.868223
1352.000000	53.053155
1351.000000	53.367656
1350.000000	53.636850
1349.000000	53.902127
1348.000000	54.168040
1347.000000	54.396056
1346.000000	54.620684
1345.000000	54.802546
1344.000000	55.018177
1343.000000	55.252121
1342.000000	55.424456
1341.000000	55.626219
1340.000000	55.835710
1339.000000	56.032921
1338.000000	56.201657
1337.000000	56.389341
1336.000000	56.557125
1335.000000	56.743644
1334.000000	56.886340
1333.000000	57.064179
1332.000000	57.242548
1331.000000	57.389372
1330.000000	57.533337
1329.000000	57.685030
1328.000000	57.828254
1327.000000	57.960576
1326.000000	58.090144
1325.000000	58.208704
1324.000000	58.332239
1323.000000	58.464031
1322.000000	58.588836
1321.000000	58.679662
1320.000000	58.793987
1319.000000	58.885659
1318.000000	58.976590
1317.000000	59.085093
1316.000000	59.195820
1315.000000	59.281140
1314.000000	59.375777
1313.000000	59.448289
1312.000000	59.542289
1311.000000	59.615225
1310.000000	59.706897
1309.000000	59.787772
1308.000000	59.848851
1307.000000	59.914165
1306.000000	59.973021
1305.000000	60.043310
1304.000000	60.069139
1303.000000	60.130430
1302.000000	60.182300
1301.000000	60.219244
1300.000000	60.266880
1299.000000	60.298425
1298.000000	60.331982
1297.000000	60.366597
1296.000000	60.404917
1295.000000	60.428418
1294.000000	60.453400
1293.000000	60.463880
1292.000000	60.493096
1291.000000	60.522736
1290.000000	60.538932
1289.000000	60.544013
1288.000000	60.544543
1287.000000	60.538826
1286.000000	60.547189
1285.000000	60.543908
1284.000000	60.537450
1283.000000	60.530887
1282.000000	60.530358
1281.000000	60.515009
1280.000000	60.490026
1279.000000	60.490132
1278.000000	60.489497
1277.000000	60.477112
1276.000000	60.462292
1275.000000	60.459963
1274.000000	60.445249
1273.000000	60.432864
1272.000000	60.441121
1271.000000	60.435087
1270.000000	60.441226
1269.000000	60.446096
1268.000000	60.445143
1267.000000	60.446625
1266.000000	60.434134
1265.000000	60.424078
1264.000000	60.419843
1263.000000	60.413598
1262.000000	60.413492
1261.000000	60.405870
1260.000000	60.395920
1259.000000	60.368609
1258.000000	60.356329
1257.000000	60.344050
1256.000000	60.320020
1255.000000	60.296414
1254.000000	60.267515
1253.000000	60.229936
1252.000000	60.201990
1251.000000	60.181030
1250.000000	60.130536
1249.000000	60.081736
1248.000000	60.029866
1247.000000	59.968152
1246.000000	59.900403
1245.000000	59.840700
1244.000000	59.785443
1243.000000	59.702769
1242.000000	59.618824
1241.000000	59.541654
1240.000000	59.461309
1239.000000	59.375777
1238.000000	59.285269
1237.000000	59.193703
1236.000000	59.112087
1235.000000	59.020838
1234.000000	58.929590
1233.000000	58.840882
1232.000000	58.735448
1231.000000	58.622922
1230.000000	58.506374
1229.000000	58.393848
1228.000000	58.294766
1227.000000	58.178852
1226.000000	58.063468
1225.000000	57.953377
1224.000000	57.834606
1223.000000	57.718269
1222.000000	57.601932
1221.000000	57.492159
1220.000000	57.377198
1219.000000	57.257474
1218.000000	57.134997
1217.000000	57.023213
1216.000000	56.922013
1215.000000	56.824625
1214.000000	56.713369
1213.000000	56.606136
1212.000000	56.512241
1211.000000	56.432849
1210.000000	56.355679
1209.000000	56.257020
1208.000000	56.150211
1207.000000	56.068066
1206.000000	55.989202
1205.000000	55.922936
1204.000000	55.869055
1203.000000	55.802682
1202.000000	55.744990
1201.000000	55.699366
1200.000000	55.656706
1199.000000	55.612352
1198.000000	55.550955
1197.000000	55.482889
1196.000000	55.401061
1195.000000	55.302403
1194.000000	55.169446
1193.000000	54.998487
1192.000000	54.798947
1191.000000	54.580670
1190.000000	54.334341
1189.000000	54.102832
1188.000000	53.905621
1187.000000	53.742283
1186.000000	53.641825
1185.000000	53.604352
1184.000000	53.624888
1183.000000	53.722806
1182.000000	53.912501
1181.000000	54.142105
1180.000000	54.409076
1179.000000	54.692138
1178.000000	54.963555
1177.000000	55.239735
1176.000000	55.482571
1175.000000	55.697672
1174.000000	55.906105
1173.000000	56.101305
1172.000000	56.281367
1171.000000	56.480802
1170.000000	56.689128
1169.000000	56.904970
1168.000000	57.123777
1167.000000	57.330621
1166.000000	57.552180
1165.000000	57.788452
1164.000000	58.010328
1163.000000	58.247448
1162.000000	58.494624
1161.000000	58.728991
1160.000000	58.953407
1159.000000	59.178565
1158.000000	59.395995
1157.000000	59.623270
1156.000000	59.815612
1155.000000	60.008377
1154.000000	60.173938
1153.000000	60.310705
1152.000000	60.439956
1151.000000	60.537027
1150.000000	60.616314
1149.000000	60.689778
1148.000000	60.754986
1147.000000	60.836814
1146.000000	60.939918
1145.000000	61.049374
1144.000000	61.177355
1143.000000	61.316875
1142.000000	61.507311
1141.000000	61.712674
1140.000000	61.923964
1139.000000	62.137372
1138.000000	62.349721
1137.000000	62.588957
1136.000000	62.849154
1135.000000	63.099929
1134.000000	63.364147
1133.000000	63.593751
1132.000000	63.764922
1131.000000	63.978012
1130.000000	64.150453
1129.000000	64.316542
1128.000000	64.458284
1127.000000	64.576844
1126.000000	64.660048
1125.000000	64.730972
1124.000000	64.773950
1123.000000	64.848261
1122.000000	64.878325
1121.000000	64.886052
1120.000000	64.888910
1119.000000	64.902248
1118.000000	64.911246
1117.000000	64.907329
1116.000000	64.899390
1115.000000	64.872820
1114.000000	64.839158
1113.000000	64.831324
1112.000000	64.823173
1111.000000	64.804542
1110.000000	64.783053
1109.000000	64.765905
1108.000000	64.748015
1107.000000	64.733407
1106.000000	64.718481
1105.000000	64.694769
1104.000000	64.673174
1103.000000	64.648298
1102.000000	64.668199
1101.000000	64.645122
1100.000000	64.621304
1099.000000	64.601191
1098.000000	64.594099
1097.000000	64.585736
1096.000000	64.557155
1095.000000	64.538947
1094.000000	64.514494
1093.000000	64.490677
1092.000000	64.472469
1091.000000	64.457649
1090.000000	64.441453
1089.000000	64.417847
1088.000000	64.405038
1087.000000	64.366930
1086.000000	64.336972
1085.000000	64.308709
1084.000000	64.275893
1083.000000	64.268695
1082.000000	64.236408
1081.000000	64.222118
1080.000000	64.208674
1079.000000	64.161356
1078.000000	64.140396
1077.000000	64.109380
1076.000000	64.099324
1075.000000	64.075400
1074.000000	64.059310
1073.000000	64.020778
1072.000000	63.977271
1071.000000	63.980446
1070.000000	63.933975
1069.000000	63.916509
1068.000000	63.862628
1067.000000	63.839551
1066.000000	63.815310
1065.000000	63.787681
1064.000000	63.764816
1063.000000	63.729671
1062.000000	63.697279
1061.000000	63.657477
1060.000000	63.621697
1059.000000	63.574697
1058.000000	63.547068
1057.000000	63.506843
1056.000000	63.464817
1055.000000	63.402044
1054.000000	63.365418
1053.000000	63.331332
1052.000000	63.281685
1051.000000	63.216795
1050.000000	63.190224
1049.000000	63.141742
1048.000000	63.086591
1047.000000	63.053987
1046.000000	63.008574
1045.000000	62.953740
1044.000000	62.905258
1043.000000	62.852753
1042.000000	62.782146
1041.000000	62.754200
1040.000000	62.695873
1039.000000	62.651519
1038.000000	62.572444
1037.000000	62.521950
1036.000000	62.449861
1035.000000	62.398627
1034.000000	62.339664
1033.000000	62.276468
1032.000000	62.203638
1031.000000	62.105509
1030.000000	62.055121
1029.000000	61.968847
1028.000000	61.898029
1027.000000	61.829963
1026.000000	61.751100
1025.000000	61.658898
1024.000000	61.582681
1023.000000	61.513874
1022.000000	61.406641
1021.000000	61.335929
1020.000000	61.274003
1019.000000	61.173650
1018.000000	61.099656
1017.000000	61.012748
1016.000000	60.978344
1015.000000	60.919700
1014.000000	60.850893
1013.000000	60.782086
1012.000000	60.745142
1011.000000	60.688296
1010.000000	60.654846
1009.000000	60.625735
1008.000000	60.580216
1007.000000	60.555869
1006.000000	60.544013
1005.000000	60.532157
1004.000000	60.491826
1003.000000	60.468432
1002.000000	60.469067
1001.000000	60.447684
1000.000000	60.466314
999.000000	60.452447
998.000000	60.447048
997.000000	60.454882
996.000000	60.447154
995.000000	60.459328
994.000000	60.462609
993.000000	60.476794
992.000000	60.505270
991.000000	60.536709
990.000000	60.552800
989.000000	60.574924
988.000000	60.608480
987.000000	60.628805
986.000000	60.679722
985.000000	60.716772
984.000000	60.743660
983.000000	60.780286
982.000000	60.813419
981.000000	60.853751
980.000000	60.910596
979.000000	60.953362
978.000000	60.983637
977.000000	61.024180
976.000000	61.047892
975.000000	61.073192
974.000000	61.118922
973.000000	61.128026
972.000000	61.153961
971.000000	61.200538
970.000000	61.203820
969.000000	61.201173
968.000000	61.220968
967.000000	61.256219
966.000000	61.269239
965.000000	61.267334
964.000000	61.281942
963.000000	61.297715
962.000000	61.305442
961.000000	61.313276
960.000000	61.323226
959.000000	61.313805
958.000000	61.331271
957.000000	61.361017
956.000000	61.350643
955.000000	61.345350
954.000000	61.360911
953.000000	61.372767
952.000000	61.391080
951.000000	61.419450
950.000000	61.429295
949.000000	61.452689
948.000000	61.485293
947.000000	61.509852
946.000000	61.560557
945.000000	61.603006
944.000000	61.648419
943.000000	61.710239
942.000000	61.764649
941.000000	61.819377
940.000000	61.886385
939.000000	61.973823
938.000000	62.047076
937.000000	62.125833
936.000000	62.220681
935.000000	62.320504
934.000000	62.444992
933.000000	62.555506
932.000000	62.669091
931.000000	62.795802
930.000000	62.924947
929.000000	63.037896
928.000000	63.134014
927.000000	63.242941
926.000000	63.369440
925.000000	63.482072
924.000000	63.585282
923.000000	63.698020
922.000000	63.803242
921.000000	63.906452
920.000000	64.033163
919.000000	64.123988
918.000000	64.206980
917.000000	64.298335
916.000000	64.383338
915.000000	64.479032
914.000000	64.541488
913.000000	64.609342
912.000000	64.669363
911.000000	64.729913
910.000000	64.788770
909.000000	64.861493
908.000000	64.915798
907.000000	64.955283
906.000000	65.010540
905.000000	65.081252
904.000000	65.115762
903.000000	65.162339
902.000000	65.227229
901.000000	65.258774
900.000000	65.312867
899.000000	65.367489
898.000000	65.425287
897.000000	65.468477
896.000000	65.512302
895.000000	65.588307
894.000000	65.705808
893.000000	65.820239
892.000000	65.920698
891.000000	66.018615
890.000000	66.119285
889.000000	66.232976
888.000000	66.346137
887.000000	66.441408
886.000000	66.551605
885.000000	66.670588
884.000000	66.790524
883.000000	66.908766
882.000000	67.040981
881.000000	67.162399
880.000000	67.305200
879.000000	67.417832
878.000000	67.564444
877.000000	67.692636
876.000000	67.800822
875.000000	67.972099
874.000000	68.137024
873.000000	68.276755
872.000000	68.430459
871.000000	68.552724
870.000000	68.716061
869.000000	68.833139
868.000000	69.006532
867.000000	69.135254
866.000000	69.239841
865.000000	69.345698
864.000000	69.469127
863.000000	69.593403
862.000000	69.696931
861.000000	69.827876
860.000000	69.917537
859.000000	69.989731
858.000000	70.087967
857.000000	69.240900
856.000000	70.284200
855.000000	70.738800
854.000000	69.649700
853.000000	69.937400
852.000000	69.216200
851.000000	69.431100
850.000000	69.983200
849.000000	70.073500
848.000000	69.997500
847.000000	70.265700
846.000000	69.744300
845.000000	70.118500
844.000000	70.231600
843.000000	70.421900
842.000000	70.231700
841.000000	70.261000
840.000000	70.152300
839.000000	70.327700
838.000000	70.150300
837.000000	70.031100
836.000000	70.182800
835.000000	70.094200
834.000000	70.144000
833.000000	70.286000
832.000000	70.764800
831.000000	70.398500
830.000000	70.126200
829.000000	70.239400
828.000000	69.855700
827.000000	70.178000
826.000000	69.702200
825.000000	70.040800
824.000000	70.210900
823.000000	69.974200
822.000000	70.127100
821.000000	69.909400
820.000000	69.873100
819.000000	69.894300
818.000000	69.626000
817.000000	70.020100
816.000000	69.752300
815.000000	69.981500
814.000000	70.079100
813.000000	69.499200
812.000000	69.636700
811.000000	69.865900
810.000000	69.089300
809.000000	69.381400
808.000000	69.639500
807.000000	69.364700
806.000000	69.030800
805.000000	69.218700
804.000000	68.785500
803.000000	68.792800
802.000000	68.469600
801.000000	68.671400
800.000000	68.254600
799.000000	68.281800
798.000000	68.035800
797.000000	68.160800
796.000000	67.921200
795.000000	67.644100
794.000000	67.656200
793.000000	67.333000
792.000000	67.430600
791.000000	67.273500
790.000000	67.182500
789.000000	66.784800
788.000000	66.994200
787.000000	66.618600
786.000000	66.614900
785.000000	66.570800
784.000000	66.399900
783.000000	66.017800
782.000000	66.102000
781.000000	65.680900
780.000000	65.607100
779.000000	65.693300
778.000000	65.502700
777.000000	65.538100
776.000000	65.261100
775.000000	65.143200
774.000000	65.000500
773.000000	64.842800
772.000000	64.855300
771.000000	64.940600
770.000000	64.709300
769.000000	64.492200
768.000000	64.319600
767.000000	64.244000
766.000000	64.105000
765.000000	63.946100
764.000000	64.079200
763.000000	63.845600
762.000000	63.754000
761.000000	63.694500
760.000000	63.399600
759.000000	63.454400
758.000000	63.477100
757.000000	63.147500
756.000000	63.374900
755.000000	63.323700
754.000000	63.118400
753.000000	63.028800
752.000000	62.972500
751.000000	62.717000
750.000000	62.747900
749.000000	62.736300
748.000000	62.746300
747.000000	62.607000
746.000000	62.653500
745.000000	62.610200
744.000000	62.519900
743.000000	62.455700
742.000000	62.384100
741.000000	62.384900
740.000000	62.251500
739.000000	62.072600
738.000000	61.918900
737.000000	61.929300
736.000000	61.620100
735.000000	61.603100
734.000000	61.348400
733.000000	61.205200
732.000000	61.102200
731.000000	61.033000
730.000000	60.786700
729.000000	60.515900
728.000000	60.345000
727.000000	60.129000
726.000000	59.931400
725.000000	59.772700
724.000000	59.561700
723.000000	59.347300
722.000000	59.071800
721.000000	59.062800
720.000000	58.821400
719.000000	58.578700
718.000000	58.278400
717.000000	58.128400
716.000000	58.042200
715.000000	57.925900
714.000000	57.791700
713.000000	57.615700
712.000000	57.483100
711.000000	57.506000
710.000000	57.384300
709.000000	57.244100
708.000000	57.245000
707.000000	57.105900
706.000000	57.021200
705.000000	57.126600
704.000000	56.915700
703.000000	56.878800
702.000000	56.862300
701.000000	56.796200
700.000000	56.615000
699.000000	56.470000
698.000000	56.501800
697.000000	56.294800
696.000000	56.216700
695.000000	56.114100
694.000000	55.964500
693.000000	55.835000
692.000000	55.697700
691.000000	55.644500
690.000000	55.555600
689.000000	55.462200
688.000000	55.368400
687.000000	55.235600
686.000000	55.109500
685.000000	54.987400
684.000000	54.875000
683.000000	54.727700
682.000000	54.530700
681.000000	54.405800
680.000000	54.260900
679.000000	54.124800
678.000000	53.890000
677.000000	53.665000
676.000000	53.529300
675.000000	53.296700
674.000000	53.035700
673.000000	52.804800
672.000000	52.490200
671.000000	52.186500
670.000000	51.958500
669.000000	51.734100
668.000000	51.507600
667.000000	51.232400
666.000000	50.932500
665.000000	50.659900
664.000000	50.373700
663.000000	50.073900
662.000000	49.769600
661.000000	49.384100
660.000000	49.063500
659.000000	48.814500
658.000000	48.455500
657.000000	48.075200
656.000000	47.756500
655.000000	47.416000
654.000000	47.173000
653.000000	46.945400
652.000000	46.665900
651.000000	46.450700
650.000000	46.332400
649.000000	46.257100
648.000000	46.143800
647.000000	46.092700
646.000000	46.091100
645.000000	46.131600
644.000000	46.126000
643.000000	46.121800
642.000000	46.253500
641.000000	46.467500
640.000000	46.697100
639.000000	46.962300
638.000000	47.276100
637.000000	47.649000
636.000000	48.119200
635.000000	48.719000
634.000000	49.285000
633.000000	49.813200
632.000000	50.397100
631.000000	50.959400
630.000000	51.558700
629.000000	52.159600
628.000000	52.694200
627.000000	53.260100
626.000000	53.762900
625.000000	54.215900
624.000000	54.727200
623.000000	55.202400
622.000000	55.596600
621.000000	56.015400
620.000000	56.455700
619.000000	56.869700
618.000000	57.348300
617.000000	57.808100
616.000000	58.247000
615.000000	58.740100
614.000000	59.275800
613.000000	59.817600
612.000000	60.251700
611.000000	60.719400
610.000000	61.201700
609.000000	61.596800
608.000000	61.942500
607.000000	62.239600
606.000000	62.486300
605.000000	62.638900
604.000000	62.745800
603.000000	62.790000
602.000000	62.811200
601.000000	62.743800
600.000000	62.635300
599.000000	62.491500
598.000000	62.383300
597.000000	62.203800
596.000000	62.079200
595.000000	61.954900
594.000000	61.917200
593.000000	61.923100
592.000000	61.911800
591.000000	61.938700
590.000000	62.054100
589.000000	62.147200
588.000000	62.333200
587.000000	62.531800
586.000000	62.728300
585.000000	62.938300
584.000000	63.170600
583.000000	63.343300
582.000000	63.550500
581.000000	63.658900
580.000000	63.655200
579.000000	63.603100
578.000000	63.551900
577.000000	63.454600
576.000000	63.325800
575.000000	63.131200
574.000000	62.964500
573.000000	62.803500
572.000000	62.742400
571.000000	62.698600
570.000000	62.666800
569.000000	62.611100
568.000000	62.645500
567.000000	62.757600
566.000000	62.783800
565.000000	62.887500
564.000000	62.977200
563.000000	63.102200
562.000000	63.149000
561.000000	63.158900
560.000000	63.048400
559.000000	62.840800
558.000000	62.671700
557.000000	62.382900
556.000000	61.941400
555.000000	61.435600
554.000000	60.880900
553.000000	60.217300
552.000000	59.562300
551.000000	58.913400
550.000000	58.155800
549.000000	57.410200
548.000000	56.640500
547.000000	55.950200
546.000000	55.141600
545.000000	54.299000
544.000000	53.510700
543.000000	52.760800
542.000000	51.931100
541.000000	51.141400
540.000000	50.388000
539.000000	49.660500
538.000000	48.994100
537.000000	48.302900
536.000000	47.634600
535.000000	47.081700
534.000000	46.452800
533.000000	45.898100
532.000000	45.306700
531.000000	44.719600
530.000000	44.163800
529.000000	43.564900
528.000000	42.952700
527.000000	42.371800
526.000000	41.740700
525.000000	41.085100
524.000000	40.418600
523.000000	39.825900
522.000000	39.164100
521.000000	38.508700
520.000000	37.886800
519.000000	37.254600
518.000000	36.620100
517.000000	36.100600
516.000000	35.587700
515.000000	35.011200
514.000000	34.617500
513.000000	34.145700
512.000000	33.749400
511.000000	33.329200
510.000000	33.021700
509.000000	32.654000
508.000000	32.354700
507.000000	32.106000
506.000000	31.829100
505.000000	31.566100
504.000000	31.303500
503.000000	31.126400
502.000000	30.793800
501.000000	30.593400
500.000000	30.353800
499.000000	30.063100
498.000000	29.725800
497.000000	29.442800
496.000000	29.120400
495.000000	28.790200
494.000000	28.423900
493.000000	28.124100
492.000000	27.708400
491.000000	27.286300
490.000000	26.876500
489.000000	26.413100
488.000000	26.032400
487.000000	25.542000
486.000000	25.086500
485.000000	24.599100
484.000000	24.101000
483.000000	23.628400
482.000000	23.114400
481.000000	22.566900
480.000000	22.087500
479.000000	21.600500
478.000000	21.164500
477.000000	20.723400
476.000000	20.354000
475.000000	19.975100
474.000000	19.708200
473.000000	19.437200
472.000000	19.266400
471.000000	19.121500
470.000000	19.029600
469.000000	19.020400
468.000000	19.051100
467.000000	19.077200
466.000000	19.181500
465.000000	19.252900
464.000000	19.363000
463.000000	19.504500
462.000000	19.619400
461.000000	19.759800
460.000000	19.858900
459.000000	19.970500
458.000000	20.081500
457.000000	20.139600
456.000000	20.268400
455.000000	20.276200
454.000000	20.291000
453.000000	20.286300
452.000000	20.239100
451.000000	20.237400
450.000000	20.164100
449.000000	20.057900
448.000000	19.982500
447.000000	19.870300
446.000000	19.793400
445.000000	19.617400
444.000000	19.520700
443.000000	19.378700
442.000000	19.166100
441.000000	18.960700
440.000000	18.775600
439.000000	18.586400
438.000000	18.386200
437.000000	18.167800
436.000000	17.961700
435.000000	17.747700
434.000000	17.509500
433.000000	17.280300
432.000000	17.094800
431.000000	16.784400
430.000000	16.585700
429.000000	16.319800
428.000000	16.082700
427.000000	15.813900
426.000000	15.540800
425.000000	15.262600
424.000000	15.069200
423.000000	14.754700
422.000000	14.416200
421.000000	14.153500
420.000000	13.827800
419.000000	13.556000
418.000000	13.249900
417.000000	12.944300
416.000000	12.611300
415.000000	12.266800
414.000000	12.008300
413.000000	11.691200
412.000000	11.377400
411.000000	11.061100
410.000000	10.768800
409.000000	10.487000
408.000000	10.217000
407.000000	9.932300
406.000000	9.658600
405.000000	9.431400
404.000000	9.175200
403.000000	8.926200
402.000000	8.697100
401.000000	8.530300
400.000000	8.291900
399.000000	8.105500
398.000000	7.935900
397.000000	7.786700
396.000000	7.638900
395.000000	7.527900
394.000000	7.391200
393.000000	7.297600
392.000000	7.193300
391.000000	7.080500
390.000000	7.013100
389.000000	6.921100
388.000000	6.857000
387.000000	6.804700
386.000000	6.755100
385.000000	6.706400
384.000000	6.629500
383.000000	6.585200
382.000000	6.572400
381.000000	6.594500
380.000000	6.544800
379.000000	6.476400
378.000000	6.431200
377.000000	6.419900
376.000000	6.360300
375.000000	6.207100
374.000000	6.223000
373.000000	6.349300
372.000000	6.417000
371.000000	6.380300
370.000000	6.191800
369.000000	6.235700
368.000000	6.147900
367.000000	6.106700
366.000000	6.289400
365.000000	6.259000
364.000000	6.130300
363.000000	6.201100
362.000000	6.175700
361.000000	6.098500
360.000000	6.210700
359.000000	6.188900
358.000000	5.970300
357.000000	6.000600
356.000000	6.155400
355.000000	6.150900
354.000000	5.997100
353.000000	6.047800
352.000000	6.023200
351.000000	5.978300
350.000000	5.954400
349.000000	5.990800
348.000000	5.968100
347.000000	5.895700
346.000000	5.920000
345.000000	6.024900
344.000000	6.020600
343.000000	5.997800
342.000000	6.043000
341.000000	5.976100
340.000000	5.957600
339.000000	5.930800
338.000000	5.961500
337.000000	6.136700
336.000000	6.086600
335.000000	5.948400
334.000000	5.823600
333.000000	5.933400
332.000000	5.949900
331.000000	5.941500
330.000000	5.972200
329.000000	5.939100
328.000000	6.205900
327.000000	6.137300
326.000000	5.950000
325.000000	5.968500
324.000000	5.858100
323.000000	5.901100
322.000000	5.992000
321.000000	5.934400
320.000000	5.818800
319.000000	5.929200
318.000000	5.934800
317.000000	6.205800
316.000000	6.233300
315.000000	5.988500
314.000000	5.980400
313.000000	5.941200
312.000000	5.961500
311.000000	6.005000
310.000000	5.984600
309.000000	6.018000
308.000000	6.097600
307.000000	6.135100
306.000000	6.069400
305.000000	6.050300
304.000000	6.100300
303.000000	6.092200
302.000000	6.067200
301.000000	6.065400
300.000000	6.078300
299.000000	6.084700
298.000000	6.085200
297.000000	6.141400
296.000000	6.102000
295.000000	6.108200
294.000000	6.170600
293.000000	6.116000
292.000000	6.066600
291.000000	6.083500
290.000000	6.142800
289.000000	6.177300
288.000000	6.159900
287.000000	6.140000
286.000000	6.164000
285.000000	6.177800
284.000000	6.145600
283.000000	6.175200
282.000000	6.202800
281.000000	6.204300
280.000000	6.197900
279.000000	6.189300
278.000000	6.232700
277.000000	6.240300
276.000000	6.266700
275.000000	6.267700
274.000000	6.267200
273.000000	6.279200
272.000000	6.284400
271.000000	6.308500
270.000000	6.302300
269.000000	6.297400
268.000000	6.312300
267.000000	6.356400
266.000000	6.354600
265.000000	6.428200
264.000000	6.481800
263.000000	6.503400
262.000000	6.558900
261.000000	6.598500
260.000000	6.618700
259.000000	6.624900
258.000000	6.650700
257.000000	6.650300
256.000000	6.712800
255.000000	6.723000
254.000000	6.691700
253.000000	6.746500
252.000000	6.764700
251.000000	6.818700
250.000000	6.824000
