PE UV       SUBTECH     SPECTRUM    ASCII       PEDS        4.00        
   -1
CICIMAUCR0240-1.Sample.ASC
24/06/20
11:15:44.00
24/06/20
11:15:44.00
Vinicio Soto Monge
C. resplendens. Sex M. Dorsal.
250,000000
1
Lambda 1050
1050L1511233
PerkinElmer UV WinLab 6.3.2.0749 / 2.02.05 Lambda 900 UV/VIS/NIR, Aug  7 2015 09:38:08

0
0
3350/servo 860,8/2
0
0
UV/VIS
1
1
1
DoubleDePol,CommonBeamDepol,RBeamAtt,SBeamAtt,60mm sphere, WB InGaAs Detector
0
0
0
0
Program
Program
3350/servo 860,8/2
3350/0,2 860,8/0,2
3350/0,2 860,8/0,2
0
15.00
 
 
 
0
 
860,8
319,2
860,8
Front
100
on
S:100 R:100
0
0
0
0
 
0
 
 
 
0
 
 
0
0
0
0
0
 
 
 
 
0
0


0
0
#HDR
-1
-1
#GR
nm
%R
1.0
0.0
2500,000000
-1,000000
2251
8
90,154900
5,495900
#DATA
2500.000000	10.836742
2499.000000	10.805975
2498.000000	10.699069
2497.000000	10.713045
2496.000000	10.638785
2495.000000	10.800030
2494.000000	10.654430
2493.000000	10.567237
2492.000000	10.570783
2491.000000	10.632319
2490.000000	10.592373
2489.000000	10.551384
2488.000000	10.542101
2487.000000	10.545335
2486.000000	10.485155
2485.000000	10.568802
2484.000000	10.521659
2483.000000	10.514150
2482.000000	10.524997
2481.000000	10.533862
2480.000000	10.514984
2479.000000	10.533340
2478.000000	10.543040
2477.000000	10.610104
2476.000000	10.590704
2475.000000	10.610312
2474.000000	10.619490
2473.000000	10.635448
2472.000000	10.620950
2471.000000	10.631693
2470.000000	10.686867
2469.000000	10.696984
2468.000000	10.734218
2467.000000	10.738703
2466.000000	10.761544
2465.000000	10.790017
2464.000000	10.803993
2463.000000	10.830902
2462.000000	10.880026
2461.000000	10.970765
2460.000000	10.973685
2459.000000	11.027294
2458.000000	11.094671
2457.000000	11.133574
2456.000000	11.179465
2455.000000	11.260087
2454.000000	11.298469
2453.000000	11.363237
2452.000000	11.453872
2451.000000	11.535224
2450.000000	11.631491
2449.000000	11.688855
2448.000000	11.753728
2447.000000	11.828197
2446.000000	11.889837
2445.000000	12.003104
2444.000000	12.076738
2443.000000	12.175195
2442.000000	12.244345
2441.000000	12.334354
2440.000000	12.402564
2439.000000	12.481935
2438.000000	12.568293
2437.000000	12.644744
2436.000000	12.706384
2435.000000	12.794724
2434.000000	12.884941
2433.000000	12.942096
2432.000000	13.015313
2431.000000	13.062039
2430.000000	13.150170
2429.000000	13.246229
2428.000000	13.305470
2427.000000	13.353029
2426.000000	13.418216
2425.000000	13.481107
2424.000000	13.550674
2423.000000	13.604804
2422.000000	13.652155
2421.000000	13.685322
2420.000000	13.751134
2419.000000	13.800988
2418.000000	13.850530
2417.000000	13.901323
2416.000000	13.952637
2415.000000	14.005516
2414.000000	14.052972
2413.000000	14.092292
2412.000000	14.128274
2411.000000	14.171245
2410.000000	14.216093
2409.000000	14.263966
2408.000000	14.290979
2407.000000	14.328109
2406.000000	14.366073
2405.000000	14.397363
2404.000000	14.431468
2403.000000	14.487893
2402.000000	14.529612
2401.000000	14.557981
2400.000000	14.608357
2399.000000	14.645695
2398.000000	14.676463
2397.000000	14.701912
2396.000000	14.722041
2395.000000	14.762926
2394.000000	14.797031
2393.000000	14.825088
2392.000000	14.856273
2391.000000	14.878801
2390.000000	14.908109
2389.000000	14.936478
2388.000000	14.953374
2387.000000	14.962969
2386.000000	14.985497
2385.000000	15.011781
2384.000000	15.023670
2383.000000	15.032849
2382.000000	15.035873
2381.000000	15.042861
2380.000000	15.044217
2379.000000	15.045364
2378.000000	15.042966
2377.000000	15.038064
2376.000000	15.042235
2375.000000	15.050162
2374.000000	15.042235
2373.000000	15.026695
2372.000000	15.011781
2371.000000	14.983516
2370.000000	14.982681
2369.000000	14.988105
2368.000000	14.964221
2367.000000	14.940024
2366.000000	14.927299
2365.000000	14.913532
2364.000000	14.879740
2363.000000	14.849598
2362.000000	14.836456
2361.000000	14.805375
2360.000000	14.760423
2359.000000	14.726839
2358.000000	14.689918
2357.000000	14.664260
2356.000000	14.642775
2355.000000	14.609608
2354.000000	14.580405
2353.000000	14.580614
2352.000000	14.572687
2351.000000	14.549429
2350.000000	14.549324
2349.000000	14.562674
2348.000000	14.584473
2347.000000	14.606792
2346.000000	14.640168
2345.000000	14.670727
2344.000000	14.693568
2343.000000	14.732680
2342.000000	14.769288
2341.000000	14.801829
2340.000000	14.835309
2339.000000	14.861800
2338.000000	14.881617
2337.000000	14.916870
2336.000000	14.942735
2335.000000	14.951288
2334.000000	14.954000
2333.000000	14.950349
2332.000000	14.954104
2331.000000	14.948367
2330.000000	14.934809
2329.000000	14.917182
2328.000000	14.916139
2327.000000	14.888605
2326.000000	14.853352
2325.000000	14.828634
2324.000000	14.779822
2323.000000	14.738729
2322.000000	14.685433
2321.000000	14.619830
2320.000000	14.552453
2319.000000	14.471101
2318.000000	14.390688
2317.000000	14.316636
2316.000000	14.218492
2315.000000	14.126814
2314.000000	14.043480
2313.000000	13.947839
2312.000000	13.862941
2311.000000	13.780650
2310.000000	13.711709
2309.000000	13.636928
2308.000000	13.571533
2307.000000	13.519697
2306.000000	13.507807
2305.000000	13.488095
2304.000000	13.483089
2303.000000	13.506347
2302.000000	13.536906
2301.000000	13.570386
2300.000000	13.631400
2299.000000	13.666236
2298.000000	13.752907
2297.000000	13.825081
2296.000000	13.895065
2295.000000	13.961294
2294.000000	14.057978
2293.000000	14.123268
2292.000000	14.192939
2291.000000	14.255935
2290.000000	14.309335
2289.000000	14.352827
2288.000000	14.377755
2287.000000	14.428548
2286.000000	14.444192
2285.000000	14.440646
2284.000000	14.443775
2283.000000	14.466825
2282.000000	14.459107
2281.000000	14.423124
2280.000000	14.396841
2279.000000	14.370558
2278.000000	14.350220
2277.000000	14.326023
2276.000000	14.299949
2275.000000	14.276064
2274.000000	14.266156
2273.000000	14.266260
2272.000000	14.243315
2271.000000	14.250511
2270.000000	14.265947
2269.000000	14.290666
2268.000000	14.329986
2267.000000	14.398197
2266.000000	14.462757
2265.000000	14.554852
2264.000000	14.688666
2263.000000	14.805480
2262.000000	14.947742
2261.000000	15.118164
2260.000000	15.290255
2259.000000	15.470795
2258.000000	15.679286
2257.000000	15.892992
2256.000000	16.096998
2255.000000	16.317484
2254.000000	16.548712
2253.000000	16.770344
2252.000000	16.975290
2251.000000	17.181382
2250.000000	17.373185
2249.000000	17.568639
2248.000000	17.769412
2247.000000	17.930448
2246.000000	18.104104
2245.000000	18.228010
2244.000000	18.389775
2243.000000	18.480514
2242.000000	18.610678
2241.000000	18.716436
2240.000000	18.821776
2239.000000	18.911473
2238.000000	18.968106
2237.000000	19.055195
2236.000000	19.090969
2235.000000	19.162204
2234.000000	19.208304
2233.000000	19.248354
2232.000000	19.283920
2231.000000	19.301650
2230.000000	19.323449
2229.000000	19.327099
2228.000000	19.328768
2227.000000	19.309577
2226.000000	19.288822
2225.000000	19.289552
2224.000000	19.251587
2223.000000	19.239280
2222.000000	19.198917
2221.000000	19.150836
2220.000000	19.126117
2219.000000	19.086588
2218.000000	19.028390
2217.000000	18.986045
2216.000000	18.935044
2215.000000	18.885711
2214.000000	18.831685
2213.000000	18.790904
2212.000000	18.727283
2211.000000	18.686189
2210.000000	18.634875
2209.000000	18.609426
2208.000000	18.568124
2207.000000	18.544449
2206.000000	18.505963
2205.000000	18.479889
2204.000000	18.449642
2203.000000	18.437544
2202.000000	18.400518
2201.000000	18.382370
2200.000000	18.352332
2199.000000	18.347118
2198.000000	18.325006
2197.000000	18.309049
2196.000000	18.280263
2195.000000	18.268894
2194.000000	18.243237
2193.000000	18.238022
2192.000000	18.222586
2191.000000	18.199328
2190.000000	18.198910
2189.000000	18.174818
2188.000000	18.169916
2187.000000	18.128197
2186.000000	18.120374
2185.000000	18.112239
2184.000000	18.090337
2183.000000	18.058734
2182.000000	18.047992
2181.000000	18.032764
2180.000000	18.028697
2179.000000	18.013886
2178.000000	17.990315
2177.000000	17.972167
2176.000000	17.975088
2175.000000	17.972689
2174.000000	17.962780
2173.000000	17.975609
2172.000000	17.979259
2171.000000	17.994383
2170.000000	17.983223
2169.000000	18.004500
2168.000000	18.015555
2167.000000	18.034329
2166.000000	18.067287
2165.000000	18.082931
2164.000000	18.106398
2163.000000	18.149056
2162.000000	18.183892
2161.000000	18.202144
2160.000000	18.246887
2159.000000	18.287042
2158.000000	18.335853
2157.000000	18.390505
2156.000000	18.444845
2155.000000	18.498245
2154.000000	18.561554
2153.000000	18.613077
2152.000000	18.682226
2151.000000	18.739798
2150.000000	18.803212
2149.000000	18.872257
2148.000000	18.917522
2147.000000	18.984585
2146.000000	19.052587
2145.000000	19.122050
2144.000000	19.190573
2143.000000	19.248250
2142.000000	19.304362
2141.000000	19.366315
2140.000000	19.432857
2139.000000	19.485423
2138.000000	19.539866
2137.000000	19.582211
2136.000000	19.646459
2135.000000	19.686300
2134.000000	19.735842
2133.000000	19.775371
2132.000000	19.822409
2131.000000	19.862564
2130.000000	19.905847
2129.000000	19.922743
2128.000000	19.942143
2127.000000	19.953303
2126.000000	19.983966
2125.000000	20.012752
2124.000000	20.029023
2123.000000	20.057287
2122.000000	20.081276
2121.000000	20.074184
2120.000000	20.065005
2119.000000	20.083049
2118.000000	20.082006
2117.000000	20.077625
2116.000000	20.063441
2115.000000	20.077625
2114.000000	20.069282
2113.000000	20.040808
2112.000000	20.045189
2111.000000	20.038201
2110.000000	20.012961
2109.000000	19.991163
2108.000000	19.984800
2107.000000	19.963107
2106.000000	19.945689
2105.000000	19.925142
2104.000000	19.913252
2103.000000	19.902614
2102.000000	19.867987
2101.000000	19.847858
2100.000000	19.828041
2099.000000	19.816673
2098.000000	19.800402
2097.000000	19.782046
2096.000000	19.765358
2095.000000	19.739492
2094.000000	19.728958
2093.000000	19.732609
2092.000000	19.729897
2091.000000	19.723743
2090.000000	19.714461
2089.000000	19.688073
2088.000000	19.677018
2087.000000	19.660747
2086.000000	19.646772
2085.000000	19.637176
2084.000000	19.600150
2083.000000	19.574702
2082.000000	19.549253
2081.000000	19.526621
2080.000000	19.496583
2079.000000	19.447459
2078.000000	19.403028
2077.000000	19.356928
2076.000000	19.311246
2075.000000	19.265355
2074.000000	19.211954
2073.000000	19.148333
2072.000000	19.082104
2071.000000	19.018795
2070.000000	18.949020
2069.000000	18.871631
2068.000000	18.795389
2067.000000	18.724467
2066.000000	18.645200
2065.000000	18.571983
2064.000000	18.495429
2063.000000	18.409592
2062.000000	18.337522
2061.000000	18.265348
2060.000000	18.184830
2059.000000	18.125381
2058.000000	18.073232
2057.000000	18.020144
2056.000000	17.965284
2055.000000	17.932221
2054.000000	17.910423
2053.000000	17.893110
2052.000000	17.903122
2051.000000	17.930031
2050.000000	17.946719
2049.000000	17.981658
2048.000000	18.037145
2047.000000	18.104938
2046.000000	18.170020
2045.000000	18.225506
2044.000000	18.326988
2043.000000	18.409696
2042.000000	18.505963
2041.000000	18.615476
2040.000000	18.695889
2039.000000	18.793095
2038.000000	18.887275
2037.000000	18.975511
2036.000000	19.054048
2035.000000	19.108595
2034.000000	19.178475
2033.000000	19.245017
2032.000000	19.301337
2031.000000	19.360996
2030.000000	19.399169
2029.000000	19.443182
2028.000000	19.474054
2027.000000	19.507013
2026.000000	19.537989
2025.000000	19.580960
2024.000000	19.600568
2023.000000	19.628207
2022.000000	19.627581
2021.000000	19.647293
2020.000000	19.657931
2019.000000	19.663876
2018.000000	19.646459
2017.000000	19.651674
2016.000000	19.654072
2015.000000	19.637489
2014.000000	19.626121
2013.000000	19.613083
2012.000000	19.597439
2011.000000	19.571469
2010.000000	19.546959
2009.000000	19.526412
2008.000000	19.509829
2007.000000	19.454447
2006.000000	19.424096
2005.000000	19.402506
2004.000000	19.354946
2003.000000	19.305405
2002.000000	19.258262
2001.000000	19.201212
2000.000000	19.151149
1999.000000	19.089300
1998.000000	19.030789
1997.000000	18.980309
1996.000000	18.896141
1995.000000	18.827930
1994.000000	18.754296
1993.000000	18.700270
1992.000000	18.614850
1991.000000	18.543197
1990.000000	18.464035
1989.000000	18.404064
1988.000000	18.301227
1987.000000	18.211113
1986.000000	18.123295
1985.000000	18.047783
1984.000000	17.950995
1983.000000	17.850139
1982.000000	17.788186
1981.000000	17.673459
1980.000000	17.602015
1979.000000	17.515135
1978.000000	17.397904
1977.000000	17.319368
1976.000000	17.230402
1975.000000	17.154473
1974.000000	17.063838
1973.000000	16.975394
1972.000000	16.898109
1971.000000	16.820720
1970.000000	16.745730
1969.000000	16.654157
1968.000000	16.565817
1967.000000	16.483630
1966.000000	16.413333
1965.000000	16.343871
1964.000000	16.256678
1963.000000	16.170215
1962.000000	16.113060
1961.000000	16.034211
1960.000000	15.959847
1959.000000	15.883814
1958.000000	15.817272
1957.000000	15.732791
1956.000000	15.657592
1955.000000	15.602419
1954.000000	15.548810
1953.000000	15.465997
1952.000000	15.378178
1951.000000	15.343134
1950.000000	15.272212
1949.000000	15.224026
1948.000000	15.194406
1947.000000	15.133183
1946.000000	15.071960
1945.000000	15.020542
1944.000000	14.993737
1943.000000	14.962343
1942.000000	14.942110
1941.000000	14.924170
1940.000000	14.875985
1939.000000	14.890899
1938.000000	14.874003
1937.000000	14.865451
1936.000000	14.888918
1935.000000	14.895280
1934.000000	14.910090
1933.000000	14.942735
1932.000000	14.990817
1931.000000	15.002707
1930.000000	15.081243
1929.000000	15.133809
1928.000000	15.224652
1927.000000	15.289734
1926.000000	15.393406
1925.000000	15.450665
1924.000000	15.588338
1923.000000	15.671464
1922.000000	15.786921
1921.000000	15.940030
1920.000000	16.117649
1919.000000	16.264605
1918.000000	16.394873
1917.000000	16.569363
1916.000000	16.740620
1915.000000	16.903950
1914.000000	17.105662
1913.000000	17.335742
1912.000000	17.562277
1911.000000	17.793192
1910.000000	18.012426
1909.000000	18.234372
1908.000000	18.456004
1907.000000	18.718939
1906.000000	19.008469
1905.000000	19.322197
1904.000000	19.640618
1903.000000	19.950069
1902.000000	20.275895
1901.000000	20.610795
1900.000000	20.951640
1899.000000	21.364764
1898.000000	21.758801
1897.000000	22.119984
1896.000000	22.498063
1895.000000	22.839846
1894.000000	23.228773
1893.000000	23.625730
1892.000000	24.068891
1891.000000	24.559403
1890.000000	25.038755
1889.000000	25.500169
1888.000000	25.997252
1887.000000	26.456162
1886.000000	26.930195
1885.000000	27.396406
1884.000000	27.932496
1883.000000	28.450751
1882.000000	28.936987
1881.000000	29.437199
1880.000000	29.927607
1879.000000	30.338436
1878.000000	30.801205
1877.000000	31.243427
1876.000000	31.657072
1875.000000	32.071447
1874.000000	32.456931
1873.000000	32.859521
1872.000000	33.218409
1871.000000	33.553309
1870.000000	33.851288
1869.000000	34.091485
1868.000000	34.352543
1867.000000	34.546223
1866.000000	34.706633
1865.000000	34.846809
1864.000000	35.003569
1863.000000	35.131855
1862.000000	35.284338
1861.000000	35.439638
1860.000000	35.599005
1859.000000	35.723640
1858.000000	35.816570
1857.000000	35.911481
1856.000000	35.980421
1855.000000	36.037368
1854.000000	36.098069
1853.000000	36.149384
1852.000000	36.149071
1851.000000	36.192042
1850.000000	36.230006
1849.000000	36.282885
1848.000000	36.313757
1847.000000	36.322518
1846.000000	36.277461
1845.000000	36.222705
1844.000000	36.223748
1843.000000	36.221453
1842.000000	36.262442
1841.000000	36.299572
1840.000000	36.261608
1839.000000	36.227294
1838.000000	36.208208
1837.000000	36.181925
1836.000000	36.154599
1835.000000	36.101094
1834.000000	36.028711
1833.000000	35.959770
1832.000000	35.920972
1831.000000	35.904806
1830.000000	35.877897
1829.000000	35.840141
1828.000000	35.784133
1827.000000	35.715505
1826.000000	35.673369
1825.000000	35.626748
1824.000000	35.567924
1823.000000	35.538095
1822.000000	35.566047
1821.000000	35.584924
1820.000000	35.554157
1819.000000	35.511916
1818.000000	35.471657
1817.000000	35.445270
1816.000000	35.433484
1815.000000	35.420030
1814.000000	35.388949
1813.000000	35.378415
1812.000000	35.369341
1811.000000	35.342745
1810.000000	35.304989
1809.000000	35.268589
1808.000000	35.239803
1807.000000	35.211226
1806.000000	35.195164
1805.000000	35.151567
1804.000000	35.103382
1803.000000	35.081688
1802.000000	35.061350
1801.000000	35.026097
1800.000000	34.983335
1799.000000	34.932646
1798.000000	34.892492
1797.000000	34.861933
1796.000000	34.825846
1795.000000	34.799041
1794.000000	34.769942
1793.000000	34.735524
1792.000000	34.695995
1791.000000	34.665540
1790.000000	34.631748
1789.000000	34.592532
1788.000000	34.563745
1787.000000	34.547162
1786.000000	34.525260
1785.000000	34.496891
1784.000000	34.466644
1783.000000	34.409906
1782.000000	34.365371
1781.000000	34.334603
1780.000000	34.285896
1779.000000	34.251999
1778.000000	34.205587
1777.000000	34.145720
1776.000000	34.087418
1775.000000	34.028802
1774.000000	33.957671
1773.000000	33.891025
1772.000000	33.823440
1771.000000	33.734057
1770.000000	33.651245
1769.000000	33.566346
1768.000000	33.471122
1767.000000	33.374960
1766.000000	33.309565
1765.000000	33.254183
1764.000000	33.209544
1763.000000	33.174395
1762.000000	33.165530
1761.000000	33.177733
1760.000000	33.195046
1759.000000	33.229256
1758.000000	33.284534
1757.000000	33.343462
1756.000000	33.393316
1755.000000	33.432219
1754.000000	33.478736
1753.000000	33.523480
1752.000000	33.558524
1751.000000	33.569267
1750.000000	33.583034
1749.000000	33.577089
1748.000000	33.562487
1747.000000	33.562904
1746.000000	33.522750
1745.000000	33.449324
1744.000000	33.381009
1743.000000	33.282761
1742.000000	33.180966
1741.000000	33.074687
1740.000000	32.944419
1739.000000	32.789537
1738.000000	32.615881
1737.000000	32.461208
1736.000000	32.310810
1735.000000	32.167818
1734.000000	32.063312
1733.000000	31.954008
1732.000000	31.886214
1731.000000	31.864937
1730.000000	31.863477
1729.000000	31.894036
1728.000000	31.938780
1727.000000	32.007512
1726.000000	32.070717
1725.000000	32.114939
1724.000000	32.160100
1723.000000	32.212249
1722.000000	32.284631
1721.000000	32.364419
1720.000000	32.445354
1719.000000	32.534007
1718.000000	32.633403
1717.000000	32.760229
1716.000000	32.880693
1715.000000	33.001574
1714.000000	33.127357
1713.000000	33.239581
1712.000000	33.359211
1711.000000	33.459024
1710.000000	33.557898
1709.000000	33.631219
1708.000000	33.687227
1707.000000	33.732805
1706.000000	33.736769
1705.000000	33.762113
1704.000000	33.775463
1703.000000	33.774420
1702.000000	33.747511
1701.000000	33.699743
1700.000000	33.656042
1699.000000	33.591586
1698.000000	33.533805
1697.000000	33.474669
1696.000000	33.404059
1695.000000	33.375377
1694.000000	33.371101
1693.000000	33.366616
1692.000000	33.432637
1691.000000	33.470392
1690.000000	33.550910
1689.000000	33.645717
1688.000000	33.705688
1687.000000	33.789230
1686.000000	33.848889
1685.000000	33.940462
1684.000000	34.061135
1683.000000	34.187752
1682.000000	34.350874
1681.000000	34.616520
1680.000000	34.867565
1679.000000	35.173261
1678.000000	35.482817
1677.000000	35.802594
1676.000000	36.133322
1675.000000	36.408668
1674.000000	36.685787
1673.000000	36.910549
1672.000000	37.129887
1671.000000	37.343801
1670.000000	37.498996
1669.000000	37.666916
1668.000000	37.798957
1667.000000	37.912641
1666.000000	38.027264
1665.000000	38.154612
1664.000000	38.243682
1663.000000	38.343391
1662.000000	38.405865
1661.000000	38.491076
1660.000000	38.553759
1659.000000	38.607473
1658.000000	38.664315
1657.000000	38.719384
1656.000000	38.736802
1655.000000	38.755367
1654.000000	38.790932
1653.000000	38.791662
1652.000000	38.794583
1651.000000	38.795834
1650.000000	38.788951
1649.000000	38.770699
1648.000000	38.769551
1647.000000	38.740244
1646.000000	38.717715
1645.000000	38.672554
1644.000000	38.662125
1643.000000	38.624056
1642.000000	38.588073
1641.000000	38.557201
1640.000000	38.525182
1639.000000	38.490763
1638.000000	38.466045
1637.000000	38.421301
1636.000000	38.361747
1635.000000	38.327120
1634.000000	38.258388
1633.000000	38.223553
1632.000000	38.159410
1631.000000	38.108095
1630.000000	38.061370
1629.000000	37.971882
1628.000000	37.917856
1627.000000	37.879474
1626.000000	37.796662
1625.000000	37.718543
1624.000000	37.664725
1623.000000	37.619147
1622.000000	37.531016
1621.000000	37.474069
1620.000000	37.418791
1619.000000	37.349955
1618.000000	37.309383
1617.000000	37.240964
1616.000000	37.174005
1615.000000	37.128635
1614.000000	37.070646
1613.000000	36.991588
1612.000000	36.932973
1611.000000	36.879051
1610.000000	36.813343
1609.000000	36.766618
1608.000000	36.683597
1607.000000	36.620079
1606.000000	36.563550
1605.000000	36.503579
1604.000000	36.428380
1603.000000	36.348384
1602.000000	36.277983
1601.000000	36.226460
1600.000000	36.147506
1599.000000	36.078983
1598.000000	36.003784
1597.000000	35.940893
1596.000000	35.887388
1595.000000	35.818656
1594.000000	35.744500
1593.000000	35.704867
1592.000000	35.634466
1591.000000	35.563543
1590.000000	35.520260
1589.000000	35.476142
1588.000000	35.425558
1587.000000	35.356721
1586.000000	35.320321
1585.000000	35.272136
1584.000000	35.217275
1583.000000	35.172218
1582.000000	35.105781
1581.000000	35.053945
1580.000000	35.035171
1579.000000	34.989280
1578.000000	34.956322
1577.000000	34.920235
1576.000000	34.872675
1575.000000	34.850564
1574.000000	34.828870
1573.000000	34.802379
1572.000000	34.785169
1571.000000	34.762850
1570.000000	34.752941
1569.000000	34.754923
1568.000000	34.744076
1567.000000	34.742616
1566.000000	34.731248
1565.000000	34.742929
1564.000000	34.744389
1563.000000	34.716646
1562.000000	34.715394
1561.000000	34.699958
1560.000000	34.686295
1559.000000	34.688068
1558.000000	34.660325
1557.000000	34.636754
1556.000000	34.614225
1555.000000	34.568960
1554.000000	34.531935
1553.000000	34.484375
1552.000000	34.439214
1551.000000	34.398851
1550.000000	34.340965
1549.000000	34.283497
1548.000000	34.224256
1547.000000	34.178157
1546.000000	34.128407
1545.000000	34.067497
1544.000000	34.009299
1543.000000	33.968831
1542.000000	33.928885
1541.000000	33.885497
1540.000000	33.851183
1539.000000	33.814471
1538.000000	33.777549
1537.000000	33.748346
1536.000000	33.707878
1535.000000	33.673460
1534.000000	33.645613
1533.000000	33.599826
1532.000000	33.565303
1531.000000	33.526400
1530.000000	33.478528
1529.000000	33.432532
1528.000000	33.392795
1527.000000	33.347738
1526.000000	33.292460
1525.000000	33.240416
1524.000000	33.182218
1523.000000	33.126418
1522.000000	33.088245
1521.000000	33.033281
1520.000000	32.968512
1519.000000	32.899988
1518.000000	32.846275
1517.000000	32.796212
1516.000000	32.731339
1515.000000	32.666361
1514.000000	32.601384
1513.000000	32.534320
1512.000000	32.457244
1511.000000	32.380898
1510.000000	32.314982
1509.000000	32.253446
1508.000000	32.180229
1507.000000	32.110976
1506.000000	32.036090
1505.000000	31.968296
1504.000000	31.889447
1503.000000	31.810494
1502.000000	31.753026
1501.000000	31.689300
1500.000000	31.626826
1499.000000	31.551001
1498.000000	31.494159
1497.000000	31.439820
1496.000000	31.396119
1495.000000	31.354296
1494.000000	31.295263
1493.000000	31.249477
1492.000000	31.206089
1491.000000	31.159363
1490.000000	31.117436
1489.000000	31.081036
1488.000000	31.040464
1487.000000	31.005733
1486.000000	30.972879
1485.000000	30.933246
1484.000000	30.903834
1483.000000	30.882766
1482.000000	30.862428
1481.000000	30.824255
1480.000000	30.791922
1479.000000	30.765744
1478.000000	30.757296
1477.000000	30.756461
1476.000000	30.748222
1475.000000	30.736540
1474.000000	30.738000
1473.000000	30.749160
1472.000000	30.776486
1471.000000	30.792757
1470.000000	30.797242
1469.000000	30.807776
1468.000000	30.821230
1467.000000	30.845219
1466.000000	30.864514
1465.000000	30.879220
1464.000000	30.889962
1463.000000	30.933037
1462.000000	30.976112
1461.000000	31.018561
1460.000000	31.054753
1459.000000	31.093760
1458.000000	31.141111
1457.000000	31.215058
1456.000000	31.272005
1455.000000	31.323945
1454.000000	31.374217
1453.000000	31.449311
1452.000000	31.524823
1451.000000	31.607113
1450.000000	31.695349
1449.000000	31.751253
1448.000000	31.812997
1447.000000	31.914687
1446.000000	32.007095
1445.000000	32.098147
1444.000000	32.182837
1443.000000	32.249170
1442.000000	32.341474
1441.000000	32.459643
1440.000000	32.562898
1439.000000	32.664484
1438.000000	32.762419
1437.000000	32.887681
1436.000000	32.983948
1435.000000	33.096589
1434.000000	33.241563
1433.000000	33.365260
1432.000000	33.516492
1431.000000	33.638520
1430.000000	33.741566
1429.000000	33.905105
1428.000000	34.079595
1427.000000	34.236563
1426.000000	34.393844
1425.000000	34.591384
1424.000000	34.806551
1423.000000	34.983857
1422.000000	35.184213
1421.000000	35.381648
1420.000000	35.639994
1419.000000	35.895210
1418.000000	36.138015
1417.000000	36.313757
1416.000000	36.575023
1415.000000	36.867578
1414.000000	37.161802
1413.000000	37.442363
1412.000000	37.705923
1411.000000	37.983981
1410.000000	38.330354
1409.000000	38.725538
1408.000000	39.047400
1407.000000	39.421308
1406.000000	39.740250
1405.000000	40.134496
1404.000000	40.470126
1403.000000	40.867604
1402.000000	41.223260
1401.000000	41.648794
1400.000000	42.072347
1399.000000	42.425708
1398.000000	42.685201
1397.000000	43.003100
1396.000000	43.401726
1395.000000	43.793051
1394.000000	44.100208
1393.000000	44.393702
1392.000000	44.714939
1391.000000	45.065379
1390.000000	45.435741
1389.000000	45.770328
1388.000000	46.246968
1387.000000	46.686583
1386.000000	47.086148
1385.000000	47.504695
1384.000000	48.030146
1383.000000	48.435135
1382.000000	48.886118
1381.000000	49.251369
1380.000000	49.555501
1379.000000	49.775673
1378.000000	49.998140
1377.000000	50.165642
1376.000000	50.345452
1375.000000	50.534752
1374.000000	50.720089
1373.000000	50.921279
1372.000000	51.199650
1371.000000	51.416381
1370.000000	51.665652
1369.000000	51.856413
1368.000000	52.123311
1367.000000	52.322832
1366.000000	52.494298
1365.000000	52.662217
1364.000000	52.845677
1363.000000	52.957901
1362.000000	53.127072
1361.000000	53.275592
1360.000000	53.366331
1359.000000	53.369564
1358.000000	53.497120
1357.000000	53.588277
1356.000000	53.696642
1355.000000	53.879685
1354.000000	54.087654
1353.000000	54.295102
1352.000000	54.481795
1351.000000	54.802302
1350.000000	55.090581
1349.000000	55.364363
1348.000000	55.620622
1347.000000	55.887311
1346.000000	56.115306
1345.000000	56.353522
1344.000000	56.603524
1343.000000	56.850918
1342.000000	57.053360
1341.000000	57.293766
1340.000000	57.511019
1339.000000	57.745271
1338.000000	57.934572
1337.000000	58.131486
1336.000000	58.340603
1335.000000	58.554309
1334.000000	58.757376
1333.000000	58.949910
1332.000000	59.136707
1331.000000	59.316725
1330.000000	59.510197
1329.000000	59.675822
1328.000000	59.850417
1327.000000	59.999979
1326.000000	60.161850
1325.000000	60.313811
1324.000000	60.467859
1323.000000	60.597814
1322.000000	60.732150
1321.000000	60.867737
1320.000000	61.003741
1319.000000	61.123162
1318.000000	61.229754
1317.000000	61.357206
1316.000000	61.458687
1315.000000	61.581342
1314.000000	61.692419
1313.000000	61.790876
1312.000000	61.889541
1311.000000	61.979759
1310.000000	62.075817
1309.000000	62.161237
1308.000000	62.245197
1307.000000	62.311321
1306.000000	62.397471
1305.000000	62.443988
1304.000000	62.512199
1303.000000	62.579575
1302.000000	62.630055
1301.000000	62.671566
1300.000000	62.715267
1299.000000	62.751979
1298.000000	62.788171
1297.000000	62.822693
1296.000000	62.857424
1295.000000	62.881621
1294.000000	62.915935
1293.000000	62.940550
1292.000000	62.951605
1291.000000	62.969336
1290.000000	62.976532
1289.000000	62.982373
1288.000000	62.986753
1287.000000	62.978618
1286.000000	62.969440
1285.000000	62.974446
1284.000000	62.957342
1283.000000	62.940028
1282.000000	62.924592
1281.000000	62.906340
1280.000000	62.869314
1279.000000	62.837503
1278.000000	62.816435
1277.000000	62.789422
1276.000000	62.761679
1275.000000	62.754482
1274.000000	62.734144
1273.000000	62.723089
1272.000000	62.709947
1271.000000	62.696597
1270.000000	62.692112
1269.000000	62.697327
1268.000000	62.681683
1267.000000	62.663118
1266.000000	62.633184
1265.000000	62.616809
1264.000000	62.596471
1263.000000	62.595741
1262.000000	62.563409
1261.000000	62.526383
1260.000000	62.489983
1259.000000	62.475173
1258.000000	62.438252
1257.000000	62.403208
1256.000000	62.374109
1255.000000	62.327175
1254.000000	62.282222
1253.000000	62.234141
1252.000000	62.170207
1251.000000	62.121082
1250.000000	62.054436
1249.000000	61.961820
1248.000000	61.900180
1247.000000	61.841460
1246.000000	61.754059
1245.000000	61.662798
1244.000000	61.583532
1243.000000	61.482572
1242.000000	61.393814
1241.000000	61.315382
1240.000000	61.208686
1239.000000	61.109186
1238.000000	61.027103
1237.000000	60.945438
1236.000000	60.857202
1235.000000	60.752175
1234.000000	60.640785
1233.000000	60.542953
1232.000000	60.451171
1231.000000	60.348438
1230.000000	60.239969
1229.000000	60.137235
1228.000000	60.036797
1227.000000	59.926554
1226.000000	59.812139
1225.000000	59.695117
1224.000000	59.577052
1223.000000	59.465871
1222.000000	59.361052
1221.000000	59.234017
1220.000000	59.118038
1219.000000	59.025213
1218.000000	58.915700
1217.000000	58.809004
1216.000000	58.722541
1215.000000	58.639207
1214.000000	58.545861
1213.000000	58.466490
1212.000000	58.399739
1211.000000	58.334136
1210.000000	58.255809
1209.000000	58.161628
1208.000000	58.087055
1207.000000	58.025936
1206.000000	57.959812
1205.000000	57.914651
1204.000000	57.875748
1203.000000	57.833090
1202.000000	57.795230
1201.000000	57.748192
1200.000000	57.714921
1199.000000	57.682275
1198.000000	57.631795
1197.000000	57.573910
1196.000000	57.503509
1195.000000	57.403279
1194.000000	57.273115
1193.000000	57.123135
1192.000000	56.953651
1191.000000	56.767376
1190.000000	56.540841
1189.000000	56.322024
1188.000000	56.125006
1187.000000	55.987229
1186.000000	55.904103
1185.000000	55.865409
1184.000000	55.879281
1183.000000	55.955418
1182.000000	56.098827
1181.000000	56.294698
1180.000000	56.530098
1179.000000	56.784168
1178.000000	57.041470
1177.000000	57.264250
1176.000000	57.478478
1175.000000	57.669864
1174.000000	57.849882
1173.000000	58.037305
1172.000000	58.200114
1171.000000	58.375647
1170.000000	58.554309
1169.000000	58.754978
1168.000000	58.942818
1167.000000	59.143591
1166.000000	59.358548
1165.000000	59.591967
1164.000000	59.802231
1163.000000	60.031373
1162.000000	60.279706
1161.000000	60.541702
1160.000000	60.785133
1159.000000	61.017925
1158.000000	61.273976
1157.000000	61.505413
1156.000000	61.718597
1155.000000	61.926880
1154.000000	62.125359
1153.000000	62.304751
1152.000000	62.456295
1151.000000	62.586042
1150.000000	62.703377
1149.000000	62.814558
1148.000000	62.934918
1147.000000	63.041510
1146.000000	63.174072
1145.000000	63.340844
1144.000000	63.493119
1143.000000	63.683880
1142.000000	63.913126
1141.000000	64.149673
1140.000000	64.407914
1139.000000	64.667929
1138.000000	64.957146
1137.000000	65.249701
1136.000000	65.552686
1135.000000	65.902501
1134.000000	66.223112
1133.000000	66.479789
1132.000000	66.717066
1131.000000	66.966963
1130.000000	67.197774
1129.000000	67.416382
1128.000000	67.577418
1127.000000	67.724582
1126.000000	67.860065
1125.000000	67.963215
1124.000000	68.043525
1123.000000	68.107981
1122.000000	68.139374
1121.000000	68.188185
1120.000000	68.223229
1119.000000	68.246279
1118.000000	68.251911
1117.000000	68.264949
1116.000000	68.271206
1115.000000	68.267139
1114.000000	68.265157
1113.000000	68.253580
1112.000000	68.251911
1111.000000	68.245236
1110.000000	68.238770
1109.000000	68.245966
1108.000000	68.248261
1107.000000	68.243880
1106.000000	68.239396
1105.000000	68.222082
1104.000000	68.248365
1103.000000	68.244089
1102.000000	68.238666
1101.000000	68.236058
1100.000000	68.232408
1099.000000	68.242525
1098.000000	68.225420
1097.000000	68.232303
1096.000000	68.225211
1095.000000	68.224898
1094.000000	68.232199
1093.000000	68.221978
1092.000000	68.213113
1091.000000	68.212591
1090.000000	68.184014
1089.000000	68.151994
1088.000000	68.123729
1087.000000	68.099220
1086.000000	68.078986
1085.000000	68.058022
1084.000000	68.022769
1083.000000	68.007020
1082.000000	67.965197
1081.000000	67.923374
1080.000000	67.898133
1079.000000	67.841917
1078.000000	67.810210
1077.000000	67.767448
1076.000000	67.718950
1075.000000	67.643856
1074.000000	67.588474
1073.000000	67.528294
1072.000000	67.482507
1071.000000	67.399486
1070.000000	67.350779
1069.000000	67.292685
1068.000000	67.191516
1067.000000	67.143957
1066.000000	67.074077
1065.000000	67.011186
1064.000000	66.924097
1063.000000	66.857972
1062.000000	66.783608
1061.000000	66.721759
1060.000000	66.645831
1059.000000	66.571675
1058.000000	66.507845
1057.000000	66.437444
1056.000000	66.360472
1055.000000	66.304047
1054.000000	66.230621
1053.000000	66.180037
1052.000000	66.104525
1051.000000	66.053732
1050.000000	66.002418
1049.000000	65.950686
1048.000000	65.898016
1047.000000	65.874236
1046.000000	65.829179
1045.000000	65.795074
1044.000000	65.767018
1043.000000	65.736876
1042.000000	65.722066
1041.000000	65.672524
1040.000000	65.664180
1039.000000	65.634664
1038.000000	65.608590
1037.000000	65.599412
1036.000000	65.597743
1035.000000	65.562282
1034.000000	65.559570
1033.000000	65.544447
1032.000000	65.528385
1031.000000	65.515660
1030.000000	65.499599
1029.000000	65.469457
1028.000000	65.460800
1027.000000	65.441713
1026.000000	65.399264
1025.000000	65.373607
1024.000000	65.325317
1023.000000	65.277444
1022.000000	65.254812
1021.000000	65.207878
1020.000000	65.158336
1019.000000	65.111924
1018.000000	65.059984
1017.000000	65.018995
1016.000000	64.995111
1015.000000	64.948281
1014.000000	64.910421
1013.000000	64.876211
1012.000000	64.836057
1011.000000	64.812172
1010.000000	64.783699
1009.000000	64.748551
1008.000000	64.684408
1007.000000	64.665321
1006.000000	64.635701
1005.000000	64.582822
1004.000000	64.550907
1003.000000	64.505954
1002.000000	64.466321
1001.000000	64.411669
1000.000000	64.361189
999.000000	64.325102
998.000000	64.300488
997.000000	64.262315
996.000000	64.210270
995.000000	64.182527
994.000000	64.177312
993.000000	64.168655
992.000000	64.158851
991.000000	64.152176
990.000000	64.131734
989.000000	64.127875
988.000000	64.147796
987.000000	64.171576
986.000000	64.184613
985.000000	64.210270
984.000000	64.251572
983.000000	64.291414
982.000000	64.321034
981.000000	64.353158
980.000000	64.398423
979.000000	64.444940
978.000000	64.478732
977.000000	64.516384
976.000000	64.566968
975.000000	64.615467
974.000000	64.672726
973.000000	64.727795
972.000000	64.800387
971.000000	64.883721
970.000000	64.952244
969.000000	65.036934
968.000000	65.121519
967.000000	65.205479
966.000000	65.294862
965.000000	65.382889
964.000000	65.475506
963.000000	65.570000
962.000000	65.656358
961.000000	65.749705
960.000000	65.833560
959.000000	65.912200
958.000000	65.988755
957.000000	66.061555
956.000000	66.150104
955.000000	66.218836
954.000000	66.280163
953.000000	66.348269
952.000000	66.439425
951.000000	66.531416
950.000000	66.606823
949.000000	66.700378
948.000000	66.786528
947.000000	66.854635
946.000000	66.951527
945.000000	67.035696
944.000000	67.102029
943.000000	67.186406
942.000000	67.269948
941.000000	67.338680
940.000000	67.393750
939.000000	67.462899
938.000000	67.538932
937.000000	67.584719
936.000000	67.636033
935.000000	67.697986
934.000000	67.746380
933.000000	67.815947
932.000000	67.896569
931.000000	67.947779
930.000000	68.014425
929.000000	68.111840
928.000000	68.196425
927.000000	68.280906
926.000000	68.390836
925.000000	68.495968
924.000000	68.607254
923.000000	68.727613
922.000000	68.844010
921.000000	68.954774
920.000000	69.066372
919.000000	69.206131
918.000000	69.320963
917.000000	69.431414
916.000000	69.550731
915.000000	69.669943
914.000000	69.806156
913.000000	69.934964
912.000000	70.074306
911.000000	70.221261
910.000000	70.355492
909.000000	70.505577
908.000000	70.675373
907.000000	70.825979
906.000000	70.984095
905.000000	71.150032
904.000000	71.322019
903.000000	71.499117
902.000000	71.672773
901.000000	71.832974
900.000000	71.992654
899.000000	72.138566
898.000000	72.296160
897.000000	72.448643
896.000000	72.607280
895.000000	72.738278
894.000000	72.806489
893.000000	72.927891
892.000000	73.007053
891.000000	73.073074
890.000000	73.164021
889.000000	73.239846
888.000000	73.359684
887.000000	73.478375
886.000000	73.583403
885.000000	73.658601
884.000000	73.741518
883.000000	73.820993
882.000000	73.908603
881.000000	73.968783
880.000000	74.066301
879.000000	74.137849
878.000000	74.198446
877.000000	74.240270
876.000000	74.312652
875.000000	74.314947
874.000000	74.300449
873.000000	74.272393
872.000000	74.191980
871.000000	74.109793
870.000000	74.151095
869.000000	74.319432
868.000000	74.508836
867.000000	74.734641
866.000000	75.010508
865.000000	75.225675
864.000000	75.453565
863.000000	75.669566
862.000000	75.911641
861.000000	76.164771
860.000000	76.418111
859.000000	76.653198
858.000000	76.880567
857.000000	76.226900
856.000000	76.920700
855.000000	77.494100
854.000000	77.861800
853.000000	78.248800
852.000000	78.214800
851.000000	78.649000
850.000000	78.955700
849.000000	79.726100
848.000000	80.194200
847.000000	80.175200
846.000000	80.301400
845.000000	80.410300
844.000000	80.880800
843.000000	81.345800
842.000000	81.771400
841.000000	82.226600
840.000000	82.330900
839.000000	82.652000
838.000000	83.014400
837.000000	83.333000
836.000000	83.593400
835.000000	83.607200
834.000000	83.947600
833.000000	84.027800
832.000000	84.305200
831.000000	84.303300
830.000000	84.824500
829.000000	84.689600
828.000000	84.816900
827.000000	85.114300
826.000000	85.072300
825.000000	85.243400
824.000000	85.441500
823.000000	85.478000
822.000000	85.291900
821.000000	85.564200
820.000000	85.595600
819.000000	85.712000
818.000000	85.502000
817.000000	85.551700
816.000000	85.417300
815.000000	85.562600
814.000000	85.711000
813.000000	85.743900
812.000000	85.779600
811.000000	85.900800
810.000000	85.915100
809.000000	85.920600
808.000000	86.286900
807.000000	86.157900
806.000000	86.482800
805.000000	86.494200
804.000000	86.666300
803.000000	86.739300
802.000000	86.806800
801.000000	87.163700
800.000000	87.172200
799.000000	87.393400
798.000000	87.346500
797.000000	87.583600
796.000000	87.632800
795.000000	87.665700
794.000000	87.998500
793.000000	87.958100
792.000000	88.004800
791.000000	88.316300
790.000000	88.351700
789.000000	88.362600
788.000000	88.434300
787.000000	88.608200
786.000000	88.658000
785.000000	88.526100
784.000000	88.555900
783.000000	88.758900
782.000000	88.692500
781.000000	88.726000
780.000000	88.700200
779.000000	88.476400
778.000000	88.561100
777.000000	88.519200
776.000000	88.417800
775.000000	88.655300
774.000000	88.513300
773.000000	88.403000
772.000000	88.437900
771.000000	88.469500
770.000000	88.394000
769.000000	88.469300
768.000000	88.409400
767.000000	88.364600
766.000000	88.462000
765.000000	88.295200
764.000000	88.242400
763.000000	88.276200
762.000000	88.210600
761.000000	88.102600
760.000000	87.965300
759.000000	87.963800
758.000000	87.835800
757.000000	87.719700
756.000000	87.578400
755.000000	87.586900
754.000000	87.415700
753.000000	87.234700
752.000000	87.198800
751.000000	87.063200
750.000000	86.862100
749.000000	86.704200
748.000000	86.316900
747.000000	86.147600
746.000000	85.992900
745.000000	85.663300
744.000000	85.216000
743.000000	84.934400
742.000000	84.583900
741.000000	84.083600
740.000000	83.729400
739.000000	83.363100
738.000000	83.053300
737.000000	82.651400
736.000000	82.404700
735.000000	82.005700
734.000000	81.649900
733.000000	81.414300
732.000000	81.171400
731.000000	80.872300
730.000000	80.608700
729.000000	80.459200
728.000000	80.237300
727.000000	80.013600
726.000000	79.835100
725.000000	79.605600
724.000000	79.445000
723.000000	79.331400
722.000000	79.179100
721.000000	79.107700
720.000000	79.002700
719.000000	78.858200
718.000000	78.770800
717.000000	78.736800
716.000000	78.719100
715.000000	78.679400
714.000000	78.682600
713.000000	78.631800
712.000000	78.642000
711.000000	78.659800
710.000000	78.698900
709.000000	78.717400
708.000000	78.702500
707.000000	78.765700
706.000000	78.713700
705.000000	78.694700
704.000000	78.733400
703.000000	78.644500
702.000000	78.655500
701.000000	78.584200
700.000000	78.490700
699.000000	78.395400
698.000000	78.305100
697.000000	78.225200
696.000000	78.082000
695.000000	77.966600
694.000000	77.842500
693.000000	77.688100
692.000000	77.566600
691.000000	77.337100
690.000000	77.134300
689.000000	76.876200
688.000000	76.591600
687.000000	76.282200
686.000000	75.924600
685.000000	75.561300
684.000000	75.140300
683.000000	74.612500
682.000000	74.095500
681.000000	73.502100
680.000000	72.848500
679.000000	72.163200
678.000000	71.427800
677.000000	70.689400
676.000000	69.901800
675.000000	69.097600
674.000000	68.249000
673.000000	67.374200
672.000000	66.520000
671.000000	65.641300
670.000000	64.806100
669.000000	63.929400
668.000000	63.070800
667.000000	62.299100
666.000000	61.522100
665.000000	60.795000
664.000000	60.091200
663.000000	59.400000
662.000000	58.804900
661.000000	58.339100
660.000000	57.951100
659.000000	57.634100
658.000000	57.413000
657.000000	57.279200
656.000000	57.238800
655.000000	57.347200
654.000000	57.582400
653.000000	57.927000
652.000000	58.353200
651.000000	58.895500
650.000000	59.540100
649.000000	60.241200
648.000000	61.011100
647.000000	61.887400
646.000000	62.838600
645.000000	63.802200
644.000000	64.818700
643.000000	65.865800
642.000000	66.915400
641.000000	67.948600
640.000000	68.971600
639.000000	69.988100
638.000000	70.958300
637.000000	71.894700
636.000000	72.839300
635.000000	73.752900
634.000000	74.622500
633.000000	75.492400
632.000000	76.316200
631.000000	77.100400
630.000000	77.845100
629.000000	78.560000
628.000000	79.255600
627.000000	79.974300
626.000000	80.600000
625.000000	81.219900
624.000000	81.856900
623.000000	82.437000
622.000000	83.011300
621.000000	83.545000
620.000000	84.041600
619.000000	84.564300
618.000000	85.062200
617.000000	85.479900
616.000000	85.932600
615.000000	86.361300
614.000000	86.707000
613.000000	87.041400
612.000000	87.381300
611.000000	87.685300
610.000000	87.975100
609.000000	88.179500
608.000000	88.373200
607.000000	88.567800
606.000000	88.736000
605.000000	88.855200
604.000000	89.012300
603.000000	89.153900
602.000000	89.283500
601.000000	89.382600
600.000000	89.471400
599.000000	89.585500
598.000000	89.682100
597.000000	89.763800
596.000000	89.838600
595.000000	89.882000
594.000000	89.927900
593.000000	90.004800
592.000000	90.104000
591.000000	90.154900
590.000000	90.147200
589.000000	90.150000
588.000000	90.122800
587.000000	90.103800
586.000000	90.080700
585.000000	89.996100
584.000000	89.876900
583.000000	89.775000
582.000000	89.649000
581.000000	89.511000
580.000000	89.349200
579.000000	89.174700
578.000000	88.965900
577.000000	88.747800
576.000000	88.487900
575.000000	88.240100
574.000000	88.012500
573.000000	87.751700
572.000000	87.416300
571.000000	87.150400
570.000000	86.877300
569.000000	86.568100
568.000000	86.230800
567.000000	85.927300
566.000000	85.615400
565.000000	85.277400
564.000000	84.948200
563.000000	84.594300
562.000000	84.225100
561.000000	83.837300
560.000000	83.392200
559.000000	82.922700
558.000000	82.465600
557.000000	81.980600
556.000000	81.471500
555.000000	80.908700
554.000000	80.296700
553.000000	79.645900
552.000000	78.933300
551.000000	78.143800
550.000000	77.293800
549.000000	76.416600
548.000000	75.523100
547.000000	74.451000
546.000000	73.414600
545.000000	72.285200
544.000000	71.114600
543.000000	69.853400
542.000000	68.563200
541.000000	67.220800
540.000000	65.911300
539.000000	64.601800
538.000000	63.263300
537.000000	61.935000
536.000000	60.605500
535.000000	59.273000
534.000000	57.949200
533.000000	56.623500
532.000000	55.359500
531.000000	54.108200
530.000000	52.925400
529.000000	51.754000
528.000000	50.620800
527.000000	49.607500
526.000000	48.621400
525.000000	47.671500
524.000000	46.784300
523.000000	45.937700
522.000000	45.157700
521.000000	44.428000
520.000000	43.738000
519.000000	43.088100
518.000000	42.483700
517.000000	41.914400
516.000000	41.346100
515.000000	40.803600
514.000000	40.290200
513.000000	39.759000
512.000000	39.228100
511.000000	38.742100
510.000000	38.223400
509.000000	37.732600
508.000000	37.279600
507.000000	36.764600
506.000000	36.282400
505.000000	35.776800
504.000000	35.290000
503.000000	34.798900
502.000000	34.286900
501.000000	33.851800
500.000000	33.408300
499.000000	32.987600
498.000000	32.593500
497.000000	32.221900
496.000000	31.868500
495.000000	31.542800
494.000000	31.240400
493.000000	30.953500
492.000000	30.701000
491.000000	30.458200
490.000000	30.255000
489.000000	30.055900
488.000000	29.876900
487.000000	29.721800
486.000000	29.574700
485.000000	29.500100
484.000000	29.347200
483.000000	29.291500
482.000000	29.230800
481.000000	29.226000
480.000000	29.210800
479.000000	29.211300
478.000000	29.213100
477.000000	29.207000
476.000000	29.225500
475.000000	29.251500
474.000000	29.282500
473.000000	29.305200
472.000000	29.332400
471.000000	29.331900
470.000000	29.359900
469.000000	29.351500
468.000000	29.372200
467.000000	29.381500
466.000000	29.354000
465.000000	29.332400
464.000000	29.279100
463.000000	29.220400
462.000000	29.145100
461.000000	29.074000
460.000000	28.989000
459.000000	28.851100
458.000000	28.746900
457.000000	28.581500
456.000000	28.457200
455.000000	28.276600
454.000000	28.129600
453.000000	27.916900
452.000000	27.707100
451.000000	27.473600
450.000000	27.233700
449.000000	26.971700
448.000000	26.695000
447.000000	26.430000
446.000000	26.149400
445.000000	25.893900
444.000000	25.543900
443.000000	25.198900
442.000000	24.812400
441.000000	24.465300
440.000000	24.075700
439.000000	23.681900
438.000000	23.250700
437.000000	22.829900
436.000000	22.366300
435.000000	21.941200
434.000000	21.471200
433.000000	20.962000
432.000000	20.488600
431.000000	20.016400
430.000000	19.510200
429.000000	19.001600
428.000000	18.518600
427.000000	18.023300
426.000000	17.508500
425.000000	16.980900
424.000000	16.458600
423.000000	15.983300
422.000000	15.495300
421.000000	15.017800
420.000000	14.527000
419.000000	14.057400
418.000000	13.630800
417.000000	13.191800
416.000000	12.755100
415.000000	12.379600
414.000000	12.019200
413.000000	11.617900
412.000000	11.255200
411.000000	10.936300
410.000000	10.628200
409.000000	10.330700
408.000000	10.071300
407.000000	9.799100
406.000000	9.552500
405.000000	9.306200
404.000000	9.087500
403.000000	8.916000
402.000000	8.735800
401.000000	8.523200
400.000000	8.375100
399.000000	8.221500
398.000000	8.076500
397.000000	7.968800
396.000000	7.856200
395.000000	7.747900
394.000000	7.628300
393.000000	7.544400
392.000000	7.471000
391.000000	7.386700
390.000000	7.333300
389.000000	7.270200
388.000000	7.183900
387.000000	7.125500
386.000000	7.075400
385.000000	7.033100
384.000000	6.992100
383.000000	6.946800
382.000000	6.895900
381.000000	6.842000
380.000000	6.815700
379.000000	6.779000
378.000000	6.749000
377.000000	6.705000
376.000000	6.721800
375.000000	6.644600
374.000000	6.313400
373.000000	6.247900
372.000000	6.319200
371.000000	6.348100
370.000000	6.413900
369.000000	6.366000
368.000000	6.301700
367.000000	6.392800
366.000000	6.352600
365.000000	6.309700
364.000000	6.319400
363.000000	6.310900
362.000000	6.247300
361.000000	6.259900
360.000000	6.290800
359.000000	6.254400
358.000000	6.196200
357.000000	6.282400
356.000000	6.181400
355.000000	6.096300
354.000000	6.068800
353.000000	5.841800
352.000000	5.762600
351.000000	5.912400
350.000000	6.054800
349.000000	6.186000
348.000000	6.120400
347.000000	6.001600
346.000000	6.087300
345.000000	5.969400
344.000000	5.877000
343.000000	6.011400
342.000000	6.021800
341.000000	5.943000
340.000000	5.827800
339.000000	5.859200
338.000000	5.876900
337.000000	5.738800
336.000000	5.985000
335.000000	6.030700
334.000000	5.847700
333.000000	6.067300
332.000000	5.925500
331.000000	5.701200
330.000000	5.810400
329.000000	5.728300
328.000000	5.764700
327.000000	5.995500
326.000000	5.911500
325.000000	5.749500
324.000000	5.921100
323.000000	5.875500
322.000000	5.947300
321.000000	6.230000
320.000000	6.206100
319.000000	6.253100
318.000000	6.505900
317.000000	6.425600
316.000000	5.865500
315.000000	5.541500
314.000000	5.570200
313.000000	5.564300
312.000000	5.555500
311.000000	5.596700
310.000000	5.548400
309.000000	5.545100
308.000000	5.535000
307.000000	5.512400
306.000000	5.529200
305.000000	5.548000
304.000000	5.557300
303.000000	5.539700
302.000000	5.545600
301.000000	5.558800
300.000000	5.554600
299.000000	5.519900
298.000000	5.533800
297.000000	5.550000
296.000000	5.588500
295.000000	5.587500
294.000000	5.562100
293.000000	5.554600
292.000000	5.527100
291.000000	5.553300
290.000000	5.589100
289.000000	5.581100
288.000000	5.564200
287.000000	5.535100
286.000000	5.495900
285.000000	5.529300
284.000000	5.549600
283.000000	5.557000
282.000000	5.575700
281.000000	5.610900
280.000000	5.612000
279.000000	5.606500
278.000000	5.615000
277.000000	5.604000
276.000000	5.602200
275.000000	5.635100
274.000000	5.676600
273.000000	5.668500
272.000000	5.673800
271.000000	5.668700
270.000000	5.690200
269.000000	5.727100
268.000000	5.747300
267.000000	5.718700
266.000000	5.736600
265.000000	5.787100
264.000000	5.827900
263.000000	5.856900
262.000000	5.846900
261.000000	5.902400
260.000000	5.908900
259.000000	5.954100
258.000000	5.932800
257.000000	5.949800
256.000000	5.911800
255.000000	5.919700
254.000000	5.930000
253.000000	5.964900
252.000000	5.966100
251.000000	5.975800
250.000000	5.959200
