PE UV       SUBTECH     SPECTRUM    ASCII       PEDS        4.00        
   -1
CICIMAUCR0252-3.ASC
24/06/26
10:58:31.00
24/06/26
10:58:31.00
Vinicio Soto Monge
C. resplendens. Sex F.Dorsal.
250,000000
1
Lambda 1050
1050L1511233
PerkinElmer UV WinLab 6.3.2.0749 / 2.02.05 Lambda 900 UV/VIS/NIR, Aug  7 2015 09:38:08

0
0
3350/servo 860,8/2
0
0
UV/VIS
1
1
1
DoubleDePol,CommonBeamDepol,RBeamAtt,SBeamAtt,60mm sphere, WB InGaAs Detector
0
0
0
0
Program
Program
3350/servo 860,8/2
3350/0,2 860,8/0,2
3350/0,2 860,8/0,2
0
15.00
 
 
 
0
 
860,8
319,2
860,8
Front
100
on
S:100 R:100
0
0
0
0
 
0
 
 
 
0
 
 
0
0
0
0
0
 
 
 
 
0
0


0
0
#HDR
-1
-1
#GR
nm
%R
1.0
0.0
2500,000000
-1,000000
2251
8
89,717500
5,501300
#DATA
2482.000000	7.847227
2481.000000	7.891329
2480.000000	7.826082
2479.000000	7.832627
2478.000000	7.852060
2477.000000	7.866660
2476.000000	7.858504
2475.000000	7.823565
2474.000000	7.835245
2473.000000	7.860115
2472.000000	7.921334
2471.000000	7.917608
2470.000000	7.855483
2469.000000	7.917709
2468.000000	7.913581
2467.000000	7.950333
2466.000000	7.965033
2465.000000	8.002288
2464.000000	8.023534
2463.000000	8.049008
2462.000000	8.060789
2461.000000	8.108918
2460.000000	8.123720
2459.000000	8.167519
2458.000000	8.200546
2457.000000	8.219979
2456.000000	8.324998
2455.000000	8.336778
2454.000000	8.387526
2453.000000	8.415215
2452.000000	8.462539
2451.000000	8.542789
2450.000000	8.611862
2449.000000	8.655561
2448.000000	8.710034
2447.000000	8.773569
2446.000000	8.827136
2445.000000	8.900135
2444.000000	8.938599
2443.000000	8.998408
2442.000000	9.081074
2441.000000	9.123263
2440.000000	9.199183
2439.000000	9.254260
2438.000000	9.308129
2437.000000	9.366730
2436.000000	9.448792
2435.000000	9.501251
2434.000000	9.559248
2433.000000	9.587038
2432.000000	9.646244
2431.000000	9.707463
2430.000000	9.751464
2429.000000	9.808052
2428.000000	9.861518
2427.000000	9.902196
2426.000000	9.958784
2425.000000	10.008927
2424.000000	10.048397
2423.000000	10.095721
2422.000000	10.155329
2421.000000	10.190973
2420.000000	10.241117
2419.000000	10.273438
2418.000000	10.307169
2417.000000	10.348653
2416.000000	10.389029
2415.000000	10.438166
2414.000000	10.456290
2413.000000	10.488208
2412.000000	10.534324
2411.000000	10.563020
2410.000000	10.587387
2409.000000	10.614070
2408.000000	10.643773
2407.000000	10.693010
2406.000000	10.723922
2405.000000	10.748692
2404.000000	10.785745
2403.000000	10.805883
2402.000000	10.832264
2401.000000	10.863075
2400.000000	10.875661
2399.000000	10.884924
2398.000000	10.902746
2397.000000	10.925905
2396.000000	10.947755
2395.000000	10.959737
2394.000000	10.985312
2393.000000	11.018338
2392.000000	11.033945
2391.000000	11.057204
2390.000000	11.074220
2389.000000	11.088418
2388.000000	11.090230
2387.000000	11.114395
2386.000000	11.137252
2385.000000	11.146918
2384.000000	11.152657
2383.000000	11.170782
2382.000000	11.178736
2381.000000	11.180146
2380.000000	11.181455
2379.000000	11.164740
2378.000000	11.151248
2377.000000	11.161518
2376.000000	11.160411
2375.000000	11.153564
2374.000000	11.158397
2373.000000	11.148227
2372.000000	11.126982
2371.000000	11.118624
2370.000000	11.124464
2369.000000	11.108052
2368.000000	11.099493
2367.000000	11.097580
2366.000000	11.077442
2365.000000	11.055291
2364.000000	11.028105
2363.000000	11.012397
2362.000000	10.990850
2361.000000	10.957521
2360.000000	10.928523
2359.000000	10.905465
2358.000000	10.883313
2357.000000	10.858947
2356.000000	10.833573
2355.000000	10.828840
2354.000000	10.811119
2353.000000	10.779905
2352.000000	10.777590
2351.000000	10.774670
2350.000000	10.774166
2349.000000	10.790176
2348.000000	10.799137
2347.000000	10.808703
2346.000000	10.825014
2345.000000	10.846360
2344.000000	10.873647
2343.000000	10.891369
2342.000000	10.926106
2341.000000	10.938995
2340.000000	10.955508
2339.000000	10.994273
2338.000000	11.032233
2337.000000	11.043208
2336.000000	11.048041
2335.000000	11.071502
2334.000000	11.082880
2333.000000	11.075932
2332.000000	11.072408
2331.000000	11.061232
2330.000000	11.053680
2329.000000	11.041698
2328.000000	11.021258
2327.000000	11.010585
2326.000000	11.002630
2325.000000	10.977055
2324.000000	10.929026
2323.000000	10.889657
2322.000000	10.857940
2321.000000	10.794606
2320.000000	10.742348
2319.000000	10.689889
2318.000000	10.623132
2317.000000	10.553656
2316.000000	10.478341
2315.000000	10.424472
2314.000000	10.344525
2313.000000	10.271625
2312.000000	10.208392
2311.000000	10.146066
2310.000000	10.095218
2309.000000	10.048901
2308.000000	10.025037
2307.000000	9.979425
2306.000000	9.960395
2305.000000	9.962509
2304.000000	9.951333
2303.000000	9.952843
2302.000000	9.985265
2301.000000	10.000268
2300.000000	10.041047
2299.000000	10.076288
2298.000000	10.145160
2297.000000	10.182415
2296.000000	10.254408
2295.000000	10.310995
2294.000000	10.370402
2293.000000	10.425680
2292.000000	10.463640
2291.000000	10.519221
2290.000000	10.567652
2289.000000	10.606015
2288.000000	10.640753
2287.000000	10.665019
2286.000000	10.679619
2285.000000	10.697743
2284.000000	10.708819
2283.000000	10.710027
2282.000000	10.708919
2281.000000	10.690191
2280.000000	10.666328
2279.000000	10.668845
2278.000000	10.652433
2277.000000	10.610747
2276.000000	10.600880
2275.000000	10.613567
2274.000000	10.581849
2273.000000	10.567451
2272.000000	10.549729
2271.000000	10.549830
2270.000000	10.570371
2269.000000	10.584568
2268.000000	10.610042
2267.000000	10.679015
2266.000000	10.731172
2265.000000	10.786148
2264.000000	10.865491
2263.000000	10.977055
2262.000000	11.097580
2261.000000	11.216394
2260.000000	11.359675
2259.000000	11.489061
2258.000000	11.627710
2257.000000	11.827478
2256.000000	11.974887
2255.000000	12.155624
2254.000000	12.291857
2253.000000	12.511561
2252.000000	12.646988
2251.000000	12.805474
2250.000000	12.973423
2249.000000	13.134325
2248.000000	13.275592
2247.000000	13.411825
2246.000000	13.523288
2245.000000	13.654486
2244.000000	13.756988
2243.000000	13.885166
2242.000000	13.966120
2241.000000	14.041637
2240.000000	14.119772
2239.000000	14.201834
2238.000000	14.282083
2237.000000	14.341389
2236.000000	14.367468
2235.000000	14.423350
2234.000000	14.468258
2233.000000	14.517898
2232.000000	14.542567
2231.000000	14.530987
2230.000000	14.556059
2229.000000	14.584756
2228.000000	14.595932
2227.000000	14.595227
2226.000000	14.573982
2225.000000	14.581433
2224.000000	14.545688
2223.000000	14.527665
2222.000000	14.491316
2221.000000	14.461713
2220.000000	14.430600
2219.000000	14.374617
2218.000000	14.352566
2217.000000	14.337060
2216.000000	14.279566
2215.000000	14.226805
2214.000000	14.195289
2213.000000	14.158135
2212.000000	14.118060
2211.000000	14.082316
2210.000000	14.052411
2209.000000	14.035294
2208.000000	13.985150
2207.000000	13.969644
2206.000000	13.960985
2205.000000	13.928362
2204.000000	13.890301
2203.000000	13.884562
2202.000000	13.859490
2201.000000	13.840359
2200.000000	13.812468
2199.000000	13.798774
2198.000000	13.780550
2197.000000	13.764641
2196.000000	13.740576
2195.000000	13.725774
2194.000000	13.706644
2193.000000	13.710067
2192.000000	13.697179
2191.000000	13.663347
2190.000000	13.666267
2189.000000	13.629113
2188.000000	13.622165
2187.000000	13.594677
2186.000000	13.580580
2185.000000	13.558026
2184.000000	13.541312
2183.000000	13.536881
2182.000000	13.504157
2181.000000	13.490262
2180.000000	13.484221
2179.000000	13.468614
2178.000000	13.450188
2177.000000	13.437803
2176.000000	13.428640
2175.000000	13.412631
2174.000000	13.418068
2173.000000	13.403871
2172.000000	13.403166
2171.000000	13.420585
2170.000000	13.430855
2169.000000	13.421693
2168.000000	13.426022
2167.000000	13.453712
2166.000000	13.460659
2165.000000	13.485932
2164.000000	13.483617
2163.000000	13.509594
2162.000000	13.535673
2161.000000	13.567289
2160.000000	13.602128
2159.000000	13.629113
2158.000000	13.655493
2157.000000	13.701005
2156.000000	13.735642
2155.000000	13.756082
2154.000000	13.816798
2153.000000	13.879326
2152.000000	13.933497
2151.000000	13.965012
2150.000000	14.020291
2149.000000	14.084732
2148.000000	14.114133
2147.000000	14.168908
2146.000000	14.221267
2145.000000	14.254897
2144.000000	14.313096
2143.000000	14.368072
2142.000000	14.407442
2141.000000	14.437850
2140.000000	14.484167
2139.000000	14.542365
2138.000000	14.596033
2137.000000	14.629462
2136.000000	14.648693
2135.000000	14.688063
2134.000000	14.718974
2133.000000	14.771434
2132.000000	14.782006
2131.000000	14.805668
2130.000000	14.846145
2129.000000	14.889140
2128.000000	14.902229
2127.000000	14.916225
2126.000000	14.941196
2125.000000	14.952171
2124.000000	14.966066
2123.000000	14.977948
2122.000000	14.986708
2121.000000	14.997280
2120.000000	15.011578
2119.000000	15.001710
2118.000000	14.995367
2117.000000	14.986204
2116.000000	14.996374
2115.000000	14.991742
2114.000000	14.985298
2113.000000	14.979861
2112.000000	14.980968
2111.000000	14.973215
2110.000000	14.967073
2109.000000	14.942706
2108.000000	14.932235
2107.000000	14.928912
2106.000000	14.922468
2105.000000	14.893973
2104.000000	14.871116
2103.000000	14.858329
2102.000000	14.850777
2101.000000	14.822987
2100.000000	14.803956
2099.000000	14.799425
2098.000000	14.775562
2097.000000	14.761868
2096.000000	14.754719
2095.000000	14.752303
2094.000000	14.733272
2093.000000	14.713839
2092.000000	14.708100
2091.000000	14.704979
2090.000000	14.684438
2089.000000	14.673866
2088.000000	14.663897
2087.000000	14.661783
2086.000000	14.653728
2085.000000	14.635402
2084.000000	14.614056
2083.000000	14.574787
2082.000000	14.544983
2081.000000	14.538036
2080.000000	14.518200
2079.000000	14.477622
2078.000000	14.427277
2077.000000	14.386700
2076.000000	14.354982
2075.000000	14.304638
2074.000000	14.248554
2073.000000	14.200827
2072.000000	14.133768
2071.000000	14.073052
2070.000000	14.029454
2069.000000	13.969745
2068.000000	13.910942
2067.000000	13.847810
2066.000000	13.773501
2065.000000	13.704126
2064.000000	13.643209
2063.000000	13.585816
2062.000000	13.517650
2061.000000	13.453108
2060.000000	13.398836
2059.000000	13.342752
2058.000000	13.303181
2057.000000	13.265624
2056.000000	13.219710
2055.000000	13.203197
2054.000000	13.186684
2053.000000	13.172386
2052.000000	13.185375
2051.000000	13.202089
2050.000000	13.228772
2049.000000	13.256059
2048.000000	13.297744
2047.000000	13.334798
2046.000000	13.391989
2045.000000	13.455424
2044.000000	13.505970
2043.000000	13.582997
2042.000000	13.653882
2041.000000	13.719431
2040.000000	13.789410
2039.000000	13.854959
2038.000000	13.921917
2037.000000	13.975484
2036.000000	14.034589
2035.000000	14.082013
2034.000000	14.125511
2033.000000	14.164075
2032.000000	14.190859
2031.000000	14.228718
2030.000000	14.264261
2029.000000	14.302523
2028.000000	14.338570
2027.000000	14.357802
2026.000000	14.354882
2025.000000	14.360923
2024.000000	14.383981
2023.000000	14.395057
2022.000000	14.386297
2021.000000	14.373509
2020.000000	14.388109
2019.000000	14.386397
2018.000000	14.386800
2017.000000	14.372100
2016.000000	14.376530
2015.000000	14.346927
2014.000000	14.324574
2013.000000	14.307054
2012.000000	14.295072
2011.000000	14.280875
2010.000000	14.260939
2009.000000	14.237478
2008.000000	14.202438
2007.000000	14.179279
2006.000000	14.137091
2005.000000	14.110106
2004.000000	14.054525
2003.000000	14.037811
2002.000000	13.996528
2001.000000	13.927254
2000.000000	13.883857
1999.000000	13.843480
1998.000000	13.784074
1997.000000	13.721042
1996.000000	13.666267
1995.000000	13.588434
1994.000000	13.558731
1993.000000	13.492779
1992.000000	13.410415
1991.000000	13.366716
1990.000000	13.297845
1989.000000	13.219508
1988.000000	13.142380
1987.000000	13.081665
1986.000000	12.998495
1985.000000	12.922575
1984.000000	12.857228
1983.000000	12.771642
1982.000000	12.683237
1981.000000	12.619400
1980.000000	12.561100
1979.000000	12.470279
1978.000000	12.400199
1977.000000	12.323171
1976.000000	12.241009
1975.000000	12.154013
1974.000000	12.091385
1973.000000	12.025433
1972.000000	11.966530
1971.000000	11.909741
1970.000000	11.829089
1969.000000	11.772501
1968.000000	11.683794
1967.000000	11.621769
1966.000000	11.545950
1965.000000	11.495203
1964.000000	11.441032
1963.000000	11.356755
1962.000000	11.310438
1961.000000	11.246701
1960.000000	11.190919
1959.000000	11.126277
1958.000000	11.064756
1957.000000	10.989742
1956.000000	10.922079
1955.000000	10.857033
1954.000000	10.810817
1953.000000	10.772354
1952.000000	10.714961
1951.000000	10.667637
1950.000000	10.627462
1949.000000	10.588193
1948.000000	10.552750
1947.000000	10.499183
1946.000000	10.476931
1945.000000	10.413899
1944.000000	10.422357
1943.000000	10.364662
1942.000000	10.368891
1941.000000	10.312203
1940.000000	10.337074
1939.000000	10.309585
1938.000000	10.326501
1937.000000	10.348955
1936.000000	10.360736
1935.000000	10.353184
1934.000000	10.358923
1933.000000	10.408664
1932.000000	10.433333
1931.000000	10.468070
1930.000000	10.508548
1929.000000	10.559899
1928.000000	10.643069
1927.000000	10.725734
1926.000000	10.818469
1925.000000	10.896101
1924.000000	10.978767
1923.000000	11.057003
1922.000000	11.136346
1921.000000	11.276707
1920.000000	11.454222
1919.000000	11.624286
1918.000000	11.771796
1917.000000	11.891717
1916.000000	12.032884
1915.000000	12.145052
1914.000000	12.296287
1913.000000	12.532303
1912.000000	12.789967
1911.000000	12.978760
1910.000000	13.175004
1909.000000	13.344665
1908.000000	13.532451
1907.000000	13.729198
1906.000000	13.998341
1905.000000	14.313297
1904.000000	14.626038
1903.000000	14.902431
1902.000000	15.196645
1901.000000	15.479783
1900.000000	15.807527
1899.000000	16.232638
1898.000000	16.620695
1897.000000	16.999690
1896.000000	17.356231
1895.000000	17.645411
1894.000000	17.973658
1893.000000	18.361111
1892.000000	18.763868
1891.000000	19.230362
1890.000000	19.696655
1889.000000	20.119550
1888.000000	20.563993
1887.000000	20.969972
1886.000000	21.400923
1885.000000	21.825429
1884.000000	22.313169
1883.000000	22.774527
1882.000000	23.213130
1881.000000	23.643275
1880.000000	24.058116
1879.000000	24.392304
1878.000000	24.788516
1877.000000	25.170230
1876.000000	25.519723
1875.000000	25.859046
1874.000000	26.183970
1873.000000	26.523092
1872.000000	26.831202
1871.000000	27.114743
1870.000000	27.418019
1869.000000	27.673468
1868.000000	27.928313
1867.000000	28.119623
1866.000000	28.287170
1865.000000	28.444145
1864.000000	28.581485
1863.000000	28.726176
1862.000000	28.869860
1861.000000	28.998641
1860.000000	29.149373
1859.000000	29.256809
1858.000000	29.345315
1857.000000	29.433015
1856.000000	29.514876
1855.000000	29.564918
1854.000000	29.625936
1853.000000	29.683631
1852.000000	29.704574
1851.000000	29.760155
1850.000000	29.806774
1849.000000	29.831242
1848.000000	29.841915
1847.000000	29.852386
1846.000000	29.844533
1845.000000	29.806774
1844.000000	29.812513
1843.000000	29.842519
1842.000000	29.881687
1841.000000	29.909880
1840.000000	29.869000
1839.000000	29.846647
1838.000000	29.815534
1837.000000	29.805868
1836.000000	29.778178
1835.000000	29.756429
1834.000000	29.735184
1833.000000	29.698432
1832.000000	29.671448
1831.000000	29.651713
1830.000000	29.626842
1829.000000	29.594622
1828.000000	29.554044
1827.000000	29.492623
1826.000000	29.463121
1825.000000	29.445501
1824.000000	29.419321
1823.000000	29.416401
1822.000000	29.414488
1821.000000	29.430297
1820.000000	29.394955
1819.000000	29.354175
1818.000000	29.330211
1817.000000	29.303529
1816.000000	29.288627
1815.000000	29.296078
1814.000000	29.291547
1813.000000	29.280773
1812.000000	29.268489
1811.000000	29.249156
1810.000000	29.223581
1809.000000	29.187535
1808.000000	29.161355
1807.000000	29.149273
1806.000000	29.139204
1805.000000	29.116750
1804.000000	29.082314
1803.000000	29.049691
1802.000000	29.016061
1801.000000	28.987867
1800.000000	28.962695
1799.000000	28.919701
1798.000000	28.886876
1797.000000	28.862409
1796.000000	28.828980
1795.000000	28.805016
1794.000000	28.799075
1793.000000	28.776520
1792.000000	28.747723
1791.000000	28.713992
1790.000000	28.688619
1789.000000	28.663950
1788.000000	28.627299
1787.000000	28.610182
1786.000000	28.588634
1785.000000	28.558528
1784.000000	28.519058
1783.000000	28.483212
1782.000000	28.453006
1781.000000	28.416254
1780.000000	28.386853
1779.000000	28.349900
1778.000000	28.305194
1777.000000	28.253238
1776.000000	28.192321
1775.000000	28.145702
1774.000000	28.107238
1773.000000	28.056894
1772.000000	27.989432
1771.000000	27.923279
1770.000000	27.866389
1769.000000	27.805674
1768.000000	27.742239
1767.000000	27.672562
1766.000000	27.615874
1765.000000	27.567442
1764.000000	27.528677
1763.000000	27.513171
1762.000000	27.502498
1761.000000	27.510654
1760.000000	27.532403
1759.000000	27.563516
1758.000000	27.613256
1757.000000	27.654136
1756.000000	27.695519
1755.000000	27.739219
1754.000000	27.774460
1753.000000	27.805875
1752.000000	27.833262
1751.000000	27.845949
1750.000000	27.863066
1749.000000	27.865382
1748.000000	27.844640
1747.000000	27.829738
1746.000000	27.814736
1745.000000	27.752812
1744.000000	27.689780
1743.000000	27.622520
1742.000000	27.551332
1741.000000	27.467357
1740.000000	27.361533
1739.000000	27.233154
1738.000000	27.105983
1737.000000	26.985256
1736.000000	26.868960
1735.000000	26.759108
1734.000000	26.674730
1733.000000	26.618646
1732.000000	26.562059
1731.000000	26.532557
1730.000000	26.547660
1729.000000	26.568705
1728.000000	26.599113
1727.000000	26.648853
1726.000000	26.690136
1725.000000	26.742595
1724.000000	26.771694
1723.000000	26.839861
1722.000000	26.881748
1721.000000	26.944981
1720.000000	27.008616
1719.000000	27.102056
1718.000000	27.179990
1717.000000	27.269100
1716.000000	27.341898
1715.000000	27.440876
1714.000000	27.539350
1713.000000	27.663097
1712.000000	27.736903
1711.000000	27.806982
1710.000000	27.884916
1709.000000	27.951069
1708.000000	27.990640
1707.000000	28.019638
1706.000000	28.042394
1705.000000	28.065150
1704.000000	28.065251
1703.000000	28.063237
1702.000000	28.014201
1701.000000	27.992251
1700.000000	27.954895
1699.000000	27.907370
1698.000000	27.848064
1697.000000	27.805674
1696.000000	27.769325
1695.000000	27.731566
1694.000000	27.715053
1693.000000	27.727438
1692.000000	27.759457
1691.000000	27.829738
1690.000000	27.873437
1689.000000	27.945229
1688.000000	27.993862
1687.000000	28.056591
1686.000000	28.108849
1685.000000	28.174599
1684.000000	28.265421
1683.000000	28.372756
1682.000000	28.523287
1681.000000	28.669387
1680.000000	28.909531
1679.000000	29.173941
1678.000000	29.407037
1677.000000	29.658358
1676.000000	29.905752
1675.000000	30.165027
1674.000000	30.360163
1673.000000	30.554695
1672.000000	30.733620
1671.000000	30.876095
1670.000000	31.031660
1669.000000	31.147957
1668.000000	31.271100
1667.000000	31.371789
1666.000000	31.447810
1665.000000	31.540847
1664.000000	31.601160
1663.000000	31.662681
1662.000000	31.726719
1661.000000	31.788039
1660.000000	31.834457
1659.000000	31.881579
1658.000000	31.914001
1657.000000	31.958506
1656.000000	31.971092
1655.000000	31.986800
1654.000000	32.009556
1653.000000	31.990324
1652.000000	32.014087
1651.000000	32.009858
1650.000000	32.001803
1649.000000	31.977335
1648.000000	31.956492
1647.000000	31.947430
1646.000000	31.907658
1645.000000	31.897086
1644.000000	31.868993
1643.000000	31.818649
1642.000000	31.802035
1641.000000	31.754509
1640.000000	31.736889
1639.000000	31.688659
1638.000000	31.657244
1637.000000	31.625929
1636.000000	31.586962
1635.000000	31.530073
1634.000000	31.499363
1633.000000	31.444990
1632.000000	31.372393
1631.000000	31.319229
1630.000000	31.299696
1629.000000	31.240188
1628.000000	31.209478
1627.000000	31.125302
1626.000000	31.075964
1625.000000	31.017262
1624.000000	30.954935
1623.000000	30.883748
1622.000000	30.840049
1621.000000	30.782656
1620.000000	30.754563
1619.000000	30.709454
1618.000000	30.643805
1617.000000	30.590943
1616.000000	30.524387
1615.000000	30.492469
1614.000000	30.456422
1613.000000	30.396915
1612.000000	30.333883
1611.000000	30.269845
1610.000000	30.233395
1609.000000	30.202383
1608.000000	30.138646
1607.000000	30.087395
1606.000000	30.030405
1605.000000	29.969085
1604.000000	29.911491
1603.000000	29.862153
1602.000000	29.807781
1601.000000	29.759047
1600.000000	29.695512
1599.000000	29.642852
1598.000000	29.576900
1597.000000	29.536222
1596.000000	29.479332
1595.000000	29.432512
1594.000000	29.393243
1593.000000	29.332829
1592.000000	29.290540
1591.000000	29.243820
1590.000000	29.203242
1589.000000	29.148870
1588.000000	29.113427
1587.000000	29.062579
1586.000000	29.025626
1585.000000	28.985753
1584.000000	28.946283
1583.000000	28.889997
1582.000000	28.850930
1581.000000	28.828678
1580.000000	28.784777
1579.000000	28.749938
1578.000000	28.710468
1577.000000	28.684893
1576.000000	28.659217
1575.000000	28.638878
1574.000000	28.608168
1573.000000	28.575746
1572.000000	28.582995
1571.000000	28.561247
1570.000000	28.543123
1569.000000	28.544029
1568.000000	28.523085
1567.000000	28.498618
1566.000000	28.495899
1565.000000	28.510600
1564.000000	28.486938
1563.000000	28.469317
1562.000000	28.465994
1561.000000	28.455321
1560.000000	28.430350
1559.000000	28.410313
1558.000000	28.386651
1557.000000	28.362284
1556.000000	28.328151
1555.000000	28.298649
1554.000000	28.276900
1553.000000	28.235114
1552.000000	28.188595
1551.000000	28.150937
1550.000000	28.092336
1549.000000	28.044408
1548.000000	28.008462
1547.000000	27.959325
1546.000000	27.920560
1545.000000	27.869712
1544.000000	27.819065
1543.000000	27.773050
1542.000000	27.740830
1541.000000	27.710723
1540.000000	27.674576
1539.000000	27.645074
1538.000000	27.607416
1537.000000	27.574591
1536.000000	27.524549
1535.000000	27.489710
1534.000000	27.452556
1533.000000	27.409662
1532.000000	27.373917
1531.000000	27.323573
1530.000000	27.291453
1529.000000	27.258829
1528.000000	27.200027
1527.000000	27.150387
1526.000000	27.091987
1525.000000	27.042649
1524.000000	27.013752
1523.000000	26.962501
1522.000000	26.895039
1521.000000	26.840767
1520.000000	26.779347
1519.000000	26.715308
1518.000000	26.663453
1517.000000	26.606564
1516.000000	26.550983
1515.000000	26.501142
1514.000000	26.437909
1513.000000	26.369440
1512.000000	26.309127
1511.000000	26.262609
1510.000000	26.200584
1509.000000	26.119328
1508.000000	26.058511
1507.000000	25.994070
1506.000000	25.918855
1505.000000	25.849984
1504.000000	25.789167
1503.000000	25.727747
1502.000000	25.674482
1501.000000	25.609135
1500.000000	25.549124
1499.000000	25.504518
1498.000000	25.454778
1497.000000	25.391746
1496.000000	25.334555
1495.000000	25.295890
1494.000000	25.248969
1493.000000	25.202954
1492.000000	25.156737
1491.000000	25.124819
1490.000000	25.090987
1489.000000	25.047691
1488.000000	25.002783
1487.000000	24.968448
1486.000000	24.941463
1485.000000	24.913975
1484.000000	24.885782
1483.000000	24.848326
1482.000000	24.819227
1481.000000	24.800498
1480.000000	24.778749
1479.000000	24.754383
1478.000000	24.734043
1477.000000	24.723974
1476.000000	24.728908
1475.000000	24.725082
1474.000000	24.712194
1473.000000	24.711690
1472.000000	24.741293
1471.000000	24.756094
1470.000000	24.757907
1469.000000	24.760726
1468.000000	24.758612
1467.000000	24.783784
1466.000000	24.803418
1465.000000	24.823153
1464.000000	24.839465
1463.000000	24.866953
1462.000000	24.882560
1461.000000	24.913371
1460.000000	24.940054
1459.000000	24.980128
1458.000000	25.035608
1457.000000	25.076689
1456.000000	25.137304
1455.000000	25.194597
1454.000000	25.238497
1453.000000	25.300622
1452.000000	25.375535
1451.000000	25.449441
1450.000000	25.513883
1449.000000	25.561106
1448.000000	25.610142
1447.000000	25.687672
1446.000000	25.761075
1445.000000	25.845050
1444.000000	25.940101
1443.000000	25.983599
1442.000000	26.063747
1441.000000	26.153663
1440.000000	26.245894
1439.000000	26.329970
1438.000000	26.419584
1437.000000	26.523998
1436.000000	26.624788
1435.000000	26.715208
1434.000000	26.829993
1433.000000	26.963205
1432.000000	27.097223
1431.000000	27.205666
1430.000000	27.306858
1429.000000	27.436446
1428.000000	27.583855
1427.000000	27.737104
1426.000000	27.877968
1425.000000	28.034037
1424.000000	28.201685
1423.000000	28.387457
1422.000000	28.575847
1421.000000	28.742185
1420.000000	28.944068
1419.000000	29.186830
1418.000000	29.383879
1417.000000	29.551527
1416.000000	29.757638
1415.000000	30.011073
1414.000000	30.287365
1413.000000	30.532342
1412.000000	30.735432
1411.000000	31.004474
1410.000000	31.295165
1409.000000	31.643550
1408.000000	31.943101
1407.000000	32.267220
1406.000000	32.551063
1405.000000	32.873168
1404.000000	33.178358
1403.000000	33.523118
1402.000000	33.862039
1401.000000	34.230059
1400.000000	34.598280
1399.000000	34.925218
1398.000000	35.168383
1397.000000	35.476190
1396.000000	35.827596
1395.000000	36.169839
1394.000000	36.485803
1393.000000	36.742863
1392.000000	37.095376
1391.000000	37.407715
1390.000000	37.750562
1389.000000	38.097638
1388.000000	38.525266
1387.000000	38.882210
1386.000000	39.295036
1385.000000	39.672118
1384.000000	40.157944
1383.000000	40.549928
1382.000000	40.952081
1381.000000	41.294022
1380.000000	41.515237
1379.000000	41.770887
1378.000000	42.006198
1377.000000	42.173041
1376.000000	42.372204
1375.000000	42.562809
1374.000000	42.749286
1373.000000	42.927103
1372.000000	43.174598
1371.000000	43.407694
1370.000000	43.634245
1369.000000	43.832603
1368.000000	44.076271
1367.000000	44.273119
1366.000000	44.427476
1365.000000	44.601870
1364.000000	44.784621
1363.000000	44.901924
1362.000000	45.103907
1361.000000	45.192212
1360.000000	45.275784
1359.000000	45.275079
1358.000000	45.403156
1357.000000	45.504349
1356.000000	45.655584
1355.000000	45.814673
1354.000000	45.999136
1353.000000	46.212598
1352.000000	46.424146
1351.000000	46.742828
1350.000000	47.038251
1349.000000	47.325115
1348.000000	47.574724
1347.000000	47.838127
1346.000000	48.062060
1345.000000	48.309454
1344.000000	48.546980
1343.000000	48.807061
1342.000000	49.002398
1341.000000	49.238918
1340.000000	49.484499
1339.000000	49.685374
1338.000000	49.914846
1337.000000	50.153479
1336.000000	50.358584
1335.000000	50.572549
1334.000000	50.773122
1333.000000	50.970473
1332.000000	51.190580
1331.000000	51.378567
1330.000000	51.571186
1329.000000	51.760985
1328.000000	51.936588
1327.000000	52.105645
1326.000000	52.281247
1325.000000	52.468026
1324.000000	52.621074
1323.000000	52.779156
1322.000000	52.925156
1321.000000	53.070149
1320.000000	53.225814
1319.000000	53.359832
1318.000000	53.503918
1317.000000	53.642064
1316.000000	53.778398
1315.000000	53.893284
1314.000000	54.004848
1313.000000	54.131415
1312.000000	54.239555
1311.000000	54.352428
1310.000000	54.438014
1309.000000	54.542731
1308.000000	54.633955
1307.000000	54.715312
1306.000000	54.793749
1305.000000	54.872388
1304.000000	54.936325
1303.000000	54.996538
1302.000000	55.056146
1301.000000	55.118372
1300.000000	55.167105
1299.000000	55.213121
1298.000000	55.250678
1297.000000	55.298807
1296.000000	55.328813
1295.000000	55.369189
1294.000000	55.391341
1293.000000	55.423259
1292.000000	55.448230
1291.000000	55.463837
1290.000000	55.475215
1289.000000	55.491527
1288.000000	55.500891
1287.000000	55.499179
1286.000000	55.488909
1285.000000	55.488808
1284.000000	55.471288
1283.000000	55.463535
1282.000000	55.446519
1281.000000	55.422051
1280.000000	55.404430
1279.000000	55.397080
1278.000000	55.370196
1277.000000	55.340392
1276.000000	55.315119
1275.000000	55.303842
1274.000000	55.278367
1273.000000	55.272930
1272.000000	55.257525
1271.000000	55.239501
1270.000000	55.241213
1269.000000	55.224297
1268.000000	55.206374
1267.000000	55.188150
1266.000000	55.168717
1265.000000	55.161064
1264.000000	55.144954
1263.000000	55.127232
1262.000000	55.108504
1261.000000	55.079405
1260.000000	55.044969
1259.000000	55.011943
1258.000000	54.986469
1257.000000	54.967237
1256.000000	54.944985
1255.000000	54.919712
1254.000000	54.881852
1253.000000	54.837751
1252.000000	54.792138
1251.000000	54.734947
1250.000000	54.679265
1249.000000	54.627712
1248.000000	54.575455
1247.000000	54.521687
1246.000000	54.454627
1245.000000	54.368035
1244.000000	54.280938
1243.000000	54.211261
1242.000000	54.136348
1241.000000	54.036464
1240.000000	53.941414
1239.000000	53.846866
1238.000000	53.771047
1237.000000	53.684555
1236.000000	53.593834
1235.000000	53.495460
1234.000000	53.400007
1233.000000	53.298411
1232.000000	53.179799
1231.000000	53.079009
1230.000000	52.968452
1229.000000	52.853465
1228.000000	52.751064
1227.000000	52.638493
1226.000000	52.516256
1225.000000	52.383850
1224.000000	52.268258
1223.000000	52.150452
1222.000000	52.024187
1221.000000	51.900440
1220.000000	51.778807
1219.000000	51.665431
1218.000000	51.551048
1217.000000	51.438477
1216.000000	51.332753
1215.000000	51.238005
1214.000000	51.136711
1213.000000	51.045285
1212.000000	50.953456
1211.000000	50.856291
1210.000000	50.772719
1209.000000	50.695087
1208.000000	50.617355
1207.000000	50.532373
1206.000000	50.460179
1205.000000	50.410036
1204.000000	50.349320
1203.000000	50.303909
1202.000000	50.267661
1201.000000	50.229097
1200.000000	50.189425
1199.000000	50.152170
1198.000000	50.110384
1197.000000	50.046447
1196.000000	49.976367
1195.000000	49.886854
1194.000000	49.750118
1193.000000	49.594955
1192.000000	49.406666
1191.000000	49.216867
1190.000000	49.003607
1189.000000	48.792864
1188.000000	48.600044
1187.000000	48.466832
1186.000000	48.368659
1185.000000	48.354764
1184.000000	48.396047
1183.000000	48.507711
1182.000000	48.683716
1181.000000	48.927083
1180.000000	49.189983
1179.000000	49.484902
1178.000000	49.780123
1177.000000	50.036579
1176.000000	50.286591
1175.000000	50.509416
1174.000000	50.713614
1173.000000	50.919725
1172.000000	51.107813
1171.000000	51.322986
1170.000000	51.538462
1169.000000	51.752225
1168.000000	51.957430
1167.000000	52.191533
1166.000000	52.446076
1165.000000	52.678970
1164.000000	52.927673
1163.000000	53.180504
1162.000000	53.441290
1161.000000	53.705901
1160.000000	53.958430
1159.000000	54.228781
1158.000000	54.492889
1157.000000	54.753071
1156.000000	54.987576
1155.000000	55.220773
1154.000000	55.421950
1153.000000	55.620409
1152.000000	55.765402
1151.000000	55.894888
1150.000000	56.014306
1149.000000	56.134831
1148.000000	56.242468
1147.000000	56.364101
1146.000000	56.496608
1145.000000	56.645528
1144.000000	56.849625
1143.000000	57.062784
1142.000000	57.303231
1141.000000	57.590497
1140.000000	57.887531
1139.000000	58.184766
1138.000000	58.484720
1137.000000	58.816894
1136.000000	59.185820
1135.000000	59.544475
1134.000000	59.879167
1133.000000	60.181034
1132.000000	60.484209
1131.000000	60.779632
1130.000000	61.043740
1129.000000	61.283180
1128.000000	61.472677
1127.000000	61.656133
1126.000000	61.787935
1125.000000	61.916717
1124.000000	62.009855
1123.000000	62.092420
1122.000000	62.160385
1121.000000	62.227042
1120.000000	62.296417
1119.000000	62.343741
1118.000000	62.389857
1117.000000	62.421775
1116.000000	62.440503
1115.000000	62.447451
1114.000000	62.471818
1113.000000	62.486015
1112.000000	62.506153
1111.000000	62.515013
1110.000000	62.518840
1109.000000	62.549147
1108.000000	62.554685
1107.000000	62.566164
1106.000000	62.587610
1105.000000	62.595867
1104.000000	62.598686
1103.000000	62.619126
1102.000000	62.624563
1101.000000	62.652857
1100.000000	62.649837
1099.000000	62.665544
1098.000000	62.664235
1097.000000	62.654569
1096.000000	62.642486
1095.000000	62.663530
1094.000000	62.659905
1093.000000	62.681151
1092.000000	62.646715
1091.000000	62.631612
1090.000000	62.633928
1089.000000	62.637250
1088.000000	62.596572
1087.000000	62.593954
1086.000000	62.582677
1085.000000	62.549550
1084.000000	62.540689
1083.000000	62.489640
1082.000000	62.469905
1081.000000	62.445538
1080.000000	62.466179
1079.000000	62.410095
1078.000000	62.408383
1077.000000	62.371732
1076.000000	62.346862
1075.000000	62.330450
1074.000000	62.300545
1073.000000	62.278595
1072.000000	62.255638
1071.000000	62.258558
1070.000000	62.215463
1069.000000	62.192908
1068.000000	62.195526
1067.000000	62.156056
1066.000000	62.148605
1065.000000	62.138536
1064.000000	62.123231
1063.000000	62.094635
1062.000000	62.060703
1061.000000	62.038551
1060.000000	62.050533
1059.000000	62.007740
1058.000000	61.982065
1057.000000	61.955483
1056.000000	61.944004
1055.000000	61.925779
1054.000000	61.906346
1053.000000	61.873219
1052.000000	61.882483
1051.000000	61.862748
1050.000000	61.817437
1049.000000	61.828413
1048.000000	61.810087
1047.000000	61.797904
1046.000000	61.826600
1045.000000	61.807469
1044.000000	61.816128
1043.000000	61.816229
1042.000000	61.812705
1041.000000	61.807066
1040.000000	61.823982
1039.000000	61.825996
1038.000000	61.837475
1037.000000	61.842006
1036.000000	61.850262
1035.000000	61.872212
1034.000000	61.881476
1033.000000	61.900808
1032.000000	61.912488
1031.000000	61.905843
1030.000000	61.942494
1029.000000	61.967767
1028.000000	61.987401
1027.000000	62.004418
1026.000000	62.040464
1025.000000	62.081747
1024.000000	62.117592
1023.000000	62.169850
1022.000000	62.208716
1021.000000	62.261981
1020.000000	62.295410
1019.000000	62.349279
1018.000000	62.405161
1017.000000	62.451378
1016.000000	62.516524
1015.000000	62.587308
1014.000000	62.643292
1013.000000	62.725555
1012.000000	62.810738
1011.000000	62.902668
1010.000000	62.988656
1009.000000	63.065885
1008.000000	63.163654
1007.000000	63.277735
1006.000000	63.365134
1005.000000	63.475993
1004.000000	63.573964
1003.000000	63.679285
1002.000000	63.784304
1001.000000	63.867574
1000.000000	63.945205
999.000000	64.037034
998.000000	64.150209
997.000000	64.245360
996.000000	64.326315
995.000000	64.407873
994.000000	64.513093
993.000000	64.608648
992.000000	64.704504
991.000000	64.813752
990.000000	64.925819
989.000000	65.019460
988.000000	65.106255
987.000000	65.208454
986.000000	65.330993
985.000000	65.447189
984.000000	65.552510
983.000000	65.665886
982.000000	65.783290
981.000000	65.900996
980.000000	66.008129
979.000000	66.139428
978.000000	66.274654
977.000000	66.393165
976.000000	66.501407
975.000000	66.632706
974.000000	66.775684
973.000000	66.898727
972.000000	67.041806
971.000000	67.187101
970.000000	67.317997
969.000000	67.470945
968.000000	67.614125
967.000000	67.738073
966.000000	67.895552
965.000000	68.052325
964.000000	68.190068
963.000000	68.334658
962.000000	68.472603
961.000000	68.613668
960.000000	68.758560
959.000000	68.909292
958.000000	69.058615
957.000000	69.180247
956.000000	69.322018
955.000000	69.460164
954.000000	69.567700
953.000000	69.707658
952.000000	69.844697
951.000000	69.952636
950.000000	70.084841
949.000000	70.214931
948.000000	70.314111
947.000000	70.413290
946.000000	70.529989
945.000000	70.636216
944.000000	70.709820
943.000000	70.815342
942.000000	70.908480
941.000000	70.967786
940.000000	71.038067
939.000000	71.136239
938.000000	71.211354
937.000000	71.259080
936.000000	71.323119
935.000000	71.382525
934.000000	71.447470
933.000000	71.528223
932.000000	71.585717
931.000000	71.644318
930.000000	71.699999
929.000000	71.770079
928.000000	71.831902
927.000000	71.867345
926.000000	71.924637
925.000000	72.017875
924.000000	72.076275
923.000000	72.108395
922.000000	72.176361
921.000000	72.236573
920.000000	72.295275
919.000000	72.357098
918.000000	72.421136
917.000000	72.480745
916.000000	72.542668
915.000000	72.627046
914.000000	72.690783
913.000000	72.747974
912.000000	72.805468
911.000000	72.866989
910.000000	72.942506
909.000000	73.013693
908.000000	73.092130
907.000000	73.183758
906.000000	73.257060
905.000000	73.325226
904.000000	73.402153
903.000000	73.493378
902.000000	73.577755
901.000000	73.659716
900.000000	73.742886
899.000000	73.811153
898.000000	73.889490
897.000000	73.968430
896.000000	74.056533
895.000000	74.133863
894.000000	74.200821
893.000000	74.268384
892.000000	74.344606
891.000000	74.408443
890.000000	74.484665
889.000000	74.559376
888.000000	74.629959
887.000000	74.705275
886.000000	74.781094
885.000000	74.863961
884.000000	74.938673
883.000000	75.047216
882.000000	75.144683
881.000000	75.236311
880.000000	75.354621
879.000000	75.450276
878.000000	75.556704
877.000000	75.639270
876.000000	75.717304
875.000000	75.774294
874.000000	75.815375
873.000000	75.850617
872.000000	75.889281
871.000000	75.995911
870.000000	76.130130
869.000000	76.257301
868.000000	76.413168
867.000000	76.565008
866.000000	76.697414
865.000000	76.807266
864.000000	76.975720
863.000000	77.110140
862.000000	77.252918
861.000000	77.392674
860.000000	77.548239
859.000000	77.691319
858.000000	77.863800
857.000000	77.987500
856.000000	77.854000
855.000000	77.749900
854.000000	78.151400
853.000000	78.655500
852.000000	79.049700
851.000000	78.943700
850.000000	78.518600
849.000000	78.886200
848.000000	79.232900
847.000000	78.901500
846.000000	78.926600
845.000000	79.306700
844.000000	79.703800
843.000000	79.588400
842.000000	79.573000
841.000000	79.983800
840.000000	80.066100
839.000000	80.106200
838.000000	80.524700
837.000000	80.333400
836.000000	80.301500
835.000000	80.597500
834.000000	80.397700
833.000000	80.690700
832.000000	80.686200
831.000000	80.951700
830.000000	80.886700
829.000000	80.937400
828.000000	81.277500
827.000000	81.365900
826.000000	81.397200
825.000000	81.400400
824.000000	81.783400
823.000000	81.856500
822.000000	82.081300
821.000000	82.332900
820.000000	82.624700
819.000000	82.570000
818.000000	83.069700
817.000000	83.107600
816.000000	83.134100
815.000000	83.485800
814.000000	83.655900
813.000000	83.842500
812.000000	83.903900
811.000000	83.940200
810.000000	84.275400
809.000000	84.197300
808.000000	84.172800
807.000000	84.409800
806.000000	84.439200
805.000000	84.335600
804.000000	84.518800
803.000000	84.441000
802.000000	84.384600
801.000000	84.390400
800.000000	84.225000
799.000000	84.187400
798.000000	84.011000
797.000000	83.855600
796.000000	83.815600
795.000000	83.658800
794.000000	83.718900
793.000000	83.554000
792.000000	83.516400
791.000000	83.712500
790.000000	83.616800
789.000000	83.688600
788.000000	83.662700
787.000000	83.631000
786.000000	83.832700
785.000000	84.036200
784.000000	84.019300
783.000000	84.145900
782.000000	84.410000
781.000000	84.600500
780.000000	84.696800
779.000000	85.080200
778.000000	85.106300
777.000000	85.221900
776.000000	85.441800
775.000000	85.740100
774.000000	85.720000
773.000000	85.971000
772.000000	86.215400
771.000000	86.231200
770.000000	86.321700
769.000000	86.327600
768.000000	86.331000
767.000000	86.482100
766.000000	86.305700
765.000000	86.358200
764.000000	86.411100
763.000000	86.231400
762.000000	85.993600
761.000000	85.936200
760.000000	85.756800
759.000000	85.468000
758.000000	85.305900
757.000000	85.057900
756.000000	84.864300
755.000000	84.685000
754.000000	84.428400
753.000000	84.170000
752.000000	83.950900
751.000000	83.773300
750.000000	83.444600
749.000000	83.044800
748.000000	82.923000
747.000000	82.652600
746.000000	82.452200
745.000000	82.181100
744.000000	81.809800
743.000000	81.596600
742.000000	81.339100
741.000000	81.070100
740.000000	80.624500
739.000000	80.454000
738.000000	80.124800
737.000000	79.807200
736.000000	79.616300
735.000000	79.267400
734.000000	78.874800
733.000000	78.657400
732.000000	78.335400
731.000000	77.995900
730.000000	77.588700
729.000000	77.266800
728.000000	76.812500
727.000000	76.428800
726.000000	75.983200
725.000000	75.575200
724.000000	75.198800
723.000000	74.675700
722.000000	74.243500
721.000000	73.875100
720.000000	73.532600
719.000000	73.254800
718.000000	72.948400
717.000000	72.735600
716.000000	72.501700
715.000000	72.405700
714.000000	72.244100
713.000000	72.186900
712.000000	72.016800
711.000000	71.960200
710.000000	71.966100
709.000000	71.968500
708.000000	71.874300
707.000000	71.761300
706.000000	71.739600
705.000000	71.779100
704.000000	71.667200
703.000000	71.630900
702.000000	71.643000
701.000000	71.690600
700.000000	71.710100
699.000000	71.756400
698.000000	71.803300
697.000000	71.927500
696.000000	71.890800
695.000000	71.933600
694.000000	71.917500
693.000000	71.933000
692.000000	71.951100
691.000000	71.905600
690.000000	71.809900
689.000000	71.658200
688.000000	71.521800
687.000000	71.349600
686.000000	71.217500
685.000000	71.037900
684.000000	70.865300
683.000000	70.778800
682.000000	70.598600
681.000000	70.485700
680.000000	70.399300
679.000000	70.250700
678.000000	70.140300
677.000000	70.000700
676.000000	69.882100
675.000000	69.764100
674.000000	69.515700
673.000000	69.210300
672.000000	68.870400
671.000000	68.485000
670.000000	68.090600
669.000000	67.632100
668.000000	67.089800
667.000000	66.577100
666.000000	66.103500
665.000000	65.485000
664.000000	64.904400
663.000000	64.348100
662.000000	63.810200
661.000000	63.243600
660.000000	62.630500
659.000000	62.104500
658.000000	61.552000
657.000000	60.909600
656.000000	60.245100
655.000000	59.540300
654.000000	58.802700
653.000000	58.093900
652.000000	57.339400
651.000000	56.585000
650.000000	55.925900
649.000000	55.327900
648.000000	54.829500
647.000000	54.428600
646.000000	54.194600
645.000000	54.080400
644.000000	54.078100
643.000000	54.216000
642.000000	54.469300
641.000000	54.837800
640.000000	55.316400
639.000000	55.884300
638.000000	56.511400
637.000000	57.205000
636.000000	57.979700
635.000000	58.805400
634.000000	59.693800
633.000000	60.675900
632.000000	61.681100
631.000000	62.722400
630.000000	63.827100
629.000000	64.936800
628.000000	66.070300
627.000000	67.163900
626.000000	68.280700
625.000000	69.395900
624.000000	70.471800
623.000000	71.491900
622.000000	72.458200
621.000000	73.387300
620.000000	74.248500
619.000000	75.057500
618.000000	75.821200
617.000000	76.568600
616.000000	77.243200
615.000000	77.955400
614.000000	78.641300
613.000000	79.313800
612.000000	79.999700
611.000000	80.667200
610.000000	81.312400
609.000000	81.961800
608.000000	82.586000
607.000000	83.150100
606.000000	83.682500
605.000000	84.149100
604.000000	84.622300
603.000000	85.074600
602.000000	85.452900
601.000000	85.831900
600.000000	86.182800
599.000000	86.506300
598.000000	86.853200
597.000000	87.158100
596.000000	87.468800
595.000000	87.784500
594.000000	88.071000
593.000000	88.338500
592.000000	88.587900
591.000000	88.819500
590.000000	89.033400
589.000000	89.235200
588.000000	89.356400
587.000000	89.486500
586.000000	89.571000
585.000000	89.667000
584.000000	89.706100
583.000000	89.717500
582.000000	89.696500
581.000000	89.674900
580.000000	89.640900
579.000000	89.616600
578.000000	89.549800
577.000000	89.481600
576.000000	89.437400
575.000000	89.378500
574.000000	89.304400
573.000000	89.244100
572.000000	89.156400
571.000000	89.072000
570.000000	88.980300
569.000000	88.823800
568.000000	88.708200
567.000000	88.594300
566.000000	88.438100
565.000000	88.261000
564.000000	88.043700
563.000000	87.820000
562.000000	87.575600
561.000000	87.292500
560.000000	86.983400
559.000000	86.659100
558.000000	86.336500
557.000000	85.997500
556.000000	85.650600
555.000000	85.286500
554.000000	84.900200
553.000000	84.484000
552.000000	84.072100
551.000000	83.603400
550.000000	83.118100
549.000000	82.619400
548.000000	82.041200
547.000000	81.500200
546.000000	80.901000
545.000000	80.313300
544.000000	79.619100
543.000000	78.914600
542.000000	78.202900
541.000000	77.434500
540.000000	76.605700
539.000000	75.777800
538.000000	74.881200
537.000000	73.952700
536.000000	72.923500
535.000000	71.917400
534.000000	70.748400
533.000000	69.559400
532.000000	68.289900
531.000000	66.943700
530.000000	65.568100
529.000000	64.140000
528.000000	62.640500
527.000000	61.068200
526.000000	59.546100
525.000000	57.971200
524.000000	56.385800
523.000000	54.782100
522.000000	53.247000
521.000000	51.685800
520.000000	50.256500
519.000000	48.866800
518.000000	47.558000
517.000000	46.321200
516.000000	45.173100
515.000000	44.133300
514.000000	43.163400
513.000000	42.283000
512.000000	41.494400
511.000000	40.789200
510.000000	40.144200
509.000000	39.603200
508.000000	39.043100
507.000000	38.590300
506.000000	38.129200
505.000000	37.715100
504.000000	37.312900
503.000000	36.884400
502.000000	36.448200
501.000000	35.983100
500.000000	35.509700
499.000000	35.014900
498.000000	34.530300
497.000000	34.021000
496.000000	33.485300
495.000000	32.897400
494.000000	32.341300
493.000000	31.785600
492.000000	31.209100
491.000000	30.640600
490.000000	30.100900
489.000000	29.580100
488.000000	29.156700
487.000000	28.744500
486.000000	28.449000
485.000000	28.159400
484.000000	27.941400
483.000000	27.759600
482.000000	27.609300
481.000000	27.540300
480.000000	27.474600
479.000000	27.484700
478.000000	27.478100
477.000000	27.447800
476.000000	27.462900
475.000000	27.490700
474.000000	27.537900
473.000000	27.556100
472.000000	27.571400
471.000000	27.563500
470.000000	27.570300
469.000000	27.507100
468.000000	27.475500
467.000000	27.433800
466.000000	27.392200
465.000000	27.309600
464.000000	27.229100
463.000000	27.139500
462.000000	27.062800
461.000000	26.972900
460.000000	26.885000
459.000000	26.757500
458.000000	26.610700
457.000000	26.505600
456.000000	26.345300
455.000000	26.224000
454.000000	26.055600
453.000000	25.888300
452.000000	25.708700
451.000000	25.508200
450.000000	25.312900
449.000000	25.110300
448.000000	24.888500
447.000000	24.635800
446.000000	24.406700
445.000000	24.156200
444.000000	23.854100
443.000000	23.556100
442.000000	23.234200
441.000000	22.911300
440.000000	22.574700
439.000000	22.223500
438.000000	21.872100
437.000000	21.513500
436.000000	21.097200
435.000000	20.694100
434.000000	20.254900
433.000000	19.797000
432.000000	19.334400
431.000000	18.888400
430.000000	18.408200
429.000000	17.911200
428.000000	17.388300
427.000000	16.902100
426.000000	16.411300
425.000000	15.919600
424.000000	15.376800
423.000000	14.873900
422.000000	14.384600
421.000000	13.886200
420.000000	13.392800
419.000000	12.962400
418.000000	12.508600
417.000000	12.080100
416.000000	11.675100
415.000000	11.330300
414.000000	10.972700
413.000000	10.598700
412.000000	10.264900
411.000000	9.950000
410.000000	9.701700
409.000000	9.475500
408.000000	9.221300
407.000000	9.009000
406.000000	8.805100
405.000000	8.641400
404.000000	8.468400
403.000000	8.308500
402.000000	8.170100
401.000000	8.058200
400.000000	7.893100
399.000000	7.784200
398.000000	7.707600
397.000000	7.607500
396.000000	7.521400
395.000000	7.441100
394.000000	7.352400
393.000000	7.274800
392.000000	7.212800
391.000000	7.175200
390.000000	7.113600
389.000000	7.039900
388.000000	6.972400
387.000000	6.925200
386.000000	6.889400
385.000000	6.843400
384.000000	6.798300
383.000000	6.789300
382.000000	6.714900
381.000000	6.667000
380.000000	6.636800
379.000000	6.583200
378.000000	6.539200
377.000000	6.482400
376.000000	6.493500
375.000000	6.404600
374.000000	6.148200
373.000000	6.067200
372.000000	6.152400
371.000000	6.189600
370.000000	6.211400
369.000000	6.250100
368.000000	6.387800
367.000000	6.340400
366.000000	6.280800
365.000000	6.155200
364.000000	5.976400
363.000000	6.061700
362.000000	6.112600
361.000000	6.034700
360.000000	6.055800
359.000000	6.007300
358.000000	6.031800
357.000000	6.045600
356.000000	5.973300
355.000000	6.041100
354.000000	6.021000
353.000000	6.053800
352.000000	6.067400
351.000000	5.975100
350.000000	5.947000
349.000000	5.790900
348.000000	5.818000
347.000000	5.852500
346.000000	5.805200
345.000000	5.830100
344.000000	5.808700
343.000000	5.971200
342.000000	5.800900
341.000000	5.659900
340.000000	5.836500
339.000000	5.831500
338.000000	5.963400
337.000000	5.843200
336.000000	5.900200
335.000000	6.011400
334.000000	5.656600
333.000000	5.604100
332.000000	5.779100
331.000000	5.905500
330.000000	5.794700
329.000000	5.994300
328.000000	6.342000
327.000000	6.075600
326.000000	6.093700
325.000000	6.190600
324.000000	6.083100
323.000000	5.887200
322.000000	5.900100
321.000000	6.273000
320.000000	5.944600
319.000000	6.650200
318.000000	6.904900
317.000000	6.325900
316.000000	5.876300
315.000000	5.525500
314.000000	5.546600
313.000000	5.554000
312.000000	5.530600
311.000000	5.538800
310.000000	5.562000
309.000000	5.546500
308.000000	5.534500
307.000000	5.517700
306.000000	5.534500
305.000000	5.534600
304.000000	5.573200
303.000000	5.571400
302.000000	5.581300
301.000000	5.557700
300.000000	5.501300
299.000000	5.513600
298.000000	5.543000
297.000000	5.548900
296.000000	5.512100
295.000000	5.557100
294.000000	5.551300
293.000000	5.545700
292.000000	5.578600
291.000000	5.594200
290.000000	5.590400
289.000000	5.561600
288.000000	5.591400
287.000000	5.595200
286.000000	5.620000
285.000000	5.623200
284.000000	5.642500
283.000000	5.647300
282.000000	5.602700
281.000000	5.590600
280.000000	5.607000
279.000000	5.608500
278.000000	5.639900
277.000000	5.630300
276.000000	5.676000
275.000000	5.669800
274.000000	5.674500
273.000000	5.708900
272.000000	5.750700
271.000000	5.707700
270.000000	5.713400
269.000000	5.742500
268.000000	5.743300
267.000000	5.766800
266.000000	5.807400
265.000000	5.802600
264.000000	5.818800
263.000000	5.842600
262.000000	5.896700
261.000000	5.884700
260.000000	5.965000
259.000000	5.971500
258.000000	5.960600
257.000000	5.963000
256.000000	5.998200
255.000000	6.032600
254.000000	5.997700
253.000000	6.044300
252.000000	6.032400
251.000000	6.053000
250.000000	6.077300
