PE UV       SUBTECH     SPECTRUM    ASCII       PEDS        4.00        
   -1
CICIMAUCR0234-2.ASC
24/06/14
16:07:22.00
24/06/14
16:07:22.00
Vinicio Soto Monge
C. resplendens. Sex M. Dorsal.
250,000000
1
Lambda 1050
1050L1511233
PerkinElmer UV WinLab 6.3.2.0749 / 2.02.05 Lambda 900 UV/VIS/NIR, Aug  7 2015 09:38:08

0
0
3350/servo 860,8/2
0
0
UV/VIS
1
1
1
DoubleDePol,CommonBeamDepol,RBeamAtt,SBeamAtt,60mm sphere, WB InGaAs Detector
0
0
0
0
Program
Program
3350/servo 860,8/2
3350/0,2 860,8/0,2
3350/0,2 860,8/0,2
0
15.00
 
 
 
0
 
860,8
319,2
860,8
Front
100
on
S:100 R:100
0
0
0
0
 
0
 
 
 
0
 
 
0
0
0
0
0
 
 
 
 
0
0


0
0
#HDR
-1
-1
#GR
nm
%R
1.0
0.0
2500,000000
-1,000000
2251
8
92,234800
5,487100
#DATA
2500.000000	7.945446
2499.000000	7.908744
2498.000000	7.791490
2497.000000	7.769196
2496.000000	7.731653
2495.000000	7.775926
2494.000000	7.753947
2493.000000	7.693900
2492.000000	7.661931
2491.000000	7.712093
2490.000000	7.683174
2489.000000	7.574437
2488.000000	7.635746
2487.000000	7.592841
2486.000000	7.610508
2485.000000	7.618184
2484.000000	7.597573
2483.000000	7.585584
2482.000000	7.572650
2481.000000	7.565183
2480.000000	7.555088
2479.000000	7.565183
2478.000000	7.590632
2477.000000	7.514390
2476.000000	7.519123
2475.000000	7.548988
2474.000000	7.500088
2473.000000	7.583271
2472.000000	7.499668
2471.000000	7.529744
2470.000000	7.533740
2469.000000	7.533635
2468.000000	7.549094
2467.000000	7.553615
2466.000000	7.547937
2465.000000	7.538262
2464.000000	7.561397
2463.000000	7.565183
2462.000000	7.605250
2461.000000	7.622811
2460.000000	7.661511
2459.000000	7.693375
2458.000000	7.707466
2457.000000	7.731969
2456.000000	7.766356
2455.000000	7.816518
2454.000000	7.827876
2453.000000	7.870466
2452.000000	7.925465
2451.000000	7.961220
2450.000000	8.010646
2449.000000	8.055970
2448.000000	8.095721
2447.000000	8.155873
2446.000000	8.184687
2445.000000	8.232535
2444.000000	8.304676
2443.000000	8.317821
2442.000000	8.384703
2441.000000	8.438651
2440.000000	8.492809
2439.000000	8.530667
2438.000000	8.565370
2437.000000	8.600179
2436.000000	8.640981
2435.000000	8.676000
2434.000000	8.742146
2433.000000	8.766333
2432.000000	8.765807
2431.000000	8.821753
2430.000000	8.871810
2429.000000	8.904620
2428.000000	8.930279
2427.000000	8.951417
2426.000000	8.993902
2425.000000	9.024609
2424.000000	9.034704
2423.000000	9.060153
2422.000000	9.086128
2421.000000	9.096644
2420.000000	9.124407
2419.000000	9.153746
2418.000000	9.188029
2417.000000	9.203593
2416.000000	9.215897
2415.000000	9.251546
2414.000000	9.257120
2413.000000	9.266374
2412.000000	9.291508
2411.000000	9.316115
2410.000000	9.349662
2409.000000	9.364805
2408.000000	9.364489
2407.000000	9.381525
2406.000000	9.396038
2405.000000	9.427060
2404.000000	9.471859
2403.000000	9.496466
2402.000000	9.509717
2401.000000	9.531380
2400.000000	9.549047
2399.000000	9.551886
2398.000000	9.574496
2397.000000	9.606255
2396.000000	9.613195
2395.000000	9.634858
2394.000000	9.658099
2393.000000	9.674820
2392.000000	9.691751
2391.000000	9.702793
2390.000000	9.723614
2389.000000	9.750746
2388.000000	9.756530
2387.000000	9.771778
2386.000000	9.771358
2385.000000	9.758949
2384.000000	9.769149
2383.000000	9.779770
2382.000000	9.795229
2381.000000	9.796281
2380.000000	9.797858
2379.000000	9.781979
2378.000000	9.757897
2377.000000	9.751377
2376.000000	9.750956
2375.000000	9.735603
2374.000000	9.710364
2373.000000	9.684179
2372.000000	9.675135
2371.000000	9.662200
2370.000000	9.637172
2369.000000	9.601628
2368.000000	9.573234
2367.000000	9.547470
2366.000000	9.502566
2365.000000	9.465023
2364.000000	9.418542
2363.000000	9.365225
2362.000000	9.324318
2361.000000	9.278573
2360.000000	9.225151
2359.000000	9.198124
2358.000000	9.158268
2357.000000	9.107160
2356.000000	9.067304
2355.000000	9.033968
2354.000000	9.010517
2353.000000	8.990011
2352.000000	8.974237
2351.000000	8.975288
2350.000000	9.005259
2349.000000	9.029762
2348.000000	9.043643
2347.000000	9.080975
2346.000000	9.103164
2345.000000	9.118833
2344.000000	9.159741
2343.000000	9.199281
2342.000000	9.222101
2341.000000	9.249233
2340.000000	9.284041
2339.000000	9.307177
2338.000000	9.315905
2337.000000	9.328524
2336.000000	9.340513
2335.000000	9.338620
2334.000000	9.339461
2333.000000	9.326421
2332.000000	9.297712
2331.000000	9.275418
2330.000000	9.248076
2329.000000	9.204224
2328.000000	9.166366
2327.000000	9.116730
2326.000000	9.056788
2325.000000	8.981808
2324.000000	8.903673
2323.000000	8.842470
2322.000000	8.782843
2321.000000	8.709862
2320.000000	8.630465
2319.000000	8.531193
2318.000000	8.443173
2317.000000	8.369665
2316.000000	8.294686
2315.000000	8.197412
2314.000000	8.113914
2313.000000	8.044928
2312.000000	7.946077
2311.000000	7.868152
2310.000000	7.829137
2309.000000	7.779081
2308.000000	7.735229
2307.000000	7.706309
2306.000000	7.694531
2305.000000	7.678757
2304.000000	7.683700
2303.000000	7.707887
2302.000000	7.744378
2301.000000	7.782025
2300.000000	7.822407
2299.000000	7.890236
2298.000000	7.967424
2297.000000	8.037882
2296.000000	8.087413
2295.000000	8.154190
2294.000000	8.205614
2293.000000	8.248625
2292.000000	8.300364
2291.000000	8.347371
2290.000000	8.367983
2289.000000	8.377973
2288.000000	8.383442
2287.000000	8.403212
2286.000000	8.393432
2285.000000	8.360937
2284.000000	8.328442
2283.000000	8.305728
2282.000000	8.274915
2281.000000	8.217708
2280.000000	8.189630
2279.000000	8.135156
2278.000000	8.099507
2277.000000	8.059020
2276.000000	8.008332
2275.000000	7.980044
2274.000000	7.956277
2273.000000	7.933773
2272.000000	7.923151
2271.000000	7.918630
2270.000000	7.895704
2269.000000	7.924729
2268.000000	7.951545
2267.000000	8.009804
2266.000000	8.059230
2265.000000	8.125061
2264.000000	8.216235
2263.000000	8.312353
2262.000000	8.424349
2261.000000	8.559166
2260.000000	8.680627
2259.000000	8.871599
2258.000000	9.053107
2257.000000	9.210008
2256.000000	9.430741
2255.000000	9.563454
2254.000000	9.753165
2253.000000	9.975160
2252.000000	10.155721
2251.000000	10.324189
2250.000000	10.490554
2249.000000	10.679634
2248.000000	10.826754
2247.000000	10.954946
2246.000000	11.109427
2245.000000	11.240353
2244.000000	11.396517
2243.000000	11.499995
2242.000000	11.586753
2241.000000	11.708320
2240.000000	11.799494
2239.000000	11.889722
2238.000000	11.972484
2237.000000	12.049357
2236.000000	12.115503
2235.000000	12.196582
2234.000000	12.260100
2233.000000	12.310577
2232.000000	12.342862
2231.000000	12.410585
2230.000000	12.425413
2229.000000	12.461378
2228.000000	12.477678
2227.000000	12.516482
2226.000000	12.539933
2225.000000	12.529838
2224.000000	12.544771
2223.000000	12.544981
2222.000000	12.541931
2221.000000	12.559914
2220.000000	12.522687
2219.000000	12.514274
2218.000000	12.510804
2217.000000	12.495976
2216.000000	12.503442
2215.000000	12.473261
2214.000000	12.441187
2213.000000	12.437927
2212.000000	12.421943
2211.000000	12.409428
2210.000000	12.409008
2209.000000	12.364735
2208.000000	12.365892
2207.000000	12.366733
2206.000000	12.337603
2205.000000	12.339496
2204.000000	12.322460
2203.000000	12.298168
2202.000000	12.304898
2201.000000	12.288073
2200.000000	12.300902
2199.000000	12.283656
2198.000000	12.264411
2197.000000	12.249058
2196.000000	12.252633
2195.000000	12.238121
2194.000000	12.234756
2193.000000	12.225502
2192.000000	12.221611
2191.000000	12.206257
2190.000000	12.191640
2189.000000	12.188906
2188.000000	12.178495
2187.000000	12.193322
2186.000000	12.174183
2185.000000	12.161879
2184.000000	12.156411
2183.000000	12.139375
2182.000000	12.152310
2181.000000	12.137272
2180.000000	12.114346
2179.000000	12.106670
2178.000000	12.095733
2177.000000	12.103830
2176.000000	12.106354
2175.000000	12.126440
2174.000000	12.110350
2173.000000	12.097416
2172.000000	12.122128
2171.000000	12.122128
2170.000000	12.120235
2169.000000	12.130752
2168.000000	12.158304
2167.000000	12.173026
2166.000000	12.197634
2165.000000	12.202051
2164.000000	12.222347
2163.000000	12.253685
2162.000000	12.268723
2161.000000	12.270826
2160.000000	12.301113
2159.000000	12.328349
2158.000000	12.363052
2157.000000	12.387976
2156.000000	12.415423
2155.000000	12.432879
2154.000000	12.486301
2153.000000	12.506913
2152.000000	12.535306
2151.000000	12.574637
2150.000000	12.586625
2149.000000	12.613336
2148.000000	12.653507
2147.000000	12.677169
2146.000000	12.711977
2145.000000	12.741632
2144.000000	12.747837
2143.000000	12.784959
2142.000000	12.811985
2141.000000	12.832702
2140.000000	12.832492
2139.000000	12.856048
2138.000000	12.873820
2137.000000	12.914938
2136.000000	12.922930
2135.000000	12.934287
2134.000000	12.943016
2133.000000	12.949851
2132.000000	12.950587
2131.000000	12.948484
2130.000000	12.961209
2129.000000	12.968885
2128.000000	12.964469
2127.000000	12.959842
2126.000000	12.951008
2125.000000	12.942069
2124.000000	12.914097
2123.000000	12.915253
2122.000000	12.900741
2121.000000	12.869613
2120.000000	12.856994
2119.000000	12.826918
2118.000000	12.803572
2117.000000	12.774863
2116.000000	12.753200
2115.000000	12.715447
2114.000000	12.693363
2113.000000	12.685581
2112.000000	12.647303
2111.000000	12.610391
2110.000000	12.580736
2109.000000	12.550344
2108.000000	12.527630
2107.000000	12.502181
2106.000000	12.466741
2105.000000	12.443185
2104.000000	12.404170
2103.000000	12.372622
2102.000000	12.335500
2101.000000	12.303005
2100.000000	12.286600
2099.000000	12.258943
2098.000000	12.224029
2097.000000	12.192691
2096.000000	12.161564
2095.000000	12.133591
2094.000000	12.115714
2093.000000	12.088687
2092.000000	12.066709
2091.000000	12.045781
2090.000000	12.028851
2089.000000	12.006346
2088.000000	11.986891
2087.000000	11.958918
2086.000000	11.936624
2085.000000	11.924110
2084.000000	11.897399
2083.000000	11.869742
2082.000000	11.854809
2081.000000	11.826310
2080.000000	11.805173
2079.000000	11.791923
2078.000000	11.761952
2077.000000	11.726512
2076.000000	11.692230
2075.000000	11.680767
2074.000000	11.658789
2073.000000	11.605787
2072.000000	11.569612
2071.000000	11.555415
2070.000000	11.521869
2069.000000	11.486745
2068.000000	11.477175
2067.000000	11.450044
2066.000000	11.403247
2065.000000	11.392310
2064.000000	11.361078
2063.000000	11.317331
2062.000000	11.311967
2061.000000	11.298507
2060.000000	11.289253
2059.000000	11.272953
2058.000000	11.253182
2057.000000	11.244559
2056.000000	11.238775
2055.000000	11.242561
2054.000000	11.265276
2053.000000	11.279262
2052.000000	11.300715
2051.000000	11.324587
2050.000000	11.361603
2049.000000	11.418496
2048.000000	11.453935
2047.000000	11.511037
2046.000000	11.571295
2045.000000	11.634812
2044.000000	11.684763
2043.000000	11.737765
2042.000000	11.803175
2041.000000	11.859226
2040.000000	11.935467
2039.000000	11.996987
2038.000000	12.061030
2037.000000	12.129910
2036.000000	12.184699
2035.000000	12.230865
2034.000000	12.276505
2033.000000	12.321934
2032.000000	12.367049
2031.000000	12.406589
2030.000000	12.453596
2029.000000	12.490928
2028.000000	12.517008
2027.000000	12.548767
2026.000000	12.573375
2025.000000	12.599139
2024.000000	12.627533
2023.000000	12.621959
2022.000000	12.638785
2021.000000	12.666337
2020.000000	12.693679
2019.000000	12.686212
2018.000000	12.700304
2017.000000	12.721967
2016.000000	12.723860
2015.000000	12.729959
2014.000000	12.731958
2013.000000	12.728803
2012.000000	12.715132
2011.000000	12.711346
2010.000000	12.693048
2009.000000	12.681375
2008.000000	12.673593
2007.000000	12.638049
2006.000000	12.613441
2005.000000	12.607552
2004.000000	12.557600
2003.000000	12.544666
2002.000000	12.508911
2001.000000	12.474523
2000.000000	12.452019
1999.000000	12.402278
1998.000000	12.365892
1997.000000	12.321724
1996.000000	12.277136
1995.000000	12.226764
1994.000000	12.169661
1993.000000	12.110350
1992.000000	12.077225
1991.000000	12.018124
1990.000000	11.969540
1989.000000	11.891405
1988.000000	11.854178
1987.000000	11.786139
1986.000000	11.704744
1985.000000	11.651217
1984.000000	11.593694
1983.000000	11.561409
1982.000000	11.487902
1981.000000	11.425962
1980.000000	11.338889
1979.000000	11.303134
1978.000000	11.218059
1977.000000	11.160115
1976.000000	11.108691
1975.000000	11.039811
1974.000000	10.988071
1973.000000	10.932862
1972.000000	10.855358
1971.000000	10.803619
1970.000000	10.736421
1969.000000	10.670169
1968.000000	10.616432
1967.000000	10.571844
1966.000000	10.510114
1965.000000	10.465631
1964.000000	10.412840
1963.000000	10.350900
1962.000000	10.294534
1961.000000	10.227967
1960.000000	10.201151
1959.000000	10.159823
1958.000000	10.078112
1957.000000	10.059078
1956.000000	9.996823
1955.000000	9.935409
1954.000000	9.882828
1953.000000	9.850439
1952.000000	9.791864
1951.000000	9.768203
1950.000000	9.708576
1949.000000	9.663567
1948.000000	9.648319
1947.000000	9.599524
1946.000000	9.551571
1945.000000	9.532537
1944.000000	9.514344
1943.000000	9.467547
1942.000000	9.452930
1941.000000	9.452509
1940.000000	9.429900
1939.000000	9.394565
1938.000000	9.385837
1937.000000	9.388782
1936.000000	9.416965
1935.000000	9.392147
1934.000000	9.394145
1933.000000	9.418016
1932.000000	9.434527
1931.000000	9.453981
1930.000000	9.483532
1929.000000	9.521810
1928.000000	9.586905
1927.000000	9.636857
1926.000000	9.686387
1925.000000	9.754006
1924.000000	9.832141
1923.000000	9.890715
1922.000000	9.948344
1921.000000	10.033840
1920.000000	10.152041
1919.000000	10.256676
1918.000000	10.339964
1917.000000	10.467629
1916.000000	10.573737
1915.000000	10.649873
1914.000000	10.742415
1913.000000	10.919611
1912.000000	11.081559
1911.000000	11.220898
1910.000000	11.364338
1909.000000	11.497472
1908.000000	11.616724
1907.000000	11.772047
1906.000000	11.938727
1905.000000	12.111297
1904.000000	12.325405
1903.000000	12.529312
1902.000000	12.732378
1901.000000	12.911257
1900.000000	13.114849
1899.000000	13.348096
1898.000000	13.620253
1897.000000	13.841197
1896.000000	14.056567
1895.000000	14.279613
1894.000000	14.461647
1893.000000	14.668183
1892.000000	14.918572
1891.000000	15.230480
1890.000000	15.545647
1889.000000	15.854295
1888.000000	16.153163
1887.000000	16.481897
1886.000000	16.809473
1885.000000	17.202776
1884.000000	17.622579
1883.000000	18.074561
1882.000000	18.585644
1881.000000	19.070962
1880.000000	19.566587
1879.000000	20.071886
1878.000000	20.517138
1877.000000	21.016022
1876.000000	21.491981
1875.000000	21.930713
1874.000000	22.384378
1873.000000	22.817011
1872.000000	23.231661
1871.000000	23.614026
1870.000000	23.989557
1869.000000	24.317870
1868.000000	24.627779
1867.000000	24.875959
1866.000000	25.075660
1865.000000	25.226251
1864.000000	25.381784
1863.000000	25.500827
1862.000000	25.598942
1861.000000	25.746798
1860.000000	25.887294
1859.000000	25.995084
1858.000000	26.094987
1857.000000	26.190473
1856.000000	26.242843
1855.000000	26.265663
1854.000000	26.300787
1853.000000	26.325184
1852.000000	26.325184
1851.000000	26.320557
1850.000000	26.302154
1849.000000	26.272814
1848.000000	26.263981
1847.000000	26.284277
1846.000000	26.281858
1845.000000	26.237585
1844.000000	26.166286
1843.000000	26.114547
1842.000000	26.075953
1841.000000	26.091937
1840.000000	26.099719
1839.000000	26.079213
1838.000000	26.055762
1837.000000	26.024844
1836.000000	25.999500
1835.000000	25.976365
1834.000000	25.914425
1833.000000	25.838288
1832.000000	25.766043
1831.000000	25.676446
1830.000000	25.614401
1829.000000	25.558245
1828.000000	25.497672
1827.000000	25.422902
1826.000000	25.356335
1825.000000	25.292292
1824.000000	25.224148
1823.000000	25.148747
1822.000000	25.080077
1821.000000	25.071664
1820.000000	25.085020
1819.000000	25.063356
1818.000000	25.026866
1817.000000	24.987851
1816.000000	24.948941
1815.000000	24.936848
1814.000000	24.929592
1813.000000	24.905089
1812.000000	24.897728
1811.000000	24.882059
1810.000000	24.861132
1809.000000	24.830635
1808.000000	24.785205
1807.000000	24.736621
1806.000000	24.693610
1805.000000	24.643764
1804.000000	24.599070
1803.000000	24.547016
1802.000000	24.479397
1801.000000	24.438805
1800.000000	24.409360
1799.000000	24.349102
1798.000000	24.267077
1797.000000	24.205768
1796.000000	24.166753
1795.000000	24.124163
1794.000000	24.074737
1793.000000	24.020684
1792.000000	23.958955
1791.000000	23.901011
1790.000000	23.843383
1789.000000	23.794588
1788.000000	23.734015
1787.000000	23.660928
1786.000000	23.600986
1785.000000	23.536628
1784.000000	23.448924
1783.000000	23.363007
1782.000000	23.299069
1781.000000	23.215571
1780.000000	23.143115
1779.000000	23.063824
1778.000000	22.984848
1777.000000	22.906713
1776.000000	22.805758
1775.000000	22.717002
1774.000000	22.615732
1773.000000	22.488698
1772.000000	22.373546
1771.000000	22.266492
1770.000000	22.137460
1769.000000	22.016419
1768.000000	21.890436
1767.000000	21.783593
1766.000000	21.683269
1765.000000	21.583892
1764.000000	21.505757
1763.000000	21.454228
1762.000000	21.436666
1761.000000	21.437402
1760.000000	21.458855
1759.000000	21.510384
1758.000000	21.572534
1757.000000	21.648461
1756.000000	21.727752
1755.000000	21.786116
1754.000000	21.833754
1753.000000	21.867721
1752.000000	21.886861
1751.000000	21.895274
1750.000000	21.885809
1749.000000	21.874767
1748.000000	21.837435
1747.000000	21.777388
1746.000000	21.705142
1745.000000	21.599981
1744.000000	21.498080
1743.000000	21.376409
1742.000000	21.230971
1741.000000	21.048306
1740.000000	20.837669
1739.000000	20.610836
1738.000000	20.386633
1737.000000	20.171684
1736.000000	19.978292
1735.000000	19.813189
1734.000000	19.704137
1733.000000	19.632417
1732.000000	19.602867
1731.000000	19.619272
1730.000000	19.675534
1729.000000	19.773333
1728.000000	19.897529
1727.000000	20.000902
1726.000000	20.094706
1725.000000	20.201760
1724.000000	20.288202
1723.000000	20.348985
1722.000000	20.400199
1721.000000	20.421546
1720.000000	20.435112
1719.000000	20.464767
1718.000000	20.490532
1717.000000	20.522606
1716.000000	20.543743
1715.000000	20.598112
1714.000000	20.646591
1713.000000	20.693072
1712.000000	20.757010
1711.000000	20.804648
1710.000000	20.845345
1709.000000	20.864380
1708.000000	20.861120
1707.000000	20.845661
1706.000000	20.810642
1705.000000	20.785404
1704.000000	20.731982
1703.000000	20.655950
1702.000000	20.581391
1701.000000	20.479280
1700.000000	20.361079
1699.000000	20.196186
1698.000000	20.047383
1697.000000	19.910043
1696.000000	19.762712
1695.000000	19.692359
1694.000000	19.663861
1693.000000	19.702770
1692.000000	19.802147
1691.000000	19.937279
1690.000000	20.114476
1689.000000	20.281367
1688.000000	20.433535
1687.000000	20.513247
1686.000000	20.572558
1685.000000	20.608943
1684.000000	20.638704
1683.000000	20.713053
1682.000000	20.889934
1681.000000	21.138955
1680.000000	21.524055
1679.000000	22.023360
1678.000000	22.544538
1677.000000	23.086118
1676.000000	23.600986
1675.000000	24.057280
1674.000000	24.483919
1673.000000	24.866285
1672.000000	25.164732
1671.000000	25.440149
1670.000000	25.664352
1669.000000	25.869942
1668.000000	26.033993
1667.000000	26.162500
1666.000000	26.288588
1665.000000	26.394380
1664.000000	26.476827
1663.000000	26.557064
1662.000000	26.628995
1661.000000	26.691355
1660.000000	26.748983
1659.000000	26.782950
1658.000000	26.808294
1657.000000	26.821755
1656.000000	26.846888
1655.000000	26.847730
1654.000000	26.838686
1653.000000	26.829432
1652.000000	26.815656
1651.000000	26.787262
1650.000000	26.764547
1649.000000	26.727320
1648.000000	26.710074
1647.000000	26.649501
1646.000000	26.605333
1645.000000	26.547285
1644.000000	26.487763
1643.000000	26.455058
1642.000000	26.377134
1641.000000	26.332651
1640.000000	26.277231
1639.000000	26.191525
1638.000000	26.142625
1637.000000	26.046613
1636.000000	25.979835
1635.000000	25.918421
1634.000000	25.828298
1633.000000	25.760469
1632.000000	25.669820
1631.000000	25.608932
1630.000000	25.530377
1629.000000	25.437625
1628.000000	25.347712
1627.000000	25.273573
1626.000000	25.183556
1625.000000	25.092486
1624.000000	25.002573
1623.000000	24.929276
1622.000000	24.847881
1621.000000	24.765435
1620.000000	24.677100
1619.000000	24.592130
1618.000000	24.514416
1617.000000	24.455736
1616.000000	24.370345
1615.000000	24.283797
1614.000000	24.215022
1613.000000	24.145721
1612.000000	24.064011
1611.000000	24.000073
1610.000000	23.934768
1609.000000	23.871881
1608.000000	23.792169
1607.000000	23.712878
1606.000000	23.654724
1605.000000	23.572908
1604.000000	23.517804
1603.000000	23.426209
1602.000000	23.379307
1601.000000	23.327147
1600.000000	23.251431
1599.000000	23.183918
1598.000000	23.114616
1597.000000	23.047734
1596.000000	22.980431
1595.000000	22.918491
1594.000000	22.874744
1593.000000	22.802498
1592.000000	22.745501
1591.000000	22.707959
1590.000000	22.669470
1589.000000	22.605216
1588.000000	22.556737
1587.000000	22.508468
1586.000000	22.476078
1585.000000	22.422762
1584.000000	22.382275
1583.000000	22.355669
1582.000000	22.304561
1581.000000	22.286052
1580.000000	22.259236
1579.000000	22.237468
1578.000000	22.202554
1577.000000	22.175528
1576.000000	22.161436
1575.000000	22.139458
1574.000000	22.150605
1573.000000	22.139563
1572.000000	22.138511
1571.000000	22.147134
1570.000000	22.138616
1569.000000	22.130519
1568.000000	22.131886
1567.000000	22.139247
1566.000000	22.145662
1565.000000	22.165012
1564.000000	22.173951
1563.000000	22.181838
1562.000000	22.192459
1561.000000	22.201713
1560.000000	22.212965
1559.000000	22.216961
1558.000000	22.223271
1557.000000	22.220116
1556.000000	22.207918
1555.000000	22.210441
1554.000000	22.200346
1553.000000	22.197507
1552.000000	22.174161
1551.000000	22.158071
1550.000000	22.143769
1549.000000	22.138196
1548.000000	22.131150
1547.000000	22.115902
1546.000000	22.099391
1545.000000	22.070577
1544.000000	22.053015
1543.000000	22.053120
1542.000000	22.030195
1541.000000	22.021257
1540.000000	22.008112
1539.000000	21.988867
1538.000000	21.980875
1537.000000	21.965732
1536.000000	21.956793
1535.000000	21.936602
1534.000000	21.913046
1533.000000	21.886230
1532.000000	21.849529
1531.000000	21.842062
1530.000000	21.834070
1529.000000	21.804309
1528.000000	21.767713
1527.000000	21.734062
1526.000000	21.704091
1525.000000	21.657504
1524.000000	21.625325
1523.000000	21.592410
1522.000000	21.547927
1521.000000	21.505442
1520.000000	21.460433
1519.000000	21.426571
1518.000000	21.382719
1517.000000	21.321725
1516.000000	21.276611
1515.000000	21.246114
1514.000000	21.205627
1513.000000	21.155465
1512.000000	21.103200
1511.000000	21.053144
1510.000000	21.007609
1509.000000	20.962600
1508.000000	20.921903
1507.000000	20.864800
1506.000000	20.801493
1505.000000	20.757431
1504.000000	20.714315
1503.000000	20.649115
1502.000000	20.589699
1501.000000	20.553944
1500.000000	20.516402
1499.000000	20.477702
1498.000000	20.436164
1497.000000	20.391365
1496.000000	20.351824
1495.000000	20.318909
1494.000000	20.281367
1493.000000	20.239512
1492.000000	20.212801
1491.000000	20.184829
1490.000000	20.157487
1489.000000	20.141713
1488.000000	20.113845
1487.000000	20.075671
1486.000000	20.059056
1485.000000	20.029926
1484.000000	20.006160
1483.000000	19.982499
1482.000000	19.969459
1481.000000	19.972193
1480.000000	19.961361
1479.000000	19.937805
1478.000000	19.923714
1477.000000	19.926869
1476.000000	19.938121
1475.000000	19.929813
1474.000000	19.924660
1473.000000	19.939593
1472.000000	19.949268
1471.000000	19.959574
1470.000000	19.972508
1469.000000	19.979870
1468.000000	19.973245
1467.000000	19.983761
1466.000000	20.001112
1465.000000	20.013942
1464.000000	20.051064
1463.000000	20.071465
1462.000000	20.095231
1461.000000	20.129935
1460.000000	20.165794
1459.000000	20.217849
1458.000000	20.258336
1457.000000	20.312810
1456.000000	20.377379
1455.000000	20.433535
1454.000000	20.500943
1453.000000	20.577395
1452.000000	20.642910
1451.000000	20.727565
1450.000000	20.826627
1449.000000	20.894456
1448.000000	20.973326
1447.000000	21.063239
1446.000000	21.155886
1445.000000	21.263887
1444.000000	21.360319
1443.000000	21.427938
1442.000000	21.528472
1441.000000	21.627639
1440.000000	21.746786
1439.000000	21.841957
1438.000000	21.949957
1437.000000	22.059640
1436.000000	22.156178
1435.000000	22.256397
1434.000000	22.362399
1433.000000	22.489118
1432.000000	22.620780
1431.000000	22.742662
1430.000000	22.856130
1429.000000	22.982219
1428.000000	23.135964
1427.000000	23.288132
1426.000000	23.455023
1425.000000	23.616971
1424.000000	23.810467
1423.000000	23.997339
1422.000000	24.198301
1421.000000	24.393060
1420.000000	24.594654
1419.000000	24.815807
1418.000000	25.064513
1417.000000	25.284826
1416.000000	25.471171
1415.000000	25.687487
1414.000000	25.959329
1413.000000	26.236113
1412.000000	26.493863
1411.000000	26.734471
1410.000000	26.991064
1409.000000	27.322742
1408.000000	27.677451
1407.000000	28.052665
1406.000000	28.413894
1405.000000	28.803831
1404.000000	29.219743
1403.000000	29.581602
1402.000000	30.007400
1401.000000	30.359374
1400.000000	30.813144
1399.000000	31.259342
1398.000000	31.602798
1397.000000	31.840988
1396.000000	32.119770
1395.000000	32.501715
1394.000000	32.858317
1393.000000	33.073581
1392.000000	33.348157
1391.000000	33.629358
1390.000000	33.938531
1389.000000	34.220468
1388.000000	34.572442
1387.000000	35.005916
1386.000000	35.432660
1385.000000	35.899154
1384.000000	36.412446
1383.000000	36.962123
1382.000000	37.574265
1381.000000	38.084612
1380.000000	38.538067
1379.000000	38.781199
1378.000000	39.088900
1377.000000	39.257684
1376.000000	39.432146
1375.000000	39.629849
1374.000000	39.851529
1373.000000	40.120531
1372.000000	40.453471
1371.000000	40.842567
1370.000000	41.238078
1369.000000	41.580587
1368.000000	41.885870
1367.000000	42.184843
1366.000000	42.470040
1365.000000	42.722847
1364.000000	42.950836
1363.000000	43.153587
1362.000000	43.348976
1361.000000	43.528276
1360.000000	43.699162
1359.000000	43.781293
1358.000000	43.826407
1357.000000	43.921999
1356.000000	44.063651
1355.000000	44.308045
1354.000000	44.649503
1353.000000	45.074144
1352.000000	45.468287
1351.000000	45.994408
1350.000000	46.507910
1349.000000	46.979557
1348.000000	47.404408
1347.000000	47.828838
1346.000000	48.203001
1345.000000	48.525951
1344.000000	48.877504
1343.000000	49.245884
1342.000000	49.575879
1341.000000	49.872959
1340.000000	50.194121
1339.000000	50.491306
1338.000000	50.796274
1337.000000	51.099663
1336.000000	51.384334
1335.000000	51.669531
1334.000000	51.920025
1333.000000	52.191761
1332.000000	52.445304
1331.000000	52.697691
1330.000000	52.945451
1329.000000	53.185008
1328.000000	53.401955
1327.000000	53.616063
1326.000000	53.824071
1325.000000	54.018094
1324.000000	54.199286
1323.000000	54.379006
1322.000000	54.541796
1321.000000	54.718361
1320.000000	54.885357
1319.000000	55.021856
1318.000000	55.174129
1317.000000	55.321250
1316.000000	55.485301
1315.000000	55.592145
1314.000000	55.715394
1313.000000	55.833700
1312.000000	55.947484
1311.000000	56.056746
1310.000000	56.144346
1309.000000	56.255816
1308.000000	56.337527
1307.000000	56.426388
1306.000000	56.493270
1305.000000	56.553002
1304.000000	56.613785
1303.000000	56.673726
1302.000000	56.715791
1301.000000	56.745236
1300.000000	56.778151
1299.000000	56.809805
1298.000000	56.835044
1297.000000	56.861965
1296.000000	56.876582
1295.000000	56.878580
1294.000000	56.893408
1293.000000	56.911075
1292.000000	56.913809
1291.000000	56.909708
1290.000000	56.895091
1289.000000	56.878580
1288.000000	56.852395
1287.000000	56.825369
1286.000000	56.794031
1285.000000	56.741766
1284.000000	56.709692
1283.000000	56.653325
1282.000000	56.588020
1281.000000	56.535545
1280.000000	56.486645
1279.000000	56.422286
1278.000000	56.360767
1277.000000	56.310185
1276.000000	56.255185
1275.000000	56.207232
1274.000000	56.147606
1273.000000	56.100914
1272.000000	56.060953
1271.000000	56.013525
1270.000000	55.973249
1269.000000	55.922982
1268.000000	55.881969
1267.000000	55.843585
1266.000000	55.793318
1265.000000	55.758615
1264.000000	55.707717
1263.000000	55.664706
1262.000000	55.610758
1261.000000	55.560807
1260.000000	55.513905
1259.000000	55.479202
1258.000000	55.430828
1257.000000	55.379825
1256.000000	55.312942
1255.000000	55.251002
1254.000000	55.187800
1253.000000	55.122601
1252.000000	55.064552
1251.000000	54.989782
1250.000000	54.906179
1249.000000	54.832882
1248.000000	54.741497
1247.000000	54.654844
1246.000000	54.570295
1245.000000	54.452935
1244.000000	54.329370
1243.000000	54.216007
1242.000000	54.094756
1241.000000	53.976029
1240.000000	53.830171
1239.000000	53.683366
1238.000000	53.550232
1237.000000	53.400167
1236.000000	53.246947
1235.000000	53.095621
1234.000000	52.948395
1233.000000	52.784659
1232.000000	52.609356
1231.000000	52.432685
1230.000000	52.254963
1229.000000	52.093015
1228.000000	51.908142
1227.000000	51.719062
1226.000000	51.542602
1225.000000	51.349105
1224.000000	51.157292
1223.000000	50.971998
1222.000000	50.772402
1221.000000	50.589842
1220.000000	50.408439
1219.000000	50.224828
1218.000000	50.057412
1217.000000	49.889995
1216.000000	49.732359
1215.000000	49.580717
1214.000000	49.428128
1213.000000	49.287212
1212.000000	49.140617
1211.000000	49.000964
1210.000000	48.890124
1209.000000	48.774131
1208.000000	48.652775
1207.000000	48.535941
1206.000000	48.442874
1205.000000	48.379567
1204.000000	48.308688
1203.000000	48.265362
1202.000000	48.228661
1201.000000	48.188910
1200.000000	48.148317
1199.000000	48.098261
1198.000000	48.033271
1197.000000	47.943253
1196.000000	47.816534
1195.000000	47.651537
1194.000000	47.426912
1193.000000	47.138561
1192.000000	46.800573
1191.000000	46.400435
1190.000000	45.965068
1189.000000	45.510562
1188.000000	45.116734
1187.000000	44.797254
1186.000000	44.599341
1185.000000	44.516264
1184.000000	44.545078
1183.000000	44.703451
1182.000000	45.020301
1181.000000	45.425592
1180.000000	45.893243
1179.000000	46.412108
1178.000000	46.917092
1177.000000	47.383376
1176.000000	47.784039
1175.000000	48.149054
1174.000000	48.481678
1173.000000	48.786435
1172.000000	49.090876
1171.000000	49.421398
1170.000000	49.755810
1169.000000	50.097478
1168.000000	50.442301
1167.000000	50.790490
1166.000000	51.131948
1165.000000	51.508950
1164.000000	51.874806
1163.000000	52.243080
1162.000000	52.617769
1161.000000	52.999293
1160.000000	53.382710
1159.000000	53.756243
1158.000000	54.115578
1157.000000	54.449780
1156.000000	54.788714
1155.000000	55.095890
1154.000000	55.341546
1153.000000	55.561122
1152.000000	55.728539
1151.000000	55.854942
1150.000000	55.936337
1149.000000	56.022148
1148.000000	56.079882
1147.000000	56.164116
1146.000000	56.272011
1145.000000	56.425126
1144.000000	56.633870
1143.000000	56.924115
1142.000000	57.222878
1141.000000	57.586525
1140.000000	57.963422
1139.000000	58.340425
1138.000000	58.725840
1137.000000	59.127345
1136.000000	59.555666
1135.000000	60.002285
1134.000000	60.435864
1133.000000	60.866289
1132.000000	61.222890
1131.000000	61.591374
1130.000000	61.913693
1129.000000	62.217714
1128.000000	62.472098
1127.000000	62.694093
1126.000000	62.890324
1125.000000	63.035972
1124.000000	63.145655
1123.000000	63.258703
1122.000000	63.352402
1121.000000	63.425594
1120.000000	63.486587
1119.000000	63.540430
1118.000000	63.598479
1117.000000	63.633813
1116.000000	63.661260
1115.000000	63.654004
1114.000000	63.655160
1113.000000	63.661155
1112.000000	63.661575
1111.000000	63.670093
1110.000000	63.663573
1109.000000	63.676193
1108.000000	63.646222
1107.000000	63.644224
1106.000000	63.653373
1105.000000	63.629186
1104.000000	63.644750
1103.000000	63.647273
1102.000000	63.619090
1101.000000	63.631184
1100.000000	63.606786
1099.000000	63.613937
1098.000000	63.586701
1097.000000	63.577762
1096.000000	63.568297
1095.000000	63.538957
1094.000000	63.516453
1093.000000	63.477859
1092.000000	63.448203
1091.000000	63.434217
1090.000000	63.402774
1089.000000	63.364495
1088.000000	63.323588
1087.000000	63.302766
1086.000000	63.268694
1085.000000	63.255548
1084.000000	63.209803
1083.000000	63.175310
1082.000000	63.157854
1081.000000	63.149441
1080.000000	63.112529
1079.000000	63.099174
1078.000000	63.065207
1077.000000	63.074146
1076.000000	63.062052
1075.000000	63.051220
1074.000000	63.049222
1073.000000	63.053534
1072.000000	63.038286
1071.000000	63.037865
1070.000000	63.042808
1069.000000	63.049327
1068.000000	63.061947
1067.000000	63.072778
1066.000000	63.068151
1065.000000	63.082979
1064.000000	63.082979
1063.000000	63.074882
1062.000000	63.062683
1061.000000	63.039127
1060.000000	63.032081
1059.000000	63.018305
1058.000000	63.000007
1057.000000	62.990227
1056.000000	62.958468
1055.000000	62.953841
1054.000000	62.923134
1053.000000	62.913459
1052.000000	62.886328
1051.000000	62.888326
1050.000000	62.877389
1049.000000	62.862772
1048.000000	62.862561
1047.000000	62.882121
1046.000000	62.855305
1045.000000	62.863087
1044.000000	62.854779
1043.000000	62.858039
1042.000000	62.849101
1041.000000	62.835745
1040.000000	62.853412
1039.000000	62.856147
1038.000000	62.824914
1037.000000	62.826912
1036.000000	62.821759
1035.000000	62.792524
1034.000000	62.770020
1033.000000	62.750565
1032.000000	62.731110
1031.000000	62.706082
1030.000000	62.694935
1029.000000	62.674323
1028.000000	62.649295
1027.000000	62.625949
1026.000000	62.620691
1025.000000	62.641513
1024.000000	62.644247
1023.000000	62.649926
1022.000000	62.661178
1021.000000	62.694199
1020.000000	62.720278
1019.000000	62.771387
1018.000000	62.816185
1017.000000	62.858670
1016.000000	62.919454
1015.000000	62.955208
1014.000000	63.022722
1013.000000	63.088342
1012.000000	63.123887
1011.000000	63.200865
1010.000000	63.257021
1009.000000	63.347775
1008.000000	63.420020
1007.000000	63.489532
1006.000000	63.560516
1005.000000	63.653373
1004.000000	63.736765
1003.000000	63.822577
1002.000000	63.910702
1001.000000	64.001666
1000.000000	64.094313
999.000000	64.197792
998.000000	64.311681
997.000000	64.417999
996.000000	64.518743
995.000000	64.640625
994.000000	64.775757
993.000000	64.897954
992.000000	65.011528
991.000000	65.120580
990.000000	65.242252
989.000000	65.363187
988.000000	65.463616
987.000000	65.584341
986.000000	65.696758
985.000000	65.786460
984.000000	65.901401
983.000000	66.010558
982.000000	66.116561
981.000000	66.211942
980.000000	66.319942
979.000000	66.438985
978.000000	66.541832
977.000000	66.651726
976.000000	66.765194
975.000000	66.891493
974.000000	67.016845
973.000000	67.123689
972.000000	67.244834
971.000000	67.369345
970.000000	67.492383
969.000000	67.617630
968.000000	67.731204
967.000000	67.859921
966.000000	67.992529
965.000000	68.109363
964.000000	68.213788
963.000000	68.324733
962.000000	68.454607
961.000000	68.594156
960.000000	68.735703
959.000000	68.869888
958.000000	68.991034
957.000000	69.139101
956.000000	69.292531
955.000000	69.426506
954.000000	69.549860
953.000000	69.674791
952.000000	69.834005
951.000000	69.981125
950.000000	70.104269
949.000000	70.251389
948.000000	70.390202
947.000000	70.521128
946.000000	70.682550
945.000000	70.825148
944.000000	70.935988
943.000000	71.068596
942.000000	71.216558
941.000000	71.345275
940.000000	71.463897
939.000000	71.596400
938.000000	71.746570
937.000000	71.871080
936.000000	71.967723
935.000000	72.082139
934.000000	72.206334
933.000000	72.356189
932.000000	72.475231
931.000000	72.570402
930.000000	72.661681
929.000000	72.764529
928.000000	72.861593
927.000000	72.942777
926.000000	73.027011
925.000000	73.121025
924.000000	73.189695
923.000000	73.229656
922.000000	73.293700
921.000000	73.342389
920.000000	73.392236
919.000000	73.453965
918.000000	73.524213
917.000000	73.571430
916.000000	73.594040
915.000000	73.634527
914.000000	73.679430
913.000000	73.710979
912.000000	73.755357
911.000000	73.811408
910.000000	73.859256
909.000000	73.922773
908.000000	73.997648
907.000000	74.072628
906.000000	74.143086
905.000000	74.235417
904.000000	74.329010
903.000000	74.440586
902.000000	74.553109
901.000000	74.674044
900.000000	74.812120
899.000000	74.952511
898.000000	75.105835
897.000000	75.254218
896.000000	75.423317
895.000000	75.574433
894.000000	75.716190
893.000000	75.870462
892.000000	76.044924
891.000000	76.207503
890.000000	76.364719
889.000000	76.536447
888.000000	76.696817
887.000000	76.863603
886.000000	77.039853
885.000000	77.213684
884.000000	77.361330
883.000000	77.543364
882.000000	77.706364
881.000000	77.863474
880.000000	78.008492
879.000000	78.174015
878.000000	78.346059
877.000000	78.491391
876.000000	78.636514
875.000000	78.733262
874.000000	78.801406
873.000000	78.900468
872.000000	78.959463
871.000000	78.971241
870.000000	78.995218
869.000000	79.139289
868.000000	79.372010
867.000000	79.592112
866.000000	79.850283
865.000000	80.105929
864.000000	80.362838
863.000000	80.630578
862.000000	80.890010
861.000000	81.165848
860.000000	81.465347
859.000000	81.733613
858.000000	82.037633
857.000000	81.453100
856.000000	82.305100
855.000000	82.354700
854.000000	83.090800
853.000000	84.030900
852.000000	84.056400
851.000000	84.140200
850.000000	83.983700
849.000000	84.995700
848.000000	84.564300
847.000000	85.413000
846.000000	85.672000
845.000000	86.370600
844.000000	86.261300
843.000000	86.426900
842.000000	86.894600
841.000000	87.256400
840.000000	87.073800
839.000000	87.337000
838.000000	87.787700
837.000000	88.016300
836.000000	87.978300
835.000000	88.316600
834.000000	88.721600
833.000000	88.857800
832.000000	89.018100
831.000000	89.010900
830.000000	89.327000
829.000000	89.746200
828.000000	89.800300
827.000000	89.539200
826.000000	89.622100
825.000000	90.157200
824.000000	90.491400
823.000000	90.359100
822.000000	90.493000
821.000000	90.601800
820.000000	90.524900
819.000000	90.707700
818.000000	90.583400
817.000000	91.158400
816.000000	91.098400
815.000000	91.138500
814.000000	91.399300
813.000000	91.316400
812.000000	91.210900
811.000000	91.603900
810.000000	91.445800
809.000000	91.905200
808.000000	91.792200
807.000000	91.901900
806.000000	91.898400
805.000000	91.941600
804.000000	92.064600
803.000000	92.136100
802.000000	92.051700
801.000000	92.103700
800.000000	92.234800
799.000000	91.853100
798.000000	92.008700
797.000000	92.173700
796.000000	92.026900
795.000000	91.889300
794.000000	91.782900
793.000000	91.818200
792.000000	91.994500
791.000000	91.927700
790.000000	91.874500
789.000000	91.807300
788.000000	91.663100
787.000000	91.653400
786.000000	91.464000
785.000000	91.440900
784.000000	91.470800
783.000000	91.395100
782.000000	91.364800
781.000000	91.327700
780.000000	91.162300
779.000000	91.083000
778.000000	91.028800
777.000000	90.744800
776.000000	90.626000
775.000000	90.585000
774.000000	90.565500
773.000000	90.413200
772.000000	90.195600
771.000000	89.987500
770.000000	89.842500
769.000000	89.814600
768.000000	89.582100
767.000000	89.476000
766.000000	89.198100
765.000000	89.282900
764.000000	89.084900
763.000000	88.816200
762.000000	88.567500
761.000000	88.706900
760.000000	88.390200
759.000000	88.070700
758.000000	88.001900
757.000000	87.855400
756.000000	87.613500
755.000000	87.415900
754.000000	87.231700
753.000000	86.988500
752.000000	86.870000
751.000000	86.576800
750.000000	86.273100
749.000000	85.924800
748.000000	85.853100
747.000000	85.519200
746.000000	85.207200
745.000000	84.910900
744.000000	84.721400
743.000000	84.267800
742.000000	83.941800
741.000000	83.582500
740.000000	83.399500
739.000000	83.082700
738.000000	82.734200
737.000000	82.469500
736.000000	82.113000
735.000000	81.706400
734.000000	81.465100
733.000000	81.113900
732.000000	80.789000
731.000000	80.423400
730.000000	79.990600
729.000000	79.640400
728.000000	79.314600
727.000000	78.900200
726.000000	78.465700
725.000000	78.143700
724.000000	77.661600
723.000000	77.287600
722.000000	76.820200
721.000000	76.386600
720.000000	76.025500
719.000000	75.564800
718.000000	75.043900
717.000000	74.593800
716.000000	74.141000
715.000000	73.682700
714.000000	73.168000
713.000000	72.586800
712.000000	72.101800
711.000000	71.496100
710.000000	70.892900
709.000000	70.230400
708.000000	69.578300
707.000000	68.872800
706.000000	68.064700
705.000000	67.281700
704.000000	66.423600
703.000000	65.472900
702.000000	64.535700
701.000000	63.604600
700.000000	62.691700
699.000000	61.813300
698.000000	60.862100
697.000000	60.011200
696.000000	59.205700
695.000000	58.481000
694.000000	57.829800
693.000000	57.224000
692.000000	56.687300
691.000000	56.209300
690.000000	55.812700
689.000000	55.497500
688.000000	55.276700
687.000000	55.115600
686.000000	55.024000
685.000000	55.000200
684.000000	54.966000
683.000000	54.958300
682.000000	55.055300
681.000000	55.204900
680.000000	55.353500
679.000000	55.545100
678.000000	55.745900
677.000000	56.066800
676.000000	56.417200
675.000000	56.835300
674.000000	57.333600
673.000000	57.887900
672.000000	58.461600
671.000000	59.099500
670.000000	59.876400
669.000000	60.696400
668.000000	61.536300
667.000000	62.403200
666.000000	63.264700
665.000000	64.196800
664.000000	65.152800
663.000000	66.121000
662.000000	67.052500
661.000000	67.920100
660.000000	68.709500
659.000000	69.439500
658.000000	70.123600
657.000000	70.702400
656.000000	71.223800
655.000000	71.770000
654.000000	72.276300
653.000000	72.735600
652.000000	73.131300
651.000000	73.575500
650.000000	74.085800
649.000000	74.605200
648.000000	75.128300
647.000000	75.690700
646.000000	76.296600
645.000000	76.978300
644.000000	77.721900
643.000000	78.483200
642.000000	79.257600
641.000000	79.997000
640.000000	80.676800
639.000000	81.329300
638.000000	81.984300
637.000000	82.579100
636.000000	83.110400
635.000000	83.615700
634.000000	84.086100
633.000000	84.506200
632.000000	84.870500
631.000000	85.225300
630.000000	85.567300
629.000000	85.904300
628.000000	86.182100
627.000000	86.446300
626.000000	86.707300
625.000000	87.032000
624.000000	87.380200
623.000000	87.664200
622.000000	87.953500
621.000000	88.236500
620.000000	88.570700
619.000000	88.846000
618.000000	89.106100
617.000000	89.375900
616.000000	89.576600
615.000000	89.788700
614.000000	89.968100
613.000000	90.147700
612.000000	90.283800
611.000000	90.396400
610.000000	90.485200
609.000000	90.503400
608.000000	90.543900
607.000000	90.573500
606.000000	90.545900
605.000000	90.554600
604.000000	90.460500
603.000000	90.372500
602.000000	90.299400
601.000000	90.214100
600.000000	90.158200
599.000000	90.060800
598.000000	89.878000
597.000000	89.713900
596.000000	89.580700
595.000000	89.390700
594.000000	89.218500
593.000000	89.032800
592.000000	88.855300
591.000000	88.613200
590.000000	88.409600
589.000000	88.175800
588.000000	87.927500
587.000000	87.693100
586.000000	87.435000
585.000000	87.126000
584.000000	86.845000
583.000000	86.519700
582.000000	86.183500
581.000000	85.826700
580.000000	85.434300
579.000000	85.062000
578.000000	84.671200
577.000000	84.252000
576.000000	83.817800
575.000000	83.312500
574.000000	82.825900
573.000000	82.346600
572.000000	81.761600
571.000000	81.166500
570.000000	80.549800
569.000000	79.911300
568.000000	79.186200
567.000000	78.465600
566.000000	77.731700
565.000000	76.906800
564.000000	76.079100
563.000000	75.173400
562.000000	74.266200
561.000000	73.262700
560.000000	72.258300
559.000000	71.089600
558.000000	69.965000
557.000000	68.786800
556.000000	67.607100
555.000000	66.342400
554.000000	65.034400
553.000000	63.730800
552.000000	62.329900
551.000000	60.904500
550.000000	59.547200
549.000000	58.178500
548.000000	56.821100
547.000000	55.517600
546.000000	54.240300
545.000000	53.030300
544.000000	51.856100
543.000000	50.753300
542.000000	49.698100
541.000000	48.727300
540.000000	47.845800
539.000000	47.022200
538.000000	46.227700
537.000000	45.528900
536.000000	44.885600
535.000000	44.286100
534.000000	43.745100
533.000000	43.259200
532.000000	42.786000
531.000000	42.347800
530.000000	41.922300
529.000000	41.499500
528.000000	41.094000
527.000000	40.733700
526.000000	40.361500
525.000000	39.985600
524.000000	39.604000
523.000000	39.248500
522.000000	38.775500
521.000000	38.348200
520.000000	37.869500
519.000000	37.383500
518.000000	36.878500
517.000000	36.311500
516.000000	35.776400
515.000000	35.177500
514.000000	34.506800
513.000000	33.828000
512.000000	33.131000
511.000000	32.381700
510.000000	31.629100
509.000000	30.867200
508.000000	30.132700
507.000000	29.381800
506.000000	28.661200
505.000000	27.930300
504.000000	27.240500
503.000000	26.604100
502.000000	26.028700
501.000000	25.528800
500.000000	25.127100
499.000000	24.770800
498.000000	24.511700
497.000000	24.328500
496.000000	24.226200
495.000000	24.195600
494.000000	24.234800
493.000000	24.356200
492.000000	24.511200
491.000000	24.717400
490.000000	24.973300
489.000000	25.245300
488.000000	25.506300
487.000000	25.822500
486.000000	26.158000
485.000000	26.445900
484.000000	26.750600
483.000000	27.023300
482.000000	27.270500
481.000000	27.452500
480.000000	27.676900
479.000000	27.822500
478.000000	28.008900
477.000000	28.162600
476.000000	28.260700
475.000000	28.340900
474.000000	28.397100
473.000000	28.459400
472.000000	28.489900
471.000000	28.502400
470.000000	28.503500
469.000000	28.486800
468.000000	28.414100
467.000000	28.364700
466.000000	28.327500
465.000000	28.239700
464.000000	28.164100
463.000000	28.083700
462.000000	27.943400
461.000000	27.794000
460.000000	27.692900
459.000000	27.566000
458.000000	27.430900
457.000000	27.274500
456.000000	27.065400
455.000000	26.837300
454.000000	26.663900
453.000000	26.453600
452.000000	26.241400
451.000000	26.025100
450.000000	25.746800
449.000000	25.499200
448.000000	25.217400
447.000000	24.954000
446.000000	24.653100
445.000000	24.327700
444.000000	23.994300
443.000000	23.619300
442.000000	23.282800
441.000000	22.913600
440.000000	22.510600
439.000000	22.117500
438.000000	21.670000
437.000000	21.259200
436.000000	20.824000
435.000000	20.413000
434.000000	19.958300
433.000000	19.498100
432.000000	19.000000
431.000000	18.560100
430.000000	18.073900
429.000000	17.593500
428.000000	17.127400
427.000000	16.616700
426.000000	16.178400
425.000000	15.703900
424.000000	15.211300
423.000000	14.733900
422.000000	14.257000
421.000000	13.800200
420.000000	13.345800
419.000000	12.927100
418.000000	12.508400
417.000000	12.087700
416.000000	11.689400
415.000000	11.311700
414.000000	10.936300
413.000000	10.604900
412.000000	10.284700
411.000000	9.981300
410.000000	9.686800
409.000000	9.392500
408.000000	9.148100
407.000000	8.937300
406.000000	8.713100
405.000000	8.516200
404.000000	8.329100
403.000000	8.147800
402.000000	8.003700
401.000000	7.852100
400.000000	7.734800
399.000000	7.606900
398.000000	7.487500
397.000000	7.382600
396.000000	7.294900
395.000000	7.203400
394.000000	7.117800
393.000000	7.030000
392.000000	6.979700
391.000000	6.907800
390.000000	6.841900
389.000000	6.781100
388.000000	6.706700
387.000000	6.675100
386.000000	6.632100
385.000000	6.571700
384.000000	6.520400
383.000000	6.464200
382.000000	6.439900
381.000000	6.411800
380.000000	6.369100
379.000000	6.349400
378.000000	6.304600
377.000000	6.255700
376.000000	6.233800
375.000000	6.274200
374.000000	6.300000
373.000000	6.245600
372.000000	6.205900
371.000000	6.200800
370.000000	6.215500
369.000000	6.092900
368.000000	6.014100
367.000000	6.057900
366.000000	6.040800
365.000000	6.041100
364.000000	6.035300
363.000000	5.996800
362.000000	5.926200
361.000000	5.911300
360.000000	5.889500
359.000000	5.870400
358.000000	5.858300
357.000000	5.854400
356.000000	5.741200
355.000000	5.743200
354.000000	5.807900
353.000000	5.730000
352.000000	5.689200
351.000000	5.658200
350.000000	5.629300
349.000000	5.668600
348.000000	5.673500
347.000000	5.713300
346.000000	5.656800
345.000000	5.642400
344.000000	5.634600
343.000000	5.498800
342.000000	5.534800
341.000000	5.558400
340.000000	5.524800
339.000000	5.559400
338.000000	5.543700
337.000000	5.541000
336.000000	5.595100
335.000000	5.549300
334.000000	5.539100
333.000000	5.542700
332.000000	5.538800
331.000000	5.546000
330.000000	5.503100
329.000000	5.487100
328.000000	5.505800
327.000000	5.559400
326.000000	5.555600
325.000000	5.526900
324.000000	5.499200
323.000000	5.545500
322.000000	5.600400
321.000000	5.591700
320.000000	5.524100
319.000000	5.564300
318.000000	5.716400
317.000000	5.694900
316.000000	5.546000
315.000000	5.497800
314.000000	5.491600
313.000000	5.498800
312.000000	5.517000
311.000000	5.520700
310.000000	5.516100
309.000000	5.515500
308.000000	5.503300
307.000000	5.501800
306.000000	5.529900
305.000000	5.549700
304.000000	5.548600
303.000000	5.544300
302.000000	5.565300
301.000000	5.575900
300.000000	5.563200
299.000000	5.582500
298.000000	5.587500
297.000000	5.591300
296.000000	5.600400
295.000000	5.569700
294.000000	5.600100
293.000000	5.630200
292.000000	5.580700
291.000000	5.584100
290.000000	5.634500
289.000000	5.650900
288.000000	5.629800
287.000000	5.635200
286.000000	5.651600
285.000000	5.656500
284.000000	5.677000
283.000000	5.660600
282.000000	5.700800
281.000000	5.741500
280.000000	5.727900
279.000000	5.751800
278.000000	5.758700
277.000000	5.775800
276.000000	5.799600
275.000000	5.785300
274.000000	5.788100
273.000000	5.778300
272.000000	5.797100
271.000000	5.851900
270.000000	5.839500
269.000000	5.875000
268.000000	5.890100
267.000000	5.898800
266.000000	5.916500
265.000000	5.940700
264.000000	5.999900
263.000000	5.990600
262.000000	6.007200
261.000000	6.044900
260.000000	6.086600
259.000000	6.044800
258.000000	6.082500
257.000000	6.116900
256.000000	6.130100
255.000000	6.129800
254.000000	6.153500
253.000000	6.163300
252.000000	6.161500
251.000000	6.191000
250.000000	6.178700
