PE UV       SUBTECH     SPECTRUM    ASCII       PEDS        4.00        
   -1
CICIMAUCR0247-3.Sample.ASC
24/06/24
17:27:09.00
24/06/24
17:27:09.00
Vinicio Soto Monge
C. resplendens. Sex M.Dorsal. 
250,000000
1
Lambda 1050
1050L1511233
PerkinElmer UV WinLab 6.3.2.0749 / 2.02.05 Lambda 900 UV/VIS/NIR, Aug  7 2015 09:38:08

0
0
3350/servo 860,8/2
0
0
UV/VIS
1
1
1
DoubleDePol,CommonBeamDepol,RBeamAtt,SBeamAtt,60mm sphere, WB InGaAs Detector
0
0
0
0
Program
Program
3350/servo 860,8/2
3350/0,2 860,8/0,2
3350/0,2 860,8/0,2
0
15.00
 
 
 
0
 
860,8
319,2
860,8
Front
100
on
S:100 R:100
0
0
0
0
 
0
 
 
 
0
 
 
0
0
0
0
0
 
 
 
 
0
0


0
0
#HDR
-1
-1
#GR
nm
%R
1.0
0.0
2500,000000
-1,000000
2251
8
89,189200
5,680200
#DATA
2482.000000	11.343362
2481.000000	11.342744
2480.000000	11.338828
2479.000000	11.386022
2478.000000	11.390969
2477.000000	11.396533
2476.000000	11.358819
2475.000000	11.411165
2474.000000	11.390041
2473.000000	11.446716
2472.000000	11.490407
2471.000000	11.481133
2470.000000	11.508749
2469.000000	11.566144
2468.000000	11.559447
2467.000000	11.572842
2466.000000	11.591803
2465.000000	11.644871
2464.000000	11.683512
2463.000000	11.712468
2462.000000	11.736271
2461.000000	11.788824
2460.000000	11.811185
2459.000000	11.892487
2458.000000	11.948337
2457.000000	12.012122
2456.000000	12.080853
2455.000000	12.114033
2454.000000	12.171223
2453.000000	12.240572
2452.000000	12.334755
2451.000000	12.373809
2450.000000	12.484066
2449.000000	12.535383
2448.000000	12.607823
2447.000000	12.685416
2446.000000	12.761050
2445.000000	12.855233
2444.000000	12.927055
2443.000000	13.018044
2442.000000	13.074512
2441.000000	13.161894
2440.000000	13.250822
2439.000000	13.347065
2438.000000	13.438157
2437.000000	13.515234
2436.000000	13.563047
2435.000000	13.659806
2434.000000	13.745848
2433.000000	13.812106
2432.000000	13.867750
2431.000000	13.939675
2430.000000	14.009849
2429.000000	14.075694
2428.000000	14.146589
2427.000000	14.219544
2426.000000	14.278177
2425.000000	14.337324
2424.000000	14.406777
2423.000000	14.486018
2422.000000	14.537849
2421.000000	14.591742
2420.000000	14.644398
2419.000000	14.688913
2418.000000	14.760735
2417.000000	14.794431
2416.000000	14.839461
2415.000000	14.901185
2414.000000	14.949925
2413.000000	14.986815
2412.000000	15.035555
2411.000000	15.072651
2410.000000	15.112736
2409.000000	15.162094
2408.000000	15.191874
2407.000000	15.220417
2406.000000	15.275546
2405.000000	15.315837
2404.000000	15.356127
2403.000000	15.394357
2402.000000	15.426506
2401.000000	15.458450
2400.000000	15.488436
2399.000000	15.517701
2398.000000	15.533055
2397.000000	15.562525
2396.000000	15.573551
2395.000000	15.585401
2394.000000	15.619303
2393.000000	15.651762
2392.000000	15.681336
2391.000000	15.701430
2390.000000	15.709982
2389.000000	15.727500
2388.000000	15.739350
2387.000000	15.760474
2386.000000	15.780465
2385.000000	15.791800
2384.000000	15.812409
2383.000000	15.803032
2382.000000	15.793655
2381.000000	15.804680
2380.000000	15.801383
2379.000000	15.806535
2378.000000	15.807360
2377.000000	15.794067
2376.000000	15.793345
2375.000000	15.791697
2374.000000	15.785308
2373.000000	15.772221
2372.000000	15.769954
2371.000000	15.762947
2370.000000	15.738835
2369.000000	15.731931
2368.000000	15.729046
2367.000000	15.710085
2366.000000	15.700502
2365.000000	15.696277
2364.000000	15.667528
2363.000000	15.642385
2362.000000	15.637748
2361.000000	15.623219
2360.000000	15.585607
2359.000000	15.557476
2358.000000	15.548099
2357.000000	15.518731
2356.000000	15.482460
2355.000000	15.472155
2354.000000	15.465354
2353.000000	15.431659
2352.000000	15.423930
2351.000000	15.436193
2350.000000	15.433926
2349.000000	15.423930
2348.000000	15.425064
2347.000000	15.418984
2346.000000	15.430319
2345.000000	15.453813
2344.000000	15.471743
2343.000000	15.483181
2342.000000	15.495649
2341.000000	15.512240
2340.000000	15.532127
2339.000000	15.555415
2338.000000	15.564895
2337.000000	15.580764
2336.000000	15.612914
2335.000000	15.614357
2334.000000	15.612296
2333.000000	15.617860
2332.000000	15.625898
2331.000000	15.635790
2330.000000	15.609411
2329.000000	15.590038
2328.000000	15.603331
2327.000000	15.593439
2326.000000	15.563659
2325.000000	15.535734
2324.000000	15.493073
2323.000000	15.460614
2322.000000	15.436399
2321.000000	15.400642
2320.000000	15.350666
2319.000000	15.307387
2318.000000	15.250197
2317.000000	15.182085
2316.000000	15.096764
2315.000000	15.038131
2314.000000	14.969091
2313.000000	14.894281
2312.000000	14.812773
2311.000000	14.744866
2310.000000	14.680772
2309.000000	14.617297
2308.000000	14.572060
2307.000000	14.494777
2306.000000	14.465821
2305.000000	14.443048
2304.000000	14.415020
2303.000000	14.421512
2302.000000	14.436144
2301.000000	14.434908
2300.000000	14.455620
2299.000000	14.510130
2298.000000	14.540529
2297.000000	14.580098
2296.000000	14.654393
2295.000000	14.699423
2294.000000	14.736210
2293.000000	14.811536
2292.000000	14.863058
2291.000000	14.922000
2290.000000	14.969194
2289.000000	15.005981
2288.000000	15.028342
2287.000000	15.052557
2286.000000	15.089035
2285.000000	15.093672
2284.000000	15.109129
2283.000000	15.119743
2282.000000	15.100267
2281.000000	15.090066
2280.000000	15.075433
2279.000000	15.045241
2278.000000	15.027827
2277.000000	15.012164
2276.000000	14.965588
2275.000000	14.967958
2274.000000	14.932923
2273.000000	14.893766
2272.000000	14.877278
2271.000000	14.868417
2270.000000	14.878721
2269.000000	14.895208
2268.000000	14.905410
2267.000000	14.965279
2266.000000	15.012576
2265.000000	15.072033
2264.000000	15.139939
2263.000000	15.247106
2262.000000	15.371481
2261.000000	15.506984
2260.000000	15.666394
2259.000000	15.814160
2258.000000	15.984184
2257.000000	16.158948
2256.000000	16.351538
2255.000000	16.552475
2254.000000	16.724972
2253.000000	16.916223
2252.000000	17.128907
2251.000000	17.330050
2250.000000	17.507390
2249.000000	17.681845
2248.000000	17.845377
2247.000000	18.021995
2246.000000	18.164403
2245.000000	18.301555
2244.000000	18.427476
2243.000000	18.540413
2242.000000	18.660872
2241.000000	18.768657
2240.000000	18.839655
2239.000000	18.921369
2238.000000	18.986081
2237.000000	19.054606
2236.000000	19.111383
2235.000000	19.164554
2234.000000	19.213089
2233.000000	19.242765
2232.000000	19.270381
2231.000000	19.265744
2230.000000	19.281407
2229.000000	19.300264
2228.000000	19.300264
2227.000000	19.269969
2226.000000	19.257501
2225.000000	19.249051
2224.000000	19.193510
2223.000000	19.167543
2222.000000	19.145491
2221.000000	19.066353
2220.000000	19.014315
2219.000000	18.981856
2218.000000	18.921678
2217.000000	18.871083
2216.000000	18.828320
2215.000000	18.761650
2214.000000	18.692816
2213.000000	18.643252
2212.000000	18.608422
2211.000000	18.545359
2210.000000	18.496413
2209.000000	18.459317
2208.000000	18.395429
2207.000000	18.389968
2206.000000	18.343598
2205.000000	18.310314
2204.000000	18.275279
2203.000000	18.265284
2202.000000	18.219738
2201.000000	18.192843
2200.000000	18.158942
2199.000000	18.133696
2198.000000	18.100618
2197.000000	18.069808
2196.000000	18.079391
2195.000000	18.053527
2194.000000	18.023953
2193.000000	18.017564
2192.000000	17.986033
2191.000000	17.971606
2190.000000	17.959756
2189.000000	17.937499
2188.000000	17.917405
2187.000000	17.915756
2186.000000	17.889789
2185.000000	17.873817
2184.000000	17.867737
2183.000000	17.837751
2182.000000	17.827653
2181.000000	17.792721
2180.000000	17.779634
2179.000000	17.765929
2178.000000	17.749133
2177.000000	17.720487
2176.000000	17.716777
2175.000000	17.706782
2174.000000	17.702454
2173.000000	17.701939
2172.000000	17.691325
2171.000000	17.706679
2170.000000	17.712449
2169.000000	17.725845
2168.000000	17.735222
2167.000000	17.733161
2166.000000	17.770051
2165.000000	17.788908
2164.000000	17.806220
2163.000000	17.843934
2162.000000	17.870417
2161.000000	17.906173
2160.000000	17.923794
2159.000000	17.963363
2158.000000	17.998913
2157.000000	18.072487
2156.000000	18.099794
2155.000000	18.166670
2154.000000	18.216234
2153.000000	18.285893
2152.000000	18.331541
2151.000000	18.380488
2150.000000	18.452104
2149.000000	18.507027
2148.000000	18.573902
2147.000000	18.641706
2146.000000	18.690446
2145.000000	18.756292
2144.000000	18.806680
2143.000000	18.863664
2142.000000	18.926109
2141.000000	18.967018
2140.000000	19.009781
2139.000000	19.076657
2138.000000	19.131683
2137.000000	19.177435
2136.000000	19.233388
2135.000000	19.272545
2134.000000	19.292536
2133.000000	19.340246
2132.000000	19.375693
2131.000000	19.399187
2130.000000	19.423197
2129.000000	19.446794
2128.000000	19.454110
2127.000000	19.466991
2126.000000	19.479047
2125.000000	19.496049
2124.000000	19.492649
2123.000000	19.501201
2122.000000	19.524386
2121.000000	19.523768
2120.000000	19.502644
2119.000000	19.500686
2118.000000	19.496873
2117.000000	19.486260
2116.000000	19.469773
2115.000000	19.436386
2114.000000	19.417426
2113.000000	19.411037
2112.000000	19.390222
2111.000000	19.355805
2110.000000	19.334063
2109.000000	19.313969
2108.000000	19.281613
2107.000000	19.249772
2106.000000	19.232152
2105.000000	19.198662
2104.000000	19.162700
2103.000000	19.146213
2102.000000	19.139721
2101.000000	19.093866
2100.000000	19.045126
2099.000000	19.025650
2098.000000	19.005350
2097.000000	18.988451
2096.000000	18.962587
2095.000000	18.938371
2094.000000	18.917453
2093.000000	18.888704
2092.000000	18.868301
2091.000000	18.860367
2090.000000	18.843364
2089.000000	18.819973
2088.000000	18.802971
2087.000000	18.783598
2086.000000	18.758249
2085.000000	18.726099
2084.000000	18.697762
2083.000000	18.673959
2082.000000	18.641912
2081.000000	18.596881
2080.000000	18.539795
2079.000000	18.487963
2078.000000	18.443345
2077.000000	18.401097
2076.000000	18.349574
2075.000000	18.281977
2074.000000	18.208300
2073.000000	18.133902
2072.000000	18.060534
2071.000000	17.984796
2070.000000	17.910398
2069.000000	17.835691
2068.000000	17.760880
2067.000000	17.683597
2066.000000	17.598585
2065.000000	17.509760
2064.000000	17.423100
2063.000000	17.345095
2062.000000	17.268842
2061.000000	17.184964
2060.000000	17.126125
2059.000000	17.076458
2058.000000	17.008654
2057.000000	16.956617
2056.000000	16.915605
2055.000000	16.882837
2054.000000	16.859136
2053.000000	16.841310
2052.000000	16.837291
2051.000000	16.857797
2050.000000	16.883043
2049.000000	16.914884
2048.000000	16.964963
2047.000000	17.028336
2046.000000	17.078312
2045.000000	17.123240
2044.000000	17.205366
2043.000000	17.289142
2042.000000	17.353854
2041.000000	17.425161
2040.000000	17.494613
2039.000000	17.556749
2038.000000	17.637227
2037.000000	17.699775
2036.000000	17.750782
2035.000000	17.800037
2034.000000	17.827653
2033.000000	17.875157
2032.000000	17.916065
2031.000000	17.946670
2030.000000	17.990361
2029.000000	18.010351
2028.000000	18.026632
2027.000000	18.040440
2026.000000	18.055691
2025.000000	18.080628
2024.000000	18.084337
2023.000000	18.095466
2022.000000	18.092478
2021.000000	18.087120
2020.000000	18.078361
2019.000000	18.071148
2018.000000	18.051569
2017.000000	18.050745
2016.000000	18.034567
2015.000000	18.012618
2014.000000	17.973770
2013.000000	17.967382
2012.000000	17.934098
2011.000000	17.894117
2010.000000	17.857845
2009.000000	17.808693
2008.000000	17.764487
2007.000000	17.721620
2006.000000	17.672365
2005.000000	17.626304
2004.000000	17.565404
2003.000000	17.502135
2002.000000	17.449685
2001.000000	17.380645
2000.000000	17.316345
1999.000000	17.243390
1998.000000	17.159305
1997.000000	17.076664
1996.000000	17.017104
1995.000000	16.930649
1994.000000	16.852026
1993.000000	16.766087
1992.000000	16.684063
1991.000000	16.578546
1990.000000	16.510124
1989.000000	16.415632
1988.000000	16.320522
1987.000000	16.228915
1986.000000	16.140915
1985.000000	16.066208
1984.000000	15.941112
1983.000000	15.839613
1982.000000	15.747388
1981.000000	15.664746
1980.000000	15.577879
1979.000000	15.477308
1978.000000	15.395181
1977.000000	15.291518
1976.000000	15.198366
1975.000000	15.114487
1974.000000	15.028548
1973.000000	14.925297
1972.000000	14.840801
1971.000000	14.759911
1970.000000	14.673147
1969.000000	14.569793
1968.000000	14.513634
1967.000000	14.433671
1966.000000	14.351854
1965.000000	14.229334
1964.000000	14.183582
1963.000000	14.116191
1962.000000	14.019638
1961.000000	13.934729
1960.000000	13.876200
1959.000000	13.789436
1958.000000	13.718129
1957.000000	13.645483
1956.000000	13.586438
1955.000000	13.512452
1954.000000	13.437435
1953.000000	13.377773
1952.000000	13.295646
1951.000000	13.236808
1950.000000	13.183636
1949.000000	13.110578
1948.000000	13.038344
1947.000000	13.000526
1946.000000	12.963121
1945.000000	12.922109
1944.000000	12.867392
1943.000000	12.836582
1942.000000	12.790830
1941.000000	12.764039
1940.000000	12.775683
1939.000000	12.746109
1938.000000	12.743636
1937.000000	12.743327
1936.000000	12.722409
1935.000000	12.741266
1934.000000	12.736423
1933.000000	12.789491
1932.000000	12.795158
1931.000000	12.796292
1930.000000	12.866053
1929.000000	12.927364
1928.000000	12.997023
1927.000000	13.074203
1926.000000	13.136339
1925.000000	13.219393
1924.000000	13.322232
1923.000000	13.394260
1922.000000	13.516883
1921.000000	13.653726
1920.000000	13.777174
1919.000000	13.936893
1918.000000	14.060340
1917.000000	14.202954
1916.000000	14.366589
1915.000000	14.523217
1914.000000	14.698805
1913.000000	14.914787
1912.000000	15.149007
1911.000000	15.358291
1910.000000	15.561186
1909.000000	15.779228
1908.000000	16.006133
1907.000000	16.259313
1906.000000	16.545881
1905.000000	16.867483
1904.000000	17.210828
1903.000000	17.525732
1902.000000	17.874229
1901.000000	18.220150
1900.000000	18.582146
1899.000000	18.990821
1898.000000	19.428658
1897.000000	19.827338
1896.000000	20.252191
1895.000000	20.653344
1894.000000	21.068717
1893.000000	21.521083
1892.000000	22.003435
1891.000000	22.583473
1890.000000	23.132392
1889.000000	23.653180
1888.000000	24.209415
1887.000000	24.769463
1886.000000	25.320545
1885.000000	25.886570
1884.000000	26.433015
1883.000000	27.038815
1882.000000	27.617308
1881.000000	28.140672
1880.000000	28.704841
1879.000000	29.202856
1878.000000	29.690463
1877.000000	30.210117
1876.000000	30.697416
1875.000000	31.159468
1874.000000	31.623169
1873.000000	32.072134
1872.000000	32.522955
1871.000000	32.936061
1870.000000	33.320623
1869.000000	33.652942
1868.000000	33.978460
1867.000000	34.255857
1866.000000	34.497909
1865.000000	34.712757
1864.000000	34.917713
1863.000000	35.112055
1862.000000	35.305263
1861.000000	35.522997
1860.000000	35.730838
1859.000000	35.919719
1858.000000	36.071400
1857.000000	36.217518
1856.000000	36.331279
1855.000000	36.432984
1854.000000	36.539120
1853.000000	36.625987
1852.000000	36.688329
1851.000000	36.748095
1850.000000	36.829912
1849.000000	36.910699
1848.000000	36.955833
1847.000000	37.001688
1846.000000	36.986952
1845.000000	36.953257
1844.000000	36.977060
1843.000000	37.000451
1842.000000	37.025594
1841.000000	37.060217
1840.000000	37.071449
1839.000000	37.082372
1838.000000	37.073716
1837.000000	37.045894
1836.000000	37.020236
1835.000000	37.000451
1834.000000	36.941613
1833.000000	36.897303
1832.000000	36.863917
1831.000000	36.832694
1830.000000	36.815692
1829.000000	36.777978
1828.000000	36.747992
1827.000000	36.704507
1826.000000	36.659992
1825.000000	36.627429
1824.000000	36.573640
1823.000000	36.558183
1822.000000	36.578998
1821.000000	36.599504
1820.000000	36.572919
1819.000000	36.530877
1818.000000	36.475851
1817.000000	36.451532
1816.000000	36.445040
1815.000000	36.434427
1814.000000	36.426802
1813.000000	36.397022
1812.000000	36.379916
1811.000000	36.362502
1810.000000	36.328703
1809.000000	36.280169
1808.000000	36.242145
1807.000000	36.210820
1806.000000	36.178464
1805.000000	36.137761
1804.000000	36.103344
1803.000000	36.063981
1802.000000	36.026988
1801.000000	35.999166
1800.000000	35.954857
1799.000000	35.898182
1798.000000	35.842229
1797.000000	35.801733
1796.000000	35.766800
1795.000000	35.729395
1794.000000	35.692917
1793.000000	35.649330
1792.000000	35.611821
1791.000000	35.577301
1790.000000	35.537217
1789.000000	35.503006
1788.000000	35.465292
1787.000000	35.429020
1786.000000	35.406659
1785.000000	35.383062
1784.000000	35.353179
1783.000000	35.317011
1782.000000	35.278060
1781.000000	35.237151
1780.000000	35.195933
1779.000000	35.155643
1778.000000	35.117310
1777.000000	35.071661
1776.000000	35.016532
1775.000000	34.957488
1774.000000	34.905038
1773.000000	34.853413
1772.000000	34.793956
1771.000000	34.729553
1770.000000	34.669993
1769.000000	34.605075
1768.000000	34.551595
1767.000000	34.496157
1766.000000	34.439173
1765.000000	34.399501
1764.000000	34.366424
1763.000000	34.331285
1762.000000	34.320363
1761.000000	34.320981
1760.000000	34.323969
1759.000000	34.356119
1758.000000	34.405581
1757.000000	34.437937
1756.000000	34.482864
1755.000000	34.520578
1754.000000	34.564475
1753.000000	34.606415
1752.000000	34.636298
1751.000000	34.647632
1750.000000	34.668035
1749.000000	34.684626
1748.000000	34.668963
1747.000000	34.639492
1746.000000	34.616719
1745.000000	34.575913
1744.000000	34.515014
1743.000000	34.425571
1742.000000	34.357356
1741.000000	34.281618
1740.000000	34.174245
1739.000000	34.044821
1738.000000	33.931163
1737.000000	33.817093
1736.000000	33.703640
1735.000000	33.615949
1734.000000	33.533514
1733.000000	33.462722
1732.000000	33.432427
1731.000000	33.409448
1730.000000	33.398010
1729.000000	33.413673
1728.000000	33.435415
1727.000000	33.462619
1726.000000	33.503528
1725.000000	33.537945
1724.000000	33.556802
1723.000000	33.593692
1722.000000	33.656034
1721.000000	33.733008
1720.000000	33.829458
1719.000000	33.938788
1718.000000	34.058217
1717.000000	34.184859
1716.000000	34.317787
1715.000000	34.469983
1714.000000	34.605693
1713.000000	34.735117
1712.000000	34.851970
1711.000000	34.989947
1710.000000	35.074340
1709.000000	35.170584
1708.000000	35.221076
1707.000000	35.264973
1706.000000	35.296402
1705.000000	35.316495
1704.000000	35.310725
1703.000000	35.284758
1702.000000	35.265591
1701.000000	35.208092
1700.000000	35.155333
1699.000000	35.094331
1698.000000	35.023642
1697.000000	34.945844
1696.000000	34.885872
1695.000000	34.814874
1694.000000	34.761188
1693.000000	34.731820
1692.000000	34.743464
1691.000000	34.760260
1690.000000	34.817862
1689.000000	34.864954
1688.000000	34.915033
1687.000000	34.994996
1686.000000	35.083821
1685.000000	35.178106
1684.000000	35.315259
1683.000000	35.422940
1682.000000	35.585442
1681.000000	35.813171
1680.000000	36.086342
1679.000000	36.356422
1678.000000	36.670708
1677.000000	36.982727
1676.000000	37.288461
1675.000000	37.581211
1674.000000	37.848818
1673.000000	38.109109
1672.000000	38.337868
1671.000000	38.540144
1670.000000	38.732838
1669.000000	38.909972
1668.000000	39.055677
1667.000000	39.174487
1666.000000	39.312876
1665.000000	39.397888
1664.000000	39.504642
1663.000000	39.613870
1662.000000	39.699912
1661.000000	39.750610
1660.000000	39.801617
1659.000000	39.899613
1658.000000	39.919912
1657.000000	39.994723
1656.000000	40.000699
1655.000000	40.025533
1654.000000	40.041093
1653.000000	40.054592
1652.000000	40.064896
1651.000000	40.050676
1650.000000	40.024297
1649.000000	39.994826
1648.000000	39.974835
1647.000000	39.946601
1646.000000	39.924755
1645.000000	39.880137
1644.000000	39.842835
1643.000000	39.799350
1642.000000	39.765345
1641.000000	39.713308
1640.000000	39.670544
1639.000000	39.629945
1638.000000	39.601195
1637.000000	39.545448
1636.000000	39.472905
1635.000000	39.427977
1634.000000	39.383462
1633.000000	39.322666
1632.000000	39.262384
1631.000000	39.177991
1630.000000	39.116679
1629.000000	39.046300
1628.000000	38.955311
1627.000000	38.897812
1626.000000	38.822384
1625.000000	38.746543
1624.000000	38.666580
1623.000000	38.606299
1622.000000	38.539629
1621.000000	38.454823
1620.000000	38.394645
1619.000000	38.333643
1618.000000	38.253783
1617.000000	38.194636
1616.000000	38.120444
1615.000000	38.039244
1614.000000	37.986176
1613.000000	37.912190
1612.000000	37.858710
1611.000000	37.778850
1610.000000	37.709398
1609.000000	37.637576
1608.000000	37.563384
1607.000000	37.483937
1606.000000	37.428911
1605.000000	37.339674
1604.000000	37.256620
1603.000000	37.178409
1602.000000	37.090409
1601.000000	37.004779
1600.000000	36.942334
1599.000000	36.863917
1598.000000	36.779111
1597.000000	36.708010
1596.000000	36.628048
1595.000000	36.564675
1594.000000	36.516347
1593.000000	36.431439
1592.000000	36.371673
1591.000000	36.290473
1590.000000	36.228338
1589.000000	36.182895
1588.000000	36.108600
1587.000000	36.059550
1586.000000	36.007410
1585.000000	35.943110
1584.000000	35.879840
1583.000000	35.819765
1582.000000	35.759278
1581.000000	35.697348
1580.000000	35.655615
1579.000000	35.616355
1578.000000	35.564215
1577.000000	35.531859
1576.000000	35.495072
1575.000000	35.460243
1574.000000	35.422322
1573.000000	35.385226
1572.000000	35.367399
1571.000000	35.348748
1570.000000	35.324636
1569.000000	35.307427
1568.000000	35.290528
1567.000000	35.260439
1566.000000	35.254050
1565.000000	35.240964
1564.000000	35.209947
1563.000000	35.196654
1562.000000	35.188205
1561.000000	35.173057
1560.000000	35.139155
1559.000000	35.092064
1558.000000	35.037038
1557.000000	35.003858
1556.000000	34.966968
1555.000000	34.908954
1554.000000	34.847436
1553.000000	34.784682
1552.000000	34.715642
1551.000000	34.662265
1550.000000	34.585290
1549.000000	34.502133
1548.000000	34.435773
1547.000000	34.356222
1546.000000	34.280381
1545.000000	34.223707
1544.000000	34.152915
1543.000000	34.088100
1542.000000	34.042451
1541.000000	33.986189
1540.000000	33.928381
1539.000000	33.868100
1538.000000	33.817608
1537.000000	33.765158
1536.000000	33.703537
1535.000000	33.643359
1534.000000	33.576689
1533.000000	33.522179
1532.000000	33.454581
1531.000000	33.374928
1530.000000	33.313307
1529.000000	33.239012
1528.000000	33.161316
1527.000000	33.085166
1526.000000	33.008604
1525.000000	32.930084
1524.000000	32.858365
1523.000000	32.779845
1522.000000	32.693288
1521.000000	32.607245
1520.000000	32.522543
1519.000000	32.441446
1518.000000	32.361381
1517.000000	32.265343
1516.000000	32.177858
1515.000000	32.089137
1514.000000	32.002373
1513.000000	31.907881
1512.000000	31.807516
1511.000000	31.710860
1510.000000	31.621417
1509.000000	31.536508
1508.000000	31.441089
1507.000000	31.344433
1506.000000	31.242007
1505.000000	31.150709
1504.000000	31.058896
1503.000000	30.968114
1502.000000	30.885369
1501.000000	30.793865
1500.000000	30.703907
1499.000000	30.623945
1498.000000	30.554905
1497.000000	30.476076
1496.000000	30.405799
1495.000000	30.347579
1494.000000	30.281424
1493.000000	30.225574
1492.000000	30.163850
1491.000000	30.107382
1490.000000	30.067091
1489.000000	30.022679
1488.000000	29.977030
1487.000000	29.934267
1486.000000	29.888412
1485.000000	29.842351
1484.000000	29.795053
1483.000000	29.745901
1482.000000	29.726632
1481.000000	29.712309
1480.000000	29.686238
1479.000000	29.647390
1478.000000	29.625133
1477.000000	29.619362
1476.000000	29.617301
1475.000000	29.617611
1474.000000	29.602463
1473.000000	29.611325
1472.000000	29.631831
1471.000000	29.639147
1470.000000	29.655943
1469.000000	29.651409
1468.000000	29.666351
1467.000000	29.700046
1466.000000	29.734566
1465.000000	29.734772
1464.000000	29.769601
1463.000000	29.821433
1462.000000	29.853480
1461.000000	29.879241
1460.000000	29.932206
1459.000000	29.993002
1458.000000	30.049059
1457.000000	30.093677
1456.000000	30.156946
1455.000000	30.227429
1454.000000	30.300178
1453.000000	30.370146
1452.000000	30.458867
1451.000000	30.537799
1450.000000	30.615804
1449.000000	30.675570
1448.000000	30.729669
1447.000000	30.833641
1446.000000	30.940807
1445.000000	31.029632
1444.000000	31.091458
1443.000000	31.189866
1442.000000	31.273744
1441.000000	31.383796
1440.000000	31.469426
1439.000000	31.581539
1438.000000	31.694063
1437.000000	31.800921
1436.000000	31.911179
1435.000000	32.026176
1434.000000	32.160547
1433.000000	32.282345
1432.000000	32.433100
1431.000000	32.573034
1430.000000	32.709775
1429.000000	32.865887
1428.000000	33.028389
1427.000000	33.214384
1426.000000	33.379874
1425.000000	33.574113
1424.000000	33.775256
1423.000000	34.003706
1422.000000	34.216700
1421.000000	34.436597
1420.000000	34.711726
1419.000000	34.969132
1418.000000	35.214481
1417.000000	35.491465
1416.000000	35.738051
1415.000000	36.056974
1414.000000	36.402380
1413.000000	36.702137
1412.000000	37.026624
1411.000000	37.356986
1410.000000	37.736087
1409.000000	38.164650
1408.000000	38.556632
1407.000000	38.971283
1406.000000	39.356464
1405.000000	39.781008
1404.000000	40.240793
1403.000000	40.664410
1402.000000	41.086687
1401.000000	41.574191
1400.000000	42.078286
1399.000000	42.558783
1398.000000	42.925416
1397.000000	43.338728
1396.000000	43.840865
1395.000000	44.349699
1394.000000	44.839676
1393.000000	45.242272
1392.000000	45.676811
1391.000000	46.189768
1390.000000	46.676241
1389.000000	47.157872
1388.000000	47.706997
1387.000000	48.261893
1386.000000	48.775158
1385.000000	49.292236
1384.000000	49.824565
1383.000000	50.355039
1382.000000	50.892520
1381.000000	51.321082
1380.000000	51.714919
1379.000000	51.981289
1378.000000	52.296812
1377.000000	52.546077
1376.000000	52.798434
1375.000000	53.033375
1374.000000	53.251212
1373.000000	53.485845
1372.000000	53.770248
1371.000000	54.028375
1370.000000	54.274136
1369.000000	54.504647
1368.000000	54.778643
1367.000000	54.989987
1366.000000	55.192161
1365.000000	55.370428
1364.000000	55.569201
1363.000000	55.701717
1362.000000	55.927385
1361.000000	56.052790
1360.000000	56.163769
1359.000000	56.188294
1358.000000	56.329980
1357.000000	56.432097
1356.000000	56.573475
1355.000000	56.724538
1354.000000	56.942271
1353.000000	57.113223
1352.000000	57.287471
1351.000000	57.593102
1350.000000	57.896980
1349.000000	58.149955
1348.000000	58.445384
1347.000000	58.720925
1346.000000	58.950921
1345.000000	59.207090
1344.000000	59.453676
1343.000000	59.720768
1342.000000	59.951691
1341.000000	60.188899
1340.000000	60.428066
1339.000000	60.658371
1338.000000	60.880020
1337.000000	61.104348
1336.000000	61.334241
1335.000000	61.553520
1334.000000	61.762597
1333.000000	61.969511
1332.000000	62.169521
1331.000000	62.385709
1330.000000	62.574589
1329.000000	62.766355
1328.000000	62.954103
1327.000000	63.132679
1326.000000	63.313729
1325.000000	63.495912
1324.000000	63.660474
1323.000000	63.807313
1322.000000	63.976924
1321.000000	64.120981
1320.000000	64.283379
1319.000000	64.430733
1318.000000	64.575304
1317.000000	64.710293
1316.000000	64.845694
1315.000000	64.984598
1314.000000	65.108045
1313.000000	65.251483
1312.000000	65.354940
1311.000000	65.486219
1310.000000	65.591016
1309.000000	65.691999
1308.000000	65.792365
1307.000000	65.885002
1306.000000	65.973620
1305.000000	66.070585
1304.000000	66.147354
1303.000000	66.222370
1302.000000	66.298005
1301.000000	66.361481
1300.000000	66.419804
1299.000000	66.476994
1298.000000	66.543870
1297.000000	66.602193
1296.000000	66.651551
1295.000000	66.676591
1294.000000	66.709050
1293.000000	66.758305
1292.000000	66.780975
1291.000000	66.812610
1290.000000	66.834249
1289.000000	66.833116
1288.000000	66.830231
1287.000000	66.851458
1286.000000	66.878456
1285.000000	66.861762
1284.000000	66.851973
1283.000000	66.831570
1282.000000	66.808900
1281.000000	66.791589
1280.000000	66.781078
1279.000000	66.759954
1278.000000	66.742231
1277.000000	66.718839
1276.000000	66.703177
1275.000000	66.685247
1274.000000	66.664844
1273.000000	66.644544
1272.000000	66.648975
1271.000000	66.635888
1270.000000	66.616825
1269.000000	66.615280
1268.000000	66.603945
1267.000000	66.590343
1266.000000	66.586324
1265.000000	66.572619
1264.000000	66.549846
1263.000000	66.526043
1262.000000	66.492347
1261.000000	66.465659
1260.000000	66.448759
1259.000000	66.425986
1258.000000	66.398680
1257.000000	66.353958
1256.000000	66.320675
1255.000000	66.292338
1254.000000	66.252974
1253.000000	66.200422
1252.000000	66.147354
1251.000000	66.104281
1250.000000	66.039775
1249.000000	65.964656
1248.000000	65.897780
1247.000000	65.822042
1246.000000	65.757536
1245.000000	65.693751
1244.000000	65.612346
1243.000000	65.517133
1242.000000	65.428514
1241.000000	65.355352
1240.000000	65.287755
1239.000000	65.204392
1238.000000	65.131849
1237.000000	65.050959
1236.000000	64.961722
1235.000000	64.882171
1234.000000	64.802518
1233.000000	64.730077
1232.000000	64.647642
1231.000000	64.564382
1230.000000	64.488541
1229.000000	64.396419
1228.000000	64.310789
1227.000000	64.224437
1226.000000	64.133758
1225.000000	64.053486
1224.000000	63.966620
1223.000000	63.884184
1222.000000	63.790516
1221.000000	63.680877
1220.000000	63.581748
1219.000000	63.486225
1218.000000	63.394207
1217.000000	63.314553
1216.000000	63.235106
1215.000000	63.137728
1214.000000	63.046740
1213.000000	62.971930
1212.000000	62.881869
1211.000000	62.782327
1210.000000	62.693194
1209.000000	62.602824
1208.000000	62.509053
1207.000000	62.428987
1206.000000	62.342121
1205.000000	62.262261
1204.000000	62.181062
1203.000000	62.107694
1202.000000	62.043085
1201.000000	61.976930
1200.000000	61.909024
1199.000000	61.842972
1198.000000	61.775787
1197.000000	61.695928
1196.000000	61.599890
1195.000000	61.490972
1194.000000	61.366391
1193.000000	61.224910
1192.000000	61.067767
1191.000000	60.882184
1190.000000	60.682277
1189.000000	60.490099
1188.000000	60.307813
1187.000000	60.150258
1186.000000	60.044740
1185.000000	59.978276
1184.000000	59.967972
1183.000000	60.026604
1182.000000	60.143251
1181.000000	60.316160
1180.000000	60.517818
1179.000000	60.739570
1178.000000	60.970184
1177.000000	61.222540
1176.000000	61.430691
1175.000000	61.619984
1174.000000	61.801136
1173.000000	61.974457
1172.000000	62.147881
1171.000000	62.319245
1170.000000	62.506580
1169.000000	62.706590
1168.000000	62.895058
1167.000000	63.088988
1166.000000	63.315377
1165.000000	63.533214
1164.000000	63.760633
1163.000000	63.998976
1162.000000	64.245871
1161.000000	64.483904
1160.000000	64.739455
1159.000000	64.977797
1158.000000	65.219849
1157.000000	65.483128
1156.000000	65.713433
1155.000000	65.926117
1154.000000	66.137668
1153.000000	66.348291
1152.000000	66.535317
1151.000000	66.695551
1150.000000	66.850221
1149.000000	67.000873
1148.000000	67.156882
1147.000000	67.313407
1146.000000	67.476012
1145.000000	67.652321
1144.000000	67.852743
1143.000000	68.066251
1142.000000	68.283263
1141.000000	68.539742
1140.000000	68.824557
1139.000000	69.108342
1138.000000	69.408305
1137.000000	69.716202
1136.000000	70.045430
1135.000000	70.392175
1134.000000	70.718518
1133.000000	71.012813
1132.000000	71.233123
1131.000000	71.495784
1130.000000	71.717330
1129.000000	71.938979
1128.000000	72.118586
1127.000000	72.266867
1126.000000	72.389284
1125.000000	72.502118
1124.000000	72.579401
1123.000000	72.648338
1122.000000	72.718202
1121.000000	72.754989
1120.000000	72.775495
1119.000000	72.792291
1118.000000	72.806512
1117.000000	72.834952
1116.000000	72.826090
1115.000000	72.834025
1114.000000	72.818362
1113.000000	72.803420
1112.000000	72.793631
1111.000000	72.798371
1110.000000	72.769725
1109.000000	72.776010
1108.000000	72.770240
1107.000000	72.753031
1106.000000	72.731598
1105.000000	72.714699
1104.000000	72.702540
1103.000000	72.703261
1102.000000	72.680797
1101.000000	72.696769
1100.000000	72.667607
1099.000000	72.658127
1098.000000	72.648853
1097.000000	72.634839
1096.000000	72.616909
1095.000000	72.607017
1094.000000	72.581977
1093.000000	72.574455
1092.000000	72.553228
1091.000000	72.541790
1090.000000	72.511804
1089.000000	72.503869
1088.000000	72.459766
1087.000000	72.442661
1086.000000	72.408759
1085.000000	72.375682
1084.000000	72.361874
1083.000000	72.346417
1082.000000	72.307157
1081.000000	72.259448
1080.000000	72.242342
1079.000000	72.221424
1078.000000	72.187110
1077.000000	72.148881
1076.000000	72.108796
1075.000000	72.081386
1074.000000	72.031307
1073.000000	72.010286
1072.000000	71.967625
1071.000000	71.912393
1070.000000	71.884365
1069.000000	71.824496
1068.000000	71.802651
1067.000000	71.744636
1066.000000	71.669208
1065.000000	71.661685
1064.000000	71.595531
1063.000000	71.558641
1062.000000	71.513404
1061.000000	71.458275
1060.000000	71.394491
1059.000000	71.298041
1058.000000	71.246209
1057.000000	71.199118
1056.000000	71.129254
1055.000000	71.047436
1054.000000	71.008073
1053.000000	70.932129
1052.000000	70.869993
1051.000000	70.791989
1050.000000	70.722330
1049.000000	70.665553
1048.000000	70.597852
1047.000000	70.546742
1046.000000	70.488419
1045.000000	70.428550
1044.000000	70.348690
1043.000000	70.273983
1042.000000	70.215145
1041.000000	70.172381
1040.000000	70.127866
1039.000000	70.053777
1038.000000	70.010807
1037.000000	69.948053
1036.000000	69.891378
1035.000000	69.823781
1034.000000	69.784933
1033.000000	69.724034
1032.000000	69.668493
1031.000000	69.620371
1030.000000	69.579153
1029.000000	69.496099
1028.000000	69.434066
1027.000000	69.380380
1026.000000	69.324117
1025.000000	69.272492
1024.000000	69.220558
1023.000000	69.160689
1022.000000	69.080417
1021.000000	69.044351
1020.000000	68.984997
1019.000000	68.948417
1018.000000	68.899986
1017.000000	68.833934
1016.000000	68.807245
1015.000000	68.760154
1014.000000	68.713578
1013.000000	68.672978
1012.000000	68.644229
1011.000000	68.626402
1010.000000	68.592294
1009.000000	68.564163
1008.000000	68.531807
1007.000000	68.514908
1006.000000	68.490589
1005.000000	68.477193
1004.000000	68.443189
1003.000000	68.414748
1002.000000	68.391357
1001.000000	68.387545
1000.000000	68.362711
999.000000	68.341071
998.000000	68.305933
997.000000	68.292434
996.000000	68.285427
995.000000	68.265024
994.000000	68.251835
993.000000	68.242767
992.000000	68.237821
991.000000	68.254205
990.000000	68.250907
989.000000	68.241427
988.000000	68.259048
987.000000	68.284500
986.000000	68.295217
985.000000	68.301811
984.000000	68.325615
983.000000	68.348181
982.000000	68.359001
981.000000	68.382908
980.000000	68.415676
979.000000	68.415985
978.000000	68.458027
977.000000	68.493990
976.000000	68.505634
975.000000	68.534486
974.000000	68.570758
973.000000	68.586627
972.000000	68.607545
971.000000	68.649278
970.000000	68.677821
969.000000	68.710383
968.000000	68.737072
967.000000	68.786121
966.000000	68.833934
965.000000	68.871339
964.000000	68.897925
963.000000	68.947077
962.000000	69.015190
961.000000	69.066300
960.000000	69.109269
959.000000	69.149457
958.000000	69.198403
957.000000	69.260745
956.000000	69.296501
955.000000	69.348127
954.000000	69.417888
953.000000	69.465598
952.000000	69.525776
951.000000	69.594094
950.000000	69.650048
949.000000	69.713832
948.000000	69.787818
947.000000	69.844287
946.000000	69.912502
945.000000	69.992877
944.000000	70.058311
943.000000	70.122095
942.000000	70.192578
941.000000	70.258629
940.000000	70.309534
939.000000	70.350339
938.000000	70.411857
937.000000	70.490583
936.000000	70.541281
935.000000	70.570958
934.000000	70.621347
933.000000	70.676166
932.000000	70.727070
931.000000	70.787764
930.000000	70.831867
929.000000	70.852064
928.000000	70.901113
927.000000	70.935015
926.000000	70.955417
925.000000	70.988083
924.000000	71.011268
923.000000	71.052898
922.000000	71.090818
921.000000	71.118949
920.000000	71.162949
919.000000	71.191802
918.000000	71.222818
917.000000	71.240954
916.000000	71.252289
915.000000	71.288046
914.000000	71.322978
913.000000	71.352861
912.000000	71.392739
911.000000	71.428289
910.000000	71.476205
909.000000	71.514641
908.000000	71.563896
907.000000	71.621395
906.000000	71.701358
905.000000	71.760196
904.000000	71.841292
903.000000	71.911981
902.000000	71.986894
901.000000	72.081283
900.000000	72.152487
899.000000	72.227504
898.000000	72.324984
897.000000	72.414736
896.000000	72.500263
895.000000	72.580844
894.000000	72.653490
893.000000	72.731392
892.000000	72.810118
891.000000	72.859889
890.000000	72.935317
889.000000	73.024039
888.000000	73.054025
887.000000	73.108845
886.000000	73.129557
885.000000	73.173454
884.000000	73.238372
883.000000	73.275571
882.000000	73.322456
881.000000	73.360995
880.000000	73.387787
879.000000	73.423955
878.000000	73.407159
877.000000	73.418700
876.000000	73.394691
875.000000	73.346981
874.000000	73.250737
873.000000	73.169641
872.000000	73.100292
871.000000	73.104620
870.000000	73.208695
869.000000	73.346157
868.000000	73.471459
867.000000	73.620255
866.000000	73.775750
865.000000	73.906926
864.000000	74.048715
863.000000	74.198336
862.000000	74.352388
861.000000	74.493765
860.000000	74.631742
859.000000	74.804754
858.000000	75.007133
857.000000	74.767700
856.000000	74.956000
855.000000	75.297700
854.000000	75.794700
853.000000	75.821800
852.000000	75.207900
851.000000	75.795300
850.000000	76.118000
849.000000	76.723800
848.000000	76.643500
847.000000	76.679400
846.000000	77.228200
845.000000	77.584500
844.000000	77.930100
843.000000	78.221700
842.000000	78.834900
841.000000	78.856600
840.000000	79.026900
839.000000	79.349600
838.000000	79.846000
837.000000	79.937900
836.000000	80.064300
835.000000	80.520300
834.000000	81.261600
833.000000	81.071600
832.000000	81.229300
831.000000	81.485500
830.000000	81.772000
829.000000	81.797400
828.000000	82.156800
827.000000	82.185500
826.000000	82.417200
825.000000	82.495100
824.000000	82.645600
823.000000	82.749100
822.000000	82.898900
821.000000	83.105700
820.000000	83.175500
819.000000	83.232700
818.000000	83.429400
817.000000	83.829900
816.000000	84.091900
815.000000	84.178500
814.000000	84.027800
813.000000	84.393600
812.000000	84.483400
811.000000	84.773000
810.000000	84.939400
809.000000	85.150800
808.000000	85.421600
807.000000	85.575800
806.000000	85.897300
805.000000	86.119100
804.000000	86.379300
803.000000	86.493100
802.000000	86.825200
801.000000	87.036700
800.000000	86.990000
799.000000	87.184000
798.000000	87.483000
797.000000	87.864200
796.000000	87.783300
795.000000	87.922800
794.000000	88.047600
793.000000	88.090200
792.000000	88.143000
791.000000	88.069600
790.000000	88.194900
789.000000	88.160600
788.000000	88.012600
787.000000	88.104200
786.000000	87.941100
785.000000	88.023600
784.000000	88.051500
783.000000	87.794900
782.000000	87.819800
781.000000	87.711700
780.000000	87.736200
779.000000	87.764500
778.000000	87.675900
777.000000	87.792800
776.000000	87.784300
775.000000	87.721700
774.000000	87.886200
773.000000	88.004100
772.000000	87.971100
771.000000	87.928500
770.000000	88.010500
769.000000	87.904800
768.000000	88.008700
767.000000	87.999200
766.000000	87.923400
765.000000	87.974600
764.000000	88.020000
763.000000	88.234100
762.000000	88.243500
761.000000	88.170200
760.000000	88.091000
759.000000	88.091700
758.000000	87.873600
757.000000	88.033600
756.000000	87.863000
755.000000	87.754600
754.000000	87.734200
753.000000	87.678200
752.000000	87.625500
751.000000	87.378500
750.000000	87.078900
749.000000	86.992500
748.000000	86.911500
747.000000	86.866100
746.000000	86.636400
745.000000	86.544500
744.000000	86.335600
743.000000	86.333400
742.000000	86.223000
741.000000	86.098800
740.000000	85.991900
739.000000	85.863100
738.000000	85.824800
737.000000	85.666600
736.000000	85.644900
735.000000	85.456100
734.000000	85.393000
733.000000	85.309700
732.000000	85.151100
731.000000	85.026000
730.000000	84.802800
729.000000	84.562100
728.000000	84.451400
727.000000	84.209900
726.000000	84.027400
725.000000	83.652100
724.000000	83.402000
723.000000	83.237600
722.000000	82.938800
721.000000	82.794400
720.000000	82.556200
719.000000	82.308900
718.000000	82.135400
717.000000	81.949400
716.000000	81.807500
715.000000	81.535200
714.000000	81.339900
713.000000	81.275800
712.000000	81.153900
711.000000	80.989500
710.000000	80.785500
709.000000	80.576600
708.000000	80.427000
707.000000	80.279400
706.000000	80.080000
705.000000	79.903900
704.000000	79.671200
703.000000	79.539200
702.000000	79.421000
701.000000	79.193500
700.000000	79.066400
699.000000	79.021100
698.000000	78.868800
697.000000	78.712000
696.000000	78.739600
695.000000	78.698100
694.000000	78.668800
693.000000	78.671400
692.000000	78.599100
691.000000	78.525400
690.000000	78.453300
689.000000	78.325000
688.000000	78.184900
687.000000	78.064100
686.000000	77.890800
685.000000	77.676000
684.000000	77.456600
683.000000	77.205200
682.000000	76.935200
681.000000	76.704100
680.000000	76.440900
679.000000	76.082200
678.000000	75.810100
677.000000	75.511700
676.000000	75.201800
675.000000	74.842200
674.000000	74.482500
673.000000	74.098300
672.000000	73.687300
671.000000	73.229300
670.000000	72.723100
669.000000	72.150200
668.000000	71.521400
667.000000	70.893600
666.000000	70.222300
665.000000	69.507400
664.000000	68.696800
663.000000	67.859700
662.000000	67.069100
661.000000	66.317300
660.000000	65.545200
659.000000	64.789000
658.000000	64.084100
657.000000	63.407500
656.000000	62.780200
655.000000	62.202500
654.000000	61.654000
653.000000	61.168000
652.000000	60.736600
651.000000	60.294000
650.000000	59.933200
649.000000	59.636000
648.000000	59.366700
647.000000	59.158400
646.000000	59.020300
645.000000	58.938900
644.000000	58.963800
643.000000	59.042600
642.000000	59.149700
641.000000	59.370800
640.000000	59.717500
639.000000	60.131100
638.000000	60.598500
637.000000	61.181300
636.000000	61.869800
635.000000	62.670700
634.000000	63.538800
633.000000	64.395200
632.000000	65.331500
631.000000	66.341000
630.000000	67.349300
629.000000	68.369900
628.000000	69.353900
627.000000	70.318400
626.000000	71.268600
625.000000	72.216900
624.000000	73.116600
623.000000	73.990200
622.000000	74.892600
621.000000	75.751300
620.000000	76.514400
619.000000	77.267300
618.000000	78.039100
617.000000	78.778800
616.000000	79.454200
615.000000	80.096200
614.000000	80.752700
613.000000	81.455700
612.000000	82.031100
611.000000	82.628100
610.000000	83.301800
609.000000	83.871700
608.000000	84.355200
607.000000	84.908700
606.000000	85.411500
605.000000	85.838900
604.000000	86.237600
603.000000	86.590000
602.000000	86.923000
601.000000	87.274600
600.000000	87.567800
599.000000	87.785000
598.000000	88.007800
597.000000	88.231700
596.000000	88.393600
595.000000	88.554900
594.000000	88.674400
593.000000	88.789900
592.000000	88.868500
591.000000	88.967900
590.000000	89.042000
589.000000	89.079900
588.000000	89.113600
587.000000	89.130900
586.000000	89.189200
585.000000	89.156100
584.000000	89.146300
583.000000	89.172900
582.000000	89.120400
581.000000	89.068700
580.000000	89.047600
579.000000	88.979600
578.000000	88.952400
577.000000	88.867100
576.000000	88.733300
575.000000	88.608700
574.000000	88.494700
573.000000	88.343200
572.000000	88.166500
571.000000	87.994800
570.000000	87.744500
569.000000	87.555600
568.000000	87.341200
567.000000	87.087500
566.000000	86.772900
565.000000	86.440600
564.000000	86.114400
563.000000	85.697400
562.000000	85.266500
561.000000	84.791400
560.000000	84.310200
559.000000	83.812000
558.000000	83.319200
557.000000	82.793000
556.000000	82.216500
555.000000	81.634900
554.000000	81.104600
553.000000	80.599900
552.000000	80.019100
551.000000	79.549900
550.000000	79.013100
549.000000	78.555300
548.000000	78.082000
547.000000	77.614700
546.000000	77.165300
545.000000	76.667300
544.000000	76.166900
543.000000	75.665300
542.000000	75.107200
541.000000	74.573100
540.000000	73.968900
539.000000	73.335600
538.000000	72.650100
537.000000	71.889200
536.000000	71.075200
535.000000	70.247400
534.000000	69.333100
533.000000	68.392400
532.000000	67.373400
531.000000	66.283900
530.000000	65.132700
529.000000	63.960900
528.000000	62.731600
527.000000	61.478500
526.000000	60.149800
525.000000	58.828300
524.000000	57.387200
523.000000	55.968500
522.000000	54.530500
521.000000	53.060100
520.000000	51.603900
519.000000	50.167600
518.000000	48.787500
517.000000	47.476700
516.000000	46.251600
515.000000	45.116100
514.000000	44.069100
513.000000	43.149300
512.000000	42.333800
511.000000	41.625300
510.000000	41.024500
509.000000	40.553300
508.000000	40.188700
507.000000	39.926100
506.000000	39.744700
505.000000	39.566700
504.000000	39.527100
503.000000	39.447000
502.000000	39.394100
501.000000	39.416900
500.000000	39.418400
499.000000	39.416200
498.000000	39.408200
497.000000	39.355700
496.000000	39.344400
495.000000	39.302400
494.000000	39.266200
493.000000	39.231900
492.000000	39.121300
491.000000	38.999800
490.000000	38.860400
489.000000	38.780700
488.000000	38.579100
487.000000	38.461000
486.000000	38.299800
485.000000	38.130700
484.000000	37.971800
483.000000	37.717800
482.000000	37.507800
481.000000	37.266700
480.000000	37.010300
479.000000	36.762800
478.000000	36.496800
477.000000	36.261700
476.000000	35.995600
475.000000	35.696600
474.000000	35.452100
473.000000	35.132400
472.000000	34.821000
471.000000	34.544600
470.000000	34.255200
469.000000	33.940100
468.000000	33.638800
467.000000	33.322900
466.000000	33.004200
465.000000	32.694800
464.000000	32.339200
463.000000	31.986400
462.000000	31.593200
461.000000	31.223500
460.000000	30.827300
459.000000	30.444000
458.000000	30.033000
457.000000	29.605800
456.000000	29.151500
455.000000	28.652900
454.000000	28.228800
453.000000	27.694000
452.000000	27.127600
451.000000	26.573400
450.000000	26.009100
449.000000	25.410600
448.000000	24.771900
447.000000	24.135500
446.000000	23.444200
445.000000	22.772400
444.000000	22.038500
443.000000	21.356700
442.000000	20.626000
441.000000	19.882700
440.000000	19.175600
439.000000	18.449900
438.000000	17.752900
437.000000	17.046800
436.000000	16.374900
435.000000	15.728900
434.000000	15.100200
433.000000	14.499500
432.000000	13.943700
431.000000	13.409200
430.000000	12.900100
429.000000	12.425300
428.000000	11.982300
427.000000	11.584600
426.000000	11.211600
425.000000	10.875700
424.000000	10.542800
423.000000	10.244600
422.000000	9.995300
421.000000	9.766400
420.000000	9.538300
419.000000	9.340600
418.000000	9.149600
417.000000	8.988800
416.000000	8.818600
415.000000	8.684400
414.000000	8.531900
413.000000	8.418800
412.000000	8.319100
411.000000	8.229500
410.000000	8.131900
409.000000	8.038400
408.000000	7.958700
407.000000	7.906700
406.000000	7.846500
405.000000	7.757300
404.000000	7.678600
403.000000	7.634200
402.000000	7.580700
401.000000	7.516900
400.000000	7.458700
399.000000	7.419900
398.000000	7.374600
397.000000	7.327100
396.000000	7.287000
395.000000	7.230500
394.000000	7.217000
393.000000	7.191800
392.000000	7.136000
391.000000	7.111500
390.000000	7.110700
389.000000	7.063500
388.000000	7.019700
387.000000	6.984800
386.000000	6.958000
385.000000	6.939900
384.000000	6.903200
383.000000	6.874200
382.000000	6.863400
381.000000	6.834900
380.000000	6.801900
379.000000	6.796400
378.000000	6.773200
377.000000	6.748800
376.000000	6.726900
375.000000	6.625700
374.000000	6.502400
373.000000	6.417900
372.000000	6.461300
371.000000	6.590100
370.000000	6.407000
369.000000	6.551800
368.000000	6.682700
367.000000	6.646300
366.000000	6.546700
365.000000	6.568700
364.000000	6.529300
363.000000	6.461100
362.000000	6.422800
361.000000	6.413000
360.000000	6.428200
359.000000	6.352700
358.000000	6.435800
357.000000	6.395400
356.000000	6.363100
355.000000	6.324100
354.000000	6.226800
353.000000	6.246900
352.000000	6.227900
351.000000	6.211100
350.000000	6.238400
349.000000	6.152000
348.000000	6.015500
347.000000	6.077200
346.000000	6.191400
345.000000	6.170400
344.000000	6.009100
343.000000	5.964300
342.000000	6.039200
341.000000	6.001300
340.000000	5.989700
339.000000	6.031100
338.000000	6.010800
337.000000	6.205700
336.000000	6.167900
335.000000	5.999400
334.000000	5.882700
333.000000	5.956700
332.000000	6.000400
331.000000	5.924300
330.000000	6.034000
329.000000	6.077100
328.000000	5.926400
327.000000	5.919700
326.000000	6.279100
325.000000	6.130200
324.000000	6.048500
323.000000	6.397400
322.000000	6.233800
321.000000	6.174600
320.000000	6.524800
319.000000	6.536200
318.000000	5.988200
317.000000	6.301300
316.000000	6.175200
315.000000	5.680200
314.000000	5.718000
313.000000	5.730800
312.000000	5.774800
311.000000	5.757400
310.000000	5.764200
309.000000	5.748700
308.000000	5.738900
307.000000	5.724000
306.000000	5.771600
305.000000	5.812500
304.000000	5.795400
303.000000	5.801400
302.000000	5.774200
301.000000	5.744100
300.000000	5.789900
299.000000	5.786200
298.000000	5.784300
297.000000	5.780000
296.000000	5.773300
295.000000	5.779800
294.000000	5.800000
293.000000	5.811200
292.000000	5.799700
291.000000	5.805400
290.000000	5.810500
289.000000	5.797500
288.000000	5.813300
287.000000	5.793400
286.000000	5.777300
285.000000	5.813400
284.000000	5.809200
283.000000	5.831700
282.000000	5.851100
281.000000	5.832500
280.000000	5.886500
279.000000	5.835300
278.000000	5.816900
277.000000	5.834000
276.000000	5.858900
275.000000	5.848800
274.000000	5.886200
273.000000	5.866500
272.000000	5.894900
271.000000	5.891700
270.000000	5.903200
269.000000	5.926900
268.000000	5.954700
267.000000	5.954600
266.000000	5.977800
265.000000	6.011000
264.000000	6.036500
263.000000	6.066500
262.000000	6.103400
261.000000	6.091000
260.000000	6.126500
259.000000	6.137800
258.000000	6.151800
257.000000	6.188300
256.000000	6.194600
255.000000	6.179900
254.000000	6.170500
253.000000	6.168300
252.000000	6.226000
251.000000	6.210900
250.000000	6.228700
