PE UV       SUBTECH     SPECTRUM    ASCII       PEDS        4.00        
   -1
CICIMAUCR0248-1.Sample.ASC
24/06/24
16:12:42.00
24/06/24
16:12:42.00
Vinicio Soto Monge
C. resplendens. Sex F.Dorsal.  
250,000000
1
Lambda 1050
1050L1511233
PerkinElmer UV WinLab 6.3.2.0749 / 2.02.05 Lambda 900 UV/VIS/NIR, Aug  7 2015 09:38:08

0
0
3350/servo 860,8/2
0
0
UV/VIS
1
1
1
DoubleDePol,CommonBeamDepol,RBeamAtt,SBeamAtt,60mm sphere, WB InGaAs Detector
0
0
0
0
Program
Program
3350/servo 860,8/2
3350/0,2 860,8/0,2
3350/0,2 860,8/0,2
0
15.00
 
 
 
0
 
860,8
319,2
860,8
Front
100
on
S:100 R:100
0
0
0
0
 
0
 
 
 
0
 
 
0
0
0
0
0
 
 
 
 
0
0


0
0
#HDR
-1
-1
#GR
nm
%R
1.0
0.0
2500,000000
-1,000000
2251
8
89,208300
5,468800
#DATA
2500.000000	7.761746
2499.000000	7.680213
2498.000000	7.643452
2497.000000	7.665016
2496.000000	7.709274
2495.000000	7.660395
2494.000000	7.595292
2493.000000	7.616240
2492.000000	7.582353
2491.000000	7.662141
2490.000000	7.528340
2489.000000	7.570544
2488.000000	7.478332
2487.000000	7.447424
2486.000000	7.422368
2485.000000	7.432021
2484.000000	7.502361
2483.000000	7.505852
2482.000000	7.571263
2481.000000	7.484801
2480.000000	7.467037
2479.000000	7.545386
2478.000000	7.507598
2477.000000	7.536145
2476.000000	7.501026
2475.000000	7.447321
2474.000000	7.505339
2473.000000	7.515402
2472.000000	7.569518
2471.000000	7.561200
2470.000000	7.566745
2469.000000	7.567875
2468.000000	7.628459
2467.000000	7.595394
2466.000000	7.576500
2465.000000	7.610489
2464.000000	7.657006
2463.000000	7.688017
2462.000000	7.679700
2461.000000	7.687401
2460.000000	7.714819
2459.000000	7.775403
2458.000000	7.816273
2457.000000	7.854985
2456.000000	7.892260
2455.000000	7.901810
2454.000000	7.957261
2453.000000	7.991147
2452.000000	8.068059
2451.000000	8.103589
2450.000000	8.178036
2449.000000	8.228763
2448.000000	8.286370
2447.000000	8.327342
2446.000000	8.377761
2445.000000	8.409183
2444.000000	8.502011
2443.000000	8.544010
2442.000000	8.584982
2441.000000	8.674422
2440.000000	8.737471
2439.000000	8.778135
2438.000000	8.850529
2437.000000	8.897354
2436.000000	8.966461
2435.000000	9.027252
2434.000000	9.068223
2433.000000	9.138256
2432.000000	9.178611
2431.000000	9.234473
2430.000000	9.294339
2429.000000	9.337570
2428.000000	9.388810
2427.000000	9.429987
2426.000000	9.476607
2425.000000	9.538629
2424.000000	9.591718
2423.000000	9.618006
2422.000000	9.646758
2421.000000	9.706419
2420.000000	9.755195
2419.000000	9.787541
2418.000000	9.827178
2417.000000	9.860243
2416.000000	9.902549
2415.000000	9.948450
2414.000000	9.989422
2413.000000	10.019612
2412.000000	10.041792
2411.000000	10.064896
2410.000000	10.098783
2409.000000	10.125584
2408.000000	10.154439
2407.000000	10.177646
2406.000000	10.210505
2405.000000	10.237717
2404.000000	10.275095
2403.000000	10.303847
2402.000000	10.318429
2401.000000	10.351596
2400.000000	10.391131
2399.000000	10.410641
2398.000000	10.430665
2397.000000	10.448224
2396.000000	10.485910
2395.000000	10.513122
2394.000000	10.532735
2393.000000	10.551321
2392.000000	10.569497
2391.000000	10.594963
2390.000000	10.620224
2389.000000	10.638810
2388.000000	10.661503
2387.000000	10.666124
2386.000000	10.677112
2385.000000	10.696314
2384.000000	10.705659
2383.000000	10.710896
2382.000000	10.718392
2381.000000	10.728352
2380.000000	10.729687
2379.000000	10.732357
2378.000000	10.742009
2377.000000	10.746630
2376.000000	10.750635
2375.000000	10.743036
2374.000000	10.745604
2373.000000	10.743550
2372.000000	10.724039
2371.000000	10.710793
2370.000000	10.700011
2369.000000	10.688613
2368.000000	10.679371
2367.000000	10.662120
2366.000000	10.639323
2365.000000	10.633265
2364.000000	10.608209
2363.000000	10.583359
2362.000000	10.559023
2361.000000	10.529757
2360.000000	10.503983
2359.000000	10.472253
2358.000000	10.444527
2357.000000	10.419164
2356.000000	10.388461
2355.000000	10.369258
2354.000000	10.355601
2353.000000	10.329621
2352.000000	10.310625
2351.000000	10.308468
2350.000000	10.320790
2349.000000	10.335680
2348.000000	10.342560
2347.000000	10.347489
2346.000000	10.362173
2345.000000	10.398421
2344.000000	10.421423
2343.000000	10.437545
2342.000000	10.460238
2341.000000	10.486731
2340.000000	10.510247
2339.000000	10.523082
2338.000000	10.543312
2337.000000	10.561898
2336.000000	10.572885
2335.000000	10.573091
2334.000000	10.574015
2333.000000	10.559741
2332.000000	10.555018
2331.000000	10.532530
2330.000000	10.539512
2329.000000	10.529141
2328.000000	10.488888
2327.000000	10.469275
2326.000000	10.438674
2325.000000	10.399037
2324.000000	10.351288
2323.000000	10.297891
2322.000000	10.259179
2321.000000	10.196232
2320.000000	10.138009
2319.000000	10.087487
2318.000000	9.991886
2317.000000	9.921649
2316.000000	9.859729
2315.000000	9.771727
2314.000000	9.691426
2313.000000	9.646244
2312.000000	9.565430
2311.000000	9.490572
2310.000000	9.435943
2309.000000	9.378233
2308.000000	9.320318
2307.000000	9.301013
2306.000000	9.264046
2305.000000	9.246281
2304.000000	9.242687
2303.000000	9.240018
2302.000000	9.234986
2301.000000	9.274726
2300.000000	9.320832
2299.000000	9.352972
2298.000000	9.379671
2297.000000	9.450319
2296.000000	9.507105
2295.000000	9.570359
2294.000000	9.631868
2293.000000	9.673148
2292.000000	9.716276
2291.000000	9.760021
2290.000000	9.812083
2289.000000	9.843505
2288.000000	9.878829
2287.000000	9.894540
2286.000000	9.907273
2285.000000	9.915077
2284.000000	9.919903
2283.000000	9.891665
2282.000000	9.883655
2281.000000	9.871333
2280.000000	9.849050
2279.000000	9.814034
2278.000000	9.786617
2277.000000	9.771316
2276.000000	9.735273
2275.000000	9.697793
2274.000000	9.680850
2273.000000	9.642240
2272.000000	9.618416
2271.000000	9.608251
2270.000000	9.616671
2269.000000	9.635257
2268.000000	9.660107
2267.000000	9.693069
2266.000000	9.722746
2265.000000	9.788465
2264.000000	9.883039
2263.000000	9.960772
2262.000000	10.058632
2261.000000	10.204858
2260.000000	10.336912
2259.000000	10.485807
2258.000000	10.665097
2257.000000	10.820564
2256.000000	11.003346
2255.000000	11.191056
2254.000000	11.375584
2253.000000	11.561651
2252.000000	11.731597
2251.000000	11.913865
2250.000000	12.082271
2249.000000	12.246569
2248.000000	12.402549
2247.000000	12.570749
2246.000000	12.692432
2245.000000	12.835680
2244.000000	12.950380
2243.000000	13.044543
2242.000000	13.127103
2241.000000	13.231741
2240.000000	13.328574
2239.000000	13.391520
2238.000000	13.475826
2237.000000	13.535486
2236.000000	13.551711
2235.000000	13.622770
2234.000000	13.659018
2233.000000	13.704405
2232.000000	13.739524
2231.000000	13.761499
2230.000000	13.764271
2229.000000	13.776696
2228.000000	13.777621
2227.000000	13.779058
2226.000000	13.768276
2225.000000	13.761704
2224.000000	13.729872
2223.000000	13.697423
2222.000000	13.676783
2221.000000	13.663742
2220.000000	13.638686
2219.000000	13.593093
2218.000000	13.536513
2217.000000	13.517003
2216.000000	13.462271
2215.000000	13.429206
2214.000000	13.361433
2213.000000	13.341923
2212.000000	13.314198
2211.000000	13.275074
2210.000000	13.242009
2209.000000	13.206069
2208.000000	13.185532
2207.000000	13.154007
2206.000000	13.131519
2205.000000	13.120839
2204.000000	13.083153
2203.000000	13.039409
2202.000000	13.011376
2201.000000	12.968658
2200.000000	12.974922
2199.000000	12.970917
2198.000000	12.946478
2197.000000	12.907457
2196.000000	12.902631
2195.000000	12.884045
2194.000000	12.881888
2193.000000	12.869053
2192.000000	12.838349
2191.000000	12.810624
2190.000000	12.815553
2189.000000	12.801999
2188.000000	12.796556
2187.000000	12.756406
2186.000000	12.759692
2185.000000	12.749937
2184.000000	12.743981
2183.000000	12.703625
2182.000000	12.702290
2181.000000	12.697977
2180.000000	12.666145
2179.000000	12.676516
2178.000000	12.689146
2177.000000	12.669533
2176.000000	12.662140
2175.000000	12.639343
2174.000000	12.647764
2173.000000	12.645710
2172.000000	12.655773
2171.000000	12.667274
2170.000000	12.666247
2169.000000	12.673949
2168.000000	12.707733
2167.000000	12.740695
2166.000000	12.741927
2165.000000	12.766777
2164.000000	12.805901
2163.000000	12.805079
2162.000000	12.844203
2161.000000	12.869771
2160.000000	12.911257
2159.000000	12.935183
2158.000000	12.962292
2157.000000	13.020104
2156.000000	13.061692
2155.000000	13.122996
2154.000000	13.162427
2153.000000	13.198676
2152.000000	13.246527
2151.000000	13.295303
2150.000000	13.348084
2149.000000	13.398914
2148.000000	13.456007
2147.000000	13.503551
2146.000000	13.550889
2145.000000	13.588267
2144.000000	13.645361
2143.000000	13.698655
2142.000000	13.756057
2141.000000	13.797234
2140.000000	13.820338
2139.000000	13.856689
2138.000000	13.900433
2137.000000	13.937503
2136.000000	13.964304
2135.000000	14.010616
2134.000000	14.032796
2133.000000	14.057338
2132.000000	14.087528
2131.000000	14.099542
2130.000000	14.123468
2129.000000	14.133839
2128.000000	14.133120
2127.000000	14.152528
2126.000000	14.161873
2125.000000	14.162797
2124.000000	14.146880
2123.000000	14.152631
2122.000000	14.149345
2121.000000	14.142670
2120.000000	14.143081
2119.000000	14.148421
2118.000000	14.121928
2117.000000	14.092765
2116.000000	14.082804
2115.000000	14.067299
2114.000000	14.043270
2113.000000	14.006200
2112.000000	13.975497
2111.000000	13.955268
2110.000000	13.941611
2109.000000	13.925078
2108.000000	13.885133
2107.000000	13.840157
2106.000000	13.819517
2105.000000	13.802471
2104.000000	13.772486
2103.000000	13.733979
2102.000000	13.704611
2101.000000	13.690851
2100.000000	13.656143
2099.000000	13.640226
2098.000000	13.621332
2097.000000	13.578204
2096.000000	13.562390
2095.000000	13.556126
2094.000000	13.541134
2093.000000	13.511150
2092.000000	13.484246
2091.000000	13.475107
2090.000000	13.462066
2089.000000	13.436600
2088.000000	13.419451
2087.000000	13.401070
2086.000000	13.374269
2085.000000	13.355786
2084.000000	13.339972
2083.000000	13.313581
2082.000000	13.270659
2081.000000	13.242317
2080.000000	13.206480
2079.000000	13.154623
2078.000000	13.108414
2077.000000	13.074528
2076.000000	13.030989
2075.000000	12.966194
2074.000000	12.900885
2073.000000	12.850672
2072.000000	12.809905
2071.000000	12.759384
2070.000000	12.689044
2069.000000	12.621168
2068.000000	12.551444
2067.000000	12.473402
2066.000000	12.411380
2065.000000	12.345763
2064.000000	12.280866
2063.000000	12.217200
2062.000000	12.153432
2061.000000	12.094490
2060.000000	12.033700
2059.000000	11.975477
2058.000000	11.918178
2057.000000	11.879979
2056.000000	11.840136
2055.000000	11.800705
2054.000000	11.782735
2053.000000	11.775855
2052.000000	11.773596
2051.000000	11.774520
2050.000000	11.792593
2049.000000	11.817443
2048.000000	11.854718
2047.000000	11.904418
2046.000000	11.947752
2045.000000	12.000738
2044.000000	12.071078
2043.000000	12.134538
2042.000000	12.202619
2041.000000	12.279120
2040.000000	12.342580
2039.000000	12.405321
2038.000000	12.467755
2037.000000	12.515401
2036.000000	12.573932
2035.000000	12.633696
2034.000000	12.674154
2033.000000	12.711840
2032.000000	12.746959
2031.000000	12.769036
2030.000000	12.801896
2029.000000	12.837117
2028.000000	12.841943
2027.000000	12.872647
2026.000000	12.900783
2025.000000	12.894211
2024.000000	12.897394
2023.000000	12.910230
2022.000000	12.921115
2021.000000	12.925941
2020.000000	12.931281
2019.000000	12.926146
2018.000000	12.904274
2017.000000	12.885791
2016.000000	12.878089
2015.000000	12.869463
2014.000000	12.848207
2013.000000	12.826438
2012.000000	12.802204
2011.000000	12.781153
2010.000000	12.753839
2009.000000	12.732993
2008.000000	12.685039
2007.000000	12.665118
2006.000000	12.622400
2005.000000	12.589541
2004.000000	12.539019
2003.000000	12.492605
2002.000000	12.458924
2001.000000	12.408197
2000.000000	12.345661
1999.000000	12.292880
1998.000000	12.238046
1997.000000	12.175920
1996.000000	12.118621
1995.000000	12.053724
1994.000000	11.978557
1993.000000	11.915097
1992.000000	11.842395
1991.000000	11.767845
1990.000000	11.704796
1989.000000	11.621517
1988.000000	11.573460
1987.000000	11.481761
1986.000000	11.388317
1985.000000	11.346832
1984.000000	11.263656
1983.000000	11.189619
1982.000000	11.117122
1981.000000	11.060029
1980.000000	10.949436
1979.000000	10.882587
1978.000000	10.808858
1977.000000	10.746630
1976.000000	10.677317
1975.000000	10.603896
1974.000000	10.529244
1973.000000	10.457158
1972.000000	10.403453
1971.000000	10.308263
1970.000000	10.242749
1969.000000	10.192535
1968.000000	10.139447
1967.000000	10.077732
1966.000000	10.021049
1965.000000	9.943110
1964.000000	9.868149
1963.000000	9.818757
1962.000000	9.757351
1961.000000	9.716276
1960.000000	9.636592
1959.000000	9.592026
1958.000000	9.555675
1957.000000	9.491188
1956.000000	9.439742
1955.000000	9.411914
1954.000000	9.349687
1953.000000	9.309947
1952.000000	9.252340
1951.000000	9.198738
1950.000000	9.156636
1949.000000	9.101494
1948.000000	9.057749
1947.000000	9.038958
1946.000000	9.005688
1945.000000	8.987307
1944.000000	8.943152
1943.000000	8.931753
1942.000000	8.913475
1941.000000	8.907622
1940.000000	8.882977
1939.000000	8.879383
1938.000000	8.875687
1937.000000	8.887701
1936.000000	8.885031
1935.000000	8.897662
1934.000000	8.901872
1933.000000	8.914194
1932.000000	8.938736
1931.000000	8.970672
1930.000000	9.018113
1929.000000	9.064732
1928.000000	9.108990
1927.000000	9.165262
1926.000000	9.222150
1925.000000	9.298857
1924.000000	9.344347
1923.000000	9.445698
1922.000000	9.531647
1921.000000	9.643780
1920.000000	9.752217
1919.000000	9.846483
1918.000000	9.949682
1917.000000	10.071160
1916.000000	10.192433
1915.000000	10.327978
1914.000000	10.471739
1913.000000	10.630492
1912.000000	10.802389
1911.000000	10.949744
1910.000000	11.124002
1909.000000	11.312842
1908.000000	11.472520
1907.000000	11.676352
1906.000000	11.891890
1905.000000	12.169965
1904.000000	12.433355
1903.000000	12.702290
1902.000000	12.942679
1901.000000	13.245809
1900.000000	13.533330
1899.000000	13.873530
1898.000000	14.184566
1897.000000	14.531440
1896.000000	14.855005
1895.000000	15.170149
1894.000000	15.526573
1893.000000	15.919861
1892.000000	16.331325
1891.000000	16.805017
1890.000000	17.272753
1889.000000	17.715228
1888.000000	18.229481
1887.000000	18.649570
1886.000000	19.139178
1885.000000	19.630737
1884.000000	20.156696
1883.000000	20.707403
1882.000000	21.235210
1881.000000	21.730671
1880.000000	22.201899
1879.000000	22.639753
1878.000000	23.112520
1877.000000	23.564648
1876.000000	24.004248
1875.000000	24.433066
1874.000000	24.844735
1873.000000	25.246443
1872.000000	25.635419
1871.000000	25.988557
1870.000000	26.331016
1869.000000	26.627060
1868.000000	26.923105
1867.000000	27.152917
1866.000000	27.369071
1865.000000	27.523203
1864.000000	27.695100
1863.000000	27.848000
1862.000000	27.987448
1861.000000	28.166430
1860.000000	28.340175
1859.000000	28.496258
1858.000000	28.618352
1857.000000	28.718574
1856.000000	28.805138
1855.000000	28.877224
1854.000000	28.959784
1853.000000	29.017802
1852.000000	29.051996
1851.000000	29.090504
1850.000000	29.126854
1849.000000	29.168956
1848.000000	29.215267
1847.000000	29.250078
1846.000000	29.239809
1845.000000	29.194217
1844.000000	29.185078
1843.000000	29.173577
1842.000000	29.216500
1841.000000	29.241350
1840.000000	29.205307
1839.000000	29.195962
1838.000000	29.184667
1837.000000	29.176863
1836.000000	29.152321
1835.000000	29.121515
1834.000000	29.070890
1833.000000	29.026427
1832.000000	28.977857
1831.000000	28.953931
1830.000000	28.934420
1829.000000	28.890779
1828.000000	28.843030
1827.000000	28.800107
1826.000000	28.754103
1825.000000	28.720525
1824.000000	28.684379
1823.000000	28.658502
1822.000000	28.671749
1821.000000	28.680785
1820.000000	28.668668
1819.000000	28.632523
1818.000000	28.583336
1817.000000	28.550374
1816.000000	28.544829
1815.000000	28.542672
1814.000000	28.522340
1813.000000	28.494513
1812.000000	28.477877
1811.000000	28.461653
1810.000000	28.423454
1809.000000	28.377861
1808.000000	28.343050
1807.000000	28.314709
1806.000000	28.293247
1805.000000	28.255972
1804.000000	28.205759
1803.000000	28.167046
1802.000000	28.144455
1801.000000	28.121351
1800.000000	28.076374
1799.000000	28.009115
1798.000000	27.966089
1797.000000	27.934975
1796.000000	27.890717
1795.000000	27.850464
1794.000000	27.805898
1793.000000	27.764721
1792.000000	27.737407
1791.000000	27.706395
1790.000000	27.654950
1789.000000	27.610178
1788.000000	27.593543
1787.000000	27.563559
1786.000000	27.523203
1785.000000	27.492705
1784.000000	27.460565
1783.000000	27.407784
1782.000000	27.349355
1781.000000	27.313107
1780.000000	27.264434
1779.000000	27.212372
1778.000000	27.161748
1777.000000	27.105784
1776.000000	27.052900
1775.000000	26.987386
1774.000000	26.928650
1773.000000	26.854818
1772.000000	26.772567
1771.000000	26.700173
1770.000000	26.621412
1769.000000	26.543782
1768.000000	26.470053
1767.000000	26.398481
1766.000000	26.330194
1765.000000	26.269096
1764.000000	26.233772
1763.000000	26.218985
1762.000000	26.220833
1761.000000	26.234183
1760.000000	26.261805
1759.000000	26.291173
1758.000000	26.331529
1757.000000	26.378868
1756.000000	26.434215
1755.000000	26.480630
1754.000000	26.539469
1753.000000	26.584137
1752.000000	26.609501
1751.000000	26.630038
1750.000000	26.636507
1749.000000	26.626958
1748.000000	26.619667
1747.000000	26.594201
1746.000000	26.551997
1745.000000	26.504966
1744.000000	26.426411
1743.000000	26.327422
1742.000000	26.221141
1741.000000	26.092886
1740.000000	25.961859
1739.000000	25.811423
1738.000000	25.665609
1737.000000	25.501516
1736.000000	25.373672
1735.000000	25.241412
1734.000000	25.157004
1733.000000	25.087793
1732.000000	25.030392
1731.000000	25.023614
1730.000000	25.026900
1729.000000	25.049491
1728.000000	25.072596
1727.000000	25.109665
1726.000000	25.159879
1725.000000	25.199824
1724.000000	25.239153
1723.000000	25.287210
1722.000000	25.351183
1721.000000	25.426658
1720.000000	25.517227
1719.000000	25.613650
1718.000000	25.705246
1717.000000	25.820152
1716.000000	25.928588
1715.000000	26.056125
1714.000000	26.157681
1713.000000	26.276181
1712.000000	26.389444
1711.000000	26.478576
1710.000000	26.558363
1709.000000	26.618845
1708.000000	26.652732
1707.000000	26.669162
1706.000000	26.691136
1705.000000	26.684051
1704.000000	26.682203
1703.000000	26.641334
1702.000000	26.583932
1701.000000	26.527352
1700.000000	26.451569
1699.000000	26.357406
1698.000000	26.252974
1697.000000	26.171441
1696.000000	26.075430
1695.000000	26.018850
1694.000000	25.979213
1693.000000	25.964631
1692.000000	25.988968
1691.000000	26.016180
1690.000000	26.054482
1689.000000	26.123179
1688.000000	26.174727
1687.000000	26.217753
1686.000000	26.280699
1685.000000	26.378457
1684.000000	26.446538
1683.000000	26.562881
1682.000000	26.737345
1681.000000	26.955040
1680.000000	27.233012
1679.000000	27.554728
1678.000000	27.849951
1677.000000	28.167559
1676.000000	28.483833
1675.000000	28.770122
1674.000000	29.034540
1673.000000	29.252132
1672.000000	29.474961
1671.000000	29.653224
1670.000000	29.837341
1669.000000	29.997223
1668.000000	30.148583
1667.000000	30.262462
1666.000000	30.342968
1665.000000	30.443190
1664.000000	30.550702
1663.000000	30.643120
1662.000000	30.723934
1661.000000	30.784313
1660.000000	30.866462
1659.000000	30.910720
1658.000000	30.959085
1657.000000	30.972537
1656.000000	31.003959
1655.000000	31.036511
1654.000000	31.037640
1653.000000	31.042364
1652.000000	31.055816
1651.000000	31.031171
1650.000000	31.020081
1649.000000	31.008375
1648.000000	30.976850
1647.000000	30.940397
1646.000000	30.894598
1645.000000	30.852086
1644.000000	30.833192
1643.000000	30.798998
1642.000000	30.769321
1641.000000	30.719108
1640.000000	30.666327
1639.000000	30.632235
1638.000000	30.574833
1637.000000	30.525236
1636.000000	30.488885
1635.000000	30.420188
1634.000000	30.373466
1633.000000	30.294911
1632.000000	30.238639
1631.000000	30.178156
1630.000000	30.124143
1629.000000	30.034396
1628.000000	29.968163
1627.000000	29.903984
1626.000000	29.835492
1625.000000	29.746771
1624.000000	29.680950
1623.000000	29.627655
1622.000000	29.539037
1621.000000	29.475474
1620.000000	29.401848
1619.000000	29.331714
1618.000000	29.266610
1617.000000	29.217732
1616.000000	29.125314
1615.000000	29.078797
1614.000000	29.005171
1613.000000	28.933702
1612.000000	28.866134
1611.000000	28.802982
1610.000000	28.732847
1609.000000	28.661686
1608.000000	28.580256
1607.000000	28.503960
1606.000000	28.429923
1605.000000	28.365641
1604.000000	28.283184
1603.000000	28.194566
1602.000000	28.117962
1601.000000	28.024107
1600.000000	27.979130
1599.000000	27.903040
1598.000000	27.816681
1597.000000	27.755274
1596.000000	27.685550
1595.000000	27.612643
1594.000000	27.544459
1593.000000	27.465083
1592.000000	27.409427
1591.000000	27.342475
1590.000000	27.286717
1589.000000	27.247080
1588.000000	27.172530
1587.000000	27.110918
1586.000000	27.055981
1585.000000	26.986873
1584.000000	26.921872
1583.000000	26.881619
1582.000000	26.815490
1581.000000	26.744020
1580.000000	26.713522
1579.000000	26.669880
1578.000000	26.617510
1577.000000	26.566989
1576.000000	26.539982
1575.000000	26.510101
1574.000000	26.469540
1573.000000	26.445100
1572.000000	26.418812
1571.000000	26.389855
1570.000000	26.377841
1569.000000	26.369318
1568.000000	26.352580
1567.000000	26.335431
1566.000000	26.325984
1565.000000	26.295794
1564.000000	26.281726
1563.000000	26.266940
1562.000000	26.244554
1561.000000	26.225762
1560.000000	26.206868
1559.000000	26.180683
1558.000000	26.157168
1557.000000	26.112397
1556.000000	26.075738
1555.000000	26.041851
1554.000000	25.987222
1553.000000	25.952514
1552.000000	25.915753
1551.000000	25.857940
1550.000000	25.795815
1549.000000	25.734306
1548.000000	25.665711
1547.000000	25.604305
1546.000000	25.563436
1545.000000	25.512812
1544.000000	25.456026
1543.000000	25.413617
1542.000000	25.364019
1541.000000	25.315038
1540.000000	25.265646
1539.000000	25.220464
1538.000000	25.179800
1537.000000	25.144168
1536.000000	25.104018
1535.000000	25.063970
1534.000000	25.019301
1533.000000	24.958922
1532.000000	24.909530
1531.000000	24.870098
1530.000000	24.809411
1529.000000	24.746978
1528.000000	24.698099
1527.000000	24.648501
1526.000000	24.582885
1525.000000	24.522505
1524.000000	24.454835
1523.000000	24.387781
1522.000000	24.320932
1521.000000	24.255008
1520.000000	24.196168
1519.000000	24.124801
1518.000000	24.045117
1517.000000	23.974058
1516.000000	23.906182
1515.000000	23.838307
1514.000000	23.768480
1513.000000	23.686434
1512.000000	23.617634
1511.000000	23.536717
1510.000000	23.459189
1509.000000	23.380942
1508.000000	23.300539
1507.000000	23.221265
1506.000000	23.144558
1505.000000	23.062615
1504.000000	22.983238
1503.000000	22.918649
1502.000000	22.845023
1501.000000	22.768624
1500.000000	22.707628
1499.000000	22.638315
1498.000000	22.564381
1497.000000	22.505028
1496.000000	22.448346
1495.000000	22.390123
1494.000000	22.332926
1493.000000	22.280351
1492.000000	22.243589
1491.000000	22.195737
1490.000000	22.138233
1489.000000	22.092024
1488.000000	22.045507
1487.000000	21.997142
1486.000000	21.950317
1485.000000	21.908011
1484.000000	21.873200
1483.000000	21.849890
1482.000000	21.817236
1481.000000	21.789716
1480.000000	21.758705
1479.000000	21.731185
1478.000000	21.718246
1477.000000	21.713215
1476.000000	21.685387
1475.000000	21.669676
1474.000000	21.683025
1473.000000	21.707875
1472.000000	21.713009
1471.000000	21.717322
1470.000000	21.717836
1469.000000	21.710442
1468.000000	21.708183
1467.000000	21.729131
1466.000000	21.761477
1465.000000	21.770514
1464.000000	21.782014
1463.000000	21.805735
1462.000000	21.832844
1461.000000	21.864574
1460.000000	21.898769
1459.000000	21.927418
1458.000000	21.963050
1457.000000	22.026100
1456.000000	22.068201
1455.000000	22.125500
1454.000000	22.187523
1453.000000	22.251085
1452.000000	22.336007
1451.000000	22.420312
1450.000000	22.478843
1449.000000	22.539531
1448.000000	22.600116
1447.000000	22.700338
1446.000000	22.789675
1445.000000	22.874596
1444.000000	22.949557
1443.000000	23.029139
1442.000000	23.113650
1441.000000	23.204527
1440.000000	23.294378
1439.000000	23.406100
1438.000000	23.513202
1437.000000	23.618147
1436.000000	23.733259
1435.000000	23.851040
1434.000000	23.982684
1433.000000	24.106523
1432.000000	24.241761
1431.000000	24.375048
1430.000000	24.510594
1429.000000	24.650350
1428.000000	24.828100
1427.000000	24.998764
1426.000000	25.146940
1425.000000	25.335062
1424.000000	25.547725
1423.000000	25.760183
1422.000000	25.944813
1421.000000	26.164767
1420.000000	26.420969
1419.000000	26.680354
1418.000000	26.917868
1417.000000	27.127553
1416.000000	27.360548
1415.000000	27.665424
1414.000000	27.974407
1413.000000	28.282568
1412.000000	28.559513
1411.000000	28.836355
1410.000000	29.184051
1409.000000	29.573232
1408.000000	29.956765
1407.000000	30.329413
1406.000000	30.683989
1405.000000	31.097506
1404.000000	31.499318
1403.000000	31.879565
1402.000000	32.220997
1401.000000	32.639238
1400.000000	33.139936
1399.000000	33.546368
1398.000000	33.873732
1397.000000	34.174911
1396.000000	34.584013
1395.000000	35.075059
1394.000000	35.436822
1393.000000	35.782875
1392.000000	36.167332
1391.000000	36.548504
1390.000000	36.942716
1389.000000	37.311873
1388.000000	37.827358
1387.000000	38.325798
1386.000000	38.779260
1385.000000	39.237241
1384.000000	39.753650
1383.000000	40.246955
1382.000000	40.721981
1381.000000	41.176882
1380.000000	41.525296
1379.000000	41.781396
1378.000000	41.998885
1377.000000	42.183310
1376.000000	42.382521
1375.000000	42.561708
1374.000000	42.760098
1373.000000	42.996379
1372.000000	43.276610
1371.000000	43.521414
1370.000000	43.800002
1369.000000	44.012563
1368.000000	44.275439
1367.000000	44.504122
1366.000000	44.678380
1365.000000	44.850482
1364.000000	45.035112
1363.000000	45.143138
1362.000000	45.324790
1361.000000	45.501411
1360.000000	45.635827
1359.000000	45.686862
1358.000000	45.768498
1357.000000	45.824154
1356.000000	45.913593
1355.000000	46.133239
1354.000000	46.355041
1353.000000	46.584648
1352.000000	46.857896
1351.000000	47.138640
1350.000000	47.443105
1349.000000	47.762459
1348.000000	48.058812
1347.000000	48.344177
1346.000000	48.595758
1345.000000	48.874346
1344.000000	49.157966
1343.000000	49.408520
1342.000000	49.648806
1341.000000	49.880261
1340.000000	50.136052
1339.000000	50.406322
1338.000000	50.621758
1337.000000	50.853521
1336.000000	51.101919
1335.000000	51.330191
1334.000000	51.558873
1333.000000	51.774822
1332.000000	51.982043
1331.000000	52.197684
1330.000000	52.416303
1329.000000	52.617363
1328.000000	52.811645
1327.000000	52.997816
1326.000000	53.178235
1325.000000	53.351980
1324.000000	53.515252
1323.000000	53.685403
1322.000000	53.849290
1321.000000	54.025705
1320.000000	54.200066
1319.000000	54.311070
1318.000000	54.452161
1317.000000	54.590171
1316.000000	54.741120
1315.000000	54.865679
1314.000000	55.008207
1313.000000	55.118492
1312.000000	55.239354
1311.000000	55.355287
1310.000000	55.473170
1309.000000	55.565793
1308.000000	55.656774
1307.000000	55.761513
1306.000000	55.842328
1305.000000	55.913181
1304.000000	55.996049
1303.000000	56.066081
1302.000000	56.120607
1301.000000	56.197930
1300.000000	56.246090
1299.000000	56.304313
1298.000000	56.346825
1297.000000	56.409361
1296.000000	56.445815
1295.000000	56.472513
1294.000000	56.502806
1293.000000	56.527758
1292.000000	56.554354
1291.000000	56.586187
1290.000000	56.587933
1289.000000	56.588138
1288.000000	56.594710
1287.000000	56.598098
1286.000000	56.601590
1285.000000	56.593272
1284.000000	56.566266
1283.000000	56.544188
1282.000000	56.531763
1281.000000	56.507016
1280.000000	56.477956
1279.000000	56.458651
1278.000000	56.446431
1277.000000	56.431952
1276.000000	56.401454
1275.000000	56.379377
1274.000000	56.362844
1273.000000	56.348468
1272.000000	56.319819
1271.000000	56.310063
1270.000000	56.306264
1269.000000	56.288807
1268.000000	56.276074
1267.000000	56.257283
1266.000000	56.225758
1265.000000	56.202448
1264.000000	56.170307
1263.000000	56.149359
1262.000000	56.134573
1261.000000	56.106642
1260.000000	56.068648
1259.000000	56.033221
1258.000000	56.010014
1257.000000	55.987321
1256.000000	55.947581
1255.000000	55.900448
1254.000000	55.877754
1253.000000	55.834523
1252.000000	55.779278
1251.000000	55.720439
1250.000000	55.671150
1249.000000	55.611900
1248.000000	55.546899
1247.000000	55.478099
1246.000000	55.395129
1245.000000	55.313391
1244.000000	55.237814
1243.000000	55.142315
1242.000000	55.045585
1241.000000	54.954091
1240.000000	54.866500
1239.000000	54.775828
1238.000000	54.684335
1237.000000	54.585961
1236.000000	54.485534
1235.000000	54.386339
1234.000000	54.283858
1233.000000	54.176654
1232.000000	54.071914
1231.000000	53.970152
1230.000000	53.854732
1229.000000	53.747631
1228.000000	53.638578
1227.000000	53.517203
1226.000000	53.403016
1225.000000	53.300021
1224.000000	53.183062
1223.000000	53.058298
1222.000000	52.939900
1221.000000	52.834442
1220.000000	52.714196
1219.000000	52.597545
1218.000000	52.509234
1217.000000	52.404905
1216.000000	52.291026
1215.000000	52.199533
1214.000000	52.089350
1213.000000	51.996830
1212.000000	51.924539
1211.000000	51.833969
1210.000000	51.757571
1209.000000	51.671623
1208.000000	51.581259
1207.000000	51.507838
1206.000000	51.428051
1205.000000	51.360894
1204.000000	51.316431
1203.000000	51.264677
1202.000000	51.209021
1201.000000	51.171027
1200.000000	51.146280
1199.000000	51.101406
1198.000000	51.049755
1197.000000	50.978388
1196.000000	50.888126
1195.000000	50.790780
1194.000000	50.652461
1193.000000	50.487958
1192.000000	50.299221
1191.000000	50.083990
1190.000000	49.857054
1189.000000	49.632068
1188.000000	49.427209
1187.000000	49.262911
1186.000000	49.162997
1185.000000	49.126544
1184.000000	49.141638
1183.000000	49.243503
1182.000000	49.424128
1181.000000	49.660923
1180.000000	49.924210
1179.000000	50.203517
1178.000000	50.492682
1177.000000	50.770551
1176.000000	51.026547
1175.000000	51.257078
1174.000000	51.469741
1173.000000	51.663613
1172.000000	51.855328
1171.000000	52.055053
1170.000000	52.264944
1169.000000	52.486438
1168.000000	52.708446
1167.000000	52.942262
1166.000000	53.179468
1165.000000	53.421088
1164.000000	53.683657
1163.000000	53.934109
1162.000000	54.187744
1161.000000	54.470028
1160.000000	54.723766
1159.000000	54.995987
1158.000000	55.258762
1157.000000	55.513115
1156.000000	55.764081
1155.000000	56.010117
1154.000000	56.222575
1153.000000	56.402070
1152.000000	56.568217
1151.000000	56.719268
1150.000000	56.851425
1149.000000	56.965613
1148.000000	57.095408
1147.000000	57.225820
1146.000000	57.378617
1145.000000	57.544968
1144.000000	57.747568
1143.000000	57.957356
1142.000000	58.216434
1141.000000	58.501799
1140.000000	58.802259
1139.000000	59.099433
1138.000000	59.415399
1137.000000	59.739579
1136.000000	60.115924
1135.000000	60.499457
1134.000000	60.877959
1133.000000	61.197108
1132.000000	61.487915
1131.000000	61.777696
1130.000000	62.066861
1129.000000	62.316593
1128.000000	62.538704
1127.000000	62.725182
1126.000000	62.867095
1125.000000	63.011779
1124.000000	63.104608
1123.000000	63.227831
1122.000000	63.318195
1121.000000	63.378883
1120.000000	63.457643
1119.000000	63.505598
1118.000000	63.549753
1117.000000	63.588568
1116.000000	63.616191
1115.000000	63.652439
1114.000000	63.663221
1113.000000	63.696389
1112.000000	63.716310
1111.000000	63.761492
1110.000000	63.765189
1109.000000	63.784185
1108.000000	63.806160
1107.000000	63.841176
1106.000000	63.844154
1105.000000	63.859455
1104.000000	63.890158
1103.000000	63.911927
1102.000000	63.944787
1101.000000	63.962449
1100.000000	63.971793
1099.000000	64.003421
1098.000000	64.039155
1097.000000	64.054866
1096.000000	64.073453
1095.000000	64.081873
1094.000000	64.099843
1093.000000	64.105799
1092.000000	64.129006
1091.000000	64.139993
1090.000000	64.137940
1089.000000	64.138145
1088.000000	64.161660
1087.000000	64.144101
1086.000000	64.154575
1085.000000	64.147387
1084.000000	64.155704
1083.000000	64.146668
1082.000000	64.131881
1081.000000	64.117916
1080.000000	64.125104
1079.000000	64.120688
1078.000000	64.076533
1077.000000	64.071604
1076.000000	64.060925
1075.000000	64.036280
1074.000000	64.027655
1073.000000	63.999827
1072.000000	63.991920
1071.000000	63.962757
1070.000000	63.945506
1069.000000	63.918294
1068.000000	63.900529
1067.000000	63.878862
1066.000000	63.851650
1065.000000	63.819510
1064.000000	63.794454
1063.000000	63.749786
1062.000000	63.739414
1061.000000	63.715180
1060.000000	63.692487
1059.000000	63.641349
1058.000000	63.641144
1057.000000	63.597707
1056.000000	63.570495
1055.000000	63.537225
1054.000000	63.517715
1053.000000	63.500155
1052.000000	63.464729
1051.000000	63.451790
1050.000000	63.435360
1049.000000	63.430842
1048.000000	63.445115
1047.000000	63.435668
1046.000000	63.458567
1045.000000	63.442651
1044.000000	63.452201
1043.000000	63.474278
1042.000000	63.483931
1041.000000	63.496151
1040.000000	63.493378
1039.000000	63.523157
1038.000000	63.565361
1037.000000	63.579018
1036.000000	63.575938
1035.000000	63.614342
1034.000000	63.632107
1033.000000	63.646175
1032.000000	63.656546
1031.000000	63.693822
1030.000000	63.705322
1029.000000	63.710046
1028.000000	63.722574
1027.000000	63.760260
1026.000000	63.769501
1025.000000	63.777408
1024.000000	63.803080
1023.000000	63.813656
1022.000000	63.841176
1021.000000	63.856477
1020.000000	63.874857
1019.000000	63.879581
1018.000000	63.892622
1017.000000	63.929178
1016.000000	63.959266
1015.000000	63.975901
1014.000000	63.999929
1013.000000	64.016154
1012.000000	64.037718
1011.000000	64.071502
1010.000000	64.107545
1009.000000	64.139891
1008.000000	64.167103
1007.000000	64.214236
1006.000000	64.275334
1005.000000	64.324418
1004.000000	64.360358
1003.000000	64.414679
1002.000000	64.455959
1001.000000	64.506686
1000.000000	64.558851
999.000000	64.604443
998.000000	64.647058
997.000000	64.702303
996.000000	64.749026
995.000000	64.798828
994.000000	64.864548
993.000000	64.930061
992.000000	64.979454
991.000000	65.041989
990.000000	65.099699
989.000000	65.188009
988.000000	65.243973
987.000000	65.291825
986.000000	65.378492
985.000000	65.480460
984.000000	65.566716
983.000000	65.654102
982.000000	65.762950
981.000000	65.880525
980.000000	65.980131
979.000000	66.080353
978.000000	66.203679
977.000000	66.322898
976.000000	66.428254
975.000000	66.548500
974.000000	66.671210
973.000000	66.793304
972.000000	66.906361
971.000000	67.035335
970.000000	67.157737
969.000000	67.298109
968.000000	67.431499
967.000000	67.575670
966.000000	67.704850
965.000000	67.833105
964.000000	67.997711
963.000000	68.168889
962.000000	68.316654
961.000000	68.463598
960.000000	68.605819
959.000000	68.762005
958.000000	68.921374
957.000000	69.066059
956.000000	69.196881
955.000000	69.341052
954.000000	69.498778
953.000000	69.634530
952.000000	69.764839
951.000000	69.907881
950.000000	70.044659
949.000000	70.169012
948.000000	70.311438
947.000000	70.439077
946.000000	70.553058
945.000000	70.682854
944.000000	70.814908
943.000000	70.923037
942.000000	71.028804
941.000000	71.144839
940.000000	71.275559
939.000000	71.397755
938.000000	71.489762
937.000000	71.585569
936.000000	71.688255
935.000000	71.798745
934.000000	71.887877
933.000000	71.961811
932.000000	72.065832
931.000000	72.173037
930.000000	72.278085
929.000000	72.365573
928.000000	72.441356
927.000000	72.553592
926.000000	72.646626
925.000000	72.738735
924.000000	72.843270
923.000000	72.949550
922.000000	73.057165
921.000000	73.176076
920.000000	73.268083
919.000000	73.363889
918.000000	73.466781
917.000000	73.553037
916.000000	73.647714
915.000000	73.749271
914.000000	73.841996
913.000000	73.935338
912.000000	74.033301
911.000000	74.141122
910.000000	74.232410
909.000000	74.317947
908.000000	74.413856
907.000000	74.508020
906.000000	74.610090
905.000000	74.720477
904.000000	74.821521
903.000000	74.898535
902.000000	74.992288
901.000000	75.102265
900.000000	75.197763
899.000000	75.290797
898.000000	75.400466
897.000000	75.503563
896.000000	75.562094
895.000000	75.619496
894.000000	75.706265
893.000000	75.775476
892.000000	75.820863
891.000000	75.886480
890.000000	75.968834
889.000000	76.021512
888.000000	76.055193
887.000000	76.095857
886.000000	76.160344
885.000000	76.214768
884.000000	76.251119
883.000000	76.296301
882.000000	76.302873
881.000000	76.338299
880.000000	76.373623
879.000000	76.422091
878.000000	76.407305
877.000000	76.370235
876.000000	76.327415
875.000000	76.300100
874.000000	76.291885
873.000000	76.223702
872.000000	76.157366
871.000000	76.206450
870.000000	76.372391
869.000000	76.561437
868.000000	76.763729
867.000000	76.938398
866.000000	77.123952
865.000000	77.299135
864.000000	77.502864
863.000000	77.686057
862.000000	77.897796
861.000000	78.062812
860.000000	78.239330
859.000000	78.414307
858.000000	78.612800
857.000000	78.215600
856.000000	78.564100
855.000000	79.058700
854.000000	79.305300
853.000000	79.447000
852.000000	79.821800
851.000000	79.957400
850.000000	79.960700
849.000000	80.086300
848.000000	80.316200
847.000000	80.468300
846.000000	80.508900
845.000000	80.814200
844.000000	81.054400
843.000000	81.052300
842.000000	81.252200
841.000000	81.708700
840.000000	81.512700
839.000000	81.823500
838.000000	82.077400
837.000000	82.508300
836.000000	82.638100
835.000000	82.753000
834.000000	82.628400
833.000000	82.584900
832.000000	82.921300
831.000000	82.833200
830.000000	83.088300
829.000000	82.866500
828.000000	83.139500
827.000000	83.078900
826.000000	83.251600
825.000000	83.210800
824.000000	83.335900
823.000000	82.940700
822.000000	83.184200
821.000000	83.247900
820.000000	83.460800
819.000000	83.337800
818.000000	83.382900
817.000000	83.688800
816.000000	83.721300
815.000000	83.603700
814.000000	83.669400
813.000000	83.616600
812.000000	83.691400
811.000000	83.892800
810.000000	83.803400
809.000000	84.055700
808.000000	83.820200
807.000000	83.868500
806.000000	83.778000
805.000000	83.996200
804.000000	83.954000
803.000000	83.821700
802.000000	83.913300
801.000000	84.072400
800.000000	83.822000
799.000000	83.971500
798.000000	84.040300
797.000000	83.921600
796.000000	84.089700
795.000000	83.975500
794.000000	83.972500
793.000000	83.930500
792.000000	84.140700
791.000000	84.112500
790.000000	83.955900
789.000000	84.102900
788.000000	84.066200
787.000000	84.191100
786.000000	84.154500
785.000000	84.267900
784.000000	84.288400
783.000000	84.156100
782.000000	84.091900
781.000000	84.303700
780.000000	84.358500
779.000000	84.357200
778.000000	84.299100
777.000000	84.527200
776.000000	84.208500
775.000000	84.374000
774.000000	84.377700
773.000000	84.229000
772.000000	84.427500
771.000000	84.197300
770.000000	84.221600
769.000000	84.142600
768.000000	84.320200
767.000000	84.216800
766.000000	84.108300
765.000000	84.029300
764.000000	84.143700
763.000000	83.808100
762.000000	83.870800
761.000000	83.688500
760.000000	83.558600
759.000000	83.416600
758.000000	83.291600
757.000000	83.092200
756.000000	83.006300
755.000000	82.751000
754.000000	82.597800
753.000000	82.423100
752.000000	82.284400
751.000000	81.985700
750.000000	81.778900
749.000000	81.629400
748.000000	81.331100
747.000000	81.041800
746.000000	80.766300
745.000000	80.516800
744.000000	80.378200
743.000000	80.040900
742.000000	79.720400
741.000000	79.467900
740.000000	79.148300
739.000000	78.771000
738.000000	78.466300
737.000000	78.310500
736.000000	77.972500
735.000000	77.696000
734.000000	77.359000
733.000000	77.142500
732.000000	77.001300
731.000000	76.688000
730.000000	76.532100
729.000000	76.306200
728.000000	76.122800
727.000000	75.957300
726.000000	75.785700
725.000000	75.683000
724.000000	75.503500
723.000000	75.425700
722.000000	75.379900
721.000000	75.279000
720.000000	75.224800
719.000000	75.173500
718.000000	75.115300
717.000000	75.197400
716.000000	75.113800
715.000000	75.052700
714.000000	75.122000
713.000000	75.086600
712.000000	75.091300
711.000000	75.046900
710.000000	75.055200
709.000000	75.088900
708.000000	75.079900
707.000000	75.044700
706.000000	75.082900
705.000000	75.057400
704.000000	74.987700
703.000000	74.962200
702.000000	74.934700
701.000000	74.856500
700.000000	74.830200
699.000000	74.772200
698.000000	74.693100
697.000000	74.549400
696.000000	74.465400
695.000000	74.352200
694.000000	74.210100
693.000000	74.036500
692.000000	73.814100
691.000000	73.641600
690.000000	73.379500
689.000000	73.131500
688.000000	72.869000
687.000000	72.576600
686.000000	72.266100
685.000000	71.904400
684.000000	71.532300
683.000000	71.115100
682.000000	70.719800
681.000000	70.359700
680.000000	69.906100
679.000000	69.418100
678.000000	68.900200
677.000000	68.374400
676.000000	67.838800
675.000000	67.292800
674.000000	66.712600
673.000000	66.077300
672.000000	65.391000
671.000000	64.816700
670.000000	64.146600
669.000000	63.481600
668.000000	62.864100
667.000000	62.245300
666.000000	61.685600
665.000000	61.152600
664.000000	60.660900
663.000000	60.208200
662.000000	59.801400
661.000000	59.500600
660.000000	59.264500
659.000000	59.046000
658.000000	58.934600
657.000000	58.877900
656.000000	58.877500
655.000000	58.940300
654.000000	59.033900
653.000000	59.231600
652.000000	59.494400
651.000000	59.750800
650.000000	60.097600
649.000000	60.562400
648.000000	61.046400
647.000000	61.547500
646.000000	62.123300
645.000000	62.770700
644.000000	63.479500
643.000000	64.208700
642.000000	64.949300
641.000000	65.752300
640.000000	66.609700
639.000000	67.447500
638.000000	68.305500
637.000000	69.190500
636.000000	70.055100
635.000000	70.922700
634.000000	71.791600
633.000000	72.629500
632.000000	73.447300
631.000000	74.255700
630.000000	75.046400
629.000000	75.830300
628.000000	76.597100
627.000000	77.291000
626.000000	77.955100
625.000000	78.623400
624.000000	79.298200
623.000000	80.017900
622.000000	80.670000
621.000000	81.288600
620.000000	81.939700
619.000000	82.474400
618.000000	83.033600
617.000000	83.649500
616.000000	84.145500
615.000000	84.604200
614.000000	85.036800
613.000000	85.481900
612.000000	85.918300
611.000000	86.302500
610.000000	86.578800
609.000000	86.888200
608.000000	87.170900
607.000000	87.431800
606.000000	87.634300
605.000000	87.831300
604.000000	87.992700
603.000000	88.200300
602.000000	88.369300
601.000000	88.467700
600.000000	88.598000
599.000000	88.710100
598.000000	88.785400
597.000000	88.925400
596.000000	88.980700
595.000000	89.013400
594.000000	89.062600
593.000000	89.129900
592.000000	89.155300
591.000000	89.207400
590.000000	89.208300
589.000000	89.162900
588.000000	89.090800
587.000000	89.085500
586.000000	89.037000
585.000000	88.929500
584.000000	88.841700
583.000000	88.698400
582.000000	88.532700
581.000000	88.380500
580.000000	88.187100
579.000000	87.991600
578.000000	87.787500
577.000000	87.558400
576.000000	87.316100
575.000000	87.136000
574.000000	86.842700
573.000000	86.528600
572.000000	86.225700
571.000000	85.929700
570.000000	85.615600
569.000000	85.302300
568.000000	84.978300
567.000000	84.628900
566.000000	84.260800
565.000000	83.847200
564.000000	83.443400
563.000000	82.988000
562.000000	82.536000
561.000000	82.046800
560.000000	81.524500
559.000000	80.944800
558.000000	80.361500
557.000000	79.752000
556.000000	79.105800
555.000000	78.439700
554.000000	77.713200
553.000000	76.986600
552.000000	76.171800
551.000000	75.332200
550.000000	74.436800
549.000000	73.521800
548.000000	72.599600
547.000000	71.598700
546.000000	70.581100
545.000000	69.536300
544.000000	68.426800
543.000000	67.312700
542.000000	66.119000
541.000000	64.978600
540.000000	63.789900
539.000000	62.603600
538.000000	61.450400
537.000000	60.331200
536.000000	59.221400
535.000000	58.096400
534.000000	57.003900
533.000000	55.967500
532.000000	54.887500
531.000000	53.835100
530.000000	52.825700
529.000000	51.849200
528.000000	50.900700
527.000000	49.975600
526.000000	49.051400
525.000000	48.163600
524.000000	47.291800
523.000000	46.460900
522.000000	45.621400
521.000000	44.802900
520.000000	44.034300
519.000000	43.253200
518.000000	42.515300
517.000000	41.818300
516.000000	41.113600
515.000000	40.437200
514.000000	39.742200
513.000000	39.110900
512.000000	38.469000
511.000000	37.832200
510.000000	37.229700
509.000000	36.630300
508.000000	36.101300
507.000000	35.577500
506.000000	35.105500
505.000000	34.632400
504.000000	34.226700
503.000000	33.821300
502.000000	33.493000
501.000000	33.181200
500.000000	32.940100
499.000000	32.744000
498.000000	32.554200
497.000000	32.426200
496.000000	32.324800
495.000000	32.239900
494.000000	32.178800
493.000000	32.083100
492.000000	32.059400
491.000000	32.078000
490.000000	32.039600
489.000000	32.000200
488.000000	31.983600
487.000000	31.921300
486.000000	31.962100
485.000000	31.905100
484.000000	31.850200
483.000000	31.805200
482.000000	31.737500
481.000000	31.668900
480.000000	31.592900
479.000000	31.504600
478.000000	31.425700
477.000000	31.327100
476.000000	31.234300
475.000000	31.111300
474.000000	31.020800
473.000000	30.879200
472.000000	30.772900
471.000000	30.615900
470.000000	30.443800
469.000000	30.302100
468.000000	30.149400
467.000000	29.990800
466.000000	29.832100
465.000000	29.626500
464.000000	29.456200
463.000000	29.251500
462.000000	29.056000
461.000000	28.834500
460.000000	28.618400
459.000000	28.383300
458.000000	28.124100
457.000000	27.890100
456.000000	27.607000
455.000000	27.370000
454.000000	27.094600
453.000000	26.817400
452.000000	26.490500
451.000000	26.193600
450.000000	25.856500
449.000000	25.460000
448.000000	25.105200
447.000000	24.719000
446.000000	24.361100
445.000000	23.914200
444.000000	23.445200
443.000000	23.023700
442.000000	22.565000
441.000000	22.072000
440.000000	21.556200
439.000000	21.034300
438.000000	20.547700
437.000000	20.019400
436.000000	19.469600
435.000000	18.923700
434.000000	18.371800
433.000000	17.798900
432.000000	17.278500
431.000000	16.744700
430.000000	16.165600
429.000000	15.637000
428.000000	15.115400
427.000000	14.591100
426.000000	14.105200
425.000000	13.625600
424.000000	13.129400
423.000000	12.698800
422.000000	12.269800
421.000000	11.848900
420.000000	11.448900
419.000000	11.078500
418.000000	10.710400
417.000000	10.366400
416.000000	10.079900
415.000000	9.782700
414.000000	9.507100
413.000000	9.242500
412.000000	8.981400
411.000000	8.776200
410.000000	8.570000
409.000000	8.355800
408.000000	8.189400
407.000000	8.032200
406.000000	7.866300
405.000000	7.738100
404.000000	7.632400
403.000000	7.524300
402.000000	7.409600
401.000000	7.329500
400.000000	7.249200
399.000000	7.161000
398.000000	7.086500
397.000000	7.018800
396.000000	6.966100
395.000000	6.905100
394.000000	6.853600
393.000000	6.827000
392.000000	6.783000
391.000000	6.731600
390.000000	6.687100
389.000000	6.639500
388.000000	6.594600
387.000000	6.538500
386.000000	6.515000
385.000000	6.496800
384.000000	6.458800
383.000000	6.426100
382.000000	6.403000
381.000000	6.355500
380.000000	6.326700
379.000000	6.293100
378.000000	6.263100
377.000000	6.246000
376.000000	6.174700
375.000000	6.100900
374.000000	6.129400
373.000000	6.122300
372.000000	6.086100
371.000000	6.036300
370.000000	6.040600
369.000000	6.041900
368.000000	5.991500
367.000000	5.969700
366.000000	5.925400
365.000000	5.921100
364.000000	5.908200
363.000000	5.849500
362.000000	5.827800
361.000000	5.840600
360.000000	5.801700
359.000000	5.787500
358.000000	5.807400
357.000000	5.787800
356.000000	5.801400
355.000000	5.764100
354.000000	5.694400
353.000000	5.674400
352.000000	5.704200
351.000000	5.607100
350.000000	5.564900
349.000000	5.614500
348.000000	5.547100
347.000000	5.547100
346.000000	5.589800
345.000000	5.542000
344.000000	5.512000
343.000000	5.565700
342.000000	5.592600
341.000000	5.507600
340.000000	5.494500
339.000000	5.516400
338.000000	5.468800
337.000000	5.493400
336.000000	5.482800
335.000000	5.524800
334.000000	5.578900
333.000000	5.495000
332.000000	5.479300
331.000000	5.554700
330.000000	5.589900
329.000000	5.548200
328.000000	5.625300
327.000000	5.679600
326.000000	5.541800
325.000000	5.570200
324.000000	5.556600
323.000000	5.637700
322.000000	5.596200
321.000000	5.541700
320.000000	5.652700
319.000000	5.603600
318.000000	5.553300
317.000000	5.489800
316.000000	5.527000
315.000000	5.569900
314.000000	5.572200
313.000000	5.598000
312.000000	5.573100
311.000000	5.579300
310.000000	5.593000
309.000000	5.577900
308.000000	5.550200
307.000000	5.561500
306.000000	5.583700
305.000000	5.598500
304.000000	5.611300
303.000000	5.624800
302.000000	5.598300
301.000000	5.604900
300.000000	5.622400
299.000000	5.631600
298.000000	5.642200
297.000000	5.656300
296.000000	5.645200
295.000000	5.597300
294.000000	5.619000
293.000000	5.680200
292.000000	5.677200
291.000000	5.668000
290.000000	5.666700
289.000000	5.671600
288.000000	5.666800
287.000000	5.695800
286.000000	5.681900
285.000000	5.689400
284.000000	5.682500
283.000000	5.715100
282.000000	5.731900
281.000000	5.741600
280.000000	5.757500
279.000000	5.750400
278.000000	5.745200
277.000000	5.784600
276.000000	5.774600
275.000000	5.802300
274.000000	5.807800
273.000000	5.762400
272.000000	5.826700
271.000000	5.830000
270.000000	5.842400
269.000000	5.883000
268.000000	5.897100
267.000000	5.906000
266.000000	5.946200
265.000000	5.968400
264.000000	5.958800
263.000000	5.993400
262.000000	6.029800
261.000000	6.068600
260.000000	6.069900
259.000000	6.070100
258.000000	6.087500
257.000000	6.102900
256.000000	6.129200
255.000000	6.147500
254.000000	6.159600
253.000000	6.158300
252.000000	6.177600
251.000000	6.199700
250.000000	6.226000
