PE UV       SUBTECH     SPECTRUM    ASCII       PEDS        4.00        
   -1
CICIMAUCR0258-1.Sample.ASC
24/07/01
10:36:38.00
24/07/01
10:36:38.00
Vinicio Soto Monge
C. resplendens. Sex M. Dorsal.
250,000000
1
Lambda 1050
1050L1511233
PerkinElmer UV WinLab 6.3.2.0749 / 2.02.05 Lambda 900 UV/VIS/NIR, Aug  7 2015 09:38:08

0
0
3350/servo 860,8/2
0
0
UV/VIS
1
1
1
DoubleDePol,CommonBeamDepol,RBeamAtt,SBeamAtt,60mm sphere, WB InGaAs Detector
0
0
0
0
Program
Program
3350/servo 860,8/2
3350/0,2 860,8/0,2
3350/0,2 860,8/0,2
0
15.00
 
 
 
0
 
860,8
319,2
860,8
Front
100
on
S:100 R:100
0
0
0
0
 
0
 
 
 
0
 
 
0
0
0
0
0
 
 
 
 
0
0


0
0
#HDR
-1
-1
#GR
nm
%R
1.0
0.0
2500,000000
-1,000000
2251
8
95,943200
5,144800
#DATA
2482.000000	10.168801
2481.000000	10.088497
2480.000000	10.101810
2479.000000	10.089342
2478.000000	10.107833
2477.000000	10.154220
2476.000000	10.188244
2475.000000	10.187821
2474.000000	10.165737
2473.000000	10.191625
2472.000000	10.230826
2471.000000	10.241181
2470.000000	10.261892
2469.000000	10.287885
2468.000000	10.303101
2467.000000	10.365759
2466.000000	10.393655
2465.000000	10.401474
2464.000000	10.405489
2463.000000	10.481145
2462.000000	10.538732
2461.000000	10.590507
2460.000000	10.613014
2459.000000	10.629708
2458.000000	10.714768
2457.000000	10.766861
2456.000000	10.843150
2455.000000	10.902216
2454.000000	10.964241
2453.000000	11.034085
2452.000000	11.101076
2451.000000	11.175253
2450.000000	11.244357
2449.000000	11.328783
2448.000000	11.415955
2447.000000	11.495309
2446.000000	11.582377
2445.000000	11.689731
2444.000000	11.738548
2443.000000	11.836182
2442.000000	11.930751
2441.000000	12.004927
2440.000000	12.086606
2439.000000	12.171349
2438.000000	12.246159
2437.000000	12.326569
2436.000000	12.410361
2435.000000	12.478620
2434.000000	12.571816
2433.000000	12.657826
2432.000000	12.720908
2431.000000	12.782087
2430.000000	12.859962
2429.000000	12.933081
2428.000000	12.992887
2427.000000	13.068437
2426.000000	13.131730
2425.000000	13.199566
2424.000000	13.253772
2423.000000	13.334183
2422.000000	13.379935
2421.000000	13.437839
2420.000000	13.501238
2419.000000	13.551322
2418.000000	13.597286
2417.000000	13.670934
2416.000000	13.724717
2415.000000	13.779451
2414.000000	13.810939
2413.000000	13.858277
2412.000000	13.911320
2411.000000	13.964364
2410.000000	13.999550
2409.000000	14.034102
2408.000000	14.064850
2407.000000	14.116097
2406.000000	14.180341
2405.000000	14.254412
2404.000000	14.318550
2403.000000	14.389767
2402.000000	14.424320
2401.000000	14.462993
2400.000000	14.504096
2399.000000	14.543086
2398.000000	14.586725
2397.000000	14.636388
2396.000000	14.691439
2395.000000	14.722927
2394.000000	14.747546
2393.000000	14.780091
2392.000000	14.823519
2391.000000	14.858599
2390.000000	14.911960
2389.000000	14.937953
2388.000000	14.971871
2387.000000	14.993532
2386.000000	15.026394
2385.000000	15.064750
2384.000000	15.067392
2383.000000	15.088630
2382.000000	15.105853
2381.000000	15.118850
2380.000000	15.133854
2379.000000	15.136073
2378.000000	15.156044
2377.000000	15.178233
2376.000000	15.177494
2375.000000	15.177071
2374.000000	15.180347
2373.000000	15.177599
2372.000000	15.177494
2371.000000	15.179713
2370.000000	15.177282
2369.000000	15.172105
2368.000000	15.174007
2367.000000	15.166188
2366.000000	15.156255
2365.000000	15.141885
2364.000000	15.121386
2363.000000	15.105642
2362.000000	15.082290
2361.000000	15.049534
2360.000000	15.040870
2359.000000	15.026922
2358.000000	14.999027
2357.000000	14.970181
2356.000000	14.945984
2355.000000	14.925062
2354.000000	14.907628
2353.000000	14.901710
2352.000000	14.895053
2351.000000	14.900020
2350.000000	14.905409
2349.000000	14.911431
2348.000000	14.927598
2347.000000	14.959614
2346.000000	14.986136
2345.000000	15.017096
2344.000000	15.070245
2343.000000	15.108495
2342.000000	15.150549
2341.000000	15.201057
2340.000000	15.239096
2339.000000	15.270161
2338.000000	15.322042
2337.000000	15.369274
2336.000000	15.384807
2335.000000	15.400973
2334.000000	15.423480
2333.000000	15.439858
2332.000000	15.449685
2331.000000	15.446937
2330.000000	15.428552
2329.000000	15.438167
2328.000000	15.425276
2327.000000	15.408793
2326.000000	15.388188
2325.000000	15.364308
2324.000000	15.337575
2323.000000	15.286117
2322.000000	15.227050
2321.000000	15.170837
2320.000000	15.132481
2319.000000	15.065067
2318.000000	14.978211
2317.000000	14.891038
2316.000000	14.806507
2315.000000	14.716798
2314.000000	14.630470
2313.000000	14.550483
2312.000000	14.450102
2311.000000	14.358808
2310.000000	14.273326
2309.000000	14.210878
2308.000000	14.145789
2307.000000	14.084821
2306.000000	14.032728
2305.000000	14.029136
2304.000000	14.018992
2303.000000	14.022796
2302.000000	14.048895
2301.000000	14.082073
2300.000000	14.141985
2299.000000	14.198727
2298.000000	14.263921
2297.000000	14.340422
2296.000000	14.437528
2295.000000	14.522799
2294.000000	14.615994
2293.000000	14.689642
2292.000000	14.768151
2291.000000	14.840742
2290.000000	14.904880
2289.000000	14.967433
2288.000000	15.002408
2287.000000	15.046682
2286.000000	15.087045
2285.000000	15.090849
2284.000000	15.098246
2283.000000	15.098774
2282.000000	15.083030
2281.000000	15.067814
2280.000000	15.037383
2279.000000	14.998076
2278.000000	14.965003
2277.000000	14.934678
2276.000000	14.878570
2275.000000	14.854161
2274.000000	14.801963
2273.000000	14.766460
2272.000000	14.747124
2271.000000	14.736135
2270.000000	14.750716
2269.000000	14.757479
2268.000000	14.792348
2267.000000	14.817179
2266.000000	14.908156
2265.000000	14.978211
2264.000000	15.081551
2263.000000	15.217752
2262.000000	15.386920
2261.000000	15.547001
2260.000000	15.732019
2259.000000	15.933838
2258.000000	16.144743
2257.000000	16.371710
2256.000000	16.605017
2255.000000	16.819515
2254.000000	17.065712
2253.000000	17.309268
2252.000000	17.523238
2251.000000	17.739427
2250.000000	17.959948
2249.000000	18.151834
2248.000000	18.362211
2247.000000	18.539410
2246.000000	18.700231
2245.000000	18.852704
2244.000000	19.026205
2243.000000	19.134405
2242.000000	19.271240
2241.000000	19.388527
2240.000000	19.464183
2239.000000	19.590663
2238.000000	19.661458
2237.000000	19.731513
2236.000000	19.816150
2235.000000	19.851019
2234.000000	19.927626
2233.000000	19.963657
2232.000000	20.001908
2231.000000	20.018920
2230.000000	20.055691
2229.000000	20.075873
2228.000000	20.091617
2227.000000	20.085066
2226.000000	20.063404
2225.000000	20.074499
2224.000000	20.061819
2223.000000	20.027690
2222.000000	20.006029
2221.000000	19.954359
2220.000000	19.926041
2219.000000	19.889270
2218.000000	19.872469
2217.000000	19.811818
2216.000000	19.746940
2215.000000	19.724222
2214.000000	19.662303
2213.000000	19.617713
2212.000000	19.575342
2211.000000	19.542163
2210.000000	19.500848
2209.000000	19.461436
2208.000000	19.426672
2207.000000	19.397615
2206.000000	19.351862
2205.000000	19.305264
2204.000000	19.301354
2203.000000	19.274938
2202.000000	19.247466
2201.000000	19.234363
2200.000000	19.215133
2199.000000	19.200234
2198.000000	19.174557
2197.000000	19.167372
2196.000000	19.141273
2195.000000	19.108834
2194.000000	19.113167
2193.000000	19.092879
2192.000000	19.085905
2191.000000	19.075973
2190.000000	19.060652
2189.000000	19.054206
2188.000000	19.050085
2187.000000	19.016061
2186.000000	18.986053
2185.000000	18.977071
2184.000000	18.964497
2183.000000	18.948014
2182.000000	18.932375
2181.000000	18.905537
2180.000000	18.886094
2179.000000	18.872252
2178.000000	18.858727
2177.000000	18.837806
2176.000000	18.835376
2175.000000	18.833791
2174.000000	18.809805
2173.000000	18.820371
2172.000000	18.822062
2171.000000	18.815405
2170.000000	18.836010
2169.000000	18.838017
2168.000000	18.829036
2167.000000	18.869505
2166.000000	18.871196
2165.000000	18.886623
2164.000000	18.903212
2163.000000	18.937658
2162.000000	18.970097
2161.000000	19.005706
2160.000000	19.027050
2159.000000	19.069739
2158.000000	19.109363
2157.000000	19.153319
2156.000000	19.210272
2155.000000	19.263844
2154.000000	19.300403
2153.000000	19.351228
2152.000000	19.396875
2151.000000	19.451820
2150.000000	19.495354
2149.000000	19.557801
2148.000000	19.612747
2147.000000	19.671813
2146.000000	19.724328
2145.000000	19.772828
2144.000000	19.833902
2143.000000	19.889058
2142.000000	19.938087
2141.000000	19.978450
2140.000000	20.023569
2139.000000	20.071118
2138.000000	20.100387
2137.000000	20.152902
2136.000000	20.183861
2135.000000	20.221689
2134.000000	20.259940
2133.000000	20.296394
2132.000000	20.313406
2131.000000	20.320591
2130.000000	20.357256
2129.000000	20.384306
2128.000000	20.387582
2127.000000	20.399628
2126.000000	20.417168
2125.000000	20.419915
2124.000000	20.414526
2123.000000	20.423508
2122.000000	20.403009
2121.000000	20.393711
2120.000000	20.396880
2119.000000	20.370887
2118.000000	20.362962
2117.000000	20.361272
2116.000000	20.341512
2115.000000	20.307700
2114.000000	20.304107
2113.000000	20.288152
2112.000000	20.260468
2111.000000	20.229086
2110.000000	20.210806
2109.000000	20.186397
2108.000000	20.157762
2107.000000	20.126063
2106.000000	20.093519
2105.000000	20.063404
2104.000000	20.041849
2103.000000	20.017757
2102.000000	19.986375
2101.000000	19.949815
2100.000000	19.915052
2099.000000	19.900576
2098.000000	19.870462
2097.000000	19.836755
2096.000000	19.811395
2095.000000	19.792693
2094.000000	19.756239
2093.000000	19.719679
2092.000000	19.696855
2091.000000	19.682591
2090.000000	19.654907
2089.000000	19.627857
2088.000000	19.606407
2087.000000	19.571643
2086.000000	19.542057
2085.000000	19.518283
2084.000000	19.486584
2083.000000	19.445375
2082.000000	19.406807
2081.000000	19.372149
2080.000000	19.328827
2079.000000	19.275361
2078.000000	19.223374
2077.000000	19.168852
2076.000000	19.113801
2075.000000	19.054840
2074.000000	18.991547
2073.000000	18.922126
2072.000000	18.851753
2071.000000	18.792582
2070.000000	18.730134
2069.000000	18.638418
2068.000000	18.554415
2067.000000	18.489325
2066.000000	18.416206
2065.000000	18.340762
2064.000000	18.276412
2063.000000	18.192726
2062.000000	18.107138
2061.000000	18.048812
2060.000000	17.990379
2059.000000	17.933109
2058.000000	17.880911
2057.000000	17.831038
2056.000000	17.792259
2055.000000	17.777889
2054.000000	17.765103
2053.000000	17.751367
2052.000000	17.757178
2051.000000	17.767851
2050.000000	17.787927
2049.000000	17.814765
2048.000000	17.854495
2047.000000	17.907750
2046.000000	17.958257
2045.000000	18.001685
2044.000000	18.064133
2043.000000	18.126052
2042.000000	18.185224
2041.000000	18.254223
2040.000000	18.302089
2039.000000	18.348052
2038.000000	18.388522
2037.000000	18.448539
2036.000000	18.484782
2035.000000	18.525674
2034.000000	18.581042
2033.000000	18.608620
2032.000000	18.631549
2031.000000	18.631655
2030.000000	18.644757
2029.000000	18.675611
2028.000000	18.691144
2027.000000	18.693363
2026.000000	18.699069
2025.000000	18.712171
2024.000000	18.706148
2023.000000	18.690510
2022.000000	18.663671
2021.000000	18.642855
2020.000000	18.632078
2019.000000	18.609043
2018.000000	18.588544
2017.000000	18.555366
2016.000000	18.523772
2015.000000	18.497039
2014.000000	18.463543
2013.000000	18.425082
2012.000000	18.388310
2011.000000	18.326603
2010.000000	18.278208
2009.000000	18.238267
2008.000000	18.178778
2007.000000	18.114006
2006.000000	18.049974
2005.000000	17.974318
2004.000000	17.911448
2003.000000	17.861997
2002.000000	17.779896
2001.000000	17.698324
2000.000000	17.604705
1999.000000	17.530106
1998.000000	17.451492
1997.000000	17.366327
1996.000000	17.263833
1995.000000	17.171482
1994.000000	17.078920
1993.000000	16.990691
1992.000000	16.894959
1991.000000	16.797959
1990.000000	16.696416
1989.000000	16.585469
1988.000000	16.473465
1987.000000	16.387454
1986.000000	16.273020
1985.000000	16.173484
1984.000000	16.051442
1983.000000	15.961310
1982.000000	15.845820
1981.000000	15.725045
1980.000000	15.631321
1979.000000	15.534110
1978.000000	15.411329
1977.000000	15.313061
1976.000000	15.216484
1975.000000	15.090955
1974.000000	15.016779
1973.000000	14.915658
1972.000000	14.786431
1971.000000	14.692390
1970.000000	14.572249
1969.000000	14.479371
1968.000000	14.381526
1967.000000	14.281673
1966.000000	14.177700
1965.000000	14.097606
1964.000000	14.014026
1963.000000	13.908362
1962.000000	13.827529
1961.000000	13.728310
1960.000000	13.644730
1959.000000	13.554070
1958.000000	13.467214
1957.000000	13.381414
1956.000000	13.299842
1955.000000	13.226088
1954.000000	13.130356
1953.000000	13.036421
1952.000000	12.969958
1951.000000	12.885955
1950.000000	12.844958
1949.000000	12.751445
1948.000000	12.670612
1947.000000	12.610594
1946.000000	12.575831
1945.000000	12.517504
1944.000000	12.467102
1943.000000	12.429169
1942.000000	12.384367
1941.000000	12.368412
1940.000000	12.351717
1939.000000	12.313678
1938.000000	12.324562
1937.000000	12.327520
1936.000000	12.292334
1935.000000	12.299096
1934.000000	12.318750
1933.000000	12.359219
1932.000000	12.366088
1931.000000	12.428324
1930.000000	12.470695
1929.000000	12.524584
1928.000000	12.609326
1927.000000	12.656558
1926.000000	12.745845
1925.000000	12.834285
1924.000000	12.947029
1923.000000	13.075200
1922.000000	13.181498
1921.000000	13.315163
1920.000000	13.465417
1919.000000	13.631838
1918.000000	13.760115
1917.000000	13.930657
1916.000000	14.091900
1915.000000	14.276390
1914.000000	14.479793
1913.000000	14.724934
1912.000000	14.950633
1911.000000	15.161116
1910.000000	15.394951
1909.000000	15.600150
1908.000000	15.838212
1907.000000	16.113995
1906.000000	16.409749
1905.000000	16.750833
1904.000000	17.094770
1903.000000	17.399611
1902.000000	17.754748
1901.000000	18.103651
1900.000000	18.483831
1899.000000	18.918322
1898.000000	19.336224
1897.000000	19.763741
1896.000000	20.173084
1895.000000	20.569641
1894.000000	21.002019
1893.000000	21.470217
1892.000000	22.006146
1891.000000	22.594167
1890.000000	23.159258
1889.000000	23.690432
1888.000000	24.253516
1887.000000	24.815967
1886.000000	25.407686
1885.000000	25.998560
1884.000000	26.594189
1883.000000	27.202075
1882.000000	27.845147
1881.000000	28.417107
1880.000000	28.979769
1879.000000	29.512210
1878.000000	30.042222
1877.000000	30.591253
1876.000000	31.122849
1875.000000	31.637328
1874.000000	32.131942
1873.000000	32.597287
1872.000000	33.077530
1871.000000	33.513078
1870.000000	33.906360
1869.000000	34.248395
1868.000000	34.571727
1867.000000	34.842650
1866.000000	35.065918
1865.000000	35.279254
1864.000000	35.487307
1863.000000	35.691661
1862.000000	35.894114
1861.000000	36.104280
1860.000000	36.331247
1859.000000	36.533276
1858.000000	36.696845
1857.000000	36.826811
1856.000000	36.962907
1855.000000	37.067620
1854.000000	37.158069
1853.000000	37.235415
1852.000000	37.286979
1851.000000	37.359676
1850.000000	37.423920
1849.000000	37.519017
1848.000000	37.605556
1847.000000	37.639052
1846.000000	37.618976
1845.000000	37.574068
1844.000000	37.569630
1843.000000	37.591503
1842.000000	37.667792
1841.000000	37.729395
1840.000000	37.713228
1839.000000	37.718089
1838.000000	37.699597
1837.000000	37.672864
1836.000000	37.644969
1835.000000	37.588333
1834.000000	37.525674
1833.000000	37.458260
1832.000000	37.426350
1831.000000	37.391058
1830.000000	37.377216
1829.000000	37.339177
1828.000000	37.286979
1827.000000	37.235837
1826.000000	37.158808
1825.000000	37.111788
1824.000000	37.068677
1823.000000	37.038774
1822.000000	37.039513
1821.000000	37.051348
1820.000000	37.018064
1819.000000	36.972839
1818.000000	36.915041
1817.000000	36.860730
1816.000000	36.821211
1815.000000	36.813075
1814.000000	36.792048
1813.000000	36.760137
1812.000000	36.727064
1811.000000	36.703818
1810.000000	36.661870
1809.000000	36.605445
1808.000000	36.571633
1807.000000	36.533065
1806.000000	36.494709
1805.000000	36.452443
1804.000000	36.398238
1803.000000	36.347202
1802.000000	36.316348
1801.000000	36.276513
1800.000000	36.221461
1799.000000	36.152357
1798.000000	36.086951
1797.000000	36.039191
1796.000000	36.010133
1795.000000	35.972200
1794.000000	35.920953
1793.000000	35.878370
1792.000000	35.830504
1791.000000	35.775030
1790.000000	35.736569
1789.000000	35.710575
1788.000000	35.668098
1787.000000	35.623085
1786.000000	35.584412
1785.000000	35.553875
1784.000000	35.524712
1783.000000	35.478325
1782.000000	35.423063
1781.000000	35.377733
1780.000000	35.343921
1779.000000	35.298591
1778.000000	35.239630
1777.000000	35.188383
1776.000000	35.138404
1775.000000	35.089270
1774.000000	35.041087
1773.000000	34.980330
1772.000000	34.907950
1771.000000	34.851209
1770.000000	34.791614
1769.000000	34.730540
1768.000000	34.672425
1767.000000	34.604589
1766.000000	34.551334
1765.000000	34.500404
1764.000000	34.467859
1763.000000	34.446515
1762.000000	34.437005
1761.000000	34.439647
1760.000000	34.460991
1759.000000	34.499347
1758.000000	34.551334
1757.000000	34.611140
1756.000000	34.652666
1755.000000	34.705392
1754.000000	34.771538
1753.000000	34.829653
1752.000000	34.860507
1751.000000	34.888402
1750.000000	34.911332
1749.000000	34.908690
1748.000000	34.917671
1747.000000	34.909218
1746.000000	34.877308
1745.000000	34.841065
1744.000000	34.813170
1743.000000	34.749771
1742.000000	34.662810
1741.000000	34.587788
1740.000000	34.497973
1739.000000	34.388294
1738.000000	34.286434
1737.000000	34.164814
1736.000000	34.044463
1735.000000	33.971555
1734.000000	33.885861
1733.000000	33.829331
1732.000000	33.805345
1731.000000	33.799745
1730.000000	33.833769
1729.000000	33.865256
1728.000000	33.910586
1727.000000	33.953803
1726.000000	34.039497
1725.000000	34.114413
1724.000000	34.189540
1723.000000	34.250402
1722.000000	34.309257
1721.000000	34.383116
1720.000000	34.462787
1719.000000	34.554081
1718.000000	34.654145
1717.000000	34.750194
1716.000000	34.839269
1715.000000	34.943665
1714.000000	35.061692
1713.000000	35.158903
1712.000000	35.273865
1711.000000	35.346351
1710.000000	35.430460
1709.000000	35.488152
1708.000000	35.546585
1707.000000	35.575748
1706.000000	35.564970
1705.000000	35.568563
1704.000000	35.542252
1703.000000	35.498930
1702.000000	35.445675
1701.000000	35.392526
1700.000000	35.321943
1699.000000	35.218180
1698.000000	35.116109
1697.000000	35.025660
1696.000000	34.965749
1695.000000	34.878576
1694.000000	34.837155
1693.000000	34.861352
1692.000000	34.871602
1691.000000	34.921687
1690.000000	34.976738
1689.000000	35.075745
1688.000000	35.186904
1687.000000	35.251148
1686.000000	35.327331
1685.000000	35.431094
1684.000000	35.515836
1683.000000	35.642739
1682.000000	35.786336
1681.000000	35.991642
1680.000000	36.250096
1679.000000	36.530846
1678.000000	36.873726
1677.000000	37.172967
1676.000000	37.497145
1675.000000	37.784657
1674.000000	38.069528
1673.000000	38.312449
1672.000000	38.533393
1671.000000	38.740706
1670.000000	38.916954
1669.000000	39.066046
1668.000000	39.209538
1667.000000	39.295971
1666.000000	39.405334
1665.000000	39.495571
1664.000000	39.573129
1663.000000	39.642761
1662.000000	39.719473
1661.000000	39.777166
1660.000000	39.830843
1659.000000	39.870573
1658.000000	39.904703
1657.000000	39.952357
1656.000000	39.944115
1655.000000	39.975392
1654.000000	39.982154
1653.000000	39.989445
1652.000000	39.965460
1651.000000	39.959542
1650.000000	39.930168
1649.000000	39.916431
1648.000000	39.879238
1647.000000	39.845214
1646.000000	39.820805
1645.000000	39.777272
1644.000000	39.738493
1643.000000	39.713873
1642.000000	39.661464
1641.000000	39.630716
1640.000000	39.562879
1639.000000	39.515964
1638.000000	39.473065
1637.000000	39.424882
1636.000000	39.364970
1635.000000	39.319112
1634.000000	39.287413
1633.000000	39.204995
1632.000000	39.152163
1631.000000	39.086545
1630.000000	39.016490
1629.000000	38.975386
1628.000000	38.912939
1627.000000	38.845842
1626.000000	38.773991
1625.000000	38.705626
1624.000000	38.651420
1623.000000	38.577984
1622.000000	38.514162
1621.000000	38.454039
1620.000000	38.387682
1619.000000	38.341401
1618.000000	38.262153
1617.000000	38.212491
1616.000000	38.144338
1615.000000	38.101966
1614.000000	38.031066
1613.000000	37.983623
1612.000000	37.932376
1611.000000	37.870879
1610.000000	37.802514
1609.000000	37.742391
1608.000000	37.693575
1607.000000	37.624153
1606.000000	37.561811
1605.000000	37.498518
1604.000000	37.426139
1603.000000	37.366650
1602.000000	37.294692
1601.000000	37.229815
1600.000000	37.159231
1599.000000	37.075862
1598.000000	37.021128
1597.000000	36.957624
1596.000000	36.895387
1595.000000	36.820366
1594.000000	36.758024
1593.000000	36.708573
1592.000000	36.648345
1591.000000	36.586848
1590.000000	36.529895
1589.000000	36.470512
1588.000000	36.412819
1587.000000	36.352168
1586.000000	36.274082
1585.000000	36.222729
1584.000000	36.171905
1583.000000	36.108824
1582.000000	36.058739
1581.000000	35.999567
1580.000000	35.943142
1579.000000	35.891367
1578.000000	35.840648
1577.000000	35.796269
1576.000000	35.759709
1575.000000	35.718394
1574.000000	35.678031
1573.000000	35.644430
1572.000000	35.598466
1571.000000	35.552819
1570.000000	35.532426
1569.000000	35.510342
1568.000000	35.481495
1567.000000	35.450430
1566.000000	35.412180
1565.000000	35.391575
1564.000000	35.353747
1563.000000	35.325324
1562.000000	35.295526
1561.000000	35.257804
1560.000000	35.210044
1559.000000	35.163341
1558.000000	35.122343
1557.000000	35.066447
1556.000000	35.016467
1555.000000	34.968390
1554.000000	34.899709
1553.000000	34.827751
1552.000000	34.752624
1551.000000	34.675278
1550.000000	34.618536
1549.000000	34.541507
1548.000000	34.461942
1547.000000	34.409850
1546.000000	34.342753
1545.000000	34.269633
1544.000000	34.210884
1543.000000	34.157418
1542.000000	34.091589
1541.000000	34.027557
1540.000000	33.971238
1539.000000	33.922209
1538.000000	33.876351
1537.000000	33.828697
1536.000000	33.751245
1535.000000	33.682880
1534.000000	33.632161
1533.000000	33.566121
1532.000000	33.494270
1531.000000	33.436788
1530.000000	33.377299
1529.000000	33.308512
1528.000000	33.241627
1527.000000	33.182666
1526.000000	33.116626
1525.000000	33.045937
1524.000000	32.971126
1523.000000	32.893358
1522.000000	32.817596
1521.000000	32.748281
1520.000000	32.669984
1519.000000	32.590524
1518.000000	32.516454
1517.000000	32.440270
1516.000000	32.372222
1515.000000	32.289804
1514.000000	32.210239
1513.000000	32.135006
1512.000000	32.063366
1511.000000	31.987393
1510.000000	31.895254
1509.000000	31.807553
1508.000000	31.733693
1507.000000	31.667442
1506.000000	31.581220
1505.000000	31.494364
1504.000000	31.417652
1503.000000	31.343898
1502.000000	31.272575
1501.000000	31.201252
1500.000000	31.128766
1499.000000	31.056809
1498.000000	30.987176
1497.000000	30.920819
1496.000000	30.860802
1495.000000	30.803004
1494.000000	30.742669
1493.000000	30.686984
1492.000000	30.642394
1491.000000	30.591992
1490.000000	30.546768
1489.000000	30.492457
1488.000000	30.426100
1487.000000	30.376332
1486.000000	30.337025
1485.000000	30.284510
1484.000000	30.243618
1483.000000	30.201986
1482.000000	30.166694
1481.000000	30.128338
1480.000000	30.078676
1479.000000	30.040742
1478.000000	30.023730
1477.000000	30.002598
1476.000000	29.966460
1475.000000	29.936240
1474.000000	29.929584
1473.000000	29.925040
1472.000000	29.915002
1471.000000	29.910247
1470.000000	29.902322
1469.000000	29.880027
1468.000000	29.854034
1467.000000	29.855302
1466.000000	29.875378
1465.000000	29.880555
1464.000000	29.874744
1463.000000	29.886684
1462.000000	29.880555
1461.000000	29.883091
1460.000000	29.929478
1459.000000	29.952830
1458.000000	29.972800
1457.000000	30.027112
1456.000000	30.072653
1455.000000	30.127070
1454.000000	30.167011
1453.000000	30.207375
1452.000000	30.288102
1451.000000	30.356889
1450.000000	30.416590
1449.000000	30.471007
1448.000000	30.524895
1447.000000	30.594634
1446.000000	30.691317
1445.000000	30.781025
1444.000000	30.835759
1443.000000	30.917121
1442.000000	31.014332
1441.000000	31.108056
1440.000000	31.206218
1439.000000	31.308607
1438.000000	31.417863
1437.000000	31.515180
1436.000000	31.619259
1435.000000	31.745845
1434.000000	31.894831
1433.000000	32.024587
1432.000000	32.178011
1431.000000	32.328266
1430.000000	32.456542
1429.000000	32.610812
1428.000000	32.817808
1427.000000	32.981798
1426.000000	33.160688
1425.000000	33.359865
1424.000000	33.566333
1423.000000	33.811262
1422.000000	34.046470
1421.000000	34.246810
1420.000000	34.521642
1419.000000	34.824793
1418.000000	35.058099
1417.000000	35.305882
1416.000000	35.582299
1415.000000	35.925179
1414.000000	36.268376
1413.000000	36.578289
1412.000000	36.902573
1411.000000	37.246721
1410.000000	37.630282
1409.000000	38.072169
1408.000000	38.460379
1407.000000	38.856197
1406.000000	39.248951
1405.000000	39.685767
1404.000000	40.125646
1403.000000	40.575036
1402.000000	40.982266
1401.000000	41.474449
1400.000000	42.003298
1399.000000	42.462409
1398.000000	42.809093
1397.000000	43.222240
1396.000000	43.708507
1395.000000	44.248345
1394.000000	44.701010
1393.000000	45.084994
1392.000000	45.570098
1391.000000	46.033541
1390.000000	46.517060
1389.000000	46.949860
1388.000000	47.550033
1387.000000	48.079304
1386.000000	48.598855
1385.000000	49.131508
1384.000000	49.727771
1383.000000	50.249858
1382.000000	50.783567
1381.000000	51.264867
1380.000000	51.559036
1379.000000	51.887969
1378.000000	52.179708
1377.000000	52.388500
1376.000000	52.618003
1375.000000	52.848984
1374.000000	53.042139
1373.000000	53.302389
1372.000000	53.551968
1371.000000	53.848567
1370.000000	54.094448
1369.000000	54.318667
1368.000000	54.590964
1367.000000	54.811274
1366.000000	54.997137
1365.000000	55.163135
1364.000000	55.381860
1363.000000	55.484460
1362.000000	55.685644
1361.000000	55.834103
1360.000000	55.946635
1359.000000	55.946424
1358.000000	56.082308
1357.000000	56.178779
1356.000000	56.270918
1355.000000	56.461536
1354.000000	56.669061
1353.000000	56.870245
1352.000000	57.090027
1351.000000	57.349327
1350.000000	57.650892
1349.000000	57.928049
1348.000000	58.208904
1347.000000	58.469789
1346.000000	58.728561
1345.000000	58.957746
1344.000000	59.242194
1343.000000	59.507834
1342.000000	59.750439
1341.000000	59.988500
1340.000000	60.252661
1339.000000	60.496216
1338.000000	60.735863
1337.000000	60.970437
1336.000000	61.207336
1335.000000	61.469700
1334.000000	61.688108
1333.000000	61.920147
1332.000000	62.147430
1331.000000	62.390986
1330.000000	62.602948
1329.000000	62.812480
1328.000000	63.024337
1327.000000	63.223514
1326.000000	63.417619
1325.000000	63.614683
1324.000000	63.792621
1323.000000	63.983768
1322.000000	64.142053
1321.000000	64.308685
1320.000000	64.478276
1319.000000	64.634236
1318.000000	64.804144
1317.000000	64.950806
1316.000000	65.082992
1315.000000	65.222574
1314.000000	65.358141
1313.000000	65.501739
1312.000000	65.613320
1311.000000	65.726592
1310.000000	65.835321
1309.000000	65.939928
1308.000000	66.049396
1307.000000	66.142909
1306.000000	66.223531
1305.000000	66.301828
1304.000000	66.373257
1303.000000	66.443101
1302.000000	66.508824
1301.000000	66.563030
1300.000000	66.617235
1299.000000	66.674505
1298.000000	66.713707
1297.000000	66.749844
1296.000000	66.792744
1295.000000	66.818314
1294.000000	66.847372
1293.000000	66.858467
1292.000000	66.864173
1291.000000	66.884988
1290.000000	66.902317
1289.000000	66.922922
1288.000000	66.903163
1287.000000	66.889426
1286.000000	66.883086
1285.000000	66.861954
1284.000000	66.832368
1283.000000	66.810706
1282.000000	66.778690
1281.000000	66.751006
1280.000000	66.727020
1279.000000	66.699019
1278.000000	66.669116
1277.000000	66.644497
1276.000000	66.623892
1275.000000	66.594623
1274.000000	66.576132
1273.000000	66.568524
1272.000000	66.533655
1271.000000	66.498258
1270.000000	66.496673
1269.000000	66.481351
1268.000000	66.463917
1267.000000	66.442256
1266.000000	66.425666
1265.000000	66.401575
1264.000000	66.378963
1263.000000	66.362268
1262.000000	66.350011
1261.000000	66.316093
1260.000000	66.290944
1259.000000	66.267276
1258.000000	66.236844
1257.000000	66.204723
1256.000000	66.167000
1255.000000	66.128961
1254.000000	66.077080
1253.000000	66.042739
1252.000000	66.006708
1251.000000	65.953347
1250.000000	65.881919
1249.000000	65.819894
1248.000000	65.758820
1247.000000	65.694787
1246.000000	65.632868
1245.000000	65.561122
1244.000000	65.483353
1243.000000	65.395969
1242.000000	65.315030
1241.000000	65.230288
1240.000000	65.135824
1239.000000	65.047489
1238.000000	64.968769
1237.000000	64.883498
1236.000000	64.800552
1235.000000	64.705665
1234.000000	64.614266
1233.000000	64.527515
1232.000000	64.423964
1231.000000	64.314074
1230.000000	64.209044
1229.000000	64.099470
1228.000000	63.991375
1227.000000	63.882753
1226.000000	63.761450
1225.000000	63.643529
1224.000000	63.528883
1223.000000	63.422057
1222.000000	63.312166
1221.000000	63.189807
1220.000000	63.063327
1219.000000	62.941708
1218.000000	62.824526
1217.000000	62.708930
1216.000000	62.604745
1215.000000	62.497496
1214.000000	62.386443
1213.000000	62.277503
1212.000000	62.173212
1211.000000	62.070295
1210.000000	61.951423
1209.000000	61.851042
1208.000000	61.760594
1207.000000	61.654401
1206.000000	61.568602
1205.000000	61.476674
1204.000000	61.380837
1203.000000	61.301272
1202.000000	61.248440
1201.000000	61.195608
1200.000000	61.131258
1199.000000	61.074411
1198.000000	61.005201
1197.000000	60.916231
1196.000000	60.828319
1195.000000	60.718534
1194.000000	60.570498
1193.000000	60.424048
1192.000000	60.257627
1191.000000	60.054752
1190.000000	59.842684
1189.000000	59.630193
1188.000000	59.436933
1187.000000	59.289215
1186.000000	59.188623
1185.000000	59.129662
1184.000000	59.140862
1183.000000	59.221378
1182.000000	59.364342
1181.000000	59.552530
1180.000000	59.780976
1179.000000	60.040170
1178.000000	60.289009
1177.000000	60.531720
1176.000000	60.749493
1175.000000	60.960716
1174.000000	61.144783
1173.000000	61.323461
1172.000000	61.506049
1171.000000	61.680395
1170.000000	61.873866
1169.000000	62.062476
1168.000000	62.247917
1167.000000	62.462943
1166.000000	62.664656
1165.000000	62.899125
1164.000000	63.115737
1163.000000	63.349888
1162.000000	63.583723
1161.000000	63.825377
1160.000000	64.069567
1159.000000	64.302873
1158.000000	64.533010
1157.000000	64.770966
1156.000000	64.994234
1155.000000	65.215812
1154.000000	65.425766
1153.000000	65.616701
1152.000000	65.774564
1151.000000	65.918056
1150.000000	66.063555
1149.000000	66.216980
1148.000000	66.334372
1147.000000	66.480612
1146.000000	66.637100
1145.000000	66.820428
1144.000000	67.013899
1143.000000	67.234948
1142.000000	67.459379
1141.000000	67.721637
1140.000000	67.989179
1139.000000	68.275212
1138.000000	68.569592
1137.000000	68.894192
1136.000000	69.239608
1135.000000	69.569703
1134.000000	69.921882
1133.000000	70.184774
1132.000000	70.426323
1131.000000	70.660897
1130.000000	70.912378
1129.000000	71.114936
1128.000000	71.293191
1127.000000	71.451159
1126.000000	71.561367
1125.000000	71.686896
1124.000000	71.757268
1123.000000	71.837362
1122.000000	71.876986
1121.000000	71.931403
1120.000000	71.951056
1119.000000	71.965215
1118.000000	71.979374
1117.000000	71.996915
1116.000000	72.008855
1115.000000	72.012447
1114.000000	72.006953
1113.000000	72.006847
1112.000000	71.988144
1111.000000	71.983178
1110.000000	71.989201
1109.000000	71.987193
1108.000000	71.980325
1107.000000	71.973985
1106.000000	71.979480
1105.000000	71.950317
1104.000000	71.950951
1103.000000	71.958347
1102.000000	71.960460
1101.000000	71.938165
1100.000000	71.914074
1099.000000	71.931297
1098.000000	71.914497
1097.000000	71.918195
1096.000000	71.901289
1095.000000	71.911327
1094.000000	71.883114
1093.000000	71.876140
1092.000000	71.870857
1091.000000	71.847717
1090.000000	71.839792
1089.000000	71.813059
1088.000000	71.802387
1087.000000	71.774597
1086.000000	71.739728
1085.000000	71.727260
1084.000000	71.728422
1083.000000	71.684994
1082.000000	71.658261
1081.000000	71.641989
1080.000000	71.598983
1079.000000	71.568341
1078.000000	71.519947
1077.000000	71.515086
1076.000000	71.495538
1075.000000	71.451582
1074.000000	71.406358
1073.000000	71.375504
1072.000000	71.335457
1071.000000	71.309464
1070.000000	71.285900
1069.000000	71.241099
1068.000000	71.185942
1067.000000	71.158786
1066.000000	71.105954
1065.000000	71.065062
1064.000000	71.038012
1063.000000	71.011596
1062.000000	70.956440
1061.000000	70.913223
1060.000000	70.882369
1059.000000	70.833235
1058.000000	70.791392
1057.000000	70.750817
1056.000000	70.696717
1055.000000	70.688898
1054.000000	70.662376
1053.000000	70.614510
1052.000000	70.571716
1051.000000	70.557874
1050.000000	70.529768
1049.000000	70.503035
1048.000000	70.478626
1047.000000	70.465735
1046.000000	70.446293
1045.000000	70.430866
1044.000000	70.421145
1043.000000	70.412903
1042.000000	70.406669
1041.000000	70.393038
1040.000000	70.402231
1039.000000	70.387755
1038.000000	70.385325
1037.000000	70.361022
1036.000000	70.356267
1035.000000	70.337353
1034.000000	70.336825
1033.000000	70.321081
1032.000000	70.301216
1031.000000	70.291812
1030.000000	70.280929
1029.000000	70.261592
1028.000000	70.245637
1027.000000	70.218376
1026.000000	70.184774
1025.000000	70.164592
1024.000000	70.113979
1023.000000	70.079955
1022.000000	70.044558
1021.000000	70.006096
1020.000000	69.953792
1019.000000	69.911949
1018.000000	69.874544
1017.000000	69.821501
1016.000000	69.800896
1015.000000	69.769197
1014.000000	69.723339
1013.000000	69.721754
1012.000000	69.707595
1011.000000	69.701255
1010.000000	69.696923
1009.000000	69.694810
1008.000000	69.684032
1007.000000	69.711082
1006.000000	69.743415
1005.000000	69.758419
1004.000000	69.765605
1003.000000	69.809667
1002.000000	69.857215
1001.000000	69.918712
1000.000000	69.941113
999.000000	69.971121
998.000000	70.035260
997.000000	70.092529
996.000000	70.144939
995.000000	70.208866
994.000000	70.255675
993.000000	70.316432
992.000000	70.393567
991.000000	70.431500
990.000000	70.485706
989.000000	70.554071
988.000000	70.603416
987.000000	70.670090
986.000000	70.736341
985.000000	70.790230
984.000000	70.834398
983.000000	70.904136
982.000000	70.940167
981.000000	70.971867
980.000000	71.021423
979.000000	71.071614
978.000000	71.095705
977.000000	71.122015
976.000000	71.149805
975.000000	71.174530
974.000000	71.192388
973.000000	71.236978
972.000000	71.263394
971.000000	71.276496
970.000000	71.293614
969.000000	71.341268
968.000000	71.380470
967.000000	71.428441
966.000000	71.461197
965.000000	71.510648
964.000000	71.593489
963.000000	71.666186
962.000000	71.727682
961.000000	71.799428
960.000000	71.871914
959.000000	71.957713
958.000000	72.042773
957.000000	72.116526
956.000000	72.212047
955.000000	72.303024
954.000000	72.385653
953.000000	72.468388
952.000000	72.536013
951.000000	72.622552
950.000000	72.719657
949.000000	72.796370
948.000000	72.859557
947.000000	72.942292
946.000000	73.006958
945.000000	73.054084
944.000000	73.118645
943.000000	73.193772
942.000000	73.243012
941.000000	73.279149
940.000000	73.334940
939.000000	73.409327
938.000000	73.455608
937.000000	73.495972
936.000000	73.550178
935.000000	73.592443
934.000000	73.654046
933.000000	73.699270
932.000000	73.738154
931.000000	73.801024
930.000000	73.857449
929.000000	73.926553
928.000000	73.983718
927.000000	74.043735
926.000000	74.148025
925.000000	74.220088
924.000000	74.290461
923.000000	74.380487
922.000000	74.474316
921.000000	74.564871
920.000000	74.662610
919.000000	74.761406
918.000000	74.846888
917.000000	74.948114
916.000000	75.017641
915.000000	75.082097
914.000000	75.167262
913.000000	75.243023
912.000000	75.298391
911.000000	75.348582
910.000000	75.413037
909.000000	75.479711
908.000000	75.548287
907.000000	75.600802
906.000000	75.664834
905.000000	75.725486
904.000000	75.807270
903.000000	75.896556
902.000000	75.968513
901.000000	76.055686
900.000000	76.134934
899.000000	76.220628
898.000000	76.315197
897.000000	76.412514
896.000000	76.507400
895.000000	76.598800
894.000000	76.693369
893.000000	76.793539
892.000000	76.889799
891.000000	76.994512
890.000000	77.086651
889.000000	77.180798
888.000000	77.293647
887.000000	77.415267
886.000000	77.534667
885.000000	77.629131
884.000000	77.735007
883.000000	77.847011
882.000000	77.953943
881.000000	78.051893
880.000000	78.191687
879.000000	78.312250
878.000000	78.432813
877.000000	78.544711
876.000000	78.630088
875.000000	78.689999
874.000000	78.764598
873.000000	78.835287
872.000000	78.849341
871.000000	78.897418
870.000000	79.036049
869.000000	79.274216
868.000000	79.570816
867.000000	79.848818
866.000000	80.151546
865.000000	80.432401
864.000000	80.712623
863.000000	81.015984
862.000000	81.314380
861.000000	81.606013
860.000000	81.925330
859.000000	82.249085
858.000000	82.544733
857.000000	81.724500
856.000000	82.973000
855.000000	82.936700
854.000000	83.579300
853.000000	83.848900
852.000000	84.308500
851.000000	84.086500
850.000000	84.723600
849.000000	84.846000
848.000000	85.534500
847.000000	86.243900
846.000000	86.050200
845.000000	85.625000
844.000000	86.416700
843.000000	86.981400
842.000000	87.016500
841.000000	87.370900
840.000000	87.765500
839.000000	88.078500
838.000000	88.909200
837.000000	88.825900
836.000000	89.412500
835.000000	89.905900
834.000000	90.451900
833.000000	90.966500
832.000000	91.268800
831.000000	91.588000
830.000000	92.088800
829.000000	92.597700
828.000000	92.920400
827.000000	93.223600
826.000000	93.684500
825.000000	93.962100
824.000000	94.229900
823.000000	94.625600
822.000000	95.023700
821.000000	95.240500
820.000000	95.243000
819.000000	95.255600
818.000000	95.547600
817.000000	95.458400
816.000000	95.502900
815.000000	95.742700
814.000000	95.916500
813.000000	95.943200
812.000000	95.795000
811.000000	95.779000
810.000000	95.733100
809.000000	95.874700
808.000000	95.877400
807.000000	95.846700
806.000000	95.640500
805.000000	95.385000
804.000000	95.583300
803.000000	95.557300
802.000000	95.527000
801.000000	95.453300
800.000000	95.219600
799.000000	95.321000
798.000000	95.157100
797.000000	95.234200
796.000000	95.300400
795.000000	95.120000
794.000000	94.970600
793.000000	94.848400
792.000000	95.033500
791.000000	95.091300
790.000000	95.081900
789.000000	94.983700
788.000000	94.974500
787.000000	94.914200
786.000000	94.753400
785.000000	94.781800
784.000000	94.760200
783.000000	94.750500
782.000000	94.725400
781.000000	94.486500
780.000000	94.352200
779.000000	94.430400
778.000000	94.119500
777.000000	93.949000
776.000000	93.906800
775.000000	93.904300
774.000000	93.667400
773.000000	93.668200
772.000000	93.480500
771.000000	93.422500
770.000000	93.441800
769.000000	93.224700
768.000000	93.067000
767.000000	93.146400
766.000000	93.047500
765.000000	92.902100
764.000000	92.904800
763.000000	92.856700
762.000000	92.728300
761.000000	92.560000
760.000000	92.585500
759.000000	92.457300
758.000000	92.280200
757.000000	92.292700
756.000000	92.109900
755.000000	92.071500
754.000000	91.837700
753.000000	91.741800
752.000000	91.426200
751.000000	91.259900
750.000000	91.044600
749.000000	90.953500
748.000000	90.543800
747.000000	90.366500
746.000000	90.213600
745.000000	89.752900
744.000000	89.513300
743.000000	89.195600
742.000000	88.672000
741.000000	88.300100
740.000000	87.999000
739.000000	87.542300
738.000000	87.129100
737.000000	86.752800
736.000000	86.237700
735.000000	85.819800
734.000000	85.243400
733.000000	84.829700
732.000000	84.419300
731.000000	84.033500
730.000000	83.519400
729.000000	83.093400
728.000000	82.791500
727.000000	82.441600
726.000000	82.094300
725.000000	81.780900
724.000000	81.574900
723.000000	81.251200
722.000000	81.074700
721.000000	80.888200
720.000000	80.786400
719.000000	80.583400
718.000000	80.464000
717.000000	80.395700
716.000000	80.344100
715.000000	80.257000
714.000000	80.258400
713.000000	80.123700
712.000000	80.091300
711.000000	79.967800
710.000000	79.873600
709.000000	79.689200
708.000000	79.587600
707.000000	79.451100
706.000000	79.200600
705.000000	78.957600
704.000000	78.710300
703.000000	78.384700
702.000000	77.990600
701.000000	77.601700
700.000000	77.123400
699.000000	76.605900
698.000000	76.046400
697.000000	75.427900
696.000000	74.776100
695.000000	74.013600
694.000000	73.233400
693.000000	72.377000
692.000000	71.560300
691.000000	70.643300
690.000000	69.728900
689.000000	68.851500
688.000000	67.893200
687.000000	66.963200
686.000000	66.049100
685.000000	65.208100
684.000000	64.255300
683.000000	63.373900
682.000000	62.529400
681.000000	61.727200
680.000000	60.981200
679.000000	60.305000
678.000000	59.684100
677.000000	59.087000
676.000000	58.549500
675.000000	58.091400
674.000000	57.713000
673.000000	57.421200
672.000000	57.171500
671.000000	57.061900
670.000000	57.070200
669.000000	57.130800
668.000000	57.259700
667.000000	57.525300
666.000000	57.916200
665.000000	58.394800
664.000000	58.885800
663.000000	59.464900
662.000000	60.147400
661.000000	60.855400
660.000000	61.627200
659.000000	62.424200
658.000000	63.217800
657.000000	64.062500
656.000000	64.951100
655.000000	65.816600
654.000000	66.653200
653.000000	67.495100
652.000000	68.381500
651.000000	69.264800
650.000000	70.130100
649.000000	70.961800
648.000000	71.804000
647.000000	72.604700
646.000000	73.448100
645.000000	74.330000
644.000000	75.145400
643.000000	75.966500
642.000000	76.769100
641.000000	77.538200
640.000000	78.258200
639.000000	78.939200
638.000000	79.578600
637.000000	80.146700
636.000000	80.656400
635.000000	81.134100
634.000000	81.558800
633.000000	81.957400
632.000000	82.394100
631.000000	82.817400
630.000000	83.268000
629.000000	83.736000
628.000000	84.220400
627.000000	84.786200
626.000000	85.319100
625.000000	85.840900
624.000000	86.425000
623.000000	87.004400
622.000000	87.588500
621.000000	88.176800
620.000000	88.698300
619.000000	89.227800
618.000000	89.711300
617.000000	90.117100
616.000000	90.505000
615.000000	90.798700
614.000000	91.074700
613.000000	91.319800
612.000000	91.520800
611.000000	91.733400
610.000000	91.890700
609.000000	91.987800
608.000000	92.070200
607.000000	92.154400
606.000000	92.258400
605.000000	92.341500
604.000000	92.435200
603.000000	92.577800
602.000000	92.677700
601.000000	92.779700
600.000000	92.899000
599.000000	92.992900
598.000000	93.091100
597.000000	93.188300
596.000000	93.288800
595.000000	93.375100
594.000000	93.439500
593.000000	93.434100
592.000000	93.452700
591.000000	93.431100
590.000000	93.341500
589.000000	93.322500
588.000000	93.213500
587.000000	93.077900
586.000000	92.959900
585.000000	92.779300
584.000000	92.552900
583.000000	92.314200
582.000000	92.078800
581.000000	91.828700
580.000000	91.536300
579.000000	91.263500
578.000000	90.995900
577.000000	90.662300
576.000000	90.324300
575.000000	90.049300
574.000000	89.713800
573.000000	89.344800
572.000000	89.005300
571.000000	88.673300
570.000000	88.305100
569.000000	87.900300
568.000000	87.516200
567.000000	87.080900
566.000000	86.666300
565.000000	86.216800
564.000000	85.762900
563.000000	85.268400
562.000000	84.754300
561.000000	84.202700
560.000000	83.633800
559.000000	83.024200
558.000000	82.416900
557.000000	81.750800
556.000000	81.080200
555.000000	80.340600
554.000000	79.621000
553.000000	78.808800
552.000000	77.995000
551.000000	77.096000
550.000000	76.171200
549.000000	75.214100
548.000000	74.164600
547.000000	73.045200
546.000000	71.894800
545.000000	70.654900
544.000000	69.320900
543.000000	67.884800
542.000000	66.413600
541.000000	64.874100
540.000000	63.260700
539.000000	61.660300
538.000000	59.977400
537.000000	58.318600
536.000000	56.611100
535.000000	54.947200
534.000000	53.307300
533.000000	51.677600
532.000000	50.102500
531.000000	48.563300
530.000000	47.116500
529.000000	45.766700
528.000000	44.519300
527.000000	43.378100
526.000000	42.398500
525.000000	41.461600
524.000000	40.639700
523.000000	39.913100
522.000000	39.292400
521.000000	38.787600
520.000000	38.355400
519.000000	38.024200
518.000000	37.747000
517.000000	37.523400
516.000000	37.346200
515.000000	37.189700
514.000000	37.049800
513.000000	36.901100
512.000000	36.793400
511.000000	36.671500
510.000000	36.482300
509.000000	36.321700
508.000000	36.133500
507.000000	35.884200
506.000000	35.624000
505.000000	35.262300
504.000000	34.893000
503.000000	34.463100
502.000000	33.979900
501.000000	33.461900
500.000000	32.869500
499.000000	32.339000
498.000000	31.729800
497.000000	31.107200
496.000000	30.438100
495.000000	29.840500
494.000000	29.189800
493.000000	28.580300
492.000000	27.995800
491.000000	27.420600
490.000000	26.899000
489.000000	26.420200
488.000000	25.958100
487.000000	25.554000
486.000000	25.224300
485.000000	24.928600
484.000000	24.693800
483.000000	24.499700
482.000000	24.391500
481.000000	24.359000
480.000000	24.369300
479.000000	24.414900
478.000000	24.522200
477.000000	24.678600
476.000000	24.831000
475.000000	24.998800
474.000000	25.229700
473.000000	25.443900
472.000000	25.679100
471.000000	25.912200
470.000000	26.153300
469.000000	26.380200
468.000000	26.579100
467.000000	26.809900
466.000000	26.994800
465.000000	27.172000
464.000000	27.341900
463.000000	27.452200
462.000000	27.534200
461.000000	27.645000
460.000000	27.728600
459.000000	27.821200
458.000000	27.820900
457.000000	27.834000
456.000000	27.823800
455.000000	27.782000
454.000000	27.707600
453.000000	27.691200
452.000000	27.592600
451.000000	27.480300
450.000000	27.332200
449.000000	27.218200
448.000000	27.089200
447.000000	26.900100
446.000000	26.692800
445.000000	26.495400
444.000000	26.262000
443.000000	26.081000
442.000000	25.842100
441.000000	25.571800
440.000000	25.292700
439.000000	25.013100
438.000000	24.683600
437.000000	24.389100
436.000000	24.063500
435.000000	23.712000
434.000000	23.363600
433.000000	23.032600
432.000000	22.630000
431.000000	22.222700
430.000000	21.843200
429.000000	21.434000
428.000000	21.012500
427.000000	20.584600
426.000000	20.148000
425.000000	19.698400
424.000000	19.204100
423.000000	18.726600
422.000000	18.254100
421.000000	17.751700
420.000000	17.277800
419.000000	16.756800
418.000000	16.263500
417.000000	15.757400
416.000000	15.275200
415.000000	14.810200
414.000000	14.321800
413.000000	13.827500
412.000000	13.376500
411.000000	12.909500
410.000000	12.461000
409.000000	12.058900
408.000000	11.671700
407.000000	11.288100
406.000000	10.893400
405.000000	10.544500
404.000000	10.210900
403.000000	9.876700
402.000000	9.576800
401.000000	9.296000
400.000000	9.013900
399.000000	8.752800
398.000000	8.531600
397.000000	8.313200
396.000000	8.098800
395.000000	7.932800
394.000000	7.758300
393.000000	7.565800
392.000000	7.431600
391.000000	7.276800
390.000000	7.144100
389.000000	7.038100
388.000000	6.919800
387.000000	6.814300
386.000000	6.729400
385.000000	6.628700
384.000000	6.530700
383.000000	6.477200
382.000000	6.391500
381.000000	6.329900
380.000000	6.271100
379.000000	6.179800
378.000000	6.134100
377.000000	6.079300
376.000000	6.020900
375.000000	5.898400
374.000000	5.851900
373.000000	5.936300
372.000000	5.878800
371.000000	5.797400
370.000000	5.784000
369.000000	5.838200
368.000000	5.730100
367.000000	5.675700
366.000000	5.671200
365.000000	5.726400
364.000000	5.806600
363.000000	5.621200
362.000000	5.526900
361.000000	5.528300
360.000000	5.559800
359.000000	5.509500
358.000000	5.470400
357.000000	5.453600
356.000000	5.446500
355.000000	5.420300
354.000000	5.432100
353.000000	5.440100
352.000000	5.404500
351.000000	5.262500
350.000000	5.221000
349.000000	5.239800
348.000000	5.161700
347.000000	5.261500
346.000000	5.372900
345.000000	5.384400
344.000000	5.249100
343.000000	5.197100
342.000000	5.317100
341.000000	5.307100
340.000000	5.288500
339.000000	5.393100
338.000000	5.398800
337.000000	5.353500
336.000000	5.369600
335.000000	5.215600
334.000000	5.144800
333.000000	5.345000
332.000000	5.441000
331.000000	5.308000
330.000000	5.336800
329.000000	5.363800
328.000000	5.433600
327.000000	5.545200
326.000000	5.477600
325.000000	5.298900
324.000000	5.409000
323.000000	5.489800
322.000000	5.549600
321.000000	5.635900
320.000000	5.476500
319.000000	5.438300
318.000000	5.879100
317.000000	5.653600
316.000000	5.261700
315.000000	5.277500
314.000000	5.281800
313.000000	5.280800
312.000000	5.264900
311.000000	5.267600
310.000000	5.317700
309.000000	5.333000
308.000000	5.288600
307.000000	5.278200
306.000000	5.309000
305.000000	5.330100
304.000000	5.332600
303.000000	5.343500
302.000000	5.324300
301.000000	5.341200
300.000000	5.367800
299.000000	5.375700
298.000000	5.402600
297.000000	5.392300
296.000000	5.386800
295.000000	5.417900
294.000000	5.440500
293.000000	5.433100
292.000000	5.428000
291.000000	5.417500
290.000000	5.430800
289.000000	5.457200
288.000000	5.473600
287.000000	5.494500
286.000000	5.486000
285.000000	5.469600
284.000000	5.494100
283.000000	5.503300
282.000000	5.515200
281.000000	5.520500
280.000000	5.531700
279.000000	5.579100
278.000000	5.589800
277.000000	5.593600
276.000000	5.559000
275.000000	5.607900
274.000000	5.616700
273.000000	5.623100
272.000000	5.663500
271.000000	5.671800
270.000000	5.667700
269.000000	5.707100
268.000000	5.703300
267.000000	5.731800
266.000000	5.749800
265.000000	5.781800
264.000000	5.783400
263.000000	5.816600
262.000000	5.821800
261.000000	5.861800
260.000000	5.883100
259.000000	5.903500
258.000000	5.900400
257.000000	5.952900
256.000000	5.970700
255.000000	5.997200
254.000000	5.948100
253.000000	5.990200
252.000000	5.971900
251.000000	5.975800
250.000000	6.002800
