PE UV       SUBTECH     SPECTRUM    ASCII       PEDS        4.00        
   -1
CICIMAUCR0244-1.Sample.ASC
24/06/20
16:35:49.00
24/06/20
16:35:49.00
Vinicio Soto Monge
C. cupreomarginata. Sex M
250,000000
1
Lambda 1050
1050L1511233
PerkinElmer UV WinLab 6.3.2.0749 / 2.02.05 Lambda 900 UV/VIS/NIR, Aug  7 2015 09:38:08

0
0
3350/servo 860,8/2
0
0
UV/VIS
1
1
1
DoubleDePol,CommonBeamDepol,RBeamAtt,SBeamAtt,60mm sphere, WB InGaAs Detector
0
0
0
0
Program
Program
3350/servo 860,8/2
3350/0,2 860,8/0,2
3350/0,2 860,8/0,2
0
15.00
 
 
 
0
 
860,8
319,2
860,8
Front
100
on
S:100 R:100
0
0
0
0
 
0
 
 
 
0
 
 
0
0
0
0
0
 
 
 
 
0
0


0
0
#HDR
-1
-1
#GR
nm
%R
1.0
0.0
2500,000000
-1,000000
2251
8
72,054300
5,243500
#DATA
2500.000000	7.515585
2499.000000	7.756611
2498.000000	7.687893
2497.000000	7.735955
2496.000000	7.666623
2495.000000	7.639421
2494.000000	7.605471
2493.000000	7.558636
2492.000000	7.581440
2491.000000	7.567840
2490.000000	7.572032
2489.000000	7.588905
2488.000000	7.518959
2487.000000	7.455763
2486.000000	7.452388
2485.000000	7.456376
2484.000000	7.501166
2483.000000	7.458626
2482.000000	7.524788
2481.000000	7.441549
2480.000000	7.483066
2479.000000	7.468852
2478.000000	7.429789
2477.000000	7.439503
2476.000000	7.429891
2475.000000	7.547183
2474.000000	7.513437
2473.000000	7.538696
2472.000000	7.481635
2471.000000	7.517323
2470.000000	7.525402
2469.000000	7.466909
2468.000000	7.461694
2467.000000	7.501371
2466.000000	7.534196
2465.000000	7.519062
2464.000000	7.534810
2463.000000	7.526527
2462.000000	7.586451
2461.000000	7.611402
2460.000000	7.619583
2459.000000	7.640546
2458.000000	7.671429
2457.000000	7.702004
2456.000000	7.707117
2455.000000	7.774302
2454.000000	7.816331
2453.000000	7.835760
2452.000000	7.875744
2451.000000	7.931680
2450.000000	7.971357
2449.000000	7.996104
2448.000000	8.040280
2447.000000	8.073412
2446.000000	8.135075
2445.000000	8.180376
2444.000000	8.224552
2443.000000	8.253083
2442.000000	8.304621
2441.000000	8.360353
2440.000000	8.412812
2439.000000	8.441138
2438.000000	8.461590
2437.000000	8.526321
2436.000000	8.567327
2435.000000	8.590744
2434.000000	8.647192
2433.000000	8.667235
2432.000000	8.691675
2431.000000	8.758655
2430.000000	8.803547
2429.000000	8.805183
2428.000000	8.813364
2427.000000	8.867153
2426.000000	8.884332
2425.000000	8.912556
2424.000000	8.951722
2423.000000	8.974219
2422.000000	8.970231
2421.000000	9.007351
2420.000000	9.049686
2419.000000	9.056129
2418.000000	9.073718
2417.000000	9.113906
2416.000000	9.133846
2415.000000	9.151537
2414.000000	9.176080
2413.000000	9.173319
2412.000000	9.202974
2411.000000	9.234061
2410.000000	9.238049
2409.000000	9.258501
2408.000000	9.283861
2407.000000	9.294701
2406.000000	9.313312
2405.000000	9.328651
2404.000000	9.347569
2403.000000	9.375077
2402.000000	9.396552
2401.000000	9.398392
2400.000000	9.422628
2399.000000	9.427025
2398.000000	9.459339
2397.000000	9.472735
2396.000000	9.475599
2395.000000	9.477030
2394.000000	9.492471
2393.000000	9.504231
2392.000000	9.512821
2391.000000	9.528160
2390.000000	9.539715
2389.000000	9.548408
2388.000000	9.551475
2387.000000	9.552191
2386.000000	9.555157
2385.000000	9.548612
2384.000000	9.557713
2383.000000	9.556384
2382.000000	9.549839
2381.000000	9.563542
2380.000000	9.559963
2379.000000	9.533273
2378.000000	9.521820
2377.000000	9.519877
2376.000000	9.506174
2375.000000	9.489813
2374.000000	9.475190
2373.000000	9.473656
2372.000000	9.456681
2371.000000	9.423037
2370.000000	9.396347
2369.000000	9.378043
2368.000000	9.355341
2367.000000	9.324663
2366.000000	9.294701
2365.000000	9.259524
2364.000000	9.219233
2363.000000	9.180988
2362.000000	9.146629
2361.000000	9.109406
2360.000000	9.063594
2359.000000	9.010930
2358.000000	8.981684
2357.000000	8.956221
2356.000000	8.925032
2355.000000	8.896297
2354.000000	8.875845
2353.000000	8.849257
2352.000000	8.831669
2351.000000	8.831771
2350.000000	8.845883
2349.000000	8.855291
2348.000000	8.861324
2347.000000	8.873391
2346.000000	8.893433
2345.000000	8.930452
2344.000000	8.957653
2343.000000	8.968594
2342.000000	8.987206
2341.000000	9.021463
2340.000000	9.049277
2339.000000	9.073615
2338.000000	9.096931
2337.000000	9.104395
2336.000000	9.120859
2335.000000	9.125563
2334.000000	9.114928
2333.000000	9.118916
2332.000000	9.106747
2331.000000	9.082410
2330.000000	9.067889
2329.000000	9.033325
2328.000000	8.995693
2327.000000	8.962663
2326.000000	8.910920
2325.000000	8.866539
2324.000000	8.819704
2323.000000	8.773483
2322.000000	8.714990
2321.000000	8.650771
2320.000000	8.583382
2319.000000	8.501267
2318.000000	8.434287
2317.000000	8.351661
2316.000000	8.263104
2315.000000	8.190397
2314.000000	8.121883
2313.000000	8.039564
2312.000000	7.970539
2311.000000	7.900695
2310.000000	7.849974
2309.000000	7.795470
2308.000000	7.766735
2307.000000	7.735137
2306.000000	7.716321
2305.000000	7.710492
2304.000000	7.716423
2303.000000	7.739738
2302.000000	7.770212
2301.000000	7.823591
2300.000000	7.855701
2299.000000	7.907547
2298.000000	7.991809
2297.000000	8.045291
2296.000000	8.102658
2295.000000	8.162378
2294.000000	8.230790
2293.000000	8.287646
2292.000000	8.329777
2291.000000	8.388781
2290.000000	8.429174
2289.000000	8.444104
2288.000000	8.472532
2287.000000	8.467419
2286.000000	8.469873
2285.000000	8.472021
2284.000000	8.465885
2283.000000	8.441956
2282.000000	8.429072
2281.000000	8.386941
2280.000000	8.371090
2279.000000	8.367409
2278.000000	8.323744
2277.000000	8.286317
2276.000000	8.261366
2275.000000	8.252878
2274.000000	8.241016
2273.000000	8.227313
2272.000000	8.217189
2271.000000	8.216678
2270.000000	8.240198
2269.000000	8.273841
2268.000000	8.300531
2267.000000	8.353911
2266.000000	8.419766
2265.000000	8.499222
2264.000000	8.583689
2263.000000	8.668973
2262.000000	8.804979
2261.000000	8.927793
2260.000000	9.084557
2259.000000	9.224142
2258.000000	9.396449
2257.000000	9.576018
2256.000000	9.742190
2255.000000	9.922678
2254.000000	10.102758
2253.000000	10.294904
2252.000000	10.459542
2251.000000	10.627351
2250.000000	10.804260
2249.000000	10.959491
2248.000000	11.077908
2247.000000	11.229559
2246.000000	11.377120
2245.000000	11.512409
2244.000000	11.620805
2243.000000	11.721838
2242.000000	11.846288
2241.000000	11.929936
2240.000000	12.025958
2239.000000	12.090791
2238.000000	12.181291
2237.000000	12.251032
2236.000000	12.327727
2235.000000	12.374255
2234.000000	12.451666
2233.000000	12.516294
2232.000000	12.544313
2231.000000	12.580513
2230.000000	12.637676
2229.000000	12.646164
2228.000000	12.672036
2227.000000	12.682466
2226.000000	12.699339
2225.000000	12.694840
2224.000000	12.734107
2223.000000	12.700362
2222.000000	12.710485
2221.000000	12.714678
2220.000000	12.703839
2219.000000	12.689931
2218.000000	12.651788
2217.000000	12.648107
2216.000000	12.632972
2215.000000	12.622337
2214.000000	12.612009
2213.000000	12.616509
2212.000000	12.564765
2211.000000	12.542473
2210.000000	12.550551
2209.000000	12.543904
2208.000000	12.499626
2207.000000	12.509545
2206.000000	12.493592
2205.000000	12.476004
2204.000000	12.481832
2203.000000	12.464960
2202.000000	12.447269
2201.000000	12.433055
2200.000000	12.441747
2199.000000	12.438270
2198.000000	12.411478
2197.000000	12.413830
2196.000000	12.398388
2195.000000	12.417409
2194.000000	12.408614
2193.000000	12.373233
2192.000000	12.394094
2191.000000	12.379879
2190.000000	12.363007
2189.000000	12.364643
2188.000000	12.356155
2187.000000	12.344804
2186.000000	12.326909
2185.000000	12.312286
2184.000000	12.303798
2183.000000	12.296333
2182.000000	12.295822
2181.000000	12.276086
2180.000000	12.269950
2179.000000	12.256861
2178.000000	12.261258
2177.000000	12.254611
2176.000000	12.262076
2175.000000	12.262076
2174.000000	12.240704
2173.000000	12.235284
2172.000000	12.250112
2171.000000	12.261872
2170.000000	12.252055
2169.000000	12.267087
2168.000000	12.300526
2167.000000	12.281608
2166.000000	12.306661
2165.000000	12.307275
2164.000000	12.342964
2163.000000	12.363825
2162.000000	12.371290
2161.000000	12.396037
2160.000000	12.416079
2159.000000	12.430703
2158.000000	12.449416
2157.000000	12.483162
2156.000000	12.544518
2155.000000	12.552699
2154.000000	12.573048
2153.000000	12.624689
2152.000000	12.643505
2151.000000	12.694328
2150.000000	12.712633
2149.000000	12.755991
2148.000000	12.785544
2147.000000	12.795668
2146.000000	12.829823
2145.000000	12.848638
2144.000000	12.892610
2143.000000	12.911119
2142.000000	12.948035
2141.000000	12.979326
2140.000000	13.006016
2139.000000	13.010004
2138.000000	13.025855
2137.000000	13.052851
2136.000000	13.069213
2135.000000	13.085063
2134.000000	13.098459
2133.000000	13.117991
2132.000000	13.128114
2131.000000	13.129853
2130.000000	13.132307
2129.000000	13.135784
2128.000000	13.141511
2127.000000	13.126990
2126.000000	13.138545
2125.000000	13.139977
2124.000000	13.126069
2123.000000	13.104492
2122.000000	13.110117
2121.000000	13.097539
2120.000000	13.075553
2119.000000	13.059805
2118.000000	13.049374
2117.000000	13.026877
2116.000000	13.001824
2115.000000	12.981269
2114.000000	12.953455
2113.000000	12.931980
2112.000000	12.912858
2111.000000	12.885656
2110.000000	12.845980
2109.000000	12.812336
2108.000000	12.787589
2107.000000	12.777057
2106.000000	12.753332
2105.000000	12.720507
2104.000000	12.690545
2103.000000	12.655061
2102.000000	12.627348
2101.000000	12.607919
2100.000000	12.589512
2099.000000	12.551983
2098.000000	12.515885
2097.000000	12.499012
2096.000000	12.475186
2095.000000	12.449927
2094.000000	12.420272
2093.000000	12.392048
2092.000000	12.364745
2091.000000	12.352883
2090.000000	12.321080
2089.000000	12.285698
2088.000000	12.281199
2087.000000	12.257577
2086.000000	12.237125
2085.000000	12.214321
2084.000000	12.186915
2083.000000	12.160225
2082.000000	12.132104
2081.000000	12.109607
2080.000000	12.074838
2079.000000	12.044263
2078.000000	12.012358
2077.000000	11.984134
2076.000000	11.945991
2075.000000	11.899054
2074.000000	11.866024
2073.000000	11.844345
2072.000000	11.804259
2071.000000	11.758753
2070.000000	11.722758
2069.000000	11.680218
2068.000000	11.655062
2067.000000	11.616612
2066.000000	11.568039
2065.000000	11.521613
2064.000000	11.483572
2063.000000	11.449315
2062.000000	11.403401
2061.000000	11.367507
2060.000000	11.341124
2059.000000	11.323229
2058.000000	11.284984
2057.000000	11.261464
2056.000000	11.244591
2055.000000	11.229457
2054.000000	11.230275
2053.000000	11.242444
2052.000000	11.248988
2051.000000	11.255942
2050.000000	11.263305
2049.000000	11.291017
2048.000000	11.330796
2047.000000	11.366689
2046.000000	11.400230
2045.000000	11.446145
2044.000000	11.503820
2043.000000	11.552802
2042.000000	11.620805
2041.000000	11.679502
2040.000000	11.723269
2039.000000	11.780330
2038.000000	11.842709
2037.000000	11.913984
2036.000000	11.957546
2035.000000	11.981680
2034.000000	12.038434
2033.000000	12.083633
2032.000000	12.109607
2031.000000	12.144580
2030.000000	12.181393
2029.000000	12.212173
2028.000000	12.225058
2027.000000	12.252464
2026.000000	12.269541
2025.000000	12.293163
2024.000000	12.313922
2023.000000	12.336930
2022.000000	12.346645
2021.000000	12.348792
2020.000000	12.350429
2019.000000	12.379061
2018.000000	12.366688
2017.000000	12.373130
2016.000000	12.370778
2015.000000	12.371392
2014.000000	12.367915
2013.000000	12.352372
2012.000000	12.341430
2011.000000	12.341839
2010.000000	12.331613
2009.000000	12.297765
2008.000000	12.272711
2007.000000	12.257168
2006.000000	12.230171
2005.000000	12.201743
2004.000000	12.193664
2003.000000	12.164827
2002.000000	12.122082
2001.000000	12.094472
2000.000000	12.045592
1999.000000	12.008574
1998.000000	11.974317
1997.000000	11.943026
1996.000000	11.882385
1995.000000	11.824609
1994.000000	11.786568
1993.000000	11.738301
1992.000000	11.675105
1991.000000	11.613033
1990.000000	11.574072
1989.000000	11.540940
1988.000000	11.491344
1987.000000	11.422830
1986.000000	11.365462
1985.000000	11.312594
1984.000000	11.255328
1983.000000	11.193870
1982.000000	11.122186
1981.000000	11.069318
1980.000000	11.008166
1979.000000	10.954275
1978.000000	10.890977
1977.000000	10.839335
1976.000000	10.770106
1975.000000	10.719794
1974.000000	10.662937
1973.000000	10.607206
1972.000000	10.573869
1971.000000	10.506377
1970.000000	10.430705
1969.000000	10.396448
1968.000000	10.364952
1967.000000	10.293575
1966.000000	10.232321
1965.000000	10.195917
1964.000000	10.139367
1963.000000	10.104905
1962.000000	10.046617
1961.000000	10.001316
1960.000000	9.957856
1959.000000	9.914804
1958.000000	9.867765
1957.000000	9.822259
1956.000000	9.791786
1955.000000	9.772970
1954.000000	9.714477
1953.000000	9.673062
1952.000000	9.624693
1951.000000	9.607002
1950.000000	9.549839
1949.000000	9.532557
1948.000000	9.484700
1947.000000	9.443796
1946.000000	9.436024
1945.000000	9.410050
1944.000000	9.409334
1943.000000	9.359738
1942.000000	9.346035
1941.000000	9.338366
1940.000000	9.336116
1939.000000	9.297769
1938.000000	9.361272
1937.000000	9.335605
1936.000000	9.352069
1935.000000	9.347467
1934.000000	9.382951
1933.000000	9.367919
1932.000000	9.427536
1931.000000	9.442364
1930.000000	9.487767
1929.000000	9.531432
1928.000000	9.588800
1927.000000	9.635840
1926.000000	9.712637
1925.000000	9.759983
1924.000000	9.823793
1923.000000	9.889240
1922.000000	9.979739
1921.000000	10.077193
1920.000000	10.182418
1919.000000	10.310141
1918.000000	10.386427
1917.000000	10.511388
1916.000000	10.607921
1915.000000	10.693002
1914.000000	10.808453
1913.000000	10.946810
1912.000000	11.141513
1911.000000	11.316173
1910.000000	11.432442
1909.000000	11.573970
1908.000000	11.695046
1907.000000	11.812338
1906.000000	11.999473
1905.000000	12.181189
1904.000000	12.415670
1903.000000	12.605158
1902.000000	12.794338
1901.000000	12.989450
1900.000000	13.189982
1899.000000	13.443177
1898.000000	13.684306
1897.000000	13.911220
1896.000000	14.163086
1895.000000	14.350324
1894.000000	14.540936
1893.000000	14.761101
1892.000000	15.025034
1891.000000	15.331098
1890.000000	15.662624
1889.000000	15.964495
1888.000000	16.255015
1887.000000	16.583064
1886.000000	16.908046
1885.000000	17.263706
1884.000000	17.667223
1883.000000	18.111440
1882.000000	18.555043
1881.000000	19.024824
1880.000000	19.478040
1879.000000	19.904361
1878.000000	20.328535
1877.000000	20.766002
1876.000000	21.209503
1875.000000	21.616599
1874.000000	22.028604
1873.000000	22.443165
1872.000000	22.851898
1871.000000	23.233634
1870.000000	23.589293
1869.000000	23.942396
1868.000000	24.256845
1867.000000	24.479772
1866.000000	24.674474
1865.000000	24.828682
1864.000000	24.976959
1863.000000	25.080752
1862.000000	25.190477
1861.000000	25.324029
1860.000000	25.458398
1859.000000	25.598289
1858.000000	25.712002
1857.000000	25.808433
1856.000000	25.860995
1855.000000	25.896172
1854.000000	25.927668
1853.000000	25.973481
1852.000000	25.976344
1851.000000	25.965709
1850.000000	25.956710
1849.000000	25.929816
1848.000000	25.933395
1847.000000	25.955483
1846.000000	25.977264
1845.000000	25.946177
1844.000000	25.848417
1843.000000	25.772029
1842.000000	25.738794
1841.000000	25.750963
1840.000000	25.755667
1839.000000	25.746566
1838.000000	25.716297
1837.000000	25.673757
1836.000000	25.640932
1835.000000	25.620582
1834.000000	25.559942
1833.000000	25.480793
1832.000000	25.374647
1831.000000	25.300918
1830.000000	25.254696
1829.000000	25.194670
1828.000000	25.123702
1827.000000	25.059073
1826.000000	24.986367
1825.000000	24.929919
1824.000000	24.870915
1823.000000	24.784608
1822.000000	24.709447
1821.000000	24.679689
1820.000000	24.659340
1819.000000	24.653716
1818.000000	24.613016
1817.000000	24.551865
1816.000000	24.514642
1815.000000	24.486827
1814.000000	24.469852
1813.000000	24.454513
1812.000000	24.429767
1811.000000	24.400213
1810.000000	24.369945
1809.000000	24.331188
1808.000000	24.273718
1807.000000	24.214612
1806.000000	24.170027
1805.000000	24.133111
1804.000000	24.074516
1803.000000	24.009990
1802.000000	23.941374
1801.000000	23.898834
1800.000000	23.849340
1799.000000	23.780621
1798.000000	23.725605
1797.000000	23.662204
1796.000000	23.603610
1795.000000	23.555650
1794.000000	23.502372
1793.000000	23.436517
1792.000000	23.374957
1791.000000	23.311453
1790.000000	23.262778
1789.000000	23.217886
1788.000000	23.143440
1787.000000	23.071449
1786.000000	23.005594
1785.000000	22.940046
1784.000000	22.869691
1783.000000	22.805778
1782.000000	22.726834
1781.000000	22.643083
1780.000000	22.563014
1779.000000	22.488773
1778.000000	22.422713
1777.000000	22.340701
1776.000000	22.245088
1775.000000	22.170438
1774.000000	22.074110
1773.000000	21.966634
1772.000000	21.860284
1771.000000	21.757615
1770.000000	21.648709
1769.000000	21.551766
1768.000000	21.432020
1767.000000	21.316262
1766.000000	21.224842
1765.000000	21.151419
1764.000000	21.085257
1763.000000	21.048444
1762.000000	21.019913
1761.000000	21.009074
1760.000000	21.018072
1759.000000	21.066646
1758.000000	21.133012
1757.000000	21.190278
1756.000000	21.266155
1755.000000	21.322807
1754.000000	21.361665
1753.000000	21.396331
1752.000000	21.425169
1751.000000	21.448075
1750.000000	21.443371
1749.000000	21.428339
1748.000000	21.418011
1747.000000	21.360745
1746.000000	21.305320
1745.000000	21.238340
1744.000000	21.150601
1743.000000	21.031366
1742.000000	20.904257
1741.000000	20.751379
1740.000000	20.586127
1739.000000	20.399503
1738.000000	20.212470
1737.000000	20.029936
1736.000000	19.864377
1735.000000	19.709454
1734.000000	19.615886
1733.000000	19.548497
1732.000000	19.520682
1731.000000	19.540009
1730.000000	19.583163
1729.000000	19.656074
1728.000000	19.756800
1727.000000	19.863252
1726.000000	19.954264
1725.000000	20.036174
1724.000000	20.147944
1723.000000	20.214106
1722.000000	20.270962
1721.000000	20.306037
1720.000000	20.350725
1719.000000	20.381812
1718.000000	20.416478
1717.000000	20.462802
1716.000000	20.514852
1715.000000	20.583877
1714.000000	20.651778
1713.000000	20.715077
1712.000000	20.786863
1711.000000	20.866012
1710.000000	20.922050
1709.000000	20.944650
1708.000000	20.962136
1707.000000	20.971647
1706.000000	20.945366
1705.000000	20.923175
1704.000000	20.901905
1703.000000	20.866421
1702.000000	20.804861
1701.000000	20.727450
1700.000000	20.631326
1699.000000	20.528657
1698.000000	20.401855
1697.000000	20.286915
1696.000000	20.183428
1695.000000	20.110517
1694.000000	20.096916
1693.000000	20.125140
1692.000000	20.228422
1691.000000	20.332829
1690.000000	20.500024
1689.000000	20.655970
1688.000000	20.784613
1687.000000	20.884214
1686.000000	20.945468
1685.000000	20.993530
1684.000000	21.050284
1683.000000	21.130865
1682.000000	21.294992
1681.000000	21.536223
1680.000000	21.875112
1679.000000	22.265744
1678.000000	22.732765
1677.000000	23.241405
1676.000000	23.680816
1675.000000	24.113784
1674.000000	24.488361
1673.000000	24.825001
1672.000000	25.120429
1671.000000	25.396633
1670.000000	25.621707
1669.000000	25.803525
1668.000000	25.964686
1667.000000	26.102123
1666.000000	26.225756
1665.000000	26.328322
1664.000000	26.418822
1663.000000	26.491938
1662.000000	26.554419
1661.000000	26.629989
1660.000000	26.687663
1659.000000	26.717421
1658.000000	26.744929
1657.000000	26.775913
1656.000000	26.790843
1655.000000	26.798820
1654.000000	26.824589
1653.000000	26.787366
1652.000000	26.773255
1651.000000	26.775198
1650.000000	26.759654
1649.000000	26.722125
1648.000000	26.688993
1647.000000	26.644203
1646.000000	26.604730
1645.000000	26.577734
1644.000000	26.517094
1643.000000	26.477315
1642.000000	26.417390
1641.000000	26.360329
1640.000000	26.316051
1639.000000	26.248764
1638.000000	26.176262
1637.000000	26.137096
1636.000000	26.060401
1635.000000	25.974401
1634.000000	25.923782
1633.000000	25.842690
1632.000000	25.790129
1631.000000	25.702083
1630.000000	25.641238
1629.000000	25.538570
1628.000000	25.476293
1627.000000	25.387123
1626.000000	25.299179
1625.000000	25.211645
1624.000000	25.131678
1623.000000	25.058562
1622.000000	24.970210
1621.000000	24.899139
1620.000000	24.810480
1619.000000	24.712515
1618.000000	24.656783
1617.000000	24.571703
1616.000000	24.497565
1615.000000	24.412791
1614.000000	24.323723
1613.000000	24.265435
1612.000000	24.190785
1611.000000	24.112045
1610.000000	24.037805
1609.000000	23.972665
1608.000000	23.885131
1607.000000	23.828888
1606.000000	23.740229
1605.000000	23.673248
1604.000000	23.597372
1603.000000	23.528653
1602.000000	23.438869
1601.000000	23.369026
1600.000000	23.280059
1599.000000	23.215431
1598.000000	23.137305
1597.000000	23.054065
1596.000000	22.995368
1595.000000	22.933092
1594.000000	22.864680
1593.000000	22.805063
1592.000000	22.728981
1591.000000	22.659956
1590.000000	22.604940
1589.000000	22.562400
1588.000000	22.490614
1587.000000	22.430587
1586.000000	22.374856
1585.000000	22.321476
1584.000000	22.266972
1583.000000	22.213490
1582.000000	22.175449
1581.000000	22.145896
1580.000000	22.086381
1579.000000	22.042716
1578.000000	22.012345
1577.000000	21.971338
1576.000000	21.932173
1575.000000	21.915607
1574.000000	21.899450
1573.000000	21.870203
1572.000000	21.832367
1571.000000	21.826232
1570.000000	21.799849
1569.000000	21.788907
1568.000000	21.793611
1567.000000	21.789725
1566.000000	21.793406
1565.000000	21.778170
1564.000000	21.772136
1563.000000	21.772443
1562.000000	21.771420
1561.000000	21.771420
1560.000000	21.763956
1559.000000	21.757513
1558.000000	21.751173
1557.000000	21.744117
1556.000000	21.735118
1555.000000	21.721722
1554.000000	21.706179
1553.000000	21.698611
1552.000000	21.672535
1551.000000	21.647073
1550.000000	21.632961
1549.000000	21.611384
1548.000000	21.601158
1547.000000	21.560970
1546.000000	21.550437
1545.000000	21.524872
1544.000000	21.497569
1543.000000	21.493172
1542.000000	21.491229
1541.000000	21.484173
1540.000000	21.477730
1539.000000	21.463107
1538.000000	21.454108
1537.000000	21.453904
1536.000000	21.437747
1535.000000	21.413511
1534.000000	21.402263
1533.000000	21.393673
1532.000000	21.373425
1531.000000	21.352360
1530.000000	21.338350
1529.000000	21.319228
1528.000000	21.293969
1527.000000	21.276176
1526.000000	21.264519
1525.000000	21.227296
1524.000000	21.201731
1523.000000	21.176677
1522.000000	21.152442
1521.000000	21.123196
1520.000000	21.104584
1519.000000	21.086587
1518.000000	21.046194
1517.000000	21.005290
1516.000000	20.985452
1515.000000	20.962852
1514.000000	20.937389
1513.000000	20.899758
1512.000000	20.857729
1511.000000	20.830119
1510.000000	20.790135
1509.000000	20.746470
1508.000000	20.700351
1507.000000	20.664663
1506.000000	20.633576
1505.000000	20.598194
1504.000000	20.566595
1503.000000	20.524771
1502.000000	20.489901
1501.000000	20.462086
1500.000000	20.421080
1499.000000	20.383550
1498.000000	20.348475
1497.000000	20.324751
1496.000000	20.313502
1495.000000	20.285585
1494.000000	20.244272
1493.000000	20.213595
1492.000000	20.198153
1491.000000	20.180974
1490.000000	20.153466
1489.000000	20.129741
1488.000000	20.121970
1487.000000	20.095791
1486.000000	20.065931
1485.000000	20.041389
1484.000000	20.016029
1483.000000	19.985964
1482.000000	19.977783
1481.000000	19.958763
1480.000000	19.936470
1479.000000	19.933300
1478.000000	19.923790
1477.000000	19.925017
1476.000000	19.916325
1475.000000	19.900168
1474.000000	19.897407
1473.000000	19.894748
1472.000000	19.901191
1471.000000	19.914280
1470.000000	19.911621
1469.000000	19.913973
1468.000000	19.912235
1467.000000	19.898737
1466.000000	19.903441
1465.000000	19.913564
1464.000000	19.917961
1463.000000	19.934425
1462.000000	19.937698
1461.000000	19.963876
1460.000000	19.988623
1459.000000	19.994349
1458.000000	20.009382
1457.000000	20.061330
1456.000000	20.094462
1455.000000	20.132707
1454.000000	20.161442
1453.000000	20.232819
1452.000000	20.286710
1451.000000	20.322910
1450.000000	20.371381
1449.000000	20.439077
1448.000000	20.506876
1447.000000	20.552893
1446.000000	20.615578
1445.000000	20.702805
1444.000000	20.761912
1443.000000	20.822552
1442.000000	20.884623
1441.000000	20.946082
1440.000000	21.019811
1439.000000	21.091802
1438.000000	21.171564
1437.000000	21.249998
1436.000000	21.338248
1435.000000	21.427725
1434.000000	21.510351
1433.000000	21.598806
1432.000000	21.698714
1431.000000	21.798928
1430.000000	21.905790
1429.000000	22.006925
1428.000000	22.118388
1427.000000	22.260529
1426.000000	22.402670
1425.000000	22.544505
1424.000000	22.694418
1423.000000	22.849239
1422.000000	23.048236
1421.000000	23.227293
1420.000000	23.401033
1419.000000	23.607393
1418.000000	23.827456
1417.000000	24.045270
1416.000000	24.209908
1415.000000	24.406349
1414.000000	24.677542
1413.000000	24.939123
1412.000000	25.187205
1411.000000	25.393054
1410.000000	25.672837
1409.000000	25.995057
1408.000000	26.319630
1407.000000	26.696457
1406.000000	27.031870
1405.000000	27.371884
1404.000000	27.788285
1403.000000	28.165420
1402.000000	28.556870
1401.000000	28.894328
1400.000000	29.335374
1399.000000	29.771615
1398.000000	30.136068
1397.000000	30.357972
1396.000000	30.651765
1395.000000	31.054873
1394.000000	31.445608
1393.000000	31.697167
1392.000000	31.968769
1391.000000	32.306328
1390.000000	32.642763
1389.000000	32.932158
1388.000000	33.325654
1387.000000	33.794720
1386.000000	34.258775
1385.000000	34.741544
1384.000000	35.271863
1383.000000	35.803818
1382.000000	36.425763
1381.000000	36.995759
1380.000000	37.474130
1379.000000	37.820791
1378.000000	38.086666
1377.000000	38.294561
1376.000000	38.531701
1375.000000	38.724563
1374.000000	38.977554
1373.000000	39.244657
1372.000000	39.593158
1371.000000	39.950045
1370.000000	40.364913
1369.000000	40.711062
1368.000000	41.054348
1367.000000	41.382296
1366.000000	41.681201
1365.000000	41.924988
1364.000000	42.188717
1363.000000	42.406734
1362.000000	42.625059
1361.000000	42.800332
1360.000000	43.017941
1359.000000	43.128280
1358.000000	43.214076
1357.000000	43.316233
1356.000000	43.480360
1355.000000	43.711161
1354.000000	44.032972
1353.000000	44.480154
1352.000000	44.870173
1351.000000	45.404379
1350.000000	45.936743
1349.000000	46.415728
1348.000000	46.855854
1347.000000	47.285346
1346.000000	47.693771
1345.000000	48.051987
1344.000000	48.410101
1343.000000	48.791837
1342.000000	49.124897
1341.000000	49.471047
1340.000000	49.791836
1339.000000	50.132463
1338.000000	50.462558
1337.000000	50.765042
1336.000000	51.091251
1335.000000	51.378806
1334.000000	51.681086
1333.000000	51.961175
1332.000000	52.254047
1331.000000	52.536796
1330.000000	52.787639
1329.000000	53.060571
1328.000000	53.290348
1327.000000	53.526875
1326.000000	53.765141
1325.000000	53.970581
1324.000000	54.188599
1323.000000	54.393732
1322.000000	54.579027
1321.000000	54.750516
1320.000000	54.936936
1319.000000	55.099836
1318.000000	55.265088
1317.000000	55.421034
1316.000000	55.561232
1315.000000	55.718712
1314.000000	55.843571
1313.000000	55.974668
1312.000000	56.088484
1311.000000	56.215183
1310.000000	56.333805
1309.000000	56.438212
1308.000000	56.516543
1307.000000	56.603975
1306.000000	56.685885
1305.000000	56.758694
1304.000000	56.816471
1303.000000	56.873839
1302.000000	56.907891
1301.000000	56.941024
1300.000000	56.986631
1299.000000	57.008004
1298.000000	57.029478
1297.000000	57.046147
1296.000000	57.064860
1295.000000	57.066905
1294.000000	57.065576
1293.000000	57.073143
1292.000000	57.068644
1291.000000	57.046556
1290.000000	57.025592
1289.000000	57.008413
1288.000000	56.978655
1287.000000	56.929161
1286.000000	56.897665
1285.000000	56.857682
1284.000000	56.803586
1283.000000	56.754604
1282.000000	56.687931
1281.000000	56.620235
1280.000000	56.563787
1279.000000	56.489956
1278.000000	56.423589
1277.000000	56.363767
1276.000000	56.319182
1275.000000	56.257928
1274.000000	56.206491
1273.000000	56.159963
1272.000000	56.116912
1271.000000	56.081428
1270.000000	56.038888
1269.000000	55.996041
1268.000000	55.967306
1267.000000	55.935605
1266.000000	55.881510
1265.000000	55.841833
1264.000000	55.808803
1263.000000	55.774444
1262.000000	55.737937
1261.000000	55.701635
1260.000000	55.655618
1259.000000	55.625451
1258.000000	55.591501
1257.000000	55.538530
1256.000000	55.496502
1255.000000	55.448848
1254.000000	55.402934
1253.000000	55.351599
1252.000000	55.302208
1251.000000	55.245760
1250.000000	55.169577
1249.000000	55.092780
1248.000000	55.034185
1247.000000	54.963626
1246.000000	54.879364
1245.000000	54.778842
1244.000000	54.660425
1243.000000	54.556325
1242.000000	54.450281
1241.000000	54.325627
1240.000000	54.194223
1239.000000	54.056274
1238.000000	53.924359
1237.000000	53.795614
1236.000000	53.653371
1235.000000	53.509696
1234.000000	53.363362
1233.000000	53.201178
1232.000000	53.032551
1231.000000	52.859323
1230.000000	52.686402
1229.000000	52.503766
1228.000000	52.316630
1227.000000	52.145243
1226.000000	51.969561
1225.000000	51.774244
1224.000000	51.581280
1223.000000	51.384123
1222.000000	51.188705
1221.000000	51.001978
1220.000000	50.803288
1219.000000	50.603370
1218.000000	50.429221
1217.000000	50.258243
1216.000000	50.082663
1215.000000	49.911889
1214.000000	49.757272
1213.000000	49.605314
1212.000000	49.447016
1211.000000	49.293830
1210.000000	49.140236
1209.000000	49.016502
1208.000000	48.882746
1207.000000	48.753490
1206.000000	48.643663
1205.000000	48.549072
1204.000000	48.470537
1203.000000	48.402432
1202.000000	48.347927
1201.000000	48.292093
1200.000000	48.232271
1199.000000	48.176642
1198.000000	48.072337
1197.000000	47.965169
1196.000000	47.830493
1195.000000	47.635585
1194.000000	47.394559
1193.000000	47.087984
1192.000000	46.730791
1191.000000	46.304265
1190.000000	45.825280
1189.000000	45.356521
1188.000000	44.937358
1187.000000	44.584357
1186.000000	44.342513
1185.000000	44.219801
1184.000000	44.221948
1183.000000	44.369816
1182.000000	44.638044
1181.000000	45.038391
1180.000000	45.512058
1179.000000	46.033276
1178.000000	46.532202
1177.000000	47.005563
1176.000000	47.452643
1175.000000	47.828447
1174.000000	48.160280
1173.000000	48.489659
1172.000000	48.822004
1171.000000	49.178072
1170.000000	49.530664
1169.000000	49.878654
1168.000000	50.250471
1167.000000	50.627503
1166.000000	51.001467
1165.000000	51.422062
1164.000000	51.830692
1163.000000	52.235334
1162.000000	52.656849
1161.000000	53.085522
1160.000000	53.533420
1159.000000	53.954730
1158.000000	54.376859
1157.000000	54.776286
1156.000000	55.143603
1155.000000	55.531679
1154.000000	55.846230
1153.000000	56.131024
1152.000000	56.331044
1151.000000	56.508567
1150.000000	56.653776
1149.000000	56.774545
1148.000000	56.896234
1147.000000	57.021604
1146.000000	57.163848
1145.000000	57.372355
1144.000000	57.656945
1143.000000	58.004628
1142.000000	58.382171
1141.000000	58.815037
1140.000000	59.268866
1139.000000	59.756441
1138.000000	60.249435
1137.000000	60.747134
1136.000000	61.286452
1135.000000	61.820453
1134.000000	62.390142
1133.000000	62.939073
1132.000000	63.403844
1131.000000	63.855730
1130.000000	64.297390
1129.000000	64.683114
1128.000000	65.009016
1127.000000	65.309557
1126.000000	65.546698
1125.000000	65.731584
1124.000000	65.896427
1123.000000	66.047055
1122.000000	66.150031
1121.000000	66.262926
1120.000000	66.375718
1119.000000	66.446993
1118.000000	66.489636
1117.000000	66.537289
1116.000000	66.581772
1115.000000	66.584226
1114.000000	66.595679
1113.000000	66.597418
1112.000000	66.604064
1111.000000	66.593941
1110.000000	66.608666
1109.000000	66.609177
1108.000000	66.598338
1107.000000	66.597213
1106.000000	66.577170
1105.000000	66.580238
1104.000000	66.575841
1103.000000	66.574818
1102.000000	66.569705
1101.000000	66.550889
1100.000000	66.529722
1099.000000	66.508042
1098.000000	66.503543
1097.000000	66.478898
1096.000000	66.460696
1095.000000	66.419179
1094.000000	66.382058
1093.000000	66.354653
1092.000000	66.306795
1091.000000	66.274583
1090.000000	66.217522
1089.000000	66.185822
1088.000000	66.156064
1087.000000	66.090004
1086.000000	66.024354
1085.000000	65.983347
1084.000000	65.957578
1083.000000	65.885792
1082.000000	65.839775
1081.000000	65.776476
1080.000000	65.728311
1079.000000	65.703974
1078.000000	65.652639
1077.000000	65.606111
1076.000000	65.552629
1075.000000	65.498431
1074.000000	65.462334
1073.000000	65.407829
1072.000000	65.378481
1071.000000	65.317534
1070.000000	65.314159
1069.000000	65.266302
1068.000000	65.222228
1067.000000	65.175904
1066.000000	65.152589
1065.000000	65.085609
1064.000000	65.057283
1063.000000	65.030593
1062.000000	64.985598
1061.000000	64.920766
1060.000000	64.884975
1059.000000	64.841412
1058.000000	64.797747
1057.000000	64.767171
1056.000000	64.723404
1055.000000	64.675547
1054.000000	64.631984
1053.000000	64.572264
1052.000000	64.546086
1051.000000	64.503546
1050.000000	64.472254
1049.000000	64.447916
1048.000000	64.406297
1047.000000	64.360689
1046.000000	64.335737
1045.000000	64.300662
1044.000000	64.274484
1043.000000	64.227444
1042.000000	64.207094
1041.000000	64.156271
1040.000000	64.093177
1039.000000	64.064135
1038.000000	64.034684
1037.000000	63.981203
1036.000000	63.929868
1035.000000	63.874852
1034.000000	63.840800
1033.000000	63.794272
1032.000000	63.729746
1031.000000	63.664913
1030.000000	63.608363
1029.000000	63.539338
1028.000000	63.461314
1027.000000	63.398833
1026.000000	63.312628
1025.000000	63.213027
1024.000000	63.124777
1023.000000	63.024971
1022.000000	62.925165
1021.000000	62.823315
1020.000000	62.728213
1019.000000	62.654177
1018.000000	62.559382
1017.000000	62.460088
1016.000000	62.365498
1015.000000	62.284917
1014.000000	62.226526
1013.000000	62.172022
1012.000000	62.110564
1011.000000	62.056162
1010.000000	62.021393
1009.000000	61.979876
1008.000000	61.943880
1007.000000	61.935495
1006.000000	61.910850
1005.000000	61.888149
1004.000000	61.860130
1003.000000	61.860130
1002.000000	61.847756
1001.000000	61.826077
1000.000000	61.786502
999.000000	61.785173
998.000000	61.785480
997.000000	61.783946
996.000000	61.765232
995.000000	61.752450
994.000000	61.767482
993.000000	61.782105
992.000000	61.798262
991.000000	61.801944
990.000000	61.821884
989.000000	61.838144
988.000000	61.856039
987.000000	61.886001
986.000000	61.924246
985.000000	61.948584
984.000000	61.980898
983.000000	62.019246
982.000000	62.072421
981.000000	62.132345
980.000000	62.185111
979.000000	62.249330
978.000000	62.320605
977.000000	62.383086
976.000000	62.449248
975.000000	62.496288
974.000000	62.567767
973.000000	62.628714
972.000000	62.686389
971.000000	62.741098
970.000000	62.792637
969.000000	62.844994
968.000000	62.892136
967.000000	62.935801
966.000000	62.971489
965.000000	63.013211
964.000000	63.062091
963.000000	63.119152
962.000000	63.190530
961.000000	63.264259
960.000000	63.336863
959.000000	63.392902
958.000000	63.478902
957.000000	63.568380
956.000000	63.631679
955.000000	63.672991
954.000000	63.716043
953.000000	63.753368
952.000000	63.797748
951.000000	63.838141
950.000000	63.854094
949.000000	63.865138
948.000000	63.885283
947.000000	63.901235
946.000000	63.923733
945.000000	63.941117
944.000000	63.943980
943.000000	63.966886
942.000000	63.990508
941.000000	64.014028
940.000000	64.052273
939.000000	64.090109
938.000000	64.113629
937.000000	64.145125
936.000000	64.195028
935.000000	64.242885
934.000000	64.288084
933.000000	64.328068
932.000000	64.374392
931.000000	64.423476
930.000000	64.472765
929.000000	64.531360
928.000000	64.573491
927.000000	64.623394
926.000000	64.707554
925.000000	64.766558
924.000000	64.827505
923.000000	64.908392
922.000000	64.985598
921.000000	65.059123
920.000000	65.133875
919.000000	65.220387
918.000000	65.304547
917.000000	65.352302
916.000000	65.409261
915.000000	65.476855
914.000000	65.551504
913.000000	65.591999
912.000000	65.643743
911.000000	65.702951
910.000000	65.742832
909.000000	65.801938
908.000000	65.872805
907.000000	65.957578
906.000000	66.038670
905.000000	66.127840
904.000000	66.239099
903.000000	66.347801
902.000000	66.471740
901.000000	66.590464
900.000000	66.713482
899.000000	66.841409
898.000000	66.967394
897.000000	67.091435
896.000000	67.221305
895.000000	67.348311
894.000000	67.474602
893.000000	67.611528
892.000000	67.734956
891.000000	67.846317
890.000000	67.964836
889.000000	68.081310
888.000000	68.206271
887.000000	68.342993
886.000000	68.457830
885.000000	68.544853
884.000000	68.671042
883.000000	68.796413
882.000000	68.909614
881.000000	68.995512
880.000000	69.094909
879.000000	69.210872
878.000000	69.312109
877.000000	69.395348
876.000000	69.462226
875.000000	69.514481
874.000000	69.583097
873.000000	69.607844
872.000000	69.591789
871.000000	69.570724
870.000000	69.648850
869.000000	69.760313
868.000000	69.909715
867.000000	70.080591
866.000000	70.208927
865.000000	70.322845
864.000000	70.448522
863.000000	70.571234
862.000000	70.714091
861.000000	70.832917
860.000000	70.970661
859.000000	71.047662
858.000000	71.180600
857.000000	71.249200
856.000000	71.168800
855.000000	71.123800
854.000000	71.424800
853.000000	71.270200
852.000000	71.898400
851.000000	71.873800
850.000000	71.618100
849.000000	71.970100
848.000000	71.809300
847.000000	71.688900
846.000000	71.966800
845.000000	71.949300
844.000000	71.753200
843.000000	71.721500
842.000000	71.901000
841.000000	72.054300
840.000000	71.714800
839.000000	71.798700
838.000000	71.866100
837.000000	71.894800
836.000000	71.917000
835.000000	71.521700
834.000000	71.712500
833.000000	71.717500
832.000000	71.663300
831.000000	71.649700
830.000000	71.688800
829.000000	71.582900
828.000000	71.559700
827.000000	71.335300
826.000000	71.267700
825.000000	71.531600
824.000000	71.253700
823.000000	71.246100
822.000000	71.031100
821.000000	70.995300
820.000000	71.012200
819.000000	70.672000
818.000000	70.580100
817.000000	70.691900
816.000000	70.448700
815.000000	70.387900
814.000000	70.220900
813.000000	69.980900
812.000000	69.912200
811.000000	69.792500
810.000000	69.609100
809.000000	69.632500
808.000000	69.365000
807.000000	69.296200
806.000000	69.047300
805.000000	68.901000
804.000000	68.855200
803.000000	68.605800
802.000000	68.469300
801.000000	68.252100
800.000000	68.023200
799.000000	67.936300
798.000000	67.746600
797.000000	67.674200
796.000000	67.310200
795.000000	67.206800
794.000000	67.242400
793.000000	67.023200
792.000000	66.741700
791.000000	66.487500
790.000000	66.245100
789.000000	66.195500
788.000000	66.215300
787.000000	66.037500
786.000000	65.726300
785.000000	65.582100
784.000000	65.583500
783.000000	65.402500
782.000000	65.160800
781.000000	64.984900
780.000000	65.066700
779.000000	64.736400
778.000000	64.744800
777.000000	64.449300
776.000000	64.290100
775.000000	63.991100
774.000000	63.884900
773.000000	63.550000
772.000000	63.363900
771.000000	63.207000
770.000000	63.053600
769.000000	62.816700
768.000000	62.689000
767.000000	62.469200
766.000000	62.513600
765.000000	62.276900
764.000000	62.146800
763.000000	62.090100
762.000000	61.996600
761.000000	61.750700
760.000000	61.660000
759.000000	61.524100
758.000000	61.290200
757.000000	61.161000
756.000000	60.863800
755.000000	60.816900
754.000000	60.682000
753.000000	60.333600
752.000000	60.154900
751.000000	59.901500
750.000000	59.880000
749.000000	59.784200
748.000000	59.697400
747.000000	59.619400
746.000000	59.626900
745.000000	59.580700
744.000000	59.489500
743.000000	59.592000
742.000000	59.487700
741.000000	59.448000
740.000000	59.286900
739.000000	59.137900
738.000000	59.036800
737.000000	58.845600
736.000000	58.723000
735.000000	58.584900
734.000000	58.382500
733.000000	58.240000
732.000000	58.063700
731.000000	57.968000
730.000000	57.814200
729.000000	57.899800
728.000000	57.869300
727.000000	57.703300
726.000000	57.639200
725.000000	57.599100
724.000000	57.503100
723.000000	57.484200
722.000000	57.415300
721.000000	57.247800
720.000000	57.128600
719.000000	56.919100
718.000000	56.705500
717.000000	56.562100
716.000000	56.208000
715.000000	56.054500
714.000000	55.846200
713.000000	55.609000
712.000000	55.374300
711.000000	55.250900
710.000000	55.135400
709.000000	54.958600
708.000000	54.883900
707.000000	54.824800
706.000000	54.649200
705.000000	54.600200
704.000000	54.507100
703.000000	54.382800
702.000000	54.260800
701.000000	54.148600
700.000000	54.085300
699.000000	53.923000
698.000000	53.838100
697.000000	53.727600
696.000000	53.607300
695.000000	53.509500
694.000000	53.434500
693.000000	53.383400
692.000000	53.354200
691.000000	53.321500
690.000000	53.369400
689.000000	53.410200
688.000000	53.485600
687.000000	53.564900
686.000000	53.628100
685.000000	53.713400
684.000000	53.793500
683.000000	53.873200
682.000000	53.950300
681.000000	54.044800
680.000000	54.090400
679.000000	54.139100
678.000000	54.201100
677.000000	54.249300
676.000000	54.257400
675.000000	54.297400
674.000000	54.331300
673.000000	54.330100
672.000000	54.330200
671.000000	54.348100
670.000000	54.374000
669.000000	54.341000
668.000000	54.329100
667.000000	54.303700
666.000000	54.292800
665.000000	54.252900
664.000000	54.192100
663.000000	54.068200
662.000000	53.889300
661.000000	53.711400
660.000000	53.499600
659.000000	53.221300
658.000000	52.894100
657.000000	52.572300
656.000000	52.307300
655.000000	52.002300
654.000000	51.700300
653.000000	51.445700
652.000000	51.181100
651.000000	50.927600
650.000000	50.713800
649.000000	50.448000
648.000000	50.139300
647.000000	49.893900
646.000000	49.636000
645.000000	49.353600
644.000000	49.050000
643.000000	48.759900
642.000000	48.513000
641.000000	48.274900
640.000000	48.081400
639.000000	47.930900
638.000000	47.847900
637.000000	47.895400
636.000000	48.041700
635.000000	48.295900
634.000000	48.645800
633.000000	49.056600
632.000000	49.607500
631.000000	50.256100
630.000000	50.941400
629.000000	51.629300
628.000000	52.349100
627.000000	53.087700
626.000000	53.807700
625.000000	54.523700
624.000000	55.216800
623.000000	55.879900
622.000000	56.515500
621.000000	57.171400
620.000000	57.832800
619.000000	58.433700
618.000000	59.058300
617.000000	59.669200
616.000000	60.237600
615.000000	60.776500
614.000000	61.345500
613.000000	61.935500
612.000000	62.436600
611.000000	62.884500
610.000000	63.334400
609.000000	63.773600
608.000000	64.160900
607.000000	64.464300
606.000000	64.763200
605.000000	65.015300
604.000000	65.234700
603.000000	65.457600
602.000000	65.679000
601.000000	65.897500
600.000000	66.159200
599.000000	66.447700
598.000000	66.808700
597.000000	67.222800
596.000000	67.654000
595.000000	68.096400
594.000000	68.552900
593.000000	69.029000
592.000000	69.483500
591.000000	69.941700
590.000000	70.266400
589.000000	70.521300
588.000000	70.755300
587.000000	70.895300
586.000000	70.920500
585.000000	70.866400
584.000000	70.771400
583.000000	70.623700
582.000000	70.470600
581.000000	70.242100
580.000000	70.054200
579.000000	69.866000
578.000000	69.735900
577.000000	69.659600
576.000000	69.632000
575.000000	69.663600
574.000000	69.703000
573.000000	69.746300
572.000000	69.825600
571.000000	69.916900
570.000000	69.950300
569.000000	69.969400
568.000000	69.951300
567.000000	69.905100
566.000000	69.794800
565.000000	69.607700
564.000000	69.366700
563.000000	69.058000
562.000000	68.745800
561.000000	68.351400
560.000000	67.993300
559.000000	67.619800
558.000000	67.303400
557.000000	66.946500
556.000000	66.620100
555.000000	66.252400
554.000000	65.892700
553.000000	65.460100
552.000000	65.013600
551.000000	64.524800
550.000000	63.966000
549.000000	63.272200
548.000000	62.602200
547.000000	61.857700
546.000000	61.030500
545.000000	60.207800
544.000000	59.292100
543.000000	58.353600
542.000000	57.383900
541.000000	56.380400
540.000000	55.319100
539.000000	54.246900
538.000000	53.207600
537.000000	52.145000
536.000000	51.081800
535.000000	50.034300
534.000000	49.012100
533.000000	48.004300
532.000000	47.043500
531.000000	46.076300
530.000000	45.137700
529.000000	44.216200
528.000000	43.323400
527.000000	42.478900
526.000000	41.656200
525.000000	40.836600
524.000000	40.089900
523.000000	39.306600
522.000000	38.554600
521.000000	37.784600
520.000000	37.029500
519.000000	36.295500
518.000000	35.584200
517.000000	34.880600
516.000000	34.184600
515.000000	33.474300
514.000000	32.738200
513.000000	31.967800
512.000000	31.181100
511.000000	30.462200
510.000000	29.741600
509.000000	28.991800
508.000000	28.292700
507.000000	27.627900
506.000000	26.933100
505.000000	26.283500
504.000000	25.639400
503.000000	25.073400
502.000000	24.543200
501.000000	24.073800
500.000000	23.723200
499.000000	23.360200
498.000000	23.150400
497.000000	22.915400
496.000000	22.788800
495.000000	22.707900
494.000000	22.668400
493.000000	22.713900
492.000000	22.737300
491.000000	22.776900
490.000000	22.804900
489.000000	22.851400
488.000000	22.901100
487.000000	22.937300
486.000000	22.958800
485.000000	23.008400
484.000000	22.949100
483.000000	22.907400
482.000000	22.863700
481.000000	22.769500
480.000000	22.680600
479.000000	22.577300
478.000000	22.465500
477.000000	22.294900
476.000000	22.168000
475.000000	21.989200
474.000000	21.860000
473.000000	21.708300
472.000000	21.539300
471.000000	21.366000
470.000000	21.166600
469.000000	20.986900
468.000000	20.831800
467.000000	20.656500
466.000000	20.442400
465.000000	20.292900
464.000000	20.084100
463.000000	19.913000
462.000000	19.727500
461.000000	19.480100
460.000000	19.286600
459.000000	19.069300
458.000000	18.861600
457.000000	18.650000
456.000000	18.419400
455.000000	18.200100
454.000000	17.941900
453.000000	17.685900
452.000000	17.408300
451.000000	17.168300
450.000000	16.891800
449.000000	16.603700
448.000000	16.316000
447.000000	16.024500
446.000000	15.729800
445.000000	15.398100
444.000000	15.077900
443.000000	14.755800
442.000000	14.458300
441.000000	14.107200
440.000000	13.755500
439.000000	13.381000
438.000000	13.026900
437.000000	12.707100
436.000000	12.363600
435.000000	11.979800
434.000000	11.653200
433.000000	11.345400
432.000000	11.009400
431.000000	10.698000
430.000000	10.404600
429.000000	10.087300
428.000000	9.800200
427.000000	9.510500
426.000000	9.219800
425.000000	8.978500
424.000000	8.711900
423.000000	8.471200
422.000000	8.225500
421.000000	8.010100
420.000000	7.817100
419.000000	7.608500
418.000000	7.433400
417.000000	7.276800
416.000000	7.121000
415.000000	6.997300
414.000000	6.876900
413.000000	6.766400
412.000000	6.671000
411.000000	6.560300
410.000000	6.475600
409.000000	6.396200
408.000000	6.341400
407.000000	6.265300
406.000000	6.211900
405.000000	6.155100
404.000000	6.114300
403.000000	6.068400
402.000000	6.046600
401.000000	6.031000
400.000000	5.986800
399.000000	5.946000
398.000000	5.947700
397.000000	5.932600
396.000000	5.879100
395.000000	5.860000
394.000000	5.851500
393.000000	5.852500
392.000000	5.833900
391.000000	5.811500
390.000000	5.805000
389.000000	5.795400
388.000000	5.780600
387.000000	5.760600
386.000000	5.762000
385.000000	5.736600
384.000000	5.721100
383.000000	5.722900
382.000000	5.710400
381.000000	5.707000
380.000000	5.695300
379.000000	5.680700
378.000000	5.668300
377.000000	5.636800
376.000000	5.642900
375.000000	5.609900
374.000000	5.491300
373.000000	5.451600
372.000000	5.444400
371.000000	5.458600
370.000000	5.511800
369.000000	5.444100
368.000000	5.443400
367.000000	5.417000
366.000000	5.460800
365.000000	5.603100
364.000000	5.688200
363.000000	5.599000
362.000000	5.587700
361.000000	5.541400
360.000000	5.545100
359.000000	5.589700
358.000000	5.557100
357.000000	5.572100
356.000000	5.540900
355.000000	5.497000
354.000000	5.522400
353.000000	5.570000
352.000000	5.512200
351.000000	5.573300
350.000000	5.619700
349.000000	5.607800
348.000000	5.688100
347.000000	5.718000
346.000000	5.507200
345.000000	5.460300
344.000000	5.697000
343.000000	5.702100
342.000000	5.396200
341.000000	5.243500
340.000000	5.345100
339.000000	5.517900
338.000000	5.663200
337.000000	5.638900
336.000000	5.597900
335.000000	5.600200
334.000000	5.847600
333.000000	6.173200
332.000000	5.914700
331.000000	5.602400
330.000000	5.602700
329.000000	5.624500
328.000000	5.840700
327.000000	6.205200
326.000000	6.128800
325.000000	5.687200
324.000000	5.427800
323.000000	5.662100
322.000000	6.064500
321.000000	6.098500
320.000000	6.372500
319.000000	6.262000
318.000000	6.193300
317.000000	6.007900
316.000000	5.538400
315.000000	5.409700
314.000000	5.428500
313.000000	5.416000
312.000000	5.398700
311.000000	5.414900
310.000000	5.401500
309.000000	5.407600
308.000000	5.429600
307.000000	5.407700
306.000000	5.399300
305.000000	5.395600
304.000000	5.423700
303.000000	5.418500
302.000000	5.412700
301.000000	5.423700
300.000000	5.389000
299.000000	5.379700
298.000000	5.422400
297.000000	5.454700
296.000000	5.450900
295.000000	5.456400
294.000000	5.458400
293.000000	5.447800
292.000000	5.448600
291.000000	5.478600
290.000000	5.501400
289.000000	5.505400
288.000000	5.496400
287.000000	5.467600
286.000000	5.459500
285.000000	5.482100
284.000000	5.521200
283.000000	5.554400
282.000000	5.542100
281.000000	5.522100
280.000000	5.515100
279.000000	5.519800
278.000000	5.583900
277.000000	5.606700
276.000000	5.605200
275.000000	5.573300
274.000000	5.546200
273.000000	5.597600
272.000000	5.625600
271.000000	5.642800
270.000000	5.660400
269.000000	5.702200
268.000000	5.744000
267.000000	5.762600
266.000000	5.751500
265.000000	5.736500
264.000000	5.760300
263.000000	5.811500
262.000000	5.836000
261.000000	5.862700
260.000000	5.881300
259.000000	5.891200
258.000000	5.909100
257.000000	5.928500
256.000000	5.973600
255.000000	5.990000
254.000000	5.980500
253.000000	6.018500
252.000000	5.988300
251.000000	6.005500
250.000000	6.029300
