PE UV       SUBTECH     SPECTRUM    ASCII       PEDS        4.00        
   -1
CICIMAUCR0252-2.Sample.ASC
24/06/24
17:12:54.00
24/06/24
17:12:54.00
Vinicio Soto Monge
C. resplendens. Sex F.Dorsal. 
250,000000
1
Lambda 1050
1050L1511233
PerkinElmer UV WinLab 6.3.2.0749 / 2.02.05 Lambda 900 UV/VIS/NIR, Aug  7 2015 09:38:08

0
0
3350/servo 860,8/2
0
0
UV/VIS
1
1
1
DoubleDePol,CommonBeamDepol,RBeamAtt,SBeamAtt,60mm sphere, WB InGaAs Detector
0
0
0
0
Program
Program
3350/servo 860,8/2
3350/0,2 860,8/0,2
3350/0,2 860,8/0,2
0
15.00
 
 
 
0
 
860,8
319,2
860,8
Front
100
on
S:100 R:100
0
0
0
0
 
0
 
 
 
0
 
 
0
0
0
0
0
 
 
 
 
0
0


0
0
#HDR
-1
-1
#GR
nm
%R
1.0
0.0
2500,000000
-1,000000
2251
8
89,128300
5,475100
#DATA
2500.000000	8.068041
2499.000000	8.066522
2498.000000	8.176619
2497.000000	8.077765
2496.000000	8.117164
2495.000000	8.009296
2494.000000	8.030566
2493.000000	7.878740
2492.000000	8.036542
2491.000000	8.006764
2490.000000	8.076853
2489.000000	7.916013
2488.000000	7.981949
2487.000000	7.996230
2486.000000	8.019526
2485.000000	7.883298
2484.000000	7.933434
2483.000000	7.955818
2482.000000	7.921178
2481.000000	7.853318
2480.000000	7.906999
2479.000000	7.964933
2478.000000	7.964123
2477.000000	7.939410
2476.000000	7.984481
2475.000000	7.998763
2474.000000	7.979620
2473.000000	7.959464
2472.000000	7.988128
2471.000000	7.982152
2470.000000	7.965136
2469.000000	7.994306
2468.000000	8.034212
2467.000000	8.043530
2466.000000	8.083234
2465.000000	8.099946
2464.000000	8.122026
2463.000000	8.125875
2462.000000	8.191305
2461.000000	8.205789
2460.000000	8.253899
2459.000000	8.245391
2458.000000	8.303630
2457.000000	8.324798
2456.000000	8.372807
2455.000000	8.421323
2454.000000	8.470041
2453.000000	8.525646
2452.000000	8.587632
2451.000000	8.665925
2450.000000	8.705123
2449.000000	8.741585
2448.000000	8.811472
2447.000000	8.873255
2446.000000	8.924404
2445.000000	8.986289
2444.000000	9.055973
2443.000000	9.097095
2442.000000	9.170931
2441.000000	9.224916
2440.000000	9.272419
2439.000000	9.360638
2438.000000	9.401455
2437.000000	9.456149
2436.000000	9.524111
2435.000000	9.567461
2434.000000	9.618610
2433.000000	9.690421
2432.000000	9.740050
2431.000000	9.815508
2430.000000	9.840322
2429.000000	9.897042
2428.000000	9.961459
2427.000000	10.011291
2426.000000	10.065681
2425.000000	10.115716
2424.000000	10.168890
2423.000000	10.217811
2422.000000	10.245056
2421.000000	10.276049
2420.000000	10.320007
2419.000000	10.361230
2418.000000	10.399718
2417.000000	10.433649
2416.000000	10.485405
2415.000000	10.522374
2414.000000	10.546581
2413.000000	10.585576
2412.000000	10.633585
2411.000000	10.658501
2410.000000	10.695368
2409.000000	10.724235
2408.000000	10.744795
2407.000000	10.786221
2406.000000	10.800401
2405.000000	10.818024
2404.000000	10.855905
2403.000000	10.888518
2402.000000	10.904521
2401.000000	10.943314
2400.000000	10.965596
2399.000000	10.993450
2398.000000	11.015732
2397.000000	11.033963
2396.000000	11.046320
2395.000000	11.050979
2394.000000	11.091594
2393.000000	11.113472
2392.000000	11.111142
2391.000000	11.139603
2390.000000	11.168470
2389.000000	11.184979
2388.000000	11.200070
2387.000000	11.206958
2386.000000	11.229949
2385.000000	11.237039
2384.000000	11.243522
2383.000000	11.258005
2382.000000	11.264386
2381.000000	11.261753
2380.000000	11.261550
2379.000000	11.261550
2378.000000	11.261246
2377.000000	11.263272
2376.000000	11.263880
2375.000000	11.268033
2374.000000	11.253245
2373.000000	11.244231
2372.000000	11.250105
2371.000000	11.223366
2370.000000	11.213035
2369.000000	11.223062
2368.000000	11.200678
2367.000000	11.188321
2366.000000	11.175762
2365.000000	11.154594
2364.000000	11.141933
2363.000000	11.124208
2362.000000	11.100811
2361.000000	11.082074
2360.000000	11.061108
2359.000000	11.032647
2358.000000	10.988892
2357.000000	10.956481
2356.000000	10.949391
2355.000000	10.944732
2354.000000	10.934502
2353.000000	10.912118
2352.000000	10.896419
2351.000000	10.886695
2350.000000	10.895710
2349.000000	10.902395
2348.000000	10.899052
2347.000000	10.917992
2346.000000	10.940579
2345.000000	10.947264
2344.000000	10.955468
2343.000000	10.993450
2342.000000	11.021505
2341.000000	11.041357
2340.000000	11.072047
2339.000000	11.090582
2338.000000	11.102837
2337.000000	11.136970
2336.000000	11.143452
2335.000000	11.149023
2334.000000	11.155809
2333.000000	11.160266
2332.000000	11.164418
2331.000000	11.179712
2330.000000	11.166950
2329.000000	11.145782
2328.000000	11.153277
2327.000000	11.131197
2326.000000	11.091189
2325.000000	11.078427
2324.000000	11.034571
2323.000000	10.993551
2322.000000	10.968128
2321.000000	10.933286
2320.000000	10.875757
2319.000000	10.826532
2318.000000	10.760089
2317.000000	10.701648
2316.000000	10.637636
2315.000000	10.579803
2314.000000	10.518626
2313.000000	10.436383
2312.000000	10.377739
2311.000000	10.314943
2310.000000	10.252957
2309.000000	10.218722
2308.000000	10.185602
2307.000000	10.165041
2306.000000	10.135669
2305.000000	10.115108
2304.000000	10.117741
2303.000000	10.116121
2302.000000	10.123413
2301.000000	10.165345
2300.000000	10.198465
2299.000000	10.232497
2298.000000	10.273720
2297.000000	10.329933
2296.000000	10.397591
2295.000000	10.457754
2294.000000	10.505156
2293.000000	10.560255
2292.000000	10.606137
2291.000000	10.673693
2290.000000	10.699319
2289.000000	10.747631
2288.000000	10.778219
2287.000000	10.809820
2286.000000	10.827241
2285.000000	10.835850
2284.000000	10.855398
2283.000000	10.871908
2282.000000	10.877985
2281.000000	10.854689
2280.000000	10.842738
2279.000000	10.840510
2278.000000	10.820050
2277.000000	10.805971
2276.000000	10.793311
2275.000000	10.757253
2274.000000	10.745201
2273.000000	10.752898
2272.000000	10.752898
2271.000000	10.737908
2270.000000	10.735275
2269.000000	10.766268
2268.000000	10.776700
2267.000000	10.834129
2266.000000	10.904724
2265.000000	10.945542
2264.000000	11.019885
2263.000000	11.120461
2262.000000	11.212326
2261.000000	11.348554
2260.000000	11.470805
2259.000000	11.594170
2258.000000	11.736272
2257.000000	11.920914
2256.000000	12.070107
2255.000000	12.231453
2254.000000	12.390876
2253.000000	12.565187
2252.000000	12.729673
2251.000000	12.891020
2250.000000	13.047707
2249.000000	13.213814
2248.000000	13.343358
2247.000000	13.472901
2246.000000	13.603052
2245.000000	13.742622
2244.000000	13.830132
2243.000000	13.939520
2242.000000	14.028347
2241.000000	14.129631
2240.000000	14.195061
2239.000000	14.273354
2238.000000	14.344963
2237.000000	14.405531
2236.000000	14.453337
2235.000000	14.513095
2234.000000	14.551077
2233.000000	14.589160
2232.000000	14.587742
2231.000000	14.627750
2230.000000	14.656717
2229.000000	14.673834
2228.000000	14.688318
2227.000000	14.679203
2226.000000	14.673328
2225.000000	14.657730
2224.000000	14.646285
2223.000000	14.621166
2222.000000	14.603340
2221.000000	14.554420
2220.000000	14.535986
2219.000000	14.492839
2218.000000	14.458300
2217.000000	14.421129
2216.000000	14.388718
2215.000000	14.359446
2214.000000	14.311336
2213.000000	14.273557
2212.000000	14.216331
2211.000000	14.195872
2210.000000	14.173285
2209.000000	14.121934
2208.000000	14.094688
2207.000000	14.073925
2206.000000	14.053364
2205.000000	14.022168
2204.000000	14.013255
2203.000000	13.984794
2202.000000	13.962511
2201.000000	13.940431
2200.000000	13.909236
2199.000000	13.912983
2198.000000	13.871862
2197.000000	13.868823
2196.000000	13.845021
2195.000000	13.819295
2194.000000	13.826182
2193.000000	13.792758
2192.000000	13.781516
2191.000000	13.764500
2190.000000	13.721454
2189.000000	13.723682
2188.000000	13.697348
2187.000000	13.705046
2186.000000	13.683168
2185.000000	13.672533
2184.000000	13.656226
2183.000000	13.636273
2182.000000	13.608521
2181.000000	13.594848
2180.000000	13.596468
2179.000000	13.561120
2178.000000	13.545927
2177.000000	13.539546
2176.000000	13.536103
2175.000000	13.536710
2174.000000	13.533570
2173.000000	13.508249
2172.000000	13.501564
2171.000000	13.503286
2170.000000	13.493867
2169.000000	13.526075
2168.000000	13.533570
2167.000000	13.540559
2166.000000	13.555954
2165.000000	13.563146
2164.000000	13.576819
2163.000000	13.605280
2162.000000	13.619055
2161.000000	13.647921
2160.000000	13.670609
2159.000000	13.718314
2158.000000	13.727632
2157.000000	13.772299
2156.000000	13.810382
2155.000000	13.849376
2154.000000	13.878749
2153.000000	13.947217
2152.000000	13.990669
2151.000000	14.040399
2150.000000	14.098436
2149.000000	14.135303
2148.000000	14.185743
2147.000000	14.230207
2146.000000	14.276190
2145.000000	14.323288
2144.000000	14.363295
2143.000000	14.428624
2142.000000	14.487673
2141.000000	14.514716
2140.000000	14.570828
2139.000000	14.605974
2138.000000	14.637878
2137.000000	14.672214
2136.000000	14.728528
2135.000000	14.760635
2134.000000	14.789198
2133.000000	14.837916
2132.000000	14.878126
2131.000000	14.891192
2130.000000	14.919349
2129.000000	14.946999
2128.000000	14.951152
2127.000000	14.968269
2126.000000	15.005036
2125.000000	15.031066
2124.000000	15.028635
2123.000000	15.040789
2122.000000	15.054564
2121.000000	15.057501
2120.000000	15.064895
2119.000000	15.074011
2118.000000	15.057602
2117.000000	15.057906
2116.000000	15.063376
2115.000000	15.062363
2114.000000	15.049702
2113.000000	15.047879
2112.000000	15.049500
2111.000000	15.030863
2110.000000	15.022558
2109.000000	15.001997
2108.000000	14.983665
2107.000000	14.964826
2106.000000	14.944467
2105.000000	14.938086
2104.000000	14.910841
2103.000000	14.895243
2102.000000	14.884507
2101.000000	14.864756
2100.000000	14.853108
2099.000000	14.831636
2098.000000	14.813202
2097.000000	14.805606
2096.000000	14.794870
2095.000000	14.785653
2094.000000	14.768637
2093.000000	14.738961
2092.000000	14.719210
2091.000000	14.713032
2090.000000	14.708373
2089.000000	14.698953
2088.000000	14.692066
2087.000000	14.680013
2086.000000	14.664314
2085.000000	14.639499
2084.000000	14.633827
2083.000000	14.612962
2082.000000	14.576601
2081.000000	14.543785
2080.000000	14.500536
2079.000000	14.471164
2078.000000	14.435714
2077.000000	14.403201
2076.000000	14.362991
2075.000000	14.314071
2074.000000	14.263327
2073.000000	14.195973
2072.000000	14.151104
2071.000000	14.107956
2070.000000	14.042121
2069.000000	13.975577
2068.000000	13.904374
2067.000000	13.841881
2066.000000	13.787086
2065.000000	13.723884
2064.000000	13.659771
2063.000000	13.582592
2062.000000	13.516251
2061.000000	13.469457
2060.000000	13.423676
2059.000000	13.364324
2058.000000	13.301223
2057.000000	13.250378
2056.000000	13.220702
2055.000000	13.203990
2054.000000	13.185252
2053.000000	13.172186
2052.000000	13.184948
2051.000000	13.195887
2050.000000	13.217461
2049.000000	13.258684
2048.000000	13.301527
2047.000000	13.325937
2046.000000	13.370806
2045.000000	13.434311
2044.000000	13.498425
2043.000000	13.558993
2042.000000	13.640021
2041.000000	13.708692
2040.000000	13.765209
2039.000000	13.825878
2038.000000	13.893131
2037.000000	13.933949
2036.000000	13.987326
2035.000000	14.049515
2034.000000	14.102892
2033.000000	14.137329
2032.000000	14.177336
2031.000000	14.217040
2030.000000	14.251983
2029.000000	14.275887
2028.000000	14.305360
2027.000000	14.330580
2026.000000	14.319236
2025.000000	14.339291
2024.000000	14.361472
2023.000000	14.375146
2022.000000	14.379501
2021.000000	14.383350
2020.000000	14.392668
2019.000000	14.390845
2018.000000	14.387401
2017.000000	14.384160
2016.000000	14.359345
2015.000000	14.349014
2014.000000	14.349419
2013.000000	14.327137
2012.000000	14.322275
2011.000000	14.298574
2010.000000	14.255630
2009.000000	14.243475
2008.000000	14.210862
2007.000000	14.165790
2006.000000	14.135607
2005.000000	14.113122
2004.000000	14.059036
2003.000000	14.031183
2002.000000	13.978514
2001.000000	13.923416
2000.000000	13.865886
1999.000000	13.828917
1998.000000	13.769361
1997.000000	13.718213
1996.000000	13.657543
1995.000000	13.591303
1994.000000	13.514428
1993.000000	13.466419
1992.000000	13.414865
1991.000000	13.346700
1990.000000	13.266685
1989.000000	13.195381
1988.000000	13.127418
1987.000000	13.075763
1986.000000	12.991697
1985.000000	12.925355
1984.000000	12.852633
1983.000000	12.776467
1982.000000	12.680753
1981.000000	12.613196
1980.000000	12.531864
1979.000000	12.477069
1978.000000	12.395433
1977.000000	12.321394
1976.000000	12.242899
1975.000000	12.158326
1974.000000	12.082767
1973.000000	12.030403
1972.000000	11.964568
1971.000000	11.880502
1970.000000	11.819528
1969.000000	11.738602
1968.000000	11.676311
1967.000000	11.604906
1966.000000	11.544945
1965.000000	11.470805
1964.000000	11.417022
1963.000000	11.344604
1962.000000	11.276237
1961.000000	11.219011
1960.000000	11.157936
1959.000000	11.080048
1958.000000	11.024848
1957.000000	10.978358
1956.000000	10.923057
1955.000000	10.883556
1954.000000	10.812757
1953.000000	10.758975
1952.000000	10.716334
1951.000000	10.655361
1950.000000	10.604212
1949.000000	10.574131
1948.000000	10.499990
1947.000000	10.479429
1946.000000	10.411062
1945.000000	10.409340
1944.000000	10.373587
1943.000000	10.328819
1942.000000	10.316969
1941.000000	10.298737
1940.000000	10.264199
1939.000000	10.248500
1938.000000	10.275340
1937.000000	10.281721
1936.000000	10.275746
1935.000000	10.299244
1934.000000	10.286178
1933.000000	10.306030
1932.000000	10.339656
1931.000000	10.346645
1930.000000	10.403061
1929.000000	10.453197
1928.000000	10.503636
1927.000000	10.591450
1926.000000	10.659716
1925.000000	10.741554
1924.000000	10.803642
1923.000000	10.870591
1922.000000	10.976738
1921.000000	11.069312
1920.000000	11.227620
1919.000000	11.388258
1918.000000	11.472020
1917.000000	11.595182
1916.000000	11.753794
1915.000000	11.844545
1914.000000	12.007513
1913.000000	12.173620
1912.000000	12.402625
1911.000000	12.617855
1910.000000	12.755602
1909.000000	12.977112
1908.000000	13.115062
1907.000000	13.313073
1906.000000	13.559094
1905.000000	13.844008
1904.000000	14.145533
1903.000000	14.416774
1902.000000	14.705537
1901.000000	14.986501
1900.000000	15.278302
1899.000000	15.619429
1898.000000	16.026391
1897.000000	16.366303
1896.000000	16.725358
1895.000000	17.024451
1894.000000	17.333775
1893.000000	17.701743
1892.000000	18.089866
1891.000000	18.545648
1890.000000	19.002239
1889.000000	19.429256
1888.000000	19.857690
1887.000000	20.290683
1886.000000	20.707672
1885.000000	21.140766
1884.000000	21.595839
1883.000000	22.060634
1882.000000	22.503958
1881.000000	22.936849
1880.000000	23.377742
1879.000000	23.779133
1878.000000	24.150139
1877.000000	24.539984
1876.000000	24.918283
1875.000000	25.281794
1874.000000	25.637911
1873.000000	25.981773
1872.000000	26.316621
1871.000000	26.616120
1870.000000	26.900932
1869.000000	27.152828
1868.000000	27.420625
1867.000000	27.587846
1866.000000	27.769551
1865.000000	27.926542
1864.000000	28.088800
1863.000000	28.237689
1862.000000	28.356293
1861.000000	28.511563
1860.000000	28.652146
1859.000000	28.779563
1858.000000	28.877910
1857.000000	28.968965
1856.000000	29.052424
1855.000000	29.100230
1854.000000	29.183486
1853.000000	29.234534
1852.000000	29.265122
1851.000000	29.319309
1850.000000	29.370154
1849.000000	29.422417
1848.000000	29.458171
1847.000000	29.464349
1846.000000	29.439332
1845.000000	29.399729
1844.000000	29.401451
1843.000000	29.416137
1842.000000	29.453309
1841.000000	29.480858
1840.000000	29.462526
1839.000000	29.442978
1838.000000	29.438420
1837.000000	29.429608
1836.000000	29.394766
1835.000000	29.354860
1834.000000	29.321132
1833.000000	29.284568
1832.000000	29.264818
1831.000000	29.239294
1830.000000	29.229976
1829.000000	29.199590
1828.000000	29.162520
1827.000000	29.105902
1826.000000	29.053133
1825.000000	29.012517
1824.000000	28.981626
1823.000000	28.993982
1822.000000	29.016569
1821.000000	29.020215
1820.000000	28.988412
1819.000000	28.946581
1818.000000	28.904750
1817.000000	28.887532
1816.000000	28.891280
1815.000000	28.891786
1814.000000	28.870111
1813.000000	28.860286
1812.000000	28.850259
1811.000000	28.822102
1810.000000	28.819064
1809.000000	28.773992
1808.000000	28.745024
1807.000000	28.743404
1806.000000	28.726084
1805.000000	28.694686
1804.000000	28.658223
1803.000000	28.633003
1802.000000	28.626217
1801.000000	28.602719
1800.000000	28.553394
1799.000000	28.503359
1798.000000	28.470138
1797.000000	28.447652
1796.000000	28.411494
1795.000000	28.393364
1794.000000	28.377867
1793.000000	28.343329
1792.000000	28.315476
1791.000000	28.292687
1790.000000	28.265947
1789.000000	28.233334
1788.000000	28.199606
1787.000000	28.192010
1786.000000	28.176108
1785.000000	28.134784
1784.000000	28.107538
1783.000000	28.081001
1782.000000	28.035930
1781.000000	28.003012
1780.000000	27.981236
1779.000000	27.946394
1778.000000	27.896764
1777.000000	27.847540
1776.000000	27.800848
1775.000000	27.750003
1774.000000	27.700677
1773.000000	27.640514
1772.000000	27.588150
1771.000000	27.547838
1770.000000	27.488485
1769.000000	27.409078
1768.000000	27.348814
1767.000000	27.299893
1766.000000	27.240236
1765.000000	27.186150
1764.000000	27.147257
1763.000000	27.119302
1762.000000	27.110389
1761.000000	27.126595
1760.000000	27.134596
1759.000000	27.167210
1758.000000	27.200735
1757.000000	27.244187
1756.000000	27.288144
1755.000000	27.329671
1754.000000	27.369577
1753.000000	27.399659
1752.000000	27.425385
1751.000000	27.445237
1750.000000	27.458606
1749.000000	27.464785
1748.000000	27.458809
1747.000000	27.443414
1746.000000	27.410395
1745.000000	27.381022
1744.000000	27.314681
1743.000000	27.242262
1742.000000	27.157791
1741.000000	27.067546
1740.000000	26.962919
1739.000000	26.861431
1738.000000	26.749005
1737.000000	26.620070
1736.000000	26.509973
1735.000000	26.418817
1734.000000	26.317937
1733.000000	26.250887
1732.000000	26.205005
1731.000000	26.195889
1730.000000	26.197206
1729.000000	26.211791
1728.000000	26.236302
1727.000000	26.289071
1726.000000	26.345386
1725.000000	26.370707
1724.000000	26.421754
1723.000000	26.467434
1722.000000	26.510986
1721.000000	26.568009
1720.000000	26.625539
1719.000000	26.708694
1718.000000	26.802079
1717.000000	26.872877
1716.000000	26.961906
1715.000000	27.066938
1714.000000	27.175110
1713.000000	27.265153
1712.000000	27.359246
1711.000000	27.446857
1710.000000	27.511477
1709.000000	27.557764
1708.000000	27.630284
1707.000000	27.649022
1706.000000	27.666645
1705.000000	27.679205
1704.000000	27.688827
1703.000000	27.676166
1702.000000	27.652769
1701.000000	27.628360
1700.000000	27.590783
1699.000000	27.546522
1698.000000	27.467925
1697.000000	27.404318
1696.000000	27.365424
1695.000000	27.323087
1694.000000	27.294829
1693.000000	27.305059
1692.000000	27.335849
1691.000000	27.372413
1690.000000	27.444224
1689.000000	27.490207
1688.000000	27.544800
1687.000000	27.608204
1686.000000	27.655403
1685.000000	27.728733
1684.000000	27.814521
1683.000000	27.927859
1682.000000	28.033094
1681.000000	28.225839
1680.000000	28.421420
1679.000000	28.676455
1678.000000	28.928249
1677.000000	29.200299
1676.000000	29.450169
1675.000000	29.721106
1674.000000	29.928132
1673.000000	30.130499
1672.000000	30.311697
1671.000000	30.477906
1670.000000	30.615957
1669.000000	30.737701
1668.000000	30.868764
1667.000000	30.994255
1666.000000	31.090071
1665.000000	31.190343
1664.000000	31.264584
1663.000000	31.330318
1662.000000	31.404256
1661.000000	31.455911
1660.000000	31.499565
1659.000000	31.567223
1658.000000	31.617967
1657.000000	31.627083
1656.000000	31.658886
1655.000000	31.682992
1654.000000	31.675598
1653.000000	31.689981
1652.000000	31.716315
1651.000000	31.717935
1650.000000	31.700008
1649.000000	31.673471
1648.000000	31.667495
1647.000000	31.635591
1646.000000	31.635388
1645.000000	31.604496
1644.000000	31.581606
1643.000000	31.552537
1642.000000	31.512935
1641.000000	31.493994
1640.000000	31.463609
1639.000000	31.409624
1638.000000	31.387139
1637.000000	31.357463
1636.000000	31.303984
1635.000000	31.250911
1634.000000	31.228831
1633.000000	31.164515
1632.000000	31.115898
1631.000000	31.079335
1630.000000	31.014918
1629.000000	30.952222
1628.000000	30.910695
1627.000000	30.868156
1626.000000	30.812551
1625.000000	30.743981
1624.000000	30.703366
1623.000000	30.649887
1622.000000	30.593066
1621.000000	30.535841
1620.000000	30.480134
1619.000000	30.430302
1618.000000	30.388674
1617.000000	30.341678
1616.000000	30.296707
1615.000000	30.226922
1614.000000	30.185598
1613.000000	30.123004
1612.000000	30.079350
1611.000000	30.038836
1610.000000	30.004095
1609.000000	29.939374
1608.000000	29.876274
1607.000000	29.835760
1606.000000	29.786029
1605.000000	29.728905
1604.000000	29.668438
1603.000000	29.611617
1602.000000	29.561684
1601.000000	29.501520
1600.000000	29.439230
1599.000000	29.387676
1598.000000	29.325994
1597.000000	29.276567
1596.000000	29.232305
1595.000000	29.177308
1594.000000	29.123728
1593.000000	29.088177
1592.000000	29.032774
1591.000000	28.976865
1590.000000	28.935845
1589.000000	28.903738
1588.000000	28.847828
1587.000000	28.817342
1586.000000	28.782905
1585.000000	28.734491
1584.000000	28.686887
1583.000000	28.639283
1582.000000	28.605454
1581.000000	28.562205
1580.000000	28.530503
1579.000000	28.492420
1578.000000	28.463453
1577.000000	28.441980
1576.000000	28.409265
1575.000000	28.388097
1574.000000	28.367232
1573.000000	28.339379
1572.000000	28.328541
1571.000000	28.307879
1570.000000	28.298662
1569.000000	28.273240
1568.000000	28.265745
1567.000000	28.252375
1566.000000	28.245285
1565.000000	28.243766
1564.000000	28.225231
1563.000000	28.226041
1562.000000	28.209127
1561.000000	28.199910
1560.000000	28.177931
1559.000000	28.158484
1558.000000	28.141772
1557.000000	28.110982
1556.000000	28.083939
1555.000000	28.040690
1554.000000	28.014457
1553.000000	27.978805
1552.000000	27.935860
1551.000000	27.904361
1550.000000	27.855035
1549.000000	27.806824
1548.000000	27.747066
1547.000000	27.688725
1546.000000	27.651250
1545.000000	27.610736
1544.000000	27.565563
1543.000000	27.521808
1542.000000	27.499526
1541.000000	27.473799
1540.000000	27.430044
1539.000000	27.401381
1538.000000	27.367146
1537.000000	27.332304
1536.000000	27.294930
1535.000000	27.256442
1534.000000	27.221701
1533.000000	27.171768
1532.000000	27.127608
1531.000000	27.098640
1530.000000	27.057823
1529.000000	26.993811
1528.000000	26.934863
1527.000000	26.882701
1526.000000	26.841985
1525.000000	26.802686
1524.000000	26.759134
1523.000000	26.707073
1522.000000	26.649949
1521.000000	26.585430
1520.000000	26.525166
1519.000000	26.482930
1518.000000	26.423679
1517.000000	26.350551
1516.000000	26.299605
1515.000000	26.243999
1514.000000	26.181912
1513.000000	26.113140
1512.000000	26.043354
1511.000000	25.986837
1510.000000	25.931536
1509.000000	25.860130
1508.000000	25.789636
1507.000000	25.735651
1506.000000	25.671133
1505.000000	25.599626
1504.000000	25.544223
1503.000000	25.483857
1502.000000	25.412350
1501.000000	25.346920
1500.000000	25.290302
1499.000000	25.238039
1498.000000	25.172103
1497.000000	25.119738
1496.000000	25.072337
1495.000000	25.016732
1494.000000	24.967811
1493.000000	24.930437
1492.000000	24.897520
1491.000000	24.855790
1490.000000	24.810617
1489.000000	24.769496
1488.000000	24.734755
1487.000000	24.718347
1486.000000	24.693228
1485.000000	24.658386
1484.000000	24.626684
1483.000000	24.592450
1482.000000	24.557608
1481.000000	24.545150
1480.000000	24.529349
1479.000000	24.498356
1478.000000	24.466755
1477.000000	24.445891
1476.000000	24.439814
1475.000000	24.443257
1474.000000	24.444372
1473.000000	24.453588
1472.000000	24.467464
1471.000000	24.465540
1470.000000	24.461489
1469.000000	24.464223
1468.000000	24.459767
1467.000000	24.480935
1466.000000	24.511928
1465.000000	24.517702
1464.000000	24.533198
1463.000000	24.564900
1462.000000	24.576852
1461.000000	24.614733
1460.000000	24.646840
1459.000000	24.687759
1458.000000	24.723209
1457.000000	24.752581
1456.000000	24.806059
1455.000000	24.850726
1454.000000	24.917068
1453.000000	24.958797
1452.000000	25.034052
1451.000000	25.123587
1450.000000	25.174939
1449.000000	25.218390
1448.000000	25.251814
1447.000000	25.318763
1446.000000	25.415794
1445.000000	25.496011
1444.000000	25.539463
1443.000000	25.604082
1442.000000	25.702227
1441.000000	25.773734
1440.000000	25.861953
1439.000000	25.938930
1438.000000	26.022388
1437.000000	26.122660
1436.000000	26.204802
1435.000000	26.292008
1434.000000	26.404941
1433.000000	26.524457
1432.000000	26.628983
1431.000000	26.751537
1430.000000	26.850391
1429.000000	26.961602
1428.000000	27.115352
1427.000000	27.242667
1426.000000	27.394189
1425.000000	27.548952
1424.000000	27.710704
1423.000000	27.884205
1422.000000	28.069050
1421.000000	28.223610
1420.000000	28.405822
1419.000000	28.641714
1418.000000	28.840637
1417.000000	29.016164
1416.000000	29.222481
1415.000000	29.467691
1414.000000	29.734273
1413.000000	29.966114
1412.000000	30.174456
1411.000000	30.431213
1410.000000	30.758566
1409.000000	31.073865
1408.000000	31.371136
1407.000000	31.688563
1406.000000	32.003558
1405.000000	32.332430
1404.000000	32.643982
1403.000000	32.972145
1402.000000	33.313170
1401.000000	33.696432
1400.000000	34.092861
1399.000000	34.396512
1398.000000	34.660764
1397.000000	34.968164
1396.000000	35.352438
1395.000000	35.717266
1394.000000	36.011194
1393.000000	36.280510
1392.000000	36.593278
1391.000000	36.953750
1390.000000	37.272392
1389.000000	37.648260
1388.000000	38.054007
1387.000000	38.460665
1386.000000	38.841192
1385.000000	39.244002
1384.000000	39.733106
1383.000000	40.127509
1382.000000	40.543890
1381.000000	40.899906
1380.000000	41.188467
1379.000000	41.414332
1378.000000	41.660555
1377.000000	41.866163
1376.000000	42.062960
1375.000000	42.229674
1374.000000	42.399934
1373.000000	42.615367
1372.000000	42.874149
1371.000000	43.120069
1370.000000	43.335198
1369.000000	43.554783
1368.000000	43.810527
1367.000000	43.984028
1366.000000	44.155706
1365.000000	44.315634
1364.000000	44.513241
1363.000000	44.634580
1362.000000	44.843834
1361.000000	44.972365
1360.000000	45.024425
1359.000000	45.025337
1358.000000	45.155791
1357.000000	45.261431
1356.000000	45.393507
1355.000000	45.543813
1354.000000	45.712453
1353.000000	45.931734
1352.000000	46.150408
1351.000000	46.484040
1350.000000	46.788299
1349.000000	47.063895
1348.000000	47.376258
1347.000000	47.627950
1346.000000	47.882276
1345.000000	48.100950
1344.000000	48.346870
1343.000000	48.612337
1342.000000	48.862510
1341.000000	49.081083
1340.000000	49.328522
1339.000000	49.557628
1338.000000	49.789874
1337.000000	49.996799
1336.000000	50.236337
1335.000000	50.463215
1334.000000	50.666899
1333.000000	50.898334
1332.000000	51.096954
1331.000000	51.296080
1330.000000	51.499054
1329.000000	51.703143
1328.000000	51.884342
1327.000000	52.062907
1326.000000	52.254639
1325.000000	52.414871
1324.000000	52.598501
1323.000000	52.760050
1322.000000	52.915724
1321.000000	53.088618
1320.000000	53.227074
1319.000000	53.378697
1318.000000	53.511583
1317.000000	53.649837
1316.000000	53.780393
1315.000000	53.918950
1314.000000	54.042619
1313.000000	54.173276
1312.000000	54.267269
1311.000000	54.365717
1310.000000	54.482701
1309.000000	54.593507
1308.000000	54.692462
1307.000000	54.771363
1306.000000	54.854113
1305.000000	54.929266
1304.000000	54.996316
1303.000000	55.060632
1302.000000	55.113199
1301.000000	55.172754
1300.000000	55.228967
1299.000000	55.271608
1298.000000	55.327923
1297.000000	55.360942
1296.000000	55.394467
1295.000000	55.430828
1294.000000	55.471139
1293.000000	55.488763
1292.000000	55.512464
1291.000000	55.537481
1290.000000	55.555206
1289.000000	55.553788
1288.000000	55.548116
1287.000000	55.544470
1286.000000	55.539203
1285.000000	55.535151
1284.000000	55.527960
1283.000000	55.500512
1282.000000	55.475191
1281.000000	55.453111
1280.000000	55.434272
1279.000000	55.405406
1278.000000	55.397100
1277.000000	55.379983
1276.000000	55.353649
1275.000000	55.321947
1274.000000	55.300778
1273.000000	55.281534
1272.000000	55.274444
1271.000000	55.255504
1270.000000	55.248515
1269.000000	55.246388
1268.000000	55.233525
1267.000000	55.217522
1266.000000	55.200304
1265.000000	55.173261
1264.000000	55.157460
1263.000000	55.149662
1262.000000	55.119479
1261.000000	55.087777
1260.000000	55.060936
1259.000000	55.030044
1258.000000	55.006242
1257.000000	54.981427
1256.000000	54.948105
1255.000000	54.901615
1254.000000	54.865355
1253.000000	54.829196
1252.000000	54.781491
1251.000000	54.725481
1250.000000	54.681017
1249.000000	54.633008
1248.000000	54.577504
1247.000000	54.505085
1246.000000	54.440263
1245.000000	54.364907
1244.000000	54.290260
1243.000000	54.210853
1242.000000	54.124254
1241.000000	54.026818
1240.000000	53.932219
1239.000000	53.847747
1238.000000	53.761149
1237.000000	53.666549
1236.000000	53.569416
1235.000000	53.480691
1234.000000	53.389940
1233.000000	53.282375
1232.000000	53.174406
1231.000000	53.073526
1230.000000	52.959682
1229.000000	52.842799
1228.000000	52.733412
1227.000000	52.605692
1226.000000	52.469059
1225.000000	52.351264
1224.000000	52.249473
1223.000000	52.131476
1222.000000	51.995350
1221.000000	51.883531
1220.000000	51.768472
1219.000000	51.638929
1218.000000	51.531972
1217.000000	51.424205
1216.000000	51.317552
1215.000000	51.217584
1214.000000	51.108298
1213.000000	51.004278
1212.000000	50.917173
1211.000000	50.834120
1210.000000	50.748332
1209.000000	50.650288
1208.000000	50.568146
1207.000000	50.488030
1206.000000	50.406799
1205.000000	50.343901
1204.000000	50.296703
1203.000000	50.257404
1202.000000	50.212839
1201.000000	50.176275
1200.000000	50.139914
1199.000000	50.097982
1198.000000	50.048353
1197.000000	49.990012
1196.000000	49.919822
1195.000000	49.819753
1194.000000	49.697401
1193.000000	49.537270
1192.000000	49.353640
1191.000000	49.145196
1190.000000	48.920648
1189.000000	48.699543
1188.000000	48.491606
1187.000000	48.337248
1186.000000	48.244268
1185.000000	48.201830
1184.000000	48.222593
1183.000000	48.306457
1182.000000	48.477122
1181.000000	48.719294
1180.000000	48.986787
1179.000000	49.266130
1178.000000	49.551146
1177.000000	49.833527
1176.000000	50.079751
1175.000000	50.311794
1174.000000	50.528240
1173.000000	50.714806
1172.000000	50.918591
1171.000000	51.135948
1170.000000	51.342772
1169.000000	51.555875
1168.000000	51.789539
1167.000000	52.016620
1166.000000	52.253930
1165.000000	52.490025
1164.000000	52.742629
1163.000000	52.993207
1162.000000	53.260700
1161.000000	53.527890
1160.000000	53.794572
1159.000000	54.065104
1158.000000	54.319430
1157.000000	54.574567
1156.000000	54.826259
1155.000000	55.054251
1154.000000	55.252060
1153.000000	55.452503
1152.000000	55.606760
1151.000000	55.735493
1150.000000	55.862909
1149.000000	55.974322
1148.000000	56.087559
1147.000000	56.203530
1146.000000	56.347962
1145.000000	56.494318
1144.000000	56.674808
1143.000000	56.888620
1142.000000	57.140009
1141.000000	57.429683
1140.000000	57.715104
1139.000000	58.014299
1138.000000	58.335777
1137.000000	58.665155
1136.000000	59.042339
1135.000000	59.399875
1134.000000	59.772603
1133.000000	60.078179
1132.000000	60.369069
1131.000000	60.692066
1130.000000	60.997439
1129.000000	61.230090
1128.000000	61.435800
1127.000000	61.628646
1126.000000	61.787562
1125.000000	61.922473
1124.000000	62.019504
1123.000000	62.116535
1122.000000	62.199082
1121.000000	62.273222
1120.000000	62.308267
1119.000000	62.358707
1118.000000	62.410362
1117.000000	62.442672
1116.000000	62.485819
1115.000000	62.492504
1114.000000	62.514989
1113.000000	62.523092
1112.000000	62.540006
1111.000000	62.537170
1110.000000	62.565328
1109.000000	62.580014
1108.000000	62.590548
1107.000000	62.598346
1106.000000	62.613742
1105.000000	62.627922
1104.000000	62.635113
1103.000000	62.649394
1102.000000	62.649191
1101.000000	62.655370
1100.000000	62.668739
1099.000000	62.676538
1098.000000	62.660839
1097.000000	62.674816
1096.000000	62.673905
1095.000000	62.659219
1094.000000	62.653749
1093.000000	62.652534
1092.000000	62.640886
1091.000000	62.648179
1090.000000	62.633188
1089.000000	62.624275
1088.000000	62.578900
1087.000000	62.582546
1086.000000	62.561276
1085.000000	62.511140
1084.000000	62.491288
1083.000000	62.463840
1082.000000	62.456750
1081.000000	62.424137
1080.000000	62.388788
1079.000000	62.362758
1078.000000	62.340577
1077.000000	62.321231
1076.000000	62.278084
1075.000000	62.243039
1074.000000	62.235848
1073.000000	62.209818
1072.000000	62.190675
1071.000000	62.142464
1070.000000	62.097595
1069.000000	62.094860
1068.000000	62.064171
1067.000000	62.031962
1066.000000	62.014642
1065.000000	61.987093
1064.000000	61.955695
1063.000000	61.944553
1062.000000	61.925208
1061.000000	61.889758
1060.000000	61.864943
1059.000000	61.840736
1058.000000	61.808629
1057.000000	61.786853
1056.000000	61.767204
1055.000000	61.734489
1054.000000	61.706838
1053.000000	61.701470
1052.000000	61.652853
1051.000000	61.641914
1050.000000	61.622873
1049.000000	61.605249
1048.000000	61.589854
1047.000000	61.586106
1046.000000	61.569698
1045.000000	61.555620
1044.000000	61.544175
1043.000000	61.531514
1042.000000	61.544478
1041.000000	61.538503
1040.000000	61.533438
1039.000000	61.539414
1038.000000	61.521487
1037.000000	61.524829
1036.000000	61.533641
1035.000000	61.527766
1034.000000	61.545694
1033.000000	61.550353
1032.000000	61.553088
1031.000000	61.570914
1030.000000	61.573851
1029.000000	61.568888
1028.000000	61.583068
1027.000000	61.611529
1026.000000	61.631077
1025.000000	61.640395
1024.000000	61.646776
1023.000000	61.685771
1022.000000	61.697621
1021.000000	61.755151
1020.000000	61.796374
1019.000000	61.838407
1018.000000	61.871831
1017.000000	61.925917
1016.000000	61.985270
1015.000000	62.030240
1014.000000	62.088783
1013.000000	62.152795
1012.000000	62.211540
1011.000000	62.294999
1010.000000	62.379166
1009.000000	62.465866
1008.000000	62.553275
1007.000000	62.646558
1006.000000	62.755743
1005.000000	62.839809
1004.000000	62.932282
1003.000000	63.021109
1002.000000	63.122900
1001.000000	63.224793
1000.000000	63.311898
999.000000	63.403560
998.000000	63.489754
997.000000	63.582024
996.000000	63.670345
995.000000	63.754715
994.000000	63.860659
993.000000	63.960323
992.000000	64.044288
991.000000	64.156309
990.000000	64.250808
989.000000	64.348446
988.000000	64.455200
987.000000	64.544837
986.000000	64.651490
985.000000	64.770905
984.000000	64.883128
983.000000	64.992010
982.000000	65.122869
981.000000	65.236612
980.000000	65.351874
979.000000	65.478885
978.000000	65.610454
977.000000	65.732705
976.000000	65.846549
975.000000	65.975586
974.000000	66.113333
973.000000	66.260196
972.000000	66.392170
971.000000	66.517561
970.000000	66.655511
969.000000	66.783737
968.000000	66.929081
967.000000	67.086883
966.000000	67.226554
965.000000	67.365112
964.000000	67.524129
963.000000	67.686590
962.000000	67.841859
961.000000	67.987304
960.000000	68.139130
959.000000	68.299869
958.000000	68.457569
957.000000	68.602305
956.000000	68.733773
955.000000	68.868583
954.000000	69.012509
953.000000	69.159169
952.000000	69.306235
951.000000	69.434765
950.000000	69.558434
949.000000	69.693548
948.000000	69.820154
947.000000	69.939670
946.000000	70.067390
945.000000	70.177081
944.000000	70.278062
943.000000	70.399401
942.000000	70.491874
941.000000	70.575130
940.000000	70.674085
939.000000	70.760076
938.000000	70.862475
937.000000	70.953733
936.000000	71.020986
935.000000	71.102520
934.000000	71.197424
933.000000	71.266601
932.000000	71.327575
931.000000	71.395537
930.000000	71.455700
929.000000	71.540779
928.000000	71.607425
927.000000	71.664448
926.000000	71.737778
925.000000	71.822047
924.000000	71.875829
923.000000	71.921205
922.000000	71.986635
921.000000	72.061586
920.000000	72.129953
919.000000	72.175531
918.000000	72.256863
917.000000	72.321887
916.000000	72.373340
915.000000	72.427629
914.000000	72.486171
913.000000	72.563249
912.000000	72.622703
911.000000	72.683069
910.000000	72.748398
909.000000	72.820715
908.000000	72.892121
907.000000	72.967780
906.000000	73.043643
905.000000	73.119708
904.000000	73.192937
903.000000	73.261709
902.000000	73.350232
901.000000	73.431158
900.000000	73.517757
899.000000	73.596658
898.000000	73.668063
897.000000	73.736431
896.000000	73.812496
895.000000	73.899600
894.000000	73.967866
893.000000	74.017800
892.000000	74.076849
891.000000	74.137518
890.000000	74.201935
889.000000	74.264833
888.000000	74.313855
887.000000	74.364903
886.000000	74.406835
885.000000	74.470138
884.000000	74.520679
883.000000	74.569295
882.000000	74.631585
881.000000	74.680911
880.000000	74.729832
879.000000	74.793439
878.000000	74.826559
877.000000	74.850968
876.000000	74.883177
875.000000	74.896546
874.000000	74.891584
873.000000	74.857147
872.000000	74.823014
871.000000	74.822811
870.000000	74.898471
869.000000	74.997021
868.000000	75.137706
867.000000	75.292266
866.000000	75.426165
865.000000	75.557126
864.000000	75.690822
863.000000	75.820061
862.000000	75.969152
861.000000	76.114698
860.000000	76.254066
859.000000	76.390497
858.000000	76.553667
857.000000	76.304700
856.000000	76.513300
855.000000	76.843000
854.000000	77.033000
853.000000	77.438100
852.000000	77.370000
851.000000	76.921500
850.000000	77.470200
849.000000	77.821400
848.000000	78.251200
847.000000	78.354200
846.000000	78.375800
845.000000	78.657800
844.000000	78.415900
843.000000	78.683900
842.000000	78.824100
841.000000	78.990400
840.000000	79.292000
839.000000	79.313900
838.000000	79.572600
837.000000	79.498000
836.000000	79.614300
835.000000	79.769100
834.000000	79.808800
833.000000	79.812600
832.000000	79.812400
831.000000	79.972500
830.000000	80.121600
829.000000	80.208200
828.000000	80.241300
827.000000	80.594600
826.000000	80.537400
825.000000	80.608600
824.000000	80.845700
823.000000	80.992400
822.000000	80.992300
821.000000	81.355100
820.000000	81.471600
819.000000	81.663100
818.000000	81.930200
817.000000	82.015500
816.000000	82.148400
815.000000	82.620200
814.000000	82.506900
813.000000	82.774300
812.000000	83.049200
811.000000	83.164700
810.000000	83.429800
809.000000	83.383000
808.000000	83.532900
807.000000	83.611400
806.000000	83.773200
805.000000	83.925700
804.000000	84.137000
803.000000	83.968700
802.000000	83.978000
801.000000	83.891000
800.000000	84.011300
799.000000	83.942200
798.000000	83.939600
797.000000	83.899400
796.000000	83.764800
795.000000	83.601100
794.000000	83.596500
793.000000	83.480200
792.000000	83.605100
791.000000	83.346400
790.000000	83.494400
789.000000	83.351600
788.000000	83.240200
787.000000	83.366800
786.000000	83.493000
785.000000	83.673900
784.000000	83.566300
783.000000	83.713600
782.000000	83.717800
781.000000	84.096400
780.000000	84.071900
779.000000	84.417400
778.000000	84.522000
777.000000	84.561800
776.000000	84.758600
775.000000	85.024800
774.000000	85.091000
773.000000	85.348400
772.000000	85.384300
771.000000	85.677300
770.000000	85.739900
769.000000	85.859200
768.000000	86.014900
767.000000	86.001900
766.000000	86.061000
765.000000	86.036300
764.000000	86.182400
763.000000	86.104100
762.000000	86.048800
761.000000	85.915800
760.000000	85.742400
759.000000	85.703000
758.000000	85.393800
757.000000	85.248700
756.000000	84.929100
755.000000	84.857400
754.000000	84.686600
753.000000	84.463500
752.000000	84.215000
751.000000	83.980900
750.000000	83.776100
749.000000	83.518700
748.000000	83.262300
747.000000	82.972400
746.000000	82.726300
745.000000	82.474400
744.000000	82.236300
743.000000	81.876800
742.000000	81.631800
741.000000	81.357600
740.000000	81.145100
739.000000	80.764100
738.000000	80.469100
737.000000	80.116900
736.000000	79.895200
735.000000	79.579900
734.000000	79.284900
733.000000	79.057300
732.000000	78.699200
731.000000	78.344500
730.000000	77.979500
729.000000	77.636600
728.000000	77.362000
727.000000	76.913300
726.000000	76.470000
725.000000	76.044400
724.000000	75.637500
723.000000	75.130900
722.000000	74.721600
721.000000	74.263500
720.000000	73.898200
719.000000	73.484100
718.000000	73.089100
717.000000	72.859900
716.000000	72.573200
715.000000	72.295500
714.000000	72.139600
713.000000	71.994600
712.000000	71.898300
711.000000	71.809100
710.000000	71.686600
709.000000	71.627000
708.000000	71.545700
707.000000	71.444900
706.000000	71.403200
705.000000	71.394900
704.000000	71.358500
703.000000	71.277200
702.000000	71.231200
701.000000	71.253900
700.000000	71.251900
699.000000	71.336100
698.000000	71.327500
697.000000	71.340200
696.000000	71.317400
695.000000	71.423800
694.000000	71.515900
693.000000	71.563600
692.000000	71.585200
691.000000	71.506300
690.000000	71.553200
689.000000	71.489700
688.000000	71.375800
687.000000	71.287600
686.000000	71.140600
685.000000	71.061500
684.000000	70.820800
683.000000	70.673800
682.000000	70.556900
681.000000	70.418400
680.000000	70.283900
679.000000	70.137000
678.000000	70.040900
677.000000	69.930100
676.000000	69.749900
675.000000	69.647100
674.000000	69.473200
673.000000	69.210500
672.000000	68.887100
671.000000	68.596700
670.000000	68.256300
669.000000	67.828200
668.000000	67.395800
667.000000	66.894800
666.000000	66.344800
665.000000	65.784300
664.000000	65.241400
663.000000	64.686800
662.000000	64.105000
661.000000	63.565400
660.000000	62.988500
659.000000	62.356200
658.000000	61.746000
657.000000	61.164300
656.000000	60.561300
655.000000	59.899000
654.000000	59.190700
653.000000	58.443100
652.000000	57.722600
651.000000	56.982500
650.000000	56.257400
649.000000	55.573300
648.000000	54.959100
647.000000	54.451900
646.000000	54.002800
645.000000	53.674900
644.000000	53.496300
643.000000	53.470600
642.000000	53.574200
641.000000	53.781300
640.000000	54.114800
639.000000	54.554800
638.000000	55.060900
637.000000	55.651500
636.000000	56.342500
635.000000	57.095800
634.000000	57.922600
633.000000	58.835100
632.000000	59.827700
631.000000	60.859800
630.000000	61.918300
629.000000	63.028400
628.000000	64.137200
627.000000	65.266500
626.000000	66.410200
625.000000	67.520100
624.000000	68.638700
623.000000	69.728600
622.000000	70.775700
621.000000	71.787700
620.000000	72.732000
619.000000	73.608300
618.000000	74.454400
617.000000	75.256200
616.000000	75.997400
615.000000	76.739500
614.000000	77.468200
613.000000	78.163600
612.000000	78.889800
611.000000	79.553800
610.000000	80.194000
609.000000	80.826000
608.000000	81.416900
607.000000	81.990000
606.000000	82.560400
605.000000	83.090200
604.000000	83.583400
603.000000	84.069900
602.000000	84.517700
601.000000	84.898200
600.000000	85.247100
599.000000	85.571300
598.000000	85.927800
597.000000	86.246600
596.000000	86.607300
595.000000	86.945400
594.000000	87.230200
593.000000	87.510400
592.000000	87.751500
591.000000	88.018400
590.000000	88.236700
589.000000	88.420900
588.000000	88.616500
587.000000	88.735200
586.000000	88.888900
585.000000	89.012100
584.000000	89.055400
583.000000	89.121300
582.000000	89.128300
581.000000	89.119500
580.000000	89.119400
579.000000	89.071400
578.000000	89.039700
577.000000	89.016000
576.000000	88.971500
575.000000	88.961300
574.000000	88.869100
573.000000	88.759800
572.000000	88.724800
571.000000	88.619500
570.000000	88.555800
569.000000	88.487600
568.000000	88.373400
567.000000	88.251900
566.000000	88.110800
565.000000	87.903300
564.000000	87.719000
563.000000	87.530800
562.000000	87.308600
561.000000	87.064100
560.000000	86.787800
559.000000	86.444600
558.000000	86.140900
557.000000	85.844400
556.000000	85.466600
555.000000	85.125400
554.000000	84.731700
553.000000	84.360200
552.000000	83.974000
551.000000	83.551700
550.000000	83.097600
549.000000	82.604100
548.000000	82.117700
547.000000	81.615500
546.000000	81.021300
545.000000	80.408400
544.000000	79.815600
543.000000	79.128400
542.000000	78.429600
541.000000	77.688200
540.000000	76.888700
539.000000	76.095200
538.000000	75.239900
537.000000	74.376800
536.000000	73.451700
535.000000	72.423800
534.000000	71.383400
533.000000	70.227900
532.000000	69.037700
531.000000	67.726300
530.000000	66.449800
529.000000	65.044400
528.000000	63.615000
527.000000	62.168800
526.000000	60.637700
525.000000	59.112800
524.000000	57.584700
523.000000	56.016300
522.000000	54.429400
521.000000	52.953500
520.000000	51.463400
519.000000	50.080000
518.000000	48.738500
517.000000	47.444000
516.000000	46.229300
515.000000	45.110400
514.000000	44.072100
513.000000	43.109200
512.000000	42.223900
511.000000	41.424100
510.000000	40.742800
509.000000	40.093500
508.000000	39.497600
507.000000	38.991200
506.000000	38.478200
505.000000	38.017500
504.000000	37.494000
503.000000	37.083900
502.000000	36.616300
501.000000	36.144000
500.000000	35.671300
499.000000	35.209000
498.000000	34.716300
497.000000	34.194800
496.000000	33.670800
495.000000	33.069200
494.000000	32.501300
493.000000	31.970700
492.000000	31.404900
491.000000	30.852500
490.000000	30.288800
489.000000	29.771100
488.000000	29.313100
487.000000	28.903400
486.000000	28.531200
485.000000	28.178700
484.000000	27.923000
483.000000	27.703100
482.000000	27.537100
481.000000	27.371200
480.000000	27.327300
479.000000	27.220400
478.000000	27.212500
477.000000	27.217900
476.000000	27.224500
475.000000	27.231400
474.000000	27.255000
473.000000	27.256200
472.000000	27.280800
471.000000	27.299600
470.000000	27.302200
469.000000	27.274400
468.000000	27.251200
467.000000	27.204600
466.000000	27.166200
465.000000	27.094900
464.000000	27.025600
463.000000	26.937700
462.000000	26.872800
461.000000	26.775200
460.000000	26.667200
459.000000	26.564700
458.000000	26.477500
457.000000	26.330100
456.000000	26.184000
455.000000	26.048400
454.000000	25.858200
453.000000	25.729600
452.000000	25.552500
451.000000	25.399900
450.000000	25.195300
449.000000	24.970100
448.000000	24.741000
447.000000	24.520000
446.000000	24.292100
445.000000	24.002100
444.000000	23.742700
443.000000	23.473600
442.000000	23.165600
441.000000	22.875200
440.000000	22.544600
439.000000	22.201600
438.000000	21.827900
437.000000	21.482700
436.000000	21.089900
435.000000	20.702100
434.000000	20.261500
433.000000	19.842000
432.000000	19.439700
431.000000	18.945100
430.000000	18.495100
429.000000	18.046300
428.000000	17.557000
427.000000	17.062600
426.000000	16.564400
425.000000	16.090700
424.000000	15.592100
423.000000	15.089000
422.000000	14.583100
421.000000	14.114700
420.000000	13.637000
419.000000	13.171100
418.000000	12.724800
417.000000	12.320600
416.000000	11.935700
415.000000	11.521500
414.000000	11.131000
413.000000	10.785600
412.000000	10.457700
411.000000	10.148500
410.000000	9.855100
409.000000	9.584900
408.000000	9.354900
407.000000	9.123300
406.000000	8.909300
405.000000	8.728800
404.000000	8.540400
403.000000	8.371700
402.000000	8.225600
401.000000	8.082000
400.000000	7.957300
399.000000	7.850600
398.000000	7.739000
397.000000	7.619400
396.000000	7.537600
395.000000	7.472500
394.000000	7.391800
393.000000	7.306200
392.000000	7.238500
391.000000	7.171900
390.000000	7.118500
389.000000	7.050800
388.000000	6.991000
387.000000	6.932300
386.000000	6.890300
385.000000	6.854200
384.000000	6.794700
383.000000	6.736900
382.000000	6.689500
381.000000	6.663700
380.000000	6.604800
379.000000	6.568200
378.000000	6.534400
377.000000	6.507900
376.000000	6.463600
375.000000	6.388000
374.000000	6.222400
373.000000	6.036100
372.000000	6.181100
371.000000	6.167800
370.000000	6.148500
369.000000	6.195300
368.000000	6.284000
367.000000	6.043500
366.000000	6.028600
365.000000	6.010300
364.000000	5.950700
363.000000	6.008300
362.000000	5.989900
361.000000	5.958400
360.000000	5.915100
359.000000	5.941700
358.000000	5.953300
357.000000	5.905300
356.000000	5.943100
355.000000	5.856700
354.000000	5.909700
353.000000	6.018500
352.000000	6.043400
351.000000	5.959900
350.000000	5.933800
349.000000	5.844100
348.000000	5.733900
347.000000	5.733400
346.000000	5.698900
345.000000	5.783800
344.000000	5.873100
343.000000	5.727700
342.000000	5.560400
341.000000	5.535500
340.000000	5.488200
339.000000	5.484000
338.000000	5.602300
337.000000	5.659900
336.000000	5.613500
335.000000	5.621300
334.000000	5.679500
333.000000	5.516600
332.000000	5.490200
331.000000	5.634100
330.000000	5.594600
329.000000	5.696700
328.000000	5.903900
327.000000	6.163000
326.000000	6.430100
325.000000	6.339700
324.000000	6.176000
323.000000	6.153300
322.000000	6.556200
321.000000	6.815500
320.000000	6.372000
319.000000	6.076400
318.000000	6.246100
317.000000	6.524500
316.000000	6.017100
315.000000	5.526500
314.000000	5.494700
313.000000	5.488700
312.000000	5.519700
311.000000	5.532300
310.000000	5.527600
309.000000	5.530800
308.000000	5.523600
307.000000	5.475100
306.000000	5.485200
305.000000	5.478300
304.000000	5.476200
303.000000	5.532100
302.000000	5.547800
301.000000	5.520700
300.000000	5.529900
299.000000	5.505700
298.000000	5.547900
297.000000	5.565200
296.000000	5.575400
295.000000	5.560500
294.000000	5.539400
293.000000	5.560600
292.000000	5.562900
291.000000	5.511500
290.000000	5.540100
289.000000	5.553900
288.000000	5.528300
287.000000	5.510700
286.000000	5.542000
285.000000	5.563100
284.000000	5.598200
283.000000	5.638800
282.000000	5.666400
281.000000	5.629300
280.000000	5.582900
279.000000	5.586000
278.000000	5.600700
277.000000	5.604100
276.000000	5.597100
275.000000	5.630200
274.000000	5.615100
273.000000	5.610000
272.000000	5.655700
271.000000	5.711800
270.000000	5.735300
269.000000	5.757600
268.000000	5.738800
267.000000	5.742800
266.000000	5.773300
265.000000	5.753200
264.000000	5.768200
263.000000	5.790500
262.000000	5.828100
261.000000	5.872500
260.000000	5.918100
259.000000	5.951600
258.000000	5.972300
257.000000	5.976900
256.000000	5.949500
255.000000	6.005200
254.000000	5.997600
253.000000	5.965500
252.000000	6.012300
251.000000	5.991900
250.000000	6.022600
