PE UV       SUBTECH     SPECTRUM    ASCII       PEDS        4.00        
   -1
CICIMAUCR0239-3.Sample.ASC
24/06/20
12:23:16.00
24/06/20
12:23:16.00
Vinicio Soto Monge
C. cupreomarginata. Sex M. Dorsal.
250,000000
1
Lambda 1050
1050L1511233
PerkinElmer UV WinLab 6.3.2.0749 / 2.02.05 Lambda 900 UV/VIS/NIR, Aug  7 2015 09:38:08

0
0
3350/servo 860,8/2
0
0
UV/VIS
1
1
1
DoubleDePol,CommonBeamDepol,RBeamAtt,SBeamAtt,60mm sphere, WB InGaAs Detector
0
0
0
0
Program
Program
3350/servo 860,8/2
3350/0,2 860,8/0,2
3350/0,2 860,8/0,2
0
15.00
 
 
 
0
 
860,8
319,2
860,8
Front
100
on
S:100 R:100
0
0
0
0
 
0
 
 
 
0
 
 
0
0
0
0
0
 
 
 
 
0
0


0
0
#HDR
-1
-1
#GR
nm
%R
1.0
0.0
2500,000000
-1,000000
2251
8
71,550600
5,249000
#DATA
2500.000000	8.851769
2499.000000	8.768141
2498.000000	8.862135
2497.000000	8.853380
2496.000000	8.931574
2495.000000	8.855392
2494.000000	8.854285
2493.000000	8.785651
2492.000000	8.802860
2491.000000	8.800646
2490.000000	8.768845
2489.000000	8.731710
2488.000000	8.806684
2487.000000	8.749825
2486.000000	8.795916
2485.000000	8.719533
2484.000000	8.821377
2483.000000	8.789274
2482.000000	8.706652
2481.000000	8.756769
2480.000000	8.789475
2479.000000	8.839894
2478.000000	8.773273
2477.000000	8.770455
2476.000000	8.831240
2475.000000	8.778909
2474.000000	8.783538
2473.000000	8.838787
2472.000000	8.853782
2471.000000	8.802860
2470.000000	8.805577
2469.000000	8.875117
2468.000000	8.864852
2467.000000	8.867871
2466.000000	8.887596
2465.000000	8.907220
2464.000000	8.900377
2463.000000	8.920504
2462.000000	8.961664
2461.000000	9.028688
2460.000000	9.081925
2459.000000	9.086554
2458.000000	9.133652
2457.000000	9.192826
2456.000000	9.209230
2455.000000	9.284707
2454.000000	9.346196
2453.000000	9.408389
2452.000000	9.457600
2451.000000	9.519693
2450.000000	9.589333
2449.000000	9.657162
2448.000000	9.703253
2447.000000	9.796946
2446.000000	9.868297
2445.000000	9.944478
2444.000000	9.998218
2443.000000	10.050348
2442.000000	10.120491
2441.000000	10.182383
2440.000000	10.263898
2439.000000	10.337765
2438.000000	10.379630
2437.000000	10.453497
2436.000000	10.519112
2435.000000	10.581003
2434.000000	10.644807
2433.000000	10.703679
2432.000000	10.757318
2431.000000	10.815385
2430.000000	10.837022
2429.000000	10.904146
2428.000000	10.948728
2427.000000	10.993511
2426.000000	11.046346
2425.000000	11.091129
2424.000000	11.128867
2423.000000	11.180695
2422.000000	11.208269
2421.000000	11.246008
2420.000000	11.295521
2419.000000	11.324706
2418.000000	11.364658
2417.000000	11.401290
2416.000000	11.437519
2415.000000	11.460967
2414.000000	11.494580
2413.000000	11.518028
2412.000000	11.553251
2411.000000	11.582938
2410.000000	11.614236
2409.000000	11.642918
2408.000000	11.667574
2407.000000	11.699978
2406.000000	11.724534
2405.000000	11.751001
2404.000000	11.785821
2403.000000	11.806049
2402.000000	11.833523
2401.000000	11.877501
2400.000000	11.903767
2399.000000	11.933757
2398.000000	11.961532
2397.000000	11.999170
2396.000000	12.026141
2395.000000	12.040431
2394.000000	12.074346
2393.000000	12.105744
2392.000000	12.127482
2391.000000	12.157974
2390.000000	12.179309
2389.000000	12.190681
2388.000000	12.212620
2387.000000	12.246031
2386.000000	12.258309
2385.000000	12.267064
2384.000000	12.267970
2383.000000	12.276121
2382.000000	12.288500
2381.000000	12.297456
2380.000000	12.317080
2379.000000	12.306212
2378.000000	12.285883
2377.000000	12.282461
2376.000000	12.279140
2375.000000	12.281455
2374.000000	12.273102
2373.000000	12.252472
2372.000000	12.242106
2371.000000	12.225904
2370.000000	12.196417
2369.000000	12.173170
2368.000000	12.151735
2367.000000	12.113795
2366.000000	12.070320
2365.000000	12.044658
2364.000000	12.010743
2363.000000	11.957607
2362.000000	11.916548
2361.000000	11.874985
2360.000000	11.828994
2359.000000	11.778978
2358.000000	11.734195
2357.000000	11.694947
2356.000000	11.647245
2355.000000	11.614639
2354.000000	11.578913
2353.000000	11.546508
2352.000000	11.551137
2351.000000	11.571164
2350.000000	11.577001
2349.000000	11.591794
2348.000000	11.618262
2347.000000	11.633055
2346.000000	11.662642
2345.000000	11.695550
2344.000000	11.735503
2343.000000	11.774449
2342.000000	11.811282
2341.000000	11.843586
2340.000000	11.879614
2339.000000	11.912220
2338.000000	11.931140
2337.000000	11.940097
2336.000000	11.943921
2335.000000	11.951569
2334.000000	11.935769
2333.000000	11.920070
2332.000000	11.906987
2331.000000	11.880419
2330.000000	11.829497
2329.000000	11.787331
2328.000000	11.755731
2327.000000	11.706922
2326.000000	11.636578
2325.000000	11.565126
2324.000000	11.488843
2323.000000	11.420813
2322.000000	11.329737
2321.000000	11.253153
2320.000000	11.153523
2319.000000	11.061038
2318.000000	10.965937
2317.000000	10.844067
2316.000000	10.741518
2315.000000	10.639070
2314.000000	10.532798
2313.000000	10.445647
2312.000000	10.345514
2311.000000	10.256049
2310.000000	10.182181
2309.000000	10.108717
2308.000000	10.060613
2307.000000	10.022472
2306.000000	9.998319
2305.000000	9.968229
2304.000000	9.969839
2303.000000	10.002244
2302.000000	10.039882
2301.000000	10.085269
2300.000000	10.152292
2299.000000	10.232701
2298.000000	10.312505
2297.000000	10.368560
2296.000000	10.448465
2295.000000	10.537327
2294.000000	10.602137
2293.000000	10.661009
2292.000000	10.745141
2291.000000	10.795157
2290.000000	10.827864
2289.000000	10.844368
2288.000000	10.856344
2287.000000	10.852319
2286.000000	10.852117
2285.000000	10.846784
2284.000000	10.820316
2283.000000	10.778854
2282.000000	10.728536
2281.000000	10.692307
2280.000000	10.617635
2279.000000	10.572852
2278.000000	10.531691
2277.000000	10.481776
2276.000000	10.424111
2275.000000	10.365541
2274.000000	10.325789
2273.000000	10.327198
2272.000000	10.269634
2271.000000	10.248400
2270.000000	10.263697
2269.000000	10.298517
2268.000000	10.294995
2267.000000	10.344105
2266.000000	10.394323
2265.000000	10.497274
2264.000000	10.605659
2263.000000	10.703377
2262.000000	10.835613
2261.000000	10.999751
2260.000000	11.177173
2259.000000	11.355400
2258.000000	11.532520
2257.000000	11.732685
2256.000000	11.960325
2255.000000	12.171158
2254.000000	12.377865
2253.000000	12.590509
2252.000000	12.772862
2251.000000	12.963266
2250.000000	13.161117
2249.000000	13.339747
2248.000000	13.493318
2247.000000	13.663896
2246.000000	13.824814
2245.000000	13.931790
2244.000000	14.064026
2243.000000	14.162247
2242.000000	14.269526
2241.000000	14.369256
2240.000000	14.456810
2239.000000	14.544464
2238.000000	14.630508
2237.000000	14.710916
2236.000000	14.757410
2235.000000	14.824736
2234.000000	14.875256
2233.000000	14.930505
2232.000000	14.996623
2231.000000	14.999441
2230.000000	15.026613
2229.000000	15.058917
2228.000000	15.062037
2227.000000	15.079749
2226.000000	15.087799
2225.000000	15.101285
2224.000000	15.107927
2223.000000	15.090416
2222.000000	15.068276
2221.000000	15.063345
2220.000000	15.036374
2219.000000	15.014939
2218.000000	15.014033
2217.000000	14.975288
2216.000000	14.956771
2215.000000	14.922655
2214.000000	14.906050
2213.000000	14.894175
2212.000000	14.857745
2211.000000	14.840234
2210.000000	14.819000
2209.000000	14.791023
2208.000000	14.758517
2207.000000	14.727018
2206.000000	14.731949
2205.000000	14.707294
2204.000000	14.674587
2203.000000	14.665831
2202.000000	14.649126
2201.000000	14.655868
2200.000000	14.636848
2199.000000	14.622558
2198.000000	14.582203
2197.000000	14.578077
2196.000000	14.562981
2195.000000	14.547584
2194.000000	14.533897
2193.000000	14.529167
2192.000000	14.508537
2191.000000	14.504612
2190.000000	14.497165
2189.000000	14.473918
2188.000000	14.476534
2187.000000	14.466270
2186.000000	14.447551
2185.000000	14.431550
2184.000000	14.418065
2183.000000	14.392201
2182.000000	14.399346
2181.000000	14.400051
2180.000000	14.383245
2179.000000	14.368250
2178.000000	14.365130
2177.000000	14.370464
2176.000000	14.360098
2175.000000	14.341581
2174.000000	14.333530
2173.000000	14.366438
2172.000000	14.359696
2171.000000	14.357582
2170.000000	14.363117
2169.000000	14.372879
2168.000000	14.393912
2167.000000	14.406592
2166.000000	14.405888
2165.000000	14.426921
2164.000000	14.445337
2163.000000	14.468182
2162.000000	14.483780
2161.000000	14.502901
2160.000000	14.536212
2159.000000	14.574856
2158.000000	14.596594
2157.000000	14.637553
2156.000000	14.653856
2155.000000	14.688173
2154.000000	14.714137
2153.000000	14.745938
2152.000000	14.785488
2151.000000	14.837718
2150.000000	14.881294
2149.000000	14.905950
2148.000000	14.943789
2147.000000	14.980219
2146.000000	15.023493
2145.000000	15.060024
2144.000000	15.074515
2143.000000	15.100480
2142.000000	15.127450
2141.000000	15.149389
2140.000000	15.182700
2139.000000	15.196185
2138.000000	15.227684
2137.000000	15.263611
2136.000000	15.283336
2135.000000	15.290783
2134.000000	15.294607
2133.000000	15.299035
2132.000000	15.307187
2131.000000	15.308998
2130.000000	15.320370
2129.000000	15.327012
2128.000000	15.325201
2127.000000	15.327213
2126.000000	15.322685
2125.000000	15.317955
2124.000000	15.302759
2123.000000	15.288166
2122.000000	15.266429
2121.000000	15.244691
2120.000000	15.234930
2119.000000	15.214802
2118.000000	15.195581
2117.000000	15.167000
2116.000000	15.148383
2115.000000	15.123324
2114.000000	15.082164
2113.000000	15.052375
2112.000000	15.022084
2111.000000	14.999642
2110.000000	14.974684
2109.000000	14.954960
2108.000000	14.921347
2107.000000	14.878476
2106.000000	14.859053
2105.000000	14.834699
2104.000000	14.790922
2103.000000	14.753888
2102.000000	14.735774
2101.000000	14.703369
2100.000000	14.674486
2099.000000	14.634936
2098.000000	14.600518
2097.000000	14.588845
2096.000000	14.558050
2095.000000	14.528865
2094.000000	14.510449
2093.000000	14.481969
2092.000000	14.451073
2091.000000	14.430141
2090.000000	14.414945
2089.000000	14.383245
2088.000000	14.354261
2087.000000	14.326385
2086.000000	14.308170
2085.000000	14.291967
2084.000000	14.262984
2083.000000	14.238731
2082.000000	14.212364
2081.000000	14.170701
2080.000000	14.132056
2079.000000	14.105086
2078.000000	14.062013
2077.000000	14.024275
2076.000000	14.012098
2075.000000	13.974460
2074.000000	13.928972
2073.000000	13.895863
2072.000000	13.861445
2071.000000	13.825820
2070.000000	13.791100
2069.000000	13.735046
2068.000000	13.681709
2067.000000	13.647895
2066.000000	13.609452
2065.000000	13.573726
2064.000000	13.543334
2063.000000	13.510728
2062.000000	13.482348
2061.000000	13.457189
2060.000000	13.429212
2059.000000	13.391373
2058.000000	13.364101
2057.000000	13.360880
2056.000000	13.352729
2055.000000	13.344678
2054.000000	13.345986
2053.000000	13.356251
2052.000000	13.385435
2051.000000	13.411198
2050.000000	13.428307
2049.000000	13.453969
2048.000000	13.493116
2047.000000	13.534377
2046.000000	13.599086
2045.000000	13.666815
2044.000000	13.709484
2043.000000	13.768155
2042.000000	13.818675
2041.000000	13.871006
2040.000000	13.920318
2039.000000	13.974057
2038.000000	14.030917
2037.000000	14.086770
2036.000000	14.134774
2035.000000	14.168789
2034.000000	14.204213
2033.000000	14.243964
2032.000000	14.275664
2031.000000	14.302333
2030.000000	14.326184
2029.000000	14.355670
2028.000000	14.350739
2027.000000	14.370464
2026.000000	14.385861
2025.000000	14.406793
2024.000000	14.401963
2023.000000	14.400856
2022.000000	14.417360
2021.000000	14.420983
2020.000000	14.403875
2019.000000	14.410718
2018.000000	14.391899
2017.000000	14.382842
2016.000000	14.382641
2015.000000	14.368250
2014.000000	14.348626
2013.000000	14.327593
2012.000000	14.311592
2011.000000	14.278583
2010.000000	14.241045
2009.000000	14.206427
2008.000000	14.180261
2007.000000	14.134170
2006.000000	14.113338
2005.000000	14.075197
2004.000000	14.021256
2003.000000	13.980397
2002.000000	13.931790
2001.000000	13.866477
2000.000000	13.816461
1999.000000	13.760809
1998.000000	13.721259
1997.000000	13.627063
1996.000000	13.570506
1995.000000	13.511432
1994.000000	13.443805
1993.000000	13.382014
1992.000000	13.295064
1991.000000	13.242331
1990.000000	13.160916
1989.000000	13.087049
1988.000000	13.023950
1987.000000	12.931868
1986.000000	12.847937
1985.000000	12.782926
1984.000000	12.716707
1983.000000	12.623317
1982.000000	12.528719
1981.000000	12.462500
1980.000000	12.390042
1979.000000	12.311445
1978.000000	12.228621
1977.000000	12.170051
1976.000000	12.063779
1975.000000	12.001686
1974.000000	11.906384
1973.000000	11.850832
1972.000000	11.780991
1971.000000	11.681059
1970.000000	11.622690
1969.000000	11.552747
1968.000000	11.471131
1967.000000	11.403705
1966.000000	11.330140
1965.000000	11.261808
1964.000000	11.213301
1963.000000	11.143761
1962.000000	11.081266
1961.000000	10.984756
1960.000000	10.918839
1959.000000	10.865301
1958.000000	10.801799
1957.000000	10.743430
1956.000000	10.681841
1955.000000	10.628504
1954.000000	10.564096
1953.000000	10.508344
1952.000000	10.448566
1951.000000	10.406097
1950.000000	10.356484
1949.000000	10.300027
1948.000000	10.250715
1947.000000	10.204020
1946.000000	10.170810
1945.000000	10.141222
1944.000000	10.099660
1943.000000	10.044209
1942.000000	10.017037
1941.000000	10.010697
1940.000000	9.998721
1939.000000	9.996910
1938.000000	9.971650
1937.000000	10.008584
1936.000000	10.003653
1935.000000	9.978594
1934.000000	9.973764
1933.000000	10.006672
1932.000000	10.020157
1931.000000	10.050750
1930.000000	10.084967
1929.000000	10.131863
1928.000000	10.195767
1927.000000	10.267320
1926.000000	10.320858
1925.000000	10.389794
1924.000000	10.457623
1923.000000	10.505224
1922.000000	10.607772
1921.000000	10.719277
1920.000000	10.825046
1919.000000	10.955270
1918.000000	11.086198
1917.000000	11.170028
1916.000000	11.261607
1915.000000	11.354695
1914.000000	11.494378
1913.000000	11.663749
1912.000000	11.869752
1911.000000	12.065288
1910.000000	12.201550
1909.000000	12.325534
1908.000000	12.457569
1907.000000	12.609831
1906.000000	12.794499
1905.000000	13.048606
1904.000000	13.334111
1903.000000	13.539610
1902.000000	13.758494
1901.000000	13.983215
1900.000000	14.196564
1899.000000	14.478044
1898.000000	14.780154
1897.000000	15.063244
1896.000000	15.299136
1895.000000	15.543179
1894.000000	15.756729
1893.000000	16.017176
1892.000000	16.329551
1891.000000	16.730687
1890.000000	17.121358
1889.000000	17.471270
1888.000000	17.839297
1887.000000	18.196254
1886.000000	18.575552
1885.000000	18.988161
1884.000000	19.461555
1883.000000	19.953867
1882.000000	20.484925
1881.000000	20.951676
1880.000000	21.426982
1879.000000	21.862033
1878.000000	22.309059
1877.000000	22.770376
1876.000000	23.210660
1875.000000	23.657485
1874.000000	24.088712
1873.000000	24.523763
1872.000000	24.943919
1871.000000	25.309531
1870.000000	25.674740
1869.000000	26.007142
1868.000000	26.307541
1867.000000	26.539005
1866.000000	26.729711
1865.000000	26.880866
1864.000000	27.022261
1863.000000	27.132256
1862.000000	27.250504
1861.000000	27.401358
1860.000000	27.555230
1859.000000	27.700449
1858.000000	27.832685
1857.000000	27.936541
1856.000000	27.998735
1855.000000	28.050562
1854.000000	28.105309
1853.000000	28.156935
1852.000000	28.179176
1851.000000	28.189441
1850.000000	28.196485
1849.000000	28.191856
1848.000000	28.208461
1847.000000	28.261094
1846.000000	28.286253
1845.000000	28.256565
1844.000000	28.194372
1843.000000	28.142544
1842.000000	28.131273
1841.000000	28.177968
1840.000000	28.193466
1839.000000	28.197290
1838.000000	28.183402
1837.000000	28.154419
1836.000000	28.133386
1835.000000	28.125335
1834.000000	28.077231
1833.000000	28.014736
1832.000000	27.950228
1831.000000	27.887632
1830.000000	27.834094
1829.000000	27.818294
1828.000000	27.783977
1827.000000	27.722387
1826.000000	27.669553
1825.000000	27.635740
1824.000000	27.578981
1823.000000	27.522725
1822.000000	27.501088
1821.000000	27.501893
1820.000000	27.511051
1819.000000	27.508133
1818.000000	27.473312
1817.000000	27.449864
1816.000000	27.423799
1815.000000	27.410214
1814.000000	27.403169
1813.000000	27.399848
1812.000000	27.398942
1811.000000	27.384753
1810.000000	27.368047
1809.000000	27.345404
1808.000000	27.316722
1807.000000	27.280091
1806.000000	27.260265
1805.000000	27.230175
1804.000000	27.186600
1803.000000	27.149364
1802.000000	27.113034
1801.000000	27.093712
1800.000000	27.061408
1799.000000	27.010184
1798.000000	26.969125
1797.000000	26.936820
1796.000000	26.891936
1795.000000	26.850877
1794.000000	26.825416
1793.000000	26.798143
1792.000000	26.764330
1791.000000	26.719848
1790.000000	26.680298
1789.000000	26.634307
1788.000000	26.589424
1787.000000	26.550477
1786.000000	26.496436
1785.000000	26.449640
1784.000000	26.409083
1783.000000	26.357256
1782.000000	26.306535
1781.000000	26.248971
1780.000000	26.204892
1779.000000	26.143102
1778.000000	26.073461
1777.000000	26.025558
1776.000000	25.970309
1775.000000	25.884164
1774.000000	25.803052
1773.000000	25.722844
1772.000000	25.646361
1771.000000	25.570884
1770.000000	25.481921
1769.000000	25.390543
1768.000000	25.297354
1767.000000	25.221575
1766.000000	25.133719
1765.000000	25.072231
1764.000000	25.033083
1763.000000	24.992325
1762.000000	24.978136
1761.000000	24.986388
1760.000000	25.021711
1759.000000	25.072532
1758.000000	25.118825
1757.000000	25.196013
1756.000000	25.262333
1755.000000	25.322312
1754.000000	25.367196
1753.000000	25.404834
1752.000000	25.427477
1751.000000	25.437238
1750.000000	25.437238
1749.000000	25.427175
1748.000000	25.409765
1747.000000	25.369108
1746.000000	25.327545
1745.000000	25.267566
1744.000000	25.186755
1743.000000	25.076055
1742.000000	24.945529
1741.000000	24.792965
1740.000000	24.644325
1739.000000	24.470526
1738.000000	24.295419
1737.000000	24.109342
1736.000000	23.978817
1735.000000	23.857852
1734.000000	23.749064
1733.000000	23.678317
1732.000000	23.663121
1731.000000	23.664228
1730.000000	23.701866
1729.000000	23.779658
1728.000000	23.856141
1727.000000	23.935141
1726.000000	24.020178
1725.000000	24.085793
1724.000000	24.154427
1723.000000	24.219438
1722.000000	24.263416
1721.000000	24.300451
1720.000000	24.331145
1719.000000	24.350467
1718.000000	24.385790
1717.000000	24.434599
1716.000000	24.485420
1715.000000	24.525373
1714.000000	24.606284
1713.000000	24.665157
1712.000000	24.718595
1711.000000	24.781190
1710.000000	24.837647
1709.000000	24.858177
1708.000000	24.846805
1707.000000	24.840264
1706.000000	24.826678
1705.000000	24.774649
1704.000000	24.731979
1703.000000	24.662741
1702.000000	24.585755
1701.000000	24.498000
1700.000000	24.388507
1699.000000	24.264825
1698.000000	24.116890
1697.000000	23.987270
1696.000000	23.870130
1695.000000	23.796866
1694.000000	23.754499
1693.000000	23.764965
1692.000000	23.843461
1691.000000	23.939468
1690.000000	24.059527
1689.000000	24.199512
1688.000000	24.300350
1687.000000	24.370393
1686.000000	24.414572
1685.000000	24.466199
1684.000000	24.501824
1683.000000	24.596019
1682.000000	24.749188
1681.000000	24.962134
1680.000000	25.264547
1679.000000	25.651091
1678.000000	26.074971
1677.000000	26.503983
1676.000000	26.894050
1675.000000	27.285525
1674.000000	27.615411
1673.000000	27.936441
1672.000000	28.176458
1671.000000	28.367869
1670.000000	28.568839
1669.000000	28.733782
1668.000000	28.861993
1667.000000	28.979536
1666.000000	29.064675
1665.000000	29.165713
1664.000000	29.254173
1663.000000	29.311837
1662.000000	29.381679
1661.000000	29.432802
1660.000000	29.500128
1659.000000	29.532633
1658.000000	29.566347
1657.000000	29.560308
1656.000000	29.586273
1655.000000	29.606501
1654.000000	29.595028
1653.000000	29.600664
1652.000000	29.570171
1651.000000	29.546723
1650.000000	29.526998
1649.000000	29.494090
1648.000000	29.463496
1647.000000	29.444476
1646.000000	29.404121
1645.000000	29.345047
1644.000000	29.310932
1643.000000	29.256991
1642.000000	29.220258
1641.000000	29.167726
1640.000000	29.120729
1639.000000	29.073832
1638.000000	29.016570
1637.000000	28.960214
1636.000000	28.916135
1635.000000	28.848206
1634.000000	28.792151
1633.000000	28.733581
1632.000000	28.659110
1631.000000	28.603660
1630.000000	28.520131
1629.000000	28.463775
1628.000000	28.386386
1627.000000	28.314833
1626.000000	28.261194
1625.000000	28.178974
1624.000000	28.129763
1623.000000	28.051871
1622.000000	27.992898
1621.000000	27.925975
1620.000000	27.876663
1619.000000	27.811048
1618.000000	27.755295
1617.000000	27.683039
1616.000000	27.638054
1615.000000	27.578477
1614.000000	27.517592
1613.000000	27.468381
1612.000000	27.400653
1611.000000	27.356675
1610.000000	27.290154
1609.000000	27.233899
1608.000000	27.180260
1607.000000	27.120683
1606.000000	27.060301
1605.000000	27.013908
1604.000000	26.964395
1603.000000	26.904717
1602.000000	26.863658
1601.000000	26.787275
1600.000000	26.748027
1599.000000	26.690966
1598.000000	26.628269
1597.000000	26.557723
1596.000000	26.517771
1595.000000	26.483856
1594.000000	26.425386
1593.000000	26.370037
1592.000000	26.347192
1591.000000	26.283590
1590.000000	26.234379
1589.000000	26.209522
1588.000000	26.187885
1587.000000	26.144108
1586.000000	26.094494
1585.000000	26.061385
1584.000000	26.018111
1583.000000	25.982687
1582.000000	25.951591
1581.000000	25.918582
1580.000000	25.881447
1579.000000	25.863232
1578.000000	25.824588
1577.000000	25.815329
1576.000000	25.807077
1575.000000	25.779905
1574.000000	25.752230
1573.000000	25.740758
1572.000000	25.741462
1571.000000	25.739248
1570.000000	25.731499
1569.000000	25.726266
1568.000000	25.711472
1567.000000	25.714492
1566.000000	25.722341
1565.000000	25.722442
1564.000000	25.735826
1563.000000	25.727675
1562.000000	25.713183
1561.000000	25.718718
1560.000000	25.721939
1559.000000	25.715196
1558.000000	25.702918
1557.000000	25.689131
1556.000000	25.671822
1555.000000	25.652097
1554.000000	25.617679
1553.000000	25.601578
1552.000000	25.578129
1551.000000	25.553977
1550.000000	25.537774
1549.000000	25.495608
1548.000000	25.460184
1547.000000	25.443981
1546.000000	25.411979
1545.000000	25.378366
1544.000000	25.346766
1543.000000	25.316877
1542.000000	25.291819
1541.000000	25.269176
1540.000000	25.253175
1539.000000	25.216442
1538.000000	25.179308
1537.000000	25.163005
1536.000000	25.127379
1535.000000	25.087829
1534.000000	25.059248
1533.000000	25.033284
1532.000000	24.996250
1531.000000	24.948347
1530.000000	24.903363
1529.000000	24.866631
1528.000000	24.822451
1527.000000	24.772737
1526.000000	24.713965
1525.000000	24.673409
1524.000000	24.629733
1523.000000	24.551438
1522.000000	24.493572
1521.000000	24.442147
1520.000000	24.387400
1519.000000	24.335070
1518.000000	24.276298
1517.000000	24.211891
1516.000000	24.147987
1515.000000	24.081265
1514.000000	24.018870
1513.000000	23.954564
1512.000000	23.885225
1511.000000	23.813572
1510.000000	23.740913
1509.000000	23.669763
1508.000000	23.606764
1507.000000	23.549905
1506.000000	23.469597
1505.000000	23.385063
1504.000000	23.312705
1503.000000	23.253330
1502.000000	23.182884
1501.000000	23.097444
1500.000000	23.031829
1499.000000	22.985838
1498.000000	22.918714
1497.000000	22.843237
1496.000000	22.778729
1495.000000	22.726297
1494.000000	22.668029
1493.000000	22.603924
1492.000000	22.548372
1491.000000	22.503187
1490.000000	22.463938
1489.000000	22.414123
1488.000000	22.372057
1487.000000	22.313487
1486.000000	22.258842
1485.000000	22.226135
1484.000000	22.183968
1483.000000	22.136267
1482.000000	22.106680
1481.000000	22.069142
1480.000000	22.027479
1479.000000	21.995678
1478.000000	21.972833
1477.000000	21.927144
1476.000000	21.905809
1475.000000	21.890815
1474.000000	21.866461
1473.000000	21.863240
1472.000000	21.857001
1471.000000	21.838886
1470.000000	21.830332
1469.000000	21.833049
1468.000000	21.817652
1467.000000	21.795009
1466.000000	21.821879
1465.000000	21.816243
1464.000000	21.813325
1463.000000	21.822382
1462.000000	21.850359
1461.000000	21.880449
1460.000000	21.888399
1459.000000	21.916376
1458.000000	21.961361
1457.000000	22.003628
1456.000000	22.038146
1455.000000	22.100038
1454.000000	22.159715
1453.000000	22.226940
1452.000000	22.282994
1451.000000	22.352031
1450.000000	22.437773
1449.000000	22.514760
1448.000000	22.560147
1447.000000	22.657060
1446.000000	22.749041
1445.000000	22.842935
1444.000000	22.940351
1443.000000	23.009085
1442.000000	23.096337
1441.000000	23.206836
1440.000000	23.311296
1439.000000	23.411127
1438.000000	23.519613
1437.000000	23.635043
1436.000000	23.749165
1435.000000	23.836920
1434.000000	23.955570
1433.000000	24.074019
1432.000000	24.199814
1431.000000	24.335875
1430.000000	24.475457
1429.000000	24.609807
1428.000000	24.757340
1427.000000	24.917653
1426.000000	25.089137
1425.000000	25.265150
1424.000000	25.462398
1423.000000	25.664375
1422.000000	25.854678
1421.000000	26.043975
1420.000000	26.264469
1419.000000	26.512034
1418.000000	26.763826
1417.000000	26.972446
1416.000000	27.174423
1415.000000	27.410113
1414.000000	27.704675
1413.000000	27.998533
1412.000000	28.242073
1411.000000	28.479072
1410.000000	28.786315
1409.000000	29.126868
1408.000000	29.477082
1407.000000	29.846619
1406.000000	30.183046
1405.000000	30.546846
1404.000000	30.956034
1403.000000	31.277063
1402.000000	31.649820
1401.000000	32.012212
1400.000000	32.486108
1399.000000	32.877785
1398.000000	33.176574
1397.000000	33.419007
1396.000000	33.738628
1395.000000	34.154256
1394.000000	34.483940
1393.000000	34.749419
1392.000000	35.001110
1391.000000	35.347803
1390.000000	35.679500
1389.000000	35.952929
1388.000000	36.356078
1387.000000	36.793443
1386.000000	37.204643
1385.000000	37.646336
1384.000000	38.132510
1383.000000	38.618584
1382.000000	39.125086
1381.000000	39.570100
1380.000000	39.941448
1379.000000	40.208034
1378.000000	40.412124
1377.000000	40.586829
1376.000000	40.786189
1375.000000	40.950226
1374.000000	41.148178
1373.000000	41.362030
1372.000000	41.649951
1371.000000	41.927707
1370.000000	42.262423
1369.000000	42.521361
1368.000000	42.768423
1367.000000	43.016793
1366.000000	43.238696
1365.000000	43.388141
1364.000000	43.621014
1363.000000	43.753451
1362.000000	43.889713
1361.000000	44.087362
1360.000000	44.213158
1359.000000	44.233486
1358.000000	44.312888
1357.000000	44.410204
1356.000000	44.527143
1355.000000	44.730026
1354.000000	44.996913
1353.000000	45.290369
1352.000000	45.574566
1351.000000	45.983351
1350.000000	46.364863
1349.000000	46.722323
1348.000000	47.063883
1347.000000	47.381290
1346.000000	47.653913
1345.000000	47.936299
1344.000000	48.208118
1343.000000	48.505498
1342.000000	48.778726
1341.000000	49.046921
1340.000000	49.297606
1339.000000	49.569023
1338.000000	49.788309
1337.000000	50.022389
1336.000000	50.266835
1335.000000	50.517218
1334.000000	50.740228
1333.000000	50.968270
1332.000000	51.206677
1331.000000	51.419221
1330.000000	51.614959
1329.000000	51.806269
1328.000000	52.011466
1327.000000	52.201669
1326.000000	52.390764
1325.000000	52.563758
1324.000000	52.737960
1323.000000	52.900991
1322.000000	53.055266
1321.000000	53.192635
1320.000000	53.356370
1319.000000	53.505513
1318.000000	53.633120
1317.000000	53.766664
1316.000000	53.891755
1315.000000	54.016242
1314.000000	54.149384
1313.000000	54.273771
1312.000000	54.376218
1311.000000	54.480779
1310.000000	54.598625
1309.000000	54.697751
1308.000000	54.771417
1307.000000	54.871852
1306.000000	54.944109
1305.000000	55.023511
1304.000000	55.086509
1303.000000	55.142564
1302.000000	55.202744
1301.000000	55.267755
1300.000000	55.328640
1299.000000	55.367587
1298.000000	55.414383
1297.000000	55.450108
1296.000000	55.481708
1295.000000	55.501433
1294.000000	55.536756
1293.000000	55.565538
1292.000000	55.584659
1291.000000	55.603277
1290.000000	55.614850
1289.000000	55.620486
1288.000000	55.622599
1287.000000	55.618171
1286.000000	55.608510
1285.000000	55.598245
1284.000000	55.574898
1283.000000	55.544002
1282.000000	55.527498
1281.000000	55.507169
1280.000000	55.473154
1279.000000	55.438233
1278.000000	55.413879
1277.000000	55.396268
1276.000000	55.372015
1275.000000	55.357221
1274.000000	55.326829
1273.000000	55.300462
1272.000000	55.288688
1271.000000	55.278322
1270.000000	55.250043
1269.000000	55.229010
1268.000000	55.212707
1267.000000	55.200128
1266.000000	55.186039
1265.000000	55.155445
1264.000000	55.129079
1263.000000	55.107039
1262.000000	55.072622
1261.000000	55.049073
1260.000000	55.027033
1259.000000	54.999056
1258.000000	54.977319
1257.000000	54.941794
1256.000000	54.907276
1255.000000	54.864204
1254.000000	54.805533
1253.000000	54.760448
1252.000000	54.723917
1251.000000	54.664541
1250.000000	54.611607
1249.000000	54.558169
1248.000000	54.486616
1247.000000	54.417278
1246.000000	54.346329
1245.000000	54.266122
1244.000000	54.172732
1243.000000	54.081455
1242.000000	53.986554
1241.000000	53.883402
1240.000000	53.762337
1239.000000	53.654052
1238.000000	53.552611
1237.000000	53.447647
1236.000000	53.336947
1235.000000	53.212359
1234.000000	53.086363
1233.000000	52.966102
1232.000000	52.843024
1231.000000	52.716323
1230.000000	52.577243
1229.000000	52.437460
1228.000000	52.299487
1227.000000	52.153665
1226.000000	52.014385
1225.000000	51.872487
1224.000000	51.727470
1223.000000	51.586580
1222.000000	51.438644
1221.000000	51.291615
1220.000000	51.158070
1219.000000	51.029658
1218.000000	50.884541
1217.000000	50.747675
1216.000000	50.633755
1215.000000	50.521143
1214.000000	50.402895
1213.000000	50.290082
1212.000000	50.181596
1211.000000	50.081865
1210.000000	49.976298
1209.000000	49.887335
1208.000000	49.807028
1207.000000	49.712631
1206.000000	49.635946
1205.000000	49.583112
1204.000000	49.531888
1203.000000	49.505119
1202.000000	49.469393
1201.000000	49.438598
1200.000000	49.413238
1199.000000	49.373084
1198.000000	49.317633
1197.000000	49.254232
1196.000000	49.167786
1195.000000	49.024278
1194.000000	48.853498
1193.000000	48.647798
1192.000000	48.384030
1191.000000	48.084436
1190.000000	47.764714
1189.000000	47.435835
1188.000000	47.149726
1187.000000	46.925709
1186.000000	46.776063
1185.000000	46.718700
1184.000000	46.780893
1183.000000	46.939698
1182.000000	47.178306
1181.000000	47.506984
1180.000000	47.886081
1179.000000	48.285708
1178.000000	48.699726
1177.000000	49.083452
1176.000000	49.410219
1175.000000	49.692201
1174.000000	49.980927
1173.000000	50.249123
1172.000000	50.519935
1171.000000	50.791855
1170.000000	51.072227
1169.000000	51.365079
1168.000000	51.651893
1167.000000	51.939109
1166.000000	52.253295
1165.000000	52.557921
1164.000000	52.866774
1163.000000	53.186093
1162.000000	53.517187
1161.000000	53.847676
1160.000000	54.168807
1159.000000	54.483899
1158.000000	54.801004
1157.000000	55.099391
1156.000000	55.395060
1155.000000	55.656514
1154.000000	55.886769
1153.000000	56.101729
1152.000000	56.271100
1151.000000	56.398304
1150.000000	56.518464
1149.000000	56.615880
1148.000000	56.725473
1147.000000	56.847444
1146.000000	56.976862
1145.000000	57.154888
1144.000000	57.376388
1143.000000	57.622645
1142.000000	57.925057
1141.000000	58.244980
1140.000000	58.576275
1139.000000	58.918539
1138.000000	59.282943
1137.000000	59.642014
1136.000000	60.033992
1135.000000	60.445494
1134.000000	60.852065
1133.000000	61.212343
1132.000000	61.535889
1131.000000	61.884392
1130.000000	62.182276
1129.000000	62.463957
1128.000000	62.699546
1127.000000	62.924770
1126.000000	63.063850
1125.000000	63.221346
1124.000000	63.354387
1123.000000	63.485919
1122.000000	63.568742
1121.000000	63.649654
1120.000000	63.745158
1119.000000	63.798394
1118.000000	63.861292
1117.000000	63.931637
1116.000000	63.965048
1115.000000	64.004497
1114.000000	64.044853
1113.000000	64.076050
1112.000000	64.088126
1111.000000	64.118217
1110.000000	64.134016
1109.000000	64.168233
1108.000000	64.193593
1107.000000	64.223080
1106.000000	64.261321
1105.000000	64.291814
1104.000000	64.304092
1103.000000	64.328446
1102.000000	64.358335
1101.000000	64.402112
1100.000000	64.434919
1099.000000	64.437837
1098.000000	64.472255
1097.000000	64.501037
1096.000000	64.518447
1095.000000	64.534952
1094.000000	64.545820
1093.000000	64.569168
1092.000000	64.585672
1091.000000	64.617373
1090.000000	64.617876
1089.000000	64.665779
1088.000000	64.661653
1087.000000	64.672320
1086.000000	64.669402
1085.000000	64.679667
1084.000000	64.720223
1083.000000	64.723041
1082.000000	64.740652
1081.000000	64.766013
1080.000000	64.785536
1079.000000	64.799222
1078.000000	64.824281
1077.000000	64.840584
1076.000000	64.844509
1075.000000	64.861617
1074.000000	64.890600
1073.000000	64.918477
1072.000000	64.954303
1071.000000	64.960039
1070.000000	64.998482
1069.000000	65.030082
1068.000000	65.054436
1067.000000	65.091068
1066.000000	65.114617
1065.000000	65.140380
1064.000000	65.175804
1063.000000	65.203680
1062.000000	65.253294
1061.000000	65.261948
1060.000000	65.298278
1059.000000	65.320921
1058.000000	65.343564
1057.000000	65.370132
1056.000000	65.402940
1055.000000	65.418840
1054.000000	65.427596
1053.000000	65.465536
1052.000000	65.465032
1051.000000	65.492003
1050.000000	65.509312
1049.000000	65.531956
1048.000000	65.561039
1047.000000	65.588815
1046.000000	65.602200
1045.000000	65.615584
1044.000000	65.651310
1043.000000	65.672846
1042.000000	65.709881
1041.000000	65.722762
1040.000000	65.755066
1039.000000	65.771168
1038.000000	65.769457
1037.000000	65.794013
1036.000000	65.819876
1035.000000	65.831248
1034.000000	65.841815
1033.000000	65.829336
1032.000000	65.842318
1031.000000	65.855803
1030.000000	65.837991
1029.000000	65.831147
1028.000000	65.819574
1027.000000	65.806089
1026.000000	65.793207
1025.000000	65.805988
1024.000000	65.785962
1023.000000	65.764124
1022.000000	65.759696
1021.000000	65.764526
1020.000000	65.764023
1019.000000	65.763419
1018.000000	65.758287
1017.000000	65.774791
1016.000000	65.803170
1015.000000	65.832657
1014.000000	65.847853
1013.000000	65.893139
1012.000000	65.932086
1011.000000	65.974655
1010.000000	66.027287
1009.000000	66.100048
1008.000000	66.165260
1007.000000	66.234598
1006.000000	66.309673
1005.000000	66.396925
1004.000000	66.459722
1003.000000	66.535501
1002.000000	66.622652
1001.000000	66.669649
1000.000000	66.742208
999.000000	66.824428
998.000000	66.888734
997.000000	66.973168
996.000000	67.026908
995.000000	67.109933
994.000000	67.206041
993.000000	67.281920
992.000000	67.356190
991.000000	67.433479
990.000000	67.519925
989.000000	67.607982
988.000000	67.693020
987.000000	67.785404
986.000000	67.886141
985.000000	67.996338
984.000000	68.055311
983.000000	68.151318
982.000000	68.249639
981.000000	68.319783
980.000000	68.413677
979.000000	68.499519
978.000000	68.578519
977.000000	68.654197
976.000000	68.740745
975.000000	68.831418
974.000000	68.887070
973.000000	68.938193
972.000000	69.029068
971.000000	69.103941
970.000000	69.161807
969.000000	69.234567
968.000000	69.306723
967.000000	69.375156
966.000000	69.433626
965.000000	69.503668
964.000000	69.589008
963.000000	69.670121
962.000000	69.750026
961.000000	69.813125
960.000000	69.896653
959.000000	69.978370
958.000000	70.043482
957.000000	70.111109
956.000000	70.165252
955.000000	70.246868
954.000000	70.310671
953.000000	70.359379
952.000000	70.422981
951.000000	70.476419
950.000000	70.520095
949.000000	70.581584
948.000000	70.628078
947.000000	70.654646
946.000000	70.704360
945.000000	70.757094
944.000000	70.795638
943.000000	70.832873
942.000000	70.879770
941.000000	70.912174
940.000000	70.936730
939.000000	70.974368
938.000000	71.025692
937.000000	71.055279
936.000000	71.069670
935.000000	71.106503
934.000000	71.144946
933.000000	71.186207
932.000000	71.207441
931.000000	71.217706
930.000000	71.240048
929.000000	71.272956
928.000000	71.278793
927.000000	71.281912
926.000000	71.293184
925.000000	71.323274
924.000000	71.324280
923.000000	71.324381
922.000000	71.343502
921.000000	71.354974
920.000000	71.366245
919.000000	71.364132
918.000000	71.363428
917.000000	71.383152
916.000000	71.387580
915.000000	71.365138
914.000000	71.358295
913.000000	71.363126
912.000000	71.373089
911.000000	71.362623
910.000000	71.366245
909.000000	71.347628
908.000000	71.338671
907.000000	71.356484
906.000000	71.358597
905.000000	71.382448
904.000000	71.402676
903.000000	71.415759
902.000000	71.435886
901.000000	71.459334
900.000000	71.489525
899.000000	71.518508
898.000000	71.556247
897.000000	71.579192
896.000000	71.619648
895.000000	71.657588
894.000000	71.681841
893.000000	71.704283
892.000000	71.743330
891.000000	71.773118
890.000000	71.782477
889.000000	71.814882
888.000000	71.823939
887.000000	71.839941
886.000000	71.878082
885.000000	71.908575
884.000000	71.897404
883.000000	71.915317
882.000000	71.935847
881.000000	71.954163
880.000000	71.968453
879.000000	71.974491
878.000000	71.965032
877.000000	71.965837
876.000000	71.945609
875.000000	71.929104
874.000000	71.905556
873.000000	71.833097
872.000000	71.730750
871.000000	71.610087
870.000000	71.533704
869.000000	71.489525
868.000000	71.473725
867.000000	71.469498
866.000000	71.475134
865.000000	71.455912
864.000000	71.418476
863.000000	71.382750
862.000000	71.341891
861.000000	71.309185
860.000000	71.268830
859.000000	71.244979
858.000000	71.200900
857.000000	71.235300
856.000000	71.550600
855.000000	70.816800
854.000000	70.406000
853.000000	70.980600
852.000000	70.869700
851.000000	70.966400
850.000000	70.590300
849.000000	70.391000
848.000000	70.557000
847.000000	70.238400
846.000000	70.571600
845.000000	70.044900
844.000000	70.149600
843.000000	70.220100
842.000000	70.295000
841.000000	70.179500
840.000000	70.207800
839.000000	70.074500
838.000000	69.955400
837.000000	69.700600
836.000000	69.547100
835.000000	69.486500
834.000000	69.432700
833.000000	69.427500
832.000000	69.442200
831.000000	69.310900
830.000000	69.006500
829.000000	68.726000
828.000000	68.815700
827.000000	68.626500
826.000000	68.557300
825.000000	68.248100
824.000000	68.383300
823.000000	68.354600
822.000000	68.262300
821.000000	68.194100
820.000000	68.007000
819.000000	67.922200
818.000000	67.796800
817.000000	67.483600
816.000000	67.543700
815.000000	67.255200
814.000000	67.094800
813.000000	67.115800
812.000000	66.856400
811.000000	66.804700
810.000000	66.531600
809.000000	66.437600
808.000000	66.226000
807.000000	65.971100
806.000000	66.011000
805.000000	65.917800
804.000000	65.657700
803.000000	65.513100
802.000000	65.316900
801.000000	65.269600
800.000000	64.964300
799.000000	64.658400
798.000000	64.551300
797.000000	64.391100
796.000000	64.130500
795.000000	64.085100
794.000000	63.827200
793.000000	63.644200
792.000000	63.443700
791.000000	63.126400
790.000000	62.806700
789.000000	62.777800
788.000000	62.453300
787.000000	62.293900
786.000000	62.168800
785.000000	62.013500
784.000000	61.760700
783.000000	61.420800
782.000000	61.368400
781.000000	61.079300
780.000000	60.866900
779.000000	60.597700
778.000000	60.399600
777.000000	60.212000
776.000000	59.973800
775.000000	59.654800
774.000000	59.609900
773.000000	59.336600
772.000000	59.060300
771.000000	58.885300
770.000000	58.796400
769.000000	58.650600
768.000000	58.356100
767.000000	58.101000
766.000000	58.106000
765.000000	57.798100
764.000000	57.459300
763.000000	57.376000
762.000000	57.166400
761.000000	56.933000
760.000000	56.706100
759.000000	56.679500
758.000000	56.422400
757.000000	56.174800
756.000000	56.102300
755.000000	55.967900
754.000000	55.857400
753.000000	55.698300
752.000000	55.491100
751.000000	55.475300
750.000000	55.374100
749.000000	55.266700
748.000000	55.296000
747.000000	55.113400
746.000000	55.097500
745.000000	54.928200
744.000000	54.917100
743.000000	54.753100
742.000000	54.695500
741.000000	54.568000
740.000000	54.510800
739.000000	54.396900
738.000000	54.256000
737.000000	54.125600
736.000000	54.086300
735.000000	53.925600
734.000000	53.777000
733.000000	53.644000
732.000000	53.397900
731.000000	53.242700
730.000000	53.023400
729.000000	52.796200
728.000000	52.578000
727.000000	52.380200
726.000000	52.090400
725.000000	51.790600
724.000000	51.448700
723.000000	51.155400
722.000000	50.850700
721.000000	50.532400
720.000000	50.222600
719.000000	50.001600
718.000000	49.734100
717.000000	49.414600
716.000000	49.115400
715.000000	48.833900
714.000000	48.622300
713.000000	48.352100
712.000000	48.138800
711.000000	47.929500
710.000000	47.785300
709.000000	47.604100
708.000000	47.445700
707.000000	47.232600
706.000000	47.098700
705.000000	46.958300
704.000000	46.748700
703.000000	46.563100
702.000000	46.389300
701.000000	46.228300
700.000000	46.043900
699.000000	45.853200
698.000000	45.669900
697.000000	45.526600
696.000000	45.364500
695.000000	45.224300
694.000000	45.135900
693.000000	45.087100
692.000000	45.030100
691.000000	44.992700
690.000000	44.985800
689.000000	45.013700
688.000000	45.072800
687.000000	45.160000
686.000000	45.197700
685.000000	45.268700
684.000000	45.389100
683.000000	45.510800
682.000000	45.665300
681.000000	45.752700
680.000000	45.833600
679.000000	45.925600
678.000000	46.007600
677.000000	46.067000
676.000000	46.121400
675.000000	46.156600
674.000000	46.205700
673.000000	46.245100
672.000000	46.225900
671.000000	46.197800
670.000000	46.161200
669.000000	46.112400
668.000000	46.063200
667.000000	46.010000
666.000000	45.958300
665.000000	45.901600
664.000000	45.817400
663.000000	45.715600
662.000000	45.641100
661.000000	45.573900
660.000000	45.498300
659.000000	45.420000
658.000000	45.344100
657.000000	45.244200
656.000000	45.120700
655.000000	45.010300
654.000000	44.882200
653.000000	44.745000
652.000000	44.607000
651.000000	44.465700
650.000000	44.314300
649.000000	44.162200
648.000000	44.027700
647.000000	43.877400
646.000000	43.744100
645.000000	43.665200
644.000000	43.603000
643.000000	43.564300
642.000000	43.573600
641.000000	43.619800
640.000000	43.703300
639.000000	43.871000
638.000000	44.073000
637.000000	44.289000
636.000000	44.554200
635.000000	44.864600
634.000000	45.221100
633.000000	45.619600
632.000000	46.023500
631.000000	46.462200
630.000000	46.948900
629.000000	47.451500
628.000000	47.961600
627.000000	48.479200
626.000000	49.057900
625.000000	49.665800
624.000000	50.238900
623.000000	50.786100
622.000000	51.362800
621.000000	51.933400
620.000000	52.475900
619.000000	52.975700
618.000000	53.479100
617.000000	53.930400
616.000000	54.382900
615.000000	54.820800
614.000000	55.221800
613.000000	55.623400
612.000000	55.992200
611.000000	56.338000
610.000000	56.662400
609.000000	56.983600
608.000000	57.299500
607.000000	57.593500
606.000000	57.914100
605.000000	58.187900
604.000000	58.448500
603.000000	58.759000
602.000000	59.107400
601.000000	59.354700
600.000000	59.637100
599.000000	59.908900
598.000000	60.148000
597.000000	60.366500
596.000000	60.509300
595.000000	60.625100
594.000000	60.766400
593.000000	60.881600
592.000000	60.963500
591.000000	60.969700
590.000000	60.997300
589.000000	61.049200
588.000000	61.064600
587.000000	61.095200
586.000000	61.093700
585.000000	61.180700
584.000000	61.264500
583.000000	61.310100
582.000000	61.374700
581.000000	61.503300
580.000000	61.600600
579.000000	61.695900
578.000000	61.800200
577.000000	61.906700
576.000000	62.001000
575.000000	62.015600
574.000000	62.033900
573.000000	62.040500
572.000000	62.007000
571.000000	61.985300
570.000000	61.870200
569.000000	61.772700
568.000000	61.692000
567.000000	61.568900
566.000000	61.440600
565.000000	61.358200
564.000000	61.259800
563.000000	61.127300
562.000000	61.028400
561.000000	60.917100
560.000000	60.780500
559.000000	60.609400
558.000000	60.418500
557.000000	60.202600
556.000000	59.991400
555.000000	59.691400
554.000000	59.372000
553.000000	58.976100
552.000000	58.567700
551.000000	58.154600
550.000000	57.720800
549.000000	57.228000
548.000000	56.742800
547.000000	56.178400
546.000000	55.576800
545.000000	54.970800
544.000000	54.294800
543.000000	53.572700
542.000000	52.823200
541.000000	52.049400
540.000000	51.237800
539.000000	50.401000
538.000000	49.561400
537.000000	48.718200
536.000000	47.855500
535.000000	47.016000
534.000000	46.186100
533.000000	45.332900
532.000000	44.516300
531.000000	43.715200
530.000000	42.949200
529.000000	42.221300
528.000000	41.538600
527.000000	40.867400
526.000000	40.194600
525.000000	39.534900
524.000000	38.909800
523.000000	38.264400
522.000000	37.631800
521.000000	37.012400
520.000000	36.411700
519.000000	35.839900
518.000000	35.224300
517.000000	34.614300
516.000000	33.994600
515.000000	33.416900
514.000000	32.820700
513.000000	32.233900
512.000000	31.655700
511.000000	31.134600
510.000000	30.601600
509.000000	30.063700
508.000000	29.583700
507.000000	29.115200
506.000000	28.629700
505.000000	28.181700
504.000000	27.749900
503.000000	27.321100
502.000000	26.937000
501.000000	26.509700
500.000000	26.130800
499.000000	25.713100
498.000000	25.347100
497.000000	24.947700
496.000000	24.558700
495.000000	24.212000
494.000000	23.838800
493.000000	23.485300
492.000000	23.094200
491.000000	22.719800
490.000000	22.369600
489.000000	21.990200
488.000000	21.654100
487.000000	21.346100
486.000000	21.032800
485.000000	20.743400
484.000000	20.440400
483.000000	20.173700
482.000000	19.901000
481.000000	19.652500
480.000000	19.407500
479.000000	19.213900
478.000000	18.984100
477.000000	18.780700
476.000000	18.569500
475.000000	18.386000
474.000000	18.190600
473.000000	18.018800
472.000000	17.869500
471.000000	17.709100
470.000000	17.557600
469.000000	17.428500
468.000000	17.281600
467.000000	17.151900
466.000000	17.018300
465.000000	16.923200
464.000000	16.796300
463.000000	16.679800
462.000000	16.546300
461.000000	16.411000
460.000000	16.300200
459.000000	16.173100
458.000000	16.004800
457.000000	15.910700
456.000000	15.788100
455.000000	15.641800
454.000000	15.512300
453.000000	15.343100
452.000000	15.192200
451.000000	15.039300
450.000000	14.877900
449.000000	14.726300
448.000000	14.576400
447.000000	14.440000
446.000000	14.302200
445.000000	14.119800
444.000000	13.931300
443.000000	13.798000
442.000000	13.619900
441.000000	13.442600
440.000000	13.275300
439.000000	13.091200
438.000000	12.932900
437.000000	12.754500
436.000000	12.584400
435.000000	12.389100
434.000000	12.218500
433.000000	12.048800
432.000000	11.849100
431.000000	11.664100
430.000000	11.488400
429.000000	11.319800
428.000000	11.150000
427.000000	10.979100
426.000000	10.795400
425.000000	10.634600
424.000000	10.493300
423.000000	10.307500
422.000000	10.146200
421.000000	9.968900
420.000000	9.821000
419.000000	9.674300
418.000000	9.527300
417.000000	9.365900
416.000000	9.182200
415.000000	9.045100
414.000000	8.887500
413.000000	8.754600
412.000000	8.605700
411.000000	8.472800
410.000000	8.358900
409.000000	8.249900
408.000000	8.136100
407.000000	8.014500
406.000000	7.907600
405.000000	7.797100
404.000000	7.705600
403.000000	7.610100
402.000000	7.502600
401.000000	7.421500
400.000000	7.342900
399.000000	7.238100
398.000000	7.152500
397.000000	7.088900
396.000000	7.026100
395.000000	6.959100
394.000000	6.918900
393.000000	6.860800
392.000000	6.781900
391.000000	6.730700
390.000000	6.666600
389.000000	6.627400
388.000000	6.574900
387.000000	6.508100
386.000000	6.468200
385.000000	6.429300
384.000000	6.395800
383.000000	6.353100
382.000000	6.311500
381.000000	6.269100
380.000000	6.236400
379.000000	6.196700
378.000000	6.170000
377.000000	6.122800
376.000000	6.133900
375.000000	6.044800
374.000000	5.731700
373.000000	5.793300
372.000000	5.941300
371.000000	5.830100
370.000000	5.960600
369.000000	5.928200
368.000000	5.951000
367.000000	6.047300
366.000000	5.970100
365.000000	5.893500
364.000000	5.739400
363.000000	5.720300
362.000000	5.772300
361.000000	5.800200
360.000000	5.790600
359.000000	5.733200
358.000000	5.731300
357.000000	5.778300
356.000000	5.777100
355.000000	5.761900
354.000000	5.700900
353.000000	5.631700
352.000000	5.569000
351.000000	5.481900
350.000000	5.411200
349.000000	5.398800
348.000000	5.439100
347.000000	5.504400
346.000000	5.593000
345.000000	5.601700
344.000000	5.511500
343.000000	5.570700
342.000000	5.634200
341.000000	5.622200
340.000000	5.562000
339.000000	5.609800
338.000000	5.685300
337.000000	5.580800
336.000000	5.615000
335.000000	5.765600
334.000000	5.659700
333.000000	5.631300
332.000000	5.683800
331.000000	5.763700
330.000000	5.817800
329.000000	5.704800
328.000000	5.774600
327.000000	5.720200
326.000000	5.697300
325.000000	5.836400
324.000000	5.936300
323.000000	5.873500
322.000000	5.925200
321.000000	5.925600
320.000000	5.670700
319.000000	6.001600
318.000000	6.161800
317.000000	5.920200
316.000000	5.538100
315.000000	5.251700
314.000000	5.249000
313.000000	5.313500
312.000000	5.303100
311.000000	5.310900
310.000000	5.324100
309.000000	5.298100
308.000000	5.302300
307.000000	5.325600
306.000000	5.320100
305.000000	5.326900
304.000000	5.300800
303.000000	5.286600
302.000000	5.286000
301.000000	5.289600
300.000000	5.318800
299.000000	5.311600
298.000000	5.330400
297.000000	5.352100
296.000000	5.359300
295.000000	5.343400
294.000000	5.363800
293.000000	5.355200
292.000000	5.349700
291.000000	5.377600
290.000000	5.420700
289.000000	5.385500
288.000000	5.397400
287.000000	5.405300
286.000000	5.418200
285.000000	5.452900
284.000000	5.467300
283.000000	5.495200
282.000000	5.527000
281.000000	5.521900
280.000000	5.488900
279.000000	5.502400
278.000000	5.514200
277.000000	5.521100
276.000000	5.575500
275.000000	5.578600
274.000000	5.622100
273.000000	5.595000
272.000000	5.593300
271.000000	5.640200
270.000000	5.651200
269.000000	5.644500
268.000000	5.644100
267.000000	5.689800
266.000000	5.720800
265.000000	5.742600
264.000000	5.725100
263.000000	5.747500
262.000000	5.791900
261.000000	5.771100
260.000000	5.837900
259.000000	5.859400
258.000000	5.876500
257.000000	5.898200
256.000000	5.889600
255.000000	5.911000
254.000000	5.932400
253.000000	5.913900
252.000000	5.922700
251.000000	5.919800
250.000000	5.927700
