PE UV       SUBTECH     SPECTRUM    ASCII       PEDS        4.00        
   -1
CICIMAUCR0245-3.Sample.ASC
24/06/21
11:59:24.00
24/06/21
11:59:24.00
Vinicio Soto Monge
C. resplendens. Sex M. Dorsal
250,000000
1
Lambda 1050
1050L1511233
PerkinElmer UV WinLab 6.3.2.0749 / 2.02.05 Lambda 900 UV/VIS/NIR, Aug  7 2015 09:38:08

0
0
3350/servo 860,8/2
0
0
UV/VIS
1
1
1
DoubleDePol,CommonBeamDepol,RBeamAtt,SBeamAtt,60mm sphere, WB InGaAs Detector
0
0
0
0
Program
Program
3350/servo 860,8/2
3350/0,2 860,8/0,2
3350/0,2 860,8/0,2
0
15.00
 
 
 
0
 
860,8
319,2
860,8
Front
100
on
S:100 R:100
0
0
0
0
 
0
 
 
 
0
 
 
0
0
0
0
0
 
 
 
 
0
0


0
0
#HDR
-1
-1
#GR
nm
%R
1.0
0.0
2500,000000
-1,000000
2251
8
89,701100
5,421800
#DATA
2482.000000	7.055822
2481.000000	7.039556
2480.000000	7.025335
2479.000000	7.057970
2478.000000	7.017049
2477.000000	7.062574
2476.000000	7.043034
2475.000000	6.991268
2474.000000	7.034850
2473.000000	7.039556
2472.000000	7.053469
2471.000000	7.027075
2470.000000	7.013570
2469.000000	7.011217
2468.000000	7.017049
2467.000000	7.052344
2466.000000	7.086104
2465.000000	7.013673
2464.000000	7.057868
2463.000000	7.083956
2462.000000	7.100427
2461.000000	7.107486
2460.000000	7.106770
2459.000000	7.123445
2458.000000	7.157615
2457.000000	7.188306
2456.000000	7.183293
2455.000000	7.209176
2454.000000	7.243857
2453.000000	7.288053
2452.000000	7.291838
2451.000000	7.297465
2450.000000	7.348617
2449.000000	7.391380
2448.000000	7.429233
2447.000000	7.453479
2446.000000	7.476293
2445.000000	7.520795
2444.000000	7.555169
2443.000000	7.594966
2442.000000	7.631181
2441.000000	7.642025
2440.000000	7.680287
2439.000000	7.713638
2438.000000	7.735020
2437.000000	7.761619
2436.000000	7.798858
2435.000000	7.812157
2434.000000	7.825662
2433.000000	7.870369
2432.000000	7.900446
2431.000000	7.909449
2430.000000	7.916201
2429.000000	7.954565
2428.000000	7.970627
2427.000000	7.977686
2426.000000	8.008889
2425.000000	8.031395
2424.000000	8.049810
2423.000000	8.070783
2422.000000	8.096666
2421.000000	8.097279
2420.000000	8.111193
2419.000000	8.134620
2418.000000	8.144339
2417.000000	8.165516
2416.000000	8.192013
2415.000000	8.201323
2414.000000	8.210633
2413.000000	8.223421
2412.000000	8.248178
2411.000000	8.261273
2410.000000	8.277642
2409.000000	8.287361
2408.000000	8.316211
2407.000000	8.329203
2406.000000	8.338308
2405.000000	8.353245
2404.000000	8.354575
2403.000000	8.380253
2402.000000	8.384857
2401.000000	8.401328
2400.000000	8.421379
2399.000000	8.419333
2398.000000	8.412683
2397.000000	8.413604
2396.000000	8.415753
2395.000000	8.442761
2394.000000	8.449001
2393.000000	8.456470
2392.000000	8.472634
2391.000000	8.485626
2390.000000	8.477749
2389.000000	8.487366
2388.000000	8.492481
2387.000000	8.505576
2386.000000	8.494425
2385.000000	8.492481
2384.000000	8.507622
2383.000000	8.511305
2382.000000	8.499540
2381.000000	8.487570
2380.000000	8.488286
2379.000000	8.477237
2378.000000	8.479283
2377.000000	8.481330
2376.000000	8.467212
2375.000000	8.453401
2374.000000	8.442965
2373.000000	8.420970
2372.000000	8.412172
2371.000000	8.402248
2370.000000	8.385368
2369.000000	8.352017
2368.000000	8.326236
2367.000000	8.305059
2366.000000	8.272629
2365.000000	8.234776
2364.000000	8.211962
2363.000000	8.174417
2362.000000	8.124799
2361.000000	8.098814
2360.000000	8.077842
2359.000000	8.037636
2358.000000	7.995487
2357.000000	7.978709
2356.000000	7.956816
2355.000000	7.932263
2354.000000	7.915076
2353.000000	7.900241
2352.000000	7.882952
2351.000000	7.870880
2350.000000	7.885407
2349.000000	7.891239
2348.000000	7.887965
2347.000000	7.903311
2346.000000	7.918758
2345.000000	7.933388
2344.000000	7.951496
2343.000000	7.977072
2342.000000	7.995691
2341.000000	8.007865
2340.000000	8.038352
2339.000000	8.041626
2338.000000	8.043570
2337.000000	8.055642
2336.000000	8.049606
2335.000000	8.045718
2334.000000	8.039784
2333.000000	8.023723
2332.000000	8.010730
2331.000000	7.982699
2330.000000	7.953133
2329.000000	7.932365
2328.000000	7.896456
2327.000000	7.859115
2326.000000	7.816352
2325.000000	7.780239
2324.000000	7.735122
2323.000000	7.684993
2322.000000	7.636501
2321.000000	7.581768
2320.000000	7.521306
2319.000000	7.443760
2318.000000	7.389129
2317.000000	7.327440
2316.000000	7.270150
2315.000000	7.199253
2314.000000	7.111373
2313.000000	7.054492
2312.000000	7.017356
2311.000000	6.975309
2310.000000	6.913926
2309.000000	6.870140
2308.000000	6.847428
2307.000000	6.812338
2306.000000	6.790956
2305.000000	6.815100
2304.000000	6.817249
2303.000000	6.826149
2302.000000	6.858375
2301.000000	6.899194
2300.000000	6.918632
2299.000000	6.953313
2298.000000	6.997816
2297.000000	7.045182
2296.000000	7.092140
2295.000000	7.120683
2294.000000	7.166618
2293.000000	7.204982
2292.000000	7.230046
2291.000000	7.235673
2290.000000	7.269638
2289.000000	7.301762
2288.000000	7.308616
2287.000000	7.297465
2286.000000	7.273526
2285.000000	7.271275
2284.000000	7.253474
2283.000000	7.225136
2282.000000	7.208665
2281.000000	7.196388
2280.000000	7.175109
2279.000000	7.137972
2278.000000	7.123241
2277.000000	7.100324
2276.000000	7.073930
2275.000000	7.062881
2274.000000	7.044671
2273.000000	7.054901
2272.000000	7.036077
2271.000000	7.032497
2270.000000	7.045694
2269.000000	7.072805
2268.000000	7.084365
2267.000000	7.129788
2266.000000	7.177769
2265.000000	7.223806
2264.000000	7.274856
2263.000000	7.352504
2262.000000	7.461458
2261.000000	7.549031
2260.000000	7.657576
2259.000000	7.784535
2258.000000	7.884384
2257.000000	8.015538
2256.000000	8.146897
2255.000000	8.279892
2254.000000	8.424141
2253.000000	8.556421
2252.000000	8.685529
2251.000000	8.788447
2250.000000	8.935765
2249.000000	9.059144
2248.000000	9.178738
2247.000000	9.273267
2246.000000	9.369944
2245.000000	9.457619
2244.000000	9.557161
2243.000000	9.642483
2242.000000	9.710311
2241.000000	9.801975
2240.000000	9.859879
2239.000000	9.919011
2238.000000	9.985202
2237.000000	10.047505
2236.000000	10.094872
2235.000000	10.136612
2234.000000	10.190220
2233.000000	10.214057
2232.000000	10.253342
2231.000000	10.305619
2230.000000	10.326796
2229.000000	10.347564
2228.000000	10.346745
2227.000000	10.381017
2226.000000	10.384700
2225.000000	10.390327
2224.000000	10.409765
2223.000000	10.405673
2222.000000	10.408946
2221.000000	10.392987
2220.000000	10.395954
2219.000000	10.381733
2218.000000	10.378050
2217.000000	10.370071
2216.000000	10.347666
2215.000000	10.349610
2214.000000	10.330786
2213.000000	10.315849
2212.000000	10.300606
2211.000000	10.288943
2210.000000	10.271040
2209.000000	10.268687
2208.000000	10.244032
2207.000000	10.256718
2206.000000	10.227049
2205.000000	10.228891
2204.000000	10.232267
2203.000000	10.201780
2202.000000	10.200553
2201.000000	10.176613
2200.000000	10.159733
2199.000000	10.165462
2198.000000	10.148275
2197.000000	10.141932
2196.000000	10.134464
2195.000000	10.118811
2194.000000	10.109706
2193.000000	10.107046
2192.000000	10.077890
2191.000000	10.088529
2190.000000	10.090473
2189.000000	10.082289
2188.000000	10.043618
2187.000000	10.029091
2186.000000	10.021827
2185.000000	10.037275
2184.000000	10.010574
2183.000000	10.010676
2182.000000	10.002696
2181.000000	9.980496
2180.000000	9.982849
2179.000000	9.972926
2178.000000	9.944076
2177.000000	9.961672
2176.000000	9.943871
2175.000000	9.941007
2174.000000	9.932515
2173.000000	9.936915
2172.000000	9.932618
2171.000000	9.945713
2170.000000	9.953795
2169.000000	9.967299
2168.000000	9.961672
2167.000000	9.988374
2166.000000	10.013847
2165.000000	9.996251
2164.000000	10.027045
2163.000000	10.039219
2162.000000	10.028375
2161.000000	10.067455
2160.000000	10.076662
2159.000000	10.097634
2158.000000	10.108990
2157.000000	10.116152
2156.000000	10.153390
2155.000000	10.180808
2154.000000	10.183263
2153.000000	10.211090
2152.000000	10.228891
2151.000000	10.248738
2150.000000	10.264084
2149.000000	10.288841
2148.000000	10.299481
2147.000000	10.329047
2146.000000	10.333343
2145.000000	10.355032
2144.000000	10.356157
2143.000000	10.366797
2142.000000	10.400148
2141.000000	10.419586
2140.000000	10.424087
2139.000000	10.443321
2138.000000	10.446390
2137.000000	10.449868
2136.000000	10.466441
2135.000000	10.456416
2134.000000	10.458769
2133.000000	10.465827
2132.000000	10.459689
2131.000000	10.460201
2130.000000	10.457132
2129.000000	10.453960
2128.000000	10.456313
2127.000000	10.450993
2126.000000	10.430328
2125.000000	10.421530
2124.000000	10.406798
2123.000000	10.382245
2122.000000	10.385621
2121.000000	10.374470
2120.000000	10.331297
2119.000000	10.307665
2118.000000	10.293547
2117.000000	10.276667
2116.000000	10.252114
2115.000000	10.217126
2114.000000	10.207202
2113.000000	10.183059
2112.000000	10.160245
2111.000000	10.139682
2110.000000	10.110320
2109.000000	10.078299
2108.000000	10.045255
2107.000000	10.011392
2106.000000	9.989601
2105.000000	9.970982
2104.000000	9.961672
2103.000000	9.927400
2102.000000	9.897425
2101.000000	9.875225
2100.000000	9.844329
2099.000000	9.828677
2098.000000	9.815684
2097.000000	9.789392
2096.000000	9.762793
2095.000000	9.736296
2094.000000	9.704991
2093.000000	9.693226
2092.000000	9.680745
2091.000000	9.661614
2090.000000	9.635015
2089.000000	9.606881
2088.000000	9.585295
2087.000000	9.570256
2086.000000	9.570256
2085.000000	9.557161
2084.000000	9.528107
2083.000000	9.508874
2082.000000	9.484730
2081.000000	9.473783
2080.000000	9.449128
2079.000000	9.413526
2078.000000	9.401147
2077.000000	9.377003
2076.000000	9.355826
2075.000000	9.345494
2074.000000	9.321350
2073.000000	9.307641
2072.000000	9.289226
2071.000000	9.252601
2070.000000	9.225900
2069.000000	9.208406
2068.000000	9.181807
2067.000000	9.155310
2066.000000	9.130041
2065.000000	9.103135
2064.000000	9.087175
2063.000000	9.072034
2062.000000	9.043798
2061.000000	9.027123
2060.000000	9.024565
2059.000000	9.004411
2058.000000	8.985690
2057.000000	8.960625
2056.000000	8.967582
2055.000000	8.981700
2054.000000	8.968400
2053.000000	8.969219
2052.000000	8.976789
2051.000000	8.987838
2050.000000	9.010038
2049.000000	9.040422
2048.000000	9.061804
2047.000000	9.094848
2046.000000	9.144977
2045.000000	9.177612
2044.000000	9.198073
2043.000000	9.241348
2042.000000	9.285543
2041.000000	9.335059
2040.000000	9.379049
2039.000000	9.417720
2038.000000	9.460688
2037.000000	9.469486
2036.000000	9.518797
2035.000000	9.545805
2034.000000	9.565755
2033.000000	9.585295
2032.000000	9.626114
2031.000000	9.658852
2030.000000	9.687292
2029.000000	9.692714
2028.000000	9.712254
2027.000000	9.735375
2026.000000	9.752869
2025.000000	9.767192
2024.000000	9.764941
2023.000000	9.769033
2022.000000	9.781105
2021.000000	9.787346
2020.000000	9.798395
2019.000000	9.791642
2018.000000	9.792972
2017.000000	9.790926
2016.000000	9.795735
2015.000000	9.780184
2014.000000	9.783663
2013.000000	9.771898
2012.000000	9.761770
2011.000000	9.749084
2010.000000	9.723815
2009.000000	9.705502
2008.000000	9.682791
2007.000000	9.667445
2006.000000	9.644734
2005.000000	9.609336
2004.000000	9.586113
2003.000000	9.564015
2002.000000	9.535780
2001.000000	9.508055
2000.000000	9.474806
1999.000000	9.447184
1998.000000	9.403091
1997.000000	9.380789
1996.000000	9.335059
1995.000000	9.283190
1994.000000	9.241859
1993.000000	9.196129
1992.000000	9.146614
1991.000000	9.126358
1990.000000	9.076945
1989.000000	9.025691
1988.000000	8.986713
1987.000000	8.936993
1986.000000	8.883078
1985.000000	8.853308
1984.000000	8.802258
1983.000000	8.750799
1982.000000	8.699238
1981.000000	8.641640
1980.000000	8.600105
1979.000000	8.575449
1978.000000	8.510896
1977.000000	8.456674
1976.000000	8.414832
1975.000000	8.373399
1974.000000	8.325213
1973.000000	8.283269
1972.000000	8.252680
1971.000000	8.202448
1970.000000	8.142089
1969.000000	8.121014
1968.000000	8.082445
1967.000000	8.039580
1966.000000	7.982187
1965.000000	7.949654
1964.000000	7.919475
1963.000000	7.868629
1962.000000	7.846225
1961.000000	7.818910
1960.000000	7.789651
1959.000000	7.742284
1958.000000	7.701669
1957.000000	7.677525
1956.000000	7.641616
1955.000000	7.614710
1954.000000	7.577881
1953.000000	7.549440
1952.000000	7.535834
1951.000000	7.488671
1950.000000	7.451842
1949.000000	7.452353
1948.000000	7.415422
1947.000000	7.415626
1946.000000	7.352402
1945.000000	7.355471
1944.000000	7.329588
1943.000000	7.303705
1942.000000	7.311378
1941.000000	7.277822
1940.000000	7.275572
1939.000000	7.283142
1938.000000	7.289485
1937.000000	7.288257
1936.000000	7.267694
1935.000000	7.296953
1934.000000	7.309537
1933.000000	7.326519
1932.000000	7.324882
1931.000000	7.353016
1930.000000	7.367645
1929.000000	7.389129
1928.000000	7.427187
1927.000000	7.464425
1926.000000	7.516089
1925.000000	7.562433
1924.000000	7.588316
1923.000000	7.628112
1922.000000	7.705556
1921.000000	7.776044
1920.000000	7.845713
1919.000000	7.934104
1918.000000	7.989860
1917.000000	8.062496
1916.000000	8.133393
1915.000000	8.192525
1914.000000	8.255953
1913.000000	8.363577
1912.000000	8.499642
1911.000000	8.611358
1910.000000	8.700363
1909.000000	8.795301
1908.000000	8.863743
1907.000000	8.976584
1906.000000	9.100168
1905.000000	9.265594
1904.000000	9.440125
1903.000000	9.580589
1902.000000	9.707241
1901.000000	9.851286
1900.000000	10.012722
1899.000000	10.200041
1898.000000	10.395749
1897.000000	10.591559
1896.000000	10.737138
1895.000000	10.885070
1894.000000	11.019294
1893.000000	11.219708
1892.000000	11.449585
1891.000000	11.703709
1890.000000	11.973895
1889.000000	12.233133
1888.000000	12.498511
1887.000000	12.775141
1886.000000	13.039086
1885.000000	13.378123
1884.000000	13.753784
1883.000000	14.165456
1882.000000	14.615595
1881.000000	15.005476
1880.000000	15.431471
1879.000000	15.798846
1878.000000	16.192513
1877.000000	16.623111
1876.000000	17.003376
1875.000000	17.400521
1874.000000	17.778842
1873.000000	18.169440
1872.000000	18.535485
1871.000000	18.908793
1870.000000	19.245272
1869.000000	19.538578
1868.000000	19.804569
1867.000000	20.003551
1866.000000	20.176036
1865.000000	20.310361
1864.000000	20.442641
1863.000000	20.524791
1862.000000	20.622185
1861.000000	20.765717
1860.000000	20.906488
1859.000000	21.018000
1858.000000	21.122350
1857.000000	21.210536
1856.000000	21.248491
1855.000000	21.267315
1854.000000	21.301996
1853.000000	21.336575
1852.000000	21.334631
1851.000000	21.330846
1850.000000	21.323276
1849.000000	21.312125
1848.000000	21.330642
1847.000000	21.344350
1846.000000	21.321025
1845.000000	21.259029
1844.000000	21.201841
1843.000000	21.161328
1842.000000	21.158668
1841.000000	21.192122
1840.000000	21.189973
1839.000000	21.170331
1838.000000	21.145982
1837.000000	21.101275
1836.000000	21.084395
1835.000000	21.055545
1834.000000	21.001836
1833.000000	20.932064
1832.000000	20.844594
1831.000000	20.794567
1830.000000	20.745257
1829.000000	20.697481
1828.000000	20.651853
1827.000000	20.591493
1826.000000	20.518346
1825.000000	20.465966
1824.000000	20.405811
1823.000000	20.342894
1822.000000	20.312510
1821.000000	20.305144
1820.000000	20.296755
1819.000000	20.285604
1818.000000	20.245091
1817.000000	20.200896
1816.000000	20.170102
1815.000000	20.160690
1814.000000	20.150357
1813.000000	20.136853
1812.000000	20.110561
1811.000000	20.098080
1810.000000	20.083553
1809.000000	20.050304
1808.000000	20.013065
1807.000000	19.967028
1806.000000	19.937871
1805.000000	19.899814
1804.000000	19.844365
1803.000000	19.809173
1802.000000	19.770809
1801.000000	19.723544
1800.000000	19.685078
1799.000000	19.639143
1798.000000	19.593413
1797.000000	19.551878
1796.000000	19.507273
1795.000000	19.464817
1794.000000	19.420417
1793.000000	19.372743
1792.000000	19.333151
1791.000000	19.292229
1790.000000	19.247522
1789.000000	19.196473
1788.000000	19.155142
1787.000000	19.108900
1786.000000	19.051917
1785.000000	18.994933
1784.000000	18.937438
1783.000000	18.882194
1782.000000	18.822448
1781.000000	18.764646
1780.000000	18.701934
1779.000000	18.640449
1778.000000	18.574463
1777.000000	18.508579
1776.000000	18.441876
1775.000000	18.370980
1774.000000	18.280543
1773.000000	18.197983
1772.000000	18.107648
1771.000000	18.012608
1770.000000	17.918181
1769.000000	17.829892
1768.000000	17.733829
1767.000000	17.647484
1766.000000	17.570449
1765.000000	17.500268
1764.000000	17.448093
1763.000000	17.415151
1762.000000	17.416890
1761.000000	17.441034
1760.000000	17.462109
1759.000000	17.514591
1758.000000	17.595718
1757.000000	17.654850
1756.000000	17.707946
1755.000000	17.750402
1754.000000	17.803907
1753.000000	17.852399
1752.000000	17.881147
1751.000000	17.877055
1750.000000	17.865392
1749.000000	17.852706
1748.000000	17.834087
1747.000000	17.800224
1746.000000	17.753983
1745.000000	17.675106
1744.000000	17.585999
1743.000000	17.479500
1742.000000	17.345379
1741.000000	17.201846
1740.000000	17.042150
1739.000000	16.845930
1738.000000	16.675900
1737.000000	16.512520
1736.000000	16.367760
1735.000000	16.239470
1734.000000	16.156809
1733.000000	16.109851
1732.000000	16.085809
1731.000000	16.106168
1730.000000	16.170210
1729.000000	16.243460
1728.000000	16.327043
1727.000000	16.433644
1726.000000	16.533390
1725.000000	16.593341
1724.000000	16.665670
1723.000000	16.714264
1722.000000	16.751196
1721.000000	16.780558
1720.000000	16.805315
1719.000000	16.815648
1718.000000	16.837541
1717.000000	16.859946
1716.000000	16.885829
1715.000000	16.932070
1714.000000	16.987417
1713.000000	17.049515
1712.000000	17.093097
1711.000000	17.148751
1710.000000	17.170132
1709.000000	17.179749
1708.000000	17.175247
1707.000000	17.155196
1706.000000	17.111103
1705.000000	17.088186
1704.000000	17.046446
1703.000000	16.984961
1702.000000	16.907926
1701.000000	16.819433
1700.000000	16.711502
1699.000000	16.600809
1698.000000	16.461266
1697.000000	16.325201
1696.000000	16.222488
1695.000000	16.190569
1694.000000	16.195582
1693.000000	16.239777
1692.000000	16.338501
1691.000000	16.447046
1690.000000	16.589556
1689.000000	16.713241
1688.000000	16.815443
1687.000000	16.876314
1686.000000	16.933502
1685.000000	16.936265
1684.000000	16.975754
1683.000000	17.067419
1682.000000	17.232435
1681.000000	17.474078
1680.000000	17.777103
1679.000000	18.197778
1678.000000	18.641983
1677.000000	19.090383
1676.000000	19.482822
1675.000000	19.866054
1674.000000	20.225449
1673.000000	20.505865
1672.000000	20.766024
1671.000000	20.969610
1670.000000	21.138821
1669.000000	21.323071
1668.000000	21.446552
1667.000000	21.575558
1666.000000	21.675100
1665.000000	21.775256
1664.000000	21.846971
1663.000000	21.909684
1662.000000	21.966258
1661.000000	22.017615
1660.000000	22.059355
1659.000000	22.096082
1658.000000	22.119612
1657.000000	22.162477
1656.000000	22.155316
1655.000000	22.170662
1654.000000	22.182018
1653.000000	22.172810
1652.000000	22.168309
1651.000000	22.143347
1650.000000	22.123090
1649.000000	22.101709
1648.000000	22.072757
1647.000000	22.034086
1646.000000	22.009533
1645.000000	21.966053
1644.000000	21.934237
1643.000000	21.873468
1642.000000	21.828249
1641.000000	21.778427
1640.000000	21.718477
1639.000000	21.685944
1638.000000	21.626403
1637.000000	21.567271
1636.000000	21.512743
1635.000000	21.458931
1634.000000	21.379850
1633.000000	21.318570
1632.000000	21.245627
1631.000000	21.174832
1630.000000	21.102196
1629.000000	21.051658
1628.000000	20.996925
1627.000000	20.908637
1626.000000	20.843571
1625.000000	20.751395
1624.000000	20.701573
1623.000000	20.606225
1622.000000	20.564587
1621.000000	20.497067
1620.000000	20.419929
1619.000000	20.344429
1618.000000	20.277931
1617.000000	20.200077
1616.000000	20.147493
1615.000000	20.073732
1614.000000	20.017055
1613.000000	19.945340
1612.000000	19.903702
1611.000000	19.834953
1610.000000	19.753008
1609.000000	19.691216
1608.000000	19.625230
1607.000000	19.558118
1606.000000	19.494076
1605.000000	19.424918
1604.000000	19.370594
1603.000000	19.315862
1602.000000	19.236780
1601.000000	19.182457
1600.000000	19.124962
1599.000000	19.054986
1598.000000	19.006903
1597.000000	18.951454
1596.000000	18.887309
1595.000000	18.820914
1594.000000	18.754825
1593.000000	18.716256
1592.000000	18.667253
1591.000000	18.613441
1590.000000	18.548580
1589.000000	18.496507
1588.000000	18.452516
1587.000000	18.428781
1586.000000	18.370980
1585.000000	18.338038
1584.000000	18.294763
1583.000000	18.250158
1582.000000	18.213226
1581.000000	18.170054
1580.000000	18.135884
1579.000000	18.094349
1578.000000	18.070512
1577.000000	18.042276
1576.000000	18.013631
1575.000000	17.992045
1574.000000	17.985395
1573.000000	17.974448
1572.000000	17.953783
1571.000000	17.946008
1570.000000	17.941813
1569.000000	17.944780
1568.000000	17.928207
1567.000000	17.925342
1566.000000	17.926877
1565.000000	17.921455
1564.000000	17.934243
1563.000000	17.920943
1562.000000	17.926365
1561.000000	17.927797
1560.000000	17.905700
1559.000000	17.916339
1558.000000	17.915419
1557.000000	17.900278
1556.000000	17.888308
1555.000000	17.891991
1554.000000	17.902324
1553.000000	17.878078
1552.000000	17.850865
1551.000000	17.842067
1550.000000	17.832450
1549.000000	17.813421
1548.000000	17.793165
1547.000000	17.783651
1546.000000	17.756847
1545.000000	17.735772
1544.000000	17.727077
1543.000000	17.722677
1542.000000	17.715414
1541.000000	17.687792
1540.000000	17.674390
1539.000000	17.679198
1538.000000	17.670195
1537.000000	17.659965
1536.000000	17.636435
1535.000000	17.619759
1534.000000	17.604823
1533.000000	17.571472
1532.000000	17.548863
1531.000000	17.538632
1530.000000	17.519194
1529.000000	17.476022
1528.000000	17.437044
1527.000000	17.420368
1526.000000	17.381493
1525.000000	17.349472
1524.000000	17.318678
1523.000000	17.284713
1522.000000	17.254124
1521.000000	17.209519
1520.000000	17.175554
1519.000000	17.141999
1518.000000	17.095757
1517.000000	17.062201
1516.000000	17.016778
1515.000000	16.969718
1514.000000	16.933298
1513.000000	16.888693
1512.000000	16.839689
1511.000000	16.787719
1510.000000	16.730019
1509.000000	16.688688
1508.000000	16.659020
1507.000000	16.609096
1506.000000	16.544132
1505.000000	16.484796
1504.000000	16.437429
1503.000000	16.382083
1502.000000	16.332260
1501.000000	16.281108
1500.000000	16.232104
1499.000000	16.189137
1498.000000	16.140031
1497.000000	16.100030
1496.000000	16.063916
1495.000000	16.020335
1494.000000	15.973684
1493.000000	15.919156
1492.000000	15.874040
1491.000000	15.838335
1490.000000	15.809895
1489.000000	15.773168
1488.000000	15.735110
1487.000000	15.699815
1486.000000	15.671579
1485.000000	15.627691
1484.000000	15.597716
1483.000000	15.554441
1482.000000	15.523238
1481.000000	15.505540
1480.000000	15.480168
1479.000000	15.466050
1478.000000	15.440474
1477.000000	15.415819
1476.000000	15.402008
1475.000000	15.382058
1474.000000	15.361904
1473.000000	15.358938
1472.000000	15.355050
1471.000000	15.340932
1470.000000	15.329372
1469.000000	15.335817
1468.000000	15.332645
1467.000000	15.307786
1466.000000	15.313412
1465.000000	15.319551
1464.000000	15.325791
1463.000000	15.333669
1462.000000	15.340421
1461.000000	15.351572
1460.000000	15.380626
1459.000000	15.412340
1458.000000	15.431062
1457.000000	15.469529
1456.000000	15.506051
1455.000000	15.553827
1454.000000	15.597818
1453.000000	15.651937
1452.000000	15.726824
1451.000000	15.794651
1450.000000	15.866367
1449.000000	15.906675
1448.000000	15.974707
1447.000000	16.053379
1446.000000	16.127652
1445.000000	16.218191
1444.000000	16.304740
1443.000000	16.361519
1442.000000	16.448580
1441.000000	16.540859
1440.000000	16.616768
1439.000000	16.725006
1438.000000	16.823321
1437.000000	16.900970
1436.000000	17.038467
1435.000000	17.116422
1434.000000	17.211156
1433.000000	17.323793
1432.000000	17.451367
1431.000000	17.564413
1430.000000	17.656180
1429.000000	17.787743
1428.000000	17.939665
1427.000000	18.082482
1426.000000	18.219774
1425.000000	18.363818
1424.000000	18.533746
1423.000000	18.730886
1422.000000	18.884649
1421.000000	19.075958
1420.000000	19.272485
1419.000000	19.501646
1418.000000	19.700321
1417.000000	19.928766
1416.000000	20.103297
1415.000000	20.308622
1414.000000	20.563360
1413.000000	20.817790
1412.000000	21.040200
1411.000000	21.260461
1410.000000	21.541184
1409.000000	21.860680
1408.000000	22.177005
1407.000000	22.528011
1406.000000	22.871139
1405.000000	23.225214
1404.000000	23.631976
1403.000000	23.955257
1402.000000	24.299920
1401.000000	24.634557
1400.000000	25.060962
1399.000000	25.472122
1398.000000	25.740671
1397.000000	25.985894
1396.000000	26.275006
1395.000000	26.635629
1394.000000	26.936199
1393.000000	27.172112
1392.000000	27.422860
1391.000000	27.726090
1390.000000	28.025534
1389.000000	28.269530
1388.000000	28.671279
1387.000000	29.078450
1386.000000	29.507821
1385.000000	29.932690
1384.000000	30.415975
1383.000000	30.942331
1382.000000	31.478201
1381.000000	31.943071
1380.000000	32.293054
1379.000000	32.590657
1378.000000	32.809179
1377.000000	32.964681
1376.000000	33.156093
1375.000000	33.324997
1374.000000	33.537483
1373.000000	33.807668
1372.000000	34.119185
1371.000000	34.457505
1370.000000	34.784367
1369.000000	35.098134
1368.000000	35.413334
1367.000000	35.715643
1366.000000	35.934165
1365.000000	36.115448
1364.000000	36.332026
1363.000000	36.511570
1362.000000	36.706664
1361.000000	36.882934
1360.000000	37.021045
1359.000000	37.085292
1358.000000	37.184425
1357.000000	37.293584
1356.000000	37.452769
1355.000000	37.722852
1354.000000	38.032527
1353.000000	38.453305
1352.000000	38.820577
1351.000000	39.307443
1350.000000	39.774257
1349.000000	40.221429
1348.000000	40.605172
1347.000000	40.979299
1346.000000	41.332965
1345.000000	41.656246
1344.000000	42.011242
1343.000000	42.323577
1342.000000	42.640004
1341.000000	42.940983
1340.000000	43.233778
1339.000000	43.526982
1338.000000	43.812513
1337.000000	44.093952
1336.000000	44.381529
1335.000000	44.662764
1334.000000	44.914125
1333.000000	45.159451
1332.000000	45.420224
1331.000000	45.677315
1330.000000	45.905146
1329.000000	46.123464
1328.000000	46.338610
1327.000000	46.558871
1326.000000	46.743837
1325.000000	46.929314
1324.000000	47.119293
1323.000000	47.289016
1322.000000	47.459967
1321.000000	47.618845
1320.000000	47.776598
1319.000000	47.946116
1318.000000	48.063971
1317.000000	48.199422
1316.000000	48.325051
1315.000000	48.440962
1314.000000	48.569763
1313.000000	48.705930
1312.000000	48.813247
1311.000000	48.916574
1310.000000	49.030030
1309.000000	49.111362
1308.000000	49.193717
1307.000000	49.269217
1306.000000	49.327019
1305.000000	49.394847
1304.000000	49.460628
1303.000000	49.503187
1302.000000	49.544313
1301.000000	49.582984
1300.000000	49.613369
1299.000000	49.636592
1298.000000	49.668511
1297.000000	49.693780
1296.000000	49.722016
1295.000000	49.737362
1294.000000	49.746057
1293.000000	49.747080
1292.000000	49.758129
1291.000000	49.744727
1290.000000	49.736748
1289.000000	49.730916
1288.000000	49.708205
1287.000000	49.683345
1286.000000	49.640070
1285.000000	49.622372
1284.000000	49.590248
1283.000000	49.551986
1282.000000	49.505438
1281.000000	49.456332
1280.000000	49.414489
1279.000000	49.380524
1278.000000	49.333567
1277.000000	49.288450
1276.000000	49.237708
1275.000000	49.209983
1274.000000	49.178780
1273.000000	49.145838
1272.000000	49.099801
1271.000000	49.077704
1270.000000	49.052537
1269.000000	49.023892
1268.000000	48.992382
1267.000000	48.969773
1266.000000	48.932943
1265.000000	48.900308
1264.000000	48.871356
1263.000000	48.838823
1262.000000	48.808234
1261.000000	48.769052
1260.000000	48.722503
1259.000000	48.692937
1258.000000	48.663576
1257.000000	48.608639
1256.000000	48.559123
1255.000000	48.539993
1254.000000	48.504902
1253.000000	48.436358
1252.000000	48.360653
1251.000000	48.303260
1250.000000	48.244436
1249.000000	48.175176
1248.000000	48.110110
1247.000000	48.016195
1246.000000	47.918494
1245.000000	47.834809
1244.000000	47.732096
1243.000000	47.616594
1242.000000	47.506720
1241.000000	47.380783
1240.000000	47.244411
1239.000000	47.120521
1238.000000	46.991413
1237.000000	46.847880
1236.000000	46.708133
1235.000000	46.559587
1234.000000	46.406642
1233.000000	46.250321
1232.000000	46.089806
1231.000000	45.920594
1230.000000	45.742380
1229.000000	45.568361
1228.000000	45.404674
1227.000000	45.225539
1226.000000	45.031264
1225.000000	44.844354
1224.000000	44.665014
1223.000000	44.484959
1222.000000	44.294161
1221.000000	44.107661
1220.000000	43.925457
1219.000000	43.758189
1218.000000	43.596242
1217.000000	43.430509
1216.000000	43.264162
1215.000000	43.123187
1214.000000	42.986304
1213.000000	42.847886
1212.000000	42.712231
1211.000000	42.582304
1210.000000	42.458823
1209.000000	42.347311
1208.000000	42.235595
1207.000000	42.135542
1206.000000	42.056153
1205.000000	41.989553
1204.000000	41.931752
1203.000000	41.884078
1202.000000	41.856251
1201.000000	41.828322
1200.000000	41.791697
1199.000000	41.742489
1198.000000	41.669443
1197.000000	41.578290
1196.000000	41.454400
1195.000000	41.289076
1194.000000	41.077920
1193.000000	40.808144
1192.000000	40.476985
1191.000000	40.113396
1190.000000	39.709601
1189.000000	39.325448
1188.000000	38.977921
1187.000000	38.733925
1186.000000	38.587016
1185.000000	38.529112
1184.000000	38.613104
1183.000000	38.795410
1182.000000	39.106108
1181.000000	39.514916
1180.000000	39.947867
1179.000000	40.399950
1178.000000	40.858989
1177.000000	41.269741
1176.000000	41.647243
1175.000000	41.963773
1174.000000	42.275903
1173.000000	42.565629
1172.000000	42.837042
1171.000000	43.142625
1170.000000	43.463860
1169.000000	43.773228
1168.000000	44.078504
1167.000000	44.398000
1166.000000	44.721179
1165.000000	45.066354
1164.000000	45.405186
1163.000000	45.742176
1162.000000	46.094716
1161.000000	46.452883
1160.000000	46.793864
1159.000000	47.130240
1158.000000	47.462319
1157.000000	47.792148
1156.000000	48.081363
1155.000000	48.345921
1154.000000	48.551144
1153.000000	48.757696
1152.000000	48.880768
1151.000000	48.963430
1150.000000	49.058470
1149.000000	49.118932
1148.000000	49.192182
1147.000000	49.276276
1146.000000	49.378069
1145.000000	49.525489
1144.000000	49.750150
1143.000000	50.003148
1142.000000	50.302899
1141.000000	50.635184
1140.000000	50.983939
1139.000000	51.325533
1138.000000	51.689327
1137.000000	52.061510
1136.000000	52.463054
1135.000000	52.872271
1134.000000	53.286501
1133.000000	53.646305
1132.000000	53.988206
1131.000000	54.313942
1130.000000	54.629449
1129.000000	54.889711
1128.000000	55.096570
1127.000000	55.292994
1126.000000	55.431821
1125.000000	55.565328
1124.000000	55.667223
1123.000000	55.772187
1122.000000	55.838378
1121.000000	55.886154
1120.000000	55.943240
1119.000000	55.961859
1118.000000	55.994187
1117.000000	56.009942
1116.000000	56.023753
1115.000000	56.026311
1114.000000	56.025083
1113.000000	56.015671
1112.000000	56.011477
1111.000000	55.999200
1110.000000	56.000735
1109.000000	55.995722
1108.000000	55.996438
1107.000000	55.990300
1106.000000	55.987742
1105.000000	55.969430
1104.000000	55.953982
1103.000000	55.967895
1102.000000	55.944161
1101.000000	55.933828
1100.000000	55.928406
1099.000000	55.922779
1098.000000	55.896180
1097.000000	55.883085
1096.000000	55.873775
1095.000000	55.858532
1094.000000	55.825590
1093.000000	55.804004
1092.000000	55.776382
1091.000000	55.738427
1090.000000	55.720012
1089.000000	55.678476
1088.000000	55.644921
1087.000000	55.613206
1086.000000	55.557860
1085.000000	55.533818
1084.000000	55.506912
1083.000000	55.454839
1082.000000	55.409723
1081.000000	55.349364
1080.000000	55.303327
1079.000000	55.275909
1078.000000	55.245729
1077.000000	55.184654
1076.000000	55.142504
1075.000000	55.117440
1074.000000	55.063935
1073.000000	55.012373
1072.000000	54.953139
1071.000000	54.920197
1070.000000	54.859122
1069.000000	54.813392
1068.000000	54.772879
1067.000000	54.690831
1066.000000	54.655332
1065.000000	54.605509
1064.000000	54.561416
1063.000000	54.500750
1062.000000	54.439572
1061.000000	54.385351
1060.000000	54.323457
1059.000000	54.257880
1058.000000	54.202431
1057.000000	54.137467
1056.000000	54.085190
1055.000000	53.998129
1054.000000	53.942578
1053.000000	53.865952
1052.000000	53.808150
1051.000000	53.729376
1050.000000	53.697252
1049.000000	53.638939
1048.000000	53.569577
1047.000000	53.523949
1046.000000	53.470853
1045.000000	53.420928
1044.000000	53.360262
1043.000000	53.321182
1042.000000	53.273713
1041.000000	53.222151
1040.000000	53.168646
1039.000000	53.120768
1038.000000	53.069309
1037.000000	53.023783
1036.000000	52.966186
1035.000000	52.919842
1034.000000	52.866337
1033.000000	52.807410
1032.000000	52.735081
1031.000000	52.687714
1030.000000	52.634516
1029.000000	52.577737
1028.000000	52.495791
1027.000000	52.437478
1026.000000	52.378244
1025.000000	52.332616
1024.000000	52.266220
1023.000000	52.193994
1022.000000	52.119516
1021.000000	52.081868
1020.000000	52.025089
1019.000000	51.980689
1018.000000	51.937108
1017.000000	51.881045
1016.000000	51.819969
1015.000000	51.793165
1014.000000	51.775058
1013.000000	51.758996
1012.000000	51.742627
1011.000000	51.735568
1010.000000	51.745594
1009.000000	51.747538
1008.000000	51.758484
1007.000000	51.783958
1006.000000	51.804419
1005.000000	51.828665
1004.000000	51.850660
1003.000000	51.890048
1002.000000	51.922990
1001.000000	51.952556
1000.000000	51.990203
999.000000	52.029795
998.000000	52.078390
997.000000	52.112662
996.000000	52.153788
995.000000	52.193073
994.000000	52.231130
993.000000	52.283817
992.000000	52.329956
991.000000	52.373844
990.000000	52.411390
989.000000	52.461519
988.000000	52.490880
987.000000	52.532825
986.000000	52.573133
985.000000	52.619579
984.000000	52.652214
983.000000	52.672880
982.000000	52.704185
981.000000	52.755235
980.000000	52.788586
979.000000	52.818356
978.000000	52.851810
977.000000	52.891504
976.000000	52.910533
975.000000	52.929357
974.000000	52.960150
973.000000	52.995138
972.000000	53.033400
971.000000	53.072378
970.000000	53.096010
969.000000	53.129668
968.000000	53.170181
967.000000	53.213558
966.000000	53.279237
965.000000	53.333254
964.000000	53.391363
963.000000	53.478014
962.000000	53.569679
961.000000	53.664822
960.000000	53.777663
959.000000	53.898485
958.000000	54.010917
957.000000	54.149949
956.000000	54.290617
955.000000	54.421259
954.000000	54.574307
953.000000	54.723569
952.000000	54.880912
951.000000	55.035903
950.000000	55.189462
949.000000	55.368085
948.000000	55.549368
947.000000	55.700574
946.000000	55.854644
945.000000	56.023344
944.000000	56.184064
943.000000	56.333428
942.000000	56.467856
941.000000	56.606581
940.000000	56.744282
939.000000	56.872060
938.000000	56.988585
937.000000	57.106644
936.000000	57.239742
935.000000	57.365167
934.000000	57.484658
933.000000	57.597090
932.000000	57.709114
931.000000	57.833311
930.000000	57.928045
929.000000	58.021244
928.000000	58.134392
927.000000	58.248666
926.000000	58.354551
925.000000	58.449183
924.000000	58.532663
923.000000	58.636092
922.000000	58.771543
921.000000	58.885919
920.000000	58.999477
919.000000	59.137076
918.000000	59.255647
917.000000	59.387415
916.000000	59.536063
915.000000	59.671514
914.000000	59.825482
913.000000	59.975767
912.000000	60.140476
911.000000	60.307949
910.000000	60.470715
909.000000	60.652100
908.000000	60.852003
907.000000	61.039833
906.000000	61.247613
905.000000	61.446902
904.000000	61.660513
903.000000	61.877398
902.000000	62.095306
901.000000	62.325798
900.000000	62.553629
899.000000	62.797625
898.000000	63.014510
897.000000	63.245513
896.000000	63.463216
895.000000	63.667211
894.000000	63.890337
893.000000	64.108142
892.000000	64.301600
891.000000	64.498638
890.000000	64.691174
889.000000	64.871537
888.000000	65.059674
887.000000	65.256508
886.000000	65.440144
885.000000	65.617642
884.000000	65.798822
883.000000	65.973763
882.000000	66.150647
881.000000	66.309423
880.000000	66.465846
879.000000	66.635569
878.000000	66.785547
877.000000	66.899514
876.000000	66.999465
875.000000	67.108215
874.000000	67.189751
873.000000	67.214611
872.000000	67.251031
871.000000	67.353336
870.000000	67.567356
869.000000	67.806237
868.000000	68.039695
867.000000	68.267220
866.000000	68.511113
865.000000	68.762884
864.000000	69.004219
863.000000	69.238087
862.000000	69.501930
861.000000	69.791451
860.000000	70.065319
859.000000	70.324149
858.000000	70.617967
857.000000	70.245500
856.000000	70.578300
855.000000	71.030100
854.000000	71.088700
853.000000	71.066500
852.000000	71.617000
851.000000	71.747300
850.000000	72.840600
849.000000	72.662300
848.000000	73.001500
847.000000	73.281800
846.000000	73.454600
845.000000	74.252100
844.000000	74.772500
843.000000	75.133200
842.000000	75.401800
841.000000	75.719900
840.000000	76.139400
839.000000	76.514600
838.000000	76.527900
837.000000	76.728200
836.000000	77.233700
835.000000	77.271100
834.000000	77.432800
833.000000	77.597200
832.000000	77.854800
831.000000	78.269700
830.000000	78.645700
829.000000	78.849900
828.000000	78.991300
827.000000	79.012300
826.000000	79.109900
825.000000	79.394400
824.000000	79.695100
823.000000	80.043200
822.000000	80.129200
821.000000	80.399000
820.000000	80.811100
819.000000	81.165900
818.000000	81.128300
817.000000	81.290000
816.000000	81.716800
815.000000	81.502100
814.000000	81.943600
813.000000	82.372600
812.000000	82.307100
811.000000	82.608400
810.000000	82.835500
809.000000	82.958600
808.000000	82.976700
807.000000	83.262000
806.000000	83.435000
805.000000	83.255000
804.000000	83.518200
803.000000	83.509300
802.000000	83.578800
801.000000	83.656300
800.000000	83.617800
799.000000	83.383000
798.000000	83.355000
797.000000	83.226700
796.000000	83.312500
795.000000	83.290500
794.000000	83.180600
793.000000	83.025100
792.000000	83.091600
791.000000	83.053100
790.000000	83.129600
789.000000	83.246000
788.000000	83.291500
787.000000	83.290800
786.000000	83.378200
785.000000	83.454300
784.000000	83.596300
783.000000	83.737300
782.000000	83.947200
781.000000	84.008400
780.000000	84.108100
779.000000	84.332200
778.000000	84.346500
777.000000	84.658300
776.000000	84.677400
775.000000	84.725700
774.000000	84.936000
773.000000	85.101500
772.000000	85.245100
771.000000	85.328400
770.000000	85.448200
769.000000	85.518600
768.000000	85.563100
767.000000	85.730200
766.000000	85.775700
765.000000	85.770000
764.000000	85.710800
763.000000	85.671700
762.000000	85.605200
761.000000	85.583100
760.000000	85.461100
759.000000	85.400400
758.000000	85.110500
757.000000	85.056200
756.000000	84.741800
755.000000	84.714200
754.000000	84.515900
753.000000	84.294100
752.000000	84.097000
751.000000	83.840900
750.000000	83.655100
749.000000	83.518200
748.000000	83.296800
747.000000	83.036900
746.000000	82.811200
745.000000	82.595100
744.000000	82.404900
743.000000	82.120500
742.000000	81.927000
741.000000	81.567100
740.000000	81.280600
739.000000	80.883500
738.000000	80.397300
737.000000	80.088800
736.000000	79.869500
735.000000	79.386800
734.000000	79.003900
733.000000	78.644200
732.000000	78.180000
731.000000	77.813700
730.000000	77.448400
729.000000	76.970800
728.000000	76.611100
727.000000	76.396500
726.000000	76.046200
725.000000	75.646500
724.000000	75.442500
723.000000	75.192600
722.000000	74.884400
721.000000	74.673000
720.000000	74.421500
719.000000	74.184700
718.000000	74.046200
717.000000	73.845800
716.000000	73.618200
715.000000	73.440800
714.000000	73.273400
713.000000	73.127000
712.000000	72.968600
711.000000	72.873700
710.000000	72.723600
709.000000	72.642000
708.000000	72.553500
707.000000	72.554300
706.000000	72.434900
705.000000	72.356100
704.000000	72.344600
703.000000	72.336200
702.000000	72.222300
701.000000	72.127600
700.000000	72.210200
699.000000	72.158700
698.000000	72.020200
697.000000	71.953100
696.000000	71.788800
695.000000	71.566300
694.000000	71.340500
693.000000	71.147700
692.000000	70.912000
691.000000	70.629700
690.000000	70.369400
689.000000	70.102300
688.000000	69.854100
687.000000	69.682500
686.000000	69.454600
685.000000	69.198400
684.000000	68.983400
683.000000	68.809800
682.000000	68.620600
681.000000	68.325500
680.000000	68.071300
679.000000	67.826900
678.000000	67.496100
677.000000	67.161800
676.000000	66.740600
675.000000	66.229200
674.000000	65.636400
673.000000	64.978200
672.000000	64.367600
671.000000	63.719100
670.000000	62.948300
669.000000	62.195800
668.000000	61.430600
667.000000	60.689600
666.000000	59.982700
665.000000	59.290500
664.000000	58.575000
663.000000	57.911800
662.000000	57.257500
661.000000	56.590300
660.000000	56.018600
659.000000	55.461400
658.000000	54.886800
657.000000	54.399300
656.000000	53.917000
655.000000	53.487600
654.000000	53.175300
653.000000	52.963100
652.000000	52.831000
651.000000	52.825700
650.000000	53.003700
649.000000	53.300300
648.000000	53.726700
647.000000	54.318100
646.000000	55.067700
645.000000	55.968000
644.000000	56.995400
643.000000	58.097900
642.000000	59.299500
641.000000	60.549600
640.000000	61.804500
639.000000	63.091700
638.000000	64.390800
637.000000	65.668500
636.000000	66.905900
635.000000	68.081800
634.000000	69.255500
633.000000	70.388100
632.000000	71.464500
631.000000	72.495200
630.000000	73.503200
629.000000	74.486000
628.000000	75.404200
627.000000	76.265700
626.000000	77.080100
625.000000	77.852400
624.000000	78.607100
623.000000	79.348600
622.000000	80.085100
621.000000	80.750100
620.000000	81.391400
619.000000	82.050700
618.000000	82.678900
617.000000	83.251300
616.000000	83.798100
615.000000	84.352800
614.000000	84.866600
613.000000	85.321200
612.000000	85.756900
611.000000	86.200400
610.000000	86.609300
609.000000	86.970000
608.000000	87.286700
607.000000	87.575000
606.000000	87.865600
605.000000	88.130900
604.000000	88.360200
603.000000	88.554000
602.000000	88.748100
601.000000	88.912100
600.000000	88.981400
599.000000	89.101600
598.000000	89.217400
597.000000	89.300500
596.000000	89.369300
595.000000	89.463000
594.000000	89.526100
593.000000	89.534500
592.000000	89.589000
591.000000	89.640000
590.000000	89.664300
589.000000	89.656800
588.000000	89.660300
587.000000	89.701100
586.000000	89.700300
585.000000	89.651400
584.000000	89.670800
583.000000	89.651400
582.000000	89.633700
581.000000	89.620200
580.000000	89.505100
579.000000	89.433000
578.000000	89.322800
577.000000	89.175300
576.000000	89.045700
575.000000	88.870900
574.000000	88.609700
573.000000	88.361000
572.000000	88.105700
571.000000	87.809300
570.000000	87.497300
569.000000	87.181400
568.000000	86.835100
567.000000	86.531600
566.000000	86.175100
565.000000	85.815400
564.000000	85.470400
563.000000	85.083800
562.000000	84.701400
561.000000	84.310500
560.000000	83.856000
559.000000	83.412600
558.000000	82.961300
557.000000	82.500600
556.000000	81.974500
555.000000	81.470900
554.000000	80.906200
553.000000	80.311300
552.000000	79.710300
551.000000	79.026900
550.000000	78.340800
549.000000	77.613100
548.000000	76.907300
547.000000	76.073200
546.000000	75.199700
545.000000	74.341000
544.000000	73.364300
543.000000	72.318900
542.000000	71.256100
541.000000	70.106900
540.000000	68.936600
539.000000	67.629500
538.000000	66.348800
537.000000	64.982800
536.000000	63.550000
535.000000	62.103900
534.000000	60.578200
533.000000	59.012400
532.000000	57.422600
531.000000	55.873200
530.000000	54.314200
529.000000	52.779100
528.000000	51.333000
527.000000	49.930800
526.000000	48.592000
525.000000	47.358900
524.000000	46.175800
523.000000	45.077000
522.000000	44.083500
521.000000	43.183300
520.000000	42.371200
519.000000	41.660300
518.000000	41.006200
517.000000	40.460600
516.000000	39.968300
515.000000	39.544200
514.000000	39.150800
513.000000	38.781900
512.000000	38.476800
511.000000	38.204400
510.000000	37.949000
509.000000	37.732900
508.000000	37.477400
507.000000	37.242500
506.000000	37.011000
505.000000	36.723700
504.000000	36.439700
503.000000	36.120700
502.000000	35.752000
501.000000	35.399900
500.000000	34.985900
499.000000	34.534800
498.000000	34.069100
497.000000	33.517500
496.000000	33.029500
495.000000	32.419700
494.000000	31.821300
493.000000	31.204300
492.000000	30.603000
491.000000	29.981300
490.000000	29.370200
489.000000	28.780300
488.000000	28.227200
487.000000	27.761700
486.000000	27.337600
485.000000	26.959100
484.000000	26.671200
483.000000	26.405300
482.000000	26.197200
481.000000	26.095900
480.000000	26.029300
479.000000	26.001000
478.000000	26.031300
477.000000	26.135900
476.000000	26.238400
475.000000	26.384800
474.000000	26.577500
473.000000	26.746000
472.000000	26.966400
471.000000	27.177600
470.000000	27.359000
469.000000	27.529600
468.000000	27.740600
467.000000	27.925400
466.000000	28.107700
465.000000	28.248700
464.000000	28.391400
463.000000	28.484600
462.000000	28.546500
461.000000	28.611600
460.000000	28.653100
459.000000	28.741300
458.000000	28.715800
457.000000	28.696800
456.000000	28.680200
455.000000	28.641900
454.000000	28.544300
453.000000	28.462000
452.000000	28.355000
451.000000	28.237400
450.000000	28.086000
449.000000	27.897100
448.000000	27.715800
447.000000	27.559600
446.000000	27.312000
445.000000	27.107500
444.000000	26.883400
443.000000	26.627200
442.000000	26.323000
441.000000	26.045300
440.000000	25.777400
439.000000	25.465600
438.000000	25.125000
437.000000	24.762100
436.000000	24.434100
435.000000	24.097800
434.000000	23.699800
433.000000	23.358200
432.000000	22.926600
431.000000	22.526300
430.000000	22.103900
429.000000	21.648400
428.000000	21.238700
427.000000	20.750300
426.000000	20.289500
425.000000	19.805500
424.000000	19.316600
423.000000	18.796500
422.000000	18.291800
421.000000	17.791800
420.000000	17.309100
419.000000	16.770500
418.000000	16.251300
417.000000	15.747500
416.000000	15.249900
415.000000	14.769700
414.000000	14.258400
413.000000	13.779900
412.000000	13.308600
411.000000	12.862300
410.000000	12.435900
409.000000	12.031400
408.000000	11.643600
407.000000	11.258800
406.000000	10.915700
405.000000	10.584300
404.000000	10.300600
403.000000	10.009000
402.000000	9.716800
401.000000	9.458400
400.000000	9.241100
399.000000	9.028200
398.000000	8.837400
397.000000	8.656400
396.000000	8.485000
395.000000	8.317700
394.000000	8.167400
393.000000	8.054900
392.000000	7.923500
391.000000	7.810800
390.000000	7.696100
389.000000	7.584800
388.000000	7.500300
387.000000	7.424400
386.000000	7.348600
385.000000	7.248300
384.000000	7.189800
383.000000	7.131400
382.000000	7.061900
381.000000	6.972400
380.000000	6.923900
379.000000	6.873200
378.000000	6.838400
377.000000	6.778300
376.000000	6.740500
375.000000	6.694800
374.000000	6.621800
373.000000	6.551300
372.000000	6.466100
371.000000	6.536900
370.000000	6.462900
369.000000	6.423000
368.000000	6.446600
367.000000	6.422600
366.000000	6.351600
365.000000	6.359300
364.000000	6.315800
363.000000	6.268900
362.000000	6.198900
361.000000	6.211800
360.000000	6.196300
359.000000	6.070600
358.000000	6.020400
357.000000	6.006800
356.000000	5.975700
355.000000	5.911000
354.000000	5.888800
353.000000	5.839900
352.000000	5.822200
351.000000	5.839900
350.000000	5.821500
349.000000	5.832900
348.000000	5.693100
347.000000	5.661700
346.000000	5.732400
345.000000	5.692700
344.000000	5.652400
343.000000	5.667500
342.000000	5.662600
341.000000	5.685900
340.000000	5.715100
339.000000	5.648200
338.000000	5.541300
337.000000	5.613900
336.000000	5.741600
335.000000	5.663400
334.000000	5.544600
333.000000	5.557800
332.000000	5.556200
331.000000	5.558900
330.000000	5.616100
329.000000	5.666800
328.000000	5.576300
327.000000	5.525700
326.000000	5.580300
325.000000	5.695900
324.000000	5.711100
323.000000	5.566800
322.000000	5.509100
321.000000	5.688200
320.000000	5.727600
319.000000	5.544400
318.000000	5.498300
317.000000	5.425400
316.000000	5.421800
315.000000	5.473100
314.000000	5.480600
313.000000	5.514500
312.000000	5.524800
311.000000	5.513100
310.000000	5.490100
309.000000	5.507000
308.000000	5.553000
307.000000	5.557000
306.000000	5.537800
305.000000	5.527500
304.000000	5.520300
303.000000	5.554300
302.000000	5.560100
301.000000	5.564800
300.000000	5.545500
299.000000	5.570700
298.000000	5.569000
297.000000	5.577200
296.000000	5.607000
295.000000	5.599300
294.000000	5.607900
293.000000	5.609000
292.000000	5.598300
291.000000	5.616800
290.000000	5.590600
289.000000	5.622000
288.000000	5.635000
287.000000	5.675400
286.000000	5.675300
285.000000	5.665100
284.000000	5.640900
283.000000	5.672400
282.000000	5.683800
281.000000	5.672400
280.000000	5.685300
279.000000	5.701300
278.000000	5.706900
277.000000	5.709300
276.000000	5.730400
275.000000	5.746100
274.000000	5.742200
273.000000	5.762700
272.000000	5.786000
271.000000	5.829800
270.000000	5.808300
269.000000	5.822700
268.000000	5.857100
267.000000	5.905000
266.000000	5.896800
265.000000	5.897800
264.000000	5.908300
263.000000	5.967700
262.000000	5.997000
261.000000	5.979600
260.000000	6.043000
259.000000	6.060000
258.000000	6.065300
257.000000	6.075300
256.000000	6.096100
255.000000	6.111200
254.000000	6.139800
253.000000	6.134600
252.000000	6.191000
251.000000	6.180400
250.000000	6.158200
