PE UV       SUBTECH     SPECTRUM    ASCII       PEDS        4.00        
   -1
CICIMAUCR0238-3.Sample.ASC
24/06/20
12:09:23.00
24/06/20
12:09:23.00
Vinicio Soto Monge
C. cupreomarginata. Sex M. Dorsal.
250,000000
1
Lambda 1050
1050L1511233
PerkinElmer UV WinLab 6.3.2.0749 / 2.02.05 Lambda 900 UV/VIS/NIR, Aug  7 2015 09:38:08

0
0
3350/servo 860,8/2
0
0
UV/VIS
1
1
1
DoubleDePol,CommonBeamDepol,RBeamAtt,SBeamAtt,60mm sphere, WB InGaAs Detector
0
0
0
0
Program
Program
3350/servo 860,8/2
3350/0,2 860,8/0,2
3350/0,2 860,8/0,2
0
15.00
 
 
 
0
 
860,8
319,2
860,8
Front
100
on
S:100 R:100
0
0
0
0
 
0
 
 
 
0
 
 
0
0
0
0
0
 
 
 
 
0
0


0
0
#HDR
-1
-1
#GR
nm
%R
1.0
0.0
2500,000000
-1,000000
2251
8
74,014800
5,227200
#DATA
2482.000000	12.248405
2481.000000	12.345581
2480.000000	12.252346
2479.000000	12.292792
2478.000000	12.321105
2477.000000	12.345788
2476.000000	12.359996
2475.000000	12.298496
2474.000000	12.346929
2473.000000	12.330335
2472.000000	12.362174
2471.000000	12.396709
2470.000000	12.393909
2469.000000	12.432593
2468.000000	12.435600
2467.000000	12.443897
2466.000000	12.495648
2465.000000	12.512138
2464.000000	12.529872
2463.000000	12.601743
2462.000000	12.606721
2461.000000	12.661169
2460.000000	12.704623
2459.000000	12.752329
2458.000000	12.810303
2457.000000	12.825133
2456.000000	12.917850
2455.000000	12.999365
2454.000000	13.067917
2453.000000	13.169553
2452.000000	13.227941
2451.000000	13.295456
2450.000000	13.370334
2449.000000	13.458591
2448.000000	13.551930
2447.000000	13.626082
2446.000000	13.712990
2445.000000	13.793158
2444.000000	13.896556
2443.000000	13.964175
2442.000000	14.054402
2441.000000	14.173253
2440.000000	14.244709
2439.000000	14.335766
2438.000000	14.407637
2437.000000	14.501183
2436.000000	14.585810
2435.000000	14.646480
2434.000000	14.695327
2433.000000	14.763049
2432.000000	14.828905
2431.000000	14.900568
2430.000000	14.967046
2429.000000	15.029790
2428.000000	15.076045
2427.000000	15.158079
2426.000000	15.216052
2425.000000	15.263863
2424.000000	15.314888
2423.000000	15.385514
2422.000000	15.442139
2421.000000	15.483208
2420.000000	15.530707
2419.000000	15.572087
2418.000000	15.614712
2417.000000	15.649973
2416.000000	15.686375
2415.000000	15.734081
2414.000000	15.773802
2413.000000	15.822338
2412.000000	15.853140
2411.000000	15.886327
2410.000000	15.914640
2409.000000	15.947101
2408.000000	15.981429
2407.000000	16.013890
2406.000000	16.043447
2405.000000	16.063463
2404.000000	16.085760
2403.000000	16.124859
2402.000000	16.160224
2401.000000	16.185736
2400.000000	16.218923
2399.000000	16.249933
2398.000000	16.276690
2397.000000	16.286957
2396.000000	16.317862
2395.000000	16.336945
2394.000000	16.349701
2393.000000	16.370754
2392.000000	16.393570
2391.000000	16.414208
2390.000000	16.440136
2389.000000	16.452477
2388.000000	16.463782
2387.000000	16.476953
2386.000000	16.491161
2385.000000	16.489398
2384.000000	16.483901
2383.000000	16.479960
2382.000000	16.481101
2381.000000	16.463885
2380.000000	16.447707
2379.000000	16.452581
2378.000000	16.447707
2377.000000	16.433706
2376.000000	16.420120
2375.000000	16.404252
2374.000000	16.379466
2373.000000	16.350323
2372.000000	16.339641
2371.000000	16.320248
2370.000000	16.289031
2369.000000	16.275653
2368.000000	16.243399
2367.000000	16.209071
2366.000000	16.181277
2365.000000	16.131600
2364.000000	16.078293
2363.000000	16.035980
2362.000000	15.999267
2361.000000	15.941293
2360.000000	15.896491
2359.000000	15.862681
2358.000000	15.823686
2357.000000	15.771417
2356.000000	15.732941
2355.000000	15.702346
2354.000000	15.658062
2353.000000	15.646758
2352.000000	15.641054
2351.000000	15.629646
2350.000000	15.613260
2349.000000	15.601230
2348.000000	15.616267
2347.000000	15.640847
2346.000000	15.658685
2345.000000	15.679530
2344.000000	15.708154
2343.000000	15.737711
2342.000000	15.770898
2341.000000	15.794544
2340.000000	15.814664
2339.000000	15.838932
2338.000000	15.863822
2337.000000	15.886223
2336.000000	15.908002
2335.000000	15.915884
2334.000000	15.917958
2333.000000	15.904061
2332.000000	15.881556
2331.000000	15.867659
2330.000000	15.845258
2329.000000	15.812175
2328.000000	15.770587
2327.000000	15.730970
2326.000000	15.682227
2325.000000	15.634624
2324.000000	15.577688
2323.000000	15.519506
2322.000000	15.454066
2321.000000	15.374935
2320.000000	15.296635
2319.000000	15.209311
2318.000000	15.113899
2317.000000	15.015997
2316.000000	14.919651
2315.000000	14.813971
2314.000000	14.715032
2313.000000	14.596803
2312.000000	14.500353
2311.000000	14.406185
2310.000000	14.315024
2309.000000	14.248754
2308.000000	14.179994
2307.000000	14.131562
2306.000000	14.107087
2305.000000	14.106879
2304.000000	14.107709
2303.000000	14.122747
2302.000000	14.162571
2301.000000	14.213700
2300.000000	14.276133
2299.000000	14.336803
2298.000000	14.418630
2297.000000	14.504709
2296.000000	14.580728
2295.000000	14.656332
2294.000000	14.722499
2293.000000	14.812311
2292.000000	14.861988
2291.000000	14.938941
2290.000000	14.978972
2289.000000	15.007493
2288.000000	15.032694
2287.000000	15.059140
2286.000000	15.081126
2285.000000	15.075422
2284.000000	15.086830
2283.000000	15.093468
2282.000000	15.066296
2281.000000	15.031968
2280.000000	15.016826
2279.000000	14.995462
2278.000000	14.990277
2277.000000	14.967876
2276.000000	14.930333
2275.000000	14.931992
2274.000000	14.904613
2273.000000	14.900464
2272.000000	14.915606
2271.000000	14.903472
2270.000000	14.939667
2269.000000	15.004381
2268.000000	15.032487
2267.000000	15.127070
2266.000000	15.211697
2265.000000	15.321110
2264.000000	15.417871
2263.000000	15.564309
2262.000000	15.729000
2261.000000	15.907691
2260.000000	16.085760
2259.000000	16.277208
2258.000000	16.480790
2257.000000	16.699306
2256.000000	16.929126
2255.000000	17.145049
2254.000000	17.353609
2253.000000	17.579800
2252.000000	17.805886
2251.000000	18.008846
2250.000000	18.191686
2249.000000	18.378985
2248.000000	18.579456
2247.000000	18.759495
2246.000000	18.925223
2245.000000	19.049260
2244.000000	19.184704
2243.000000	19.311126
2242.000000	19.434022
2241.000000	19.538872
2240.000000	19.628063
2239.000000	19.720779
2238.000000	19.807169
2237.000000	19.890033
2236.000000	19.942406
2235.000000	19.999550
2234.000000	20.049434
2233.000000	20.092163
2232.000000	20.150862
2231.000000	20.180316
2230.000000	20.198776
2229.000000	20.216407
2228.000000	20.222733
2227.000000	20.208525
2226.000000	20.223044
2225.000000	20.206762
2224.000000	20.188613
2223.000000	20.181560
2222.000000	20.145988
2221.000000	20.102222
2220.000000	20.068724
2219.000000	20.030663
2218.000000	20.004010
2217.000000	19.938050
2216.000000	19.909115
2215.000000	19.854668
2214.000000	19.824281
2213.000000	19.792027
2212.000000	19.747017
2211.000000	19.701489
2210.000000	19.675354
2209.000000	19.643723
2208.000000	19.599750
2207.000000	19.557851
2206.000000	19.548103
2205.000000	19.531509
2204.000000	19.508797
2203.000000	19.475091
2202.000000	19.461920
2201.000000	19.455905
2200.000000	19.442526
2199.000000	19.418777
2198.000000	19.399902
2197.000000	19.384967
2196.000000	19.353336
2195.000000	19.357381
2194.000000	19.326060
2193.000000	19.304904
2192.000000	19.328031
2191.000000	19.312889
2190.000000	19.289970
2189.000000	19.295466
2188.000000	19.289970
2187.000000	19.260101
2186.000000	19.249212
2185.000000	19.221418
2184.000000	19.212395
2183.000000	19.209491
2182.000000	19.190616
2181.000000	19.182319
2180.000000	19.158673
2179.000000	19.145191
2178.000000	19.134924
2177.000000	19.133368
2176.000000	19.115945
2175.000000	19.124034
2174.000000	19.130568
2173.000000	19.116256
2172.000000	19.128183
2171.000000	19.139798
2170.000000	19.160644
2169.000000	19.170185
2168.000000	19.177030
2167.000000	19.186986
2166.000000	19.220795
2165.000000	19.242159
2164.000000	19.272443
2163.000000	19.307496
2162.000000	19.344417
2161.000000	19.380612
2160.000000	19.412451
2159.000000	19.451756
2158.000000	19.496352
2157.000000	19.551940
2156.000000	19.613854
2155.000000	19.659383
2154.000000	19.713830
2153.000000	19.774397
2152.000000	19.828118
2151.000000	19.870432
2150.000000	19.930065
2149.000000	19.992290
2148.000000	20.056590
2147.000000	20.133958
2146.000000	20.188820
2145.000000	20.253535
2144.000000	20.288174
2143.000000	20.332250
2142.000000	20.400387
2141.000000	20.466450
2140.000000	20.488437
2139.000000	20.533550
2138.000000	20.590487
2137.000000	20.648979
2136.000000	20.690878
2135.000000	20.731947
2134.000000	20.771149
2133.000000	20.812736
2132.000000	20.840012
2131.000000	20.881911
2130.000000	20.889689
2129.000000	20.914061
2128.000000	20.944344
2127.000000	20.956789
2126.000000	20.971827
2125.000000	20.984687
2124.000000	20.987279
2123.000000	20.981990
2122.000000	20.977012
2121.000000	20.964152
2120.000000	20.966123
2119.000000	20.974523
2118.000000	20.960834
2117.000000	20.950670
2116.000000	20.942581
2115.000000	20.925054
2114.000000	20.925365
2113.000000	20.899749
2112.000000	20.875377
2111.000000	20.869362
2110.000000	20.850694
2109.000000	20.828604
2108.000000	20.810455
2107.000000	20.779653
2106.000000	20.749681
2105.000000	20.723961
2104.000000	20.708612
2103.000000	20.698967
2102.000000	20.666610
2101.000000	20.633526
2100.000000	20.600339
2099.000000	20.583746
2098.000000	20.572960
2097.000000	20.537699
2096.000000	20.511771
2095.000000	20.502230
2094.000000	20.491755
2093.000000	20.481177
2092.000000	20.454731
2091.000000	20.423307
2090.000000	20.420714
2089.000000	20.419055
2088.000000	20.398106
2087.000000	20.380994
2086.000000	20.362533
2085.000000	20.347495
2084.000000	20.325820
2083.000000	20.298959
2082.000000	20.274069
2081.000000	20.247623
2080.000000	20.210806
2079.000000	20.175338
2078.000000	20.144225
2077.000000	20.092059
2076.000000	20.048086
2075.000000	20.006706
2074.000000	19.953088
2073.000000	19.897085
2072.000000	19.833822
2071.000000	19.779064
2070.000000	19.722853
2069.000000	19.670583
2068.000000	19.602550
2067.000000	19.528501
2066.000000	19.463994
2065.000000	19.397931
2064.000000	19.326890
2063.000000	19.265390
2062.000000	19.208869
2061.000000	19.148821
2060.000000	19.098211
2059.000000	19.055379
2058.000000	19.006324
2057.000000	18.974796
2056.000000	18.963388
2055.000000	18.933313
2054.000000	18.926468
2053.000000	18.945861
2052.000000	18.959033
2051.000000	18.979878
2050.000000	19.026444
2049.000000	19.071039
2048.000000	19.141872
2047.000000	19.217269
2046.000000	19.302518
2045.000000	19.394198
2044.000000	19.503404
2043.000000	19.608773
2042.000000	19.707297
2041.000000	19.821066
2040.000000	19.918553
2039.000000	20.039582
2038.000000	20.144640
2037.000000	20.244823
2036.000000	20.335569
2035.000000	20.432122
2034.000000	20.527017
2033.000000	20.592561
2032.000000	20.671277
2031.000000	20.754970
2030.000000	20.832545
2029.000000	20.892178
2028.000000	20.942581
2027.000000	20.987798
2026.000000	21.058113
2025.000000	21.107168
2024.000000	21.142221
2023.000000	21.167008
2022.000000	21.208907
2021.000000	21.231101
2020.000000	21.267917
2019.000000	21.296749
2018.000000	21.334188
2017.000000	21.360323
2016.000000	21.353996
2015.000000	21.360323
2014.000000	21.378783
2013.000000	21.373286
2012.000000	21.377642
2011.000000	21.365093
2010.000000	21.360219
2009.000000	21.381272
2008.000000	21.373909
2007.000000	21.346944
2006.000000	21.329832
2005.000000	21.301208
2004.000000	21.285859
2003.000000	21.249042
2002.000000	21.218967
2001.000000	21.210359
2000.000000	21.168356
1999.000000	21.123346
1998.000000	21.060913
1997.000000	21.032082
1996.000000	20.964463
1995.000000	20.910846
1994.000000	20.851213
1993.000000	20.792617
1992.000000	20.736406
1991.000000	20.673558
1990.000000	20.607495
1989.000000	20.531787
1988.000000	20.457013
1987.000000	20.390224
1986.000000	20.312234
1985.000000	20.248660
1984.000000	20.161752
1983.000000	20.092474
1982.000000	20.016455
1981.000000	19.942302
1980.000000	19.868150
1979.000000	19.784042
1978.000000	19.709993
1977.000000	19.625988
1976.000000	19.543850
1975.000000	19.479862
1974.000000	19.392020
1973.000000	19.311852
1972.000000	19.254293
1971.000000	19.163133
1970.000000	19.063779
1969.000000	19.021466
1968.000000	18.950010
1967.000000	18.881665
1966.000000	18.822551
1965.000000	18.730975
1964.000000	18.672587
1963.000000	18.610154
1962.000000	18.548135
1961.000000	18.476265
1960.000000	18.396927
1959.000000	18.340198
1958.000000	18.271957
1957.000000	18.200397
1956.000000	18.148439
1955.000000	18.065575
1954.000000	18.009468
1953.000000	17.958547
1952.000000	17.857015
1951.000000	17.816465
1950.000000	17.770936
1949.000000	17.701347
1948.000000	17.661730
1947.000000	17.617861
1946.000000	17.586852
1945.000000	17.532716
1944.000000	17.494239
1943.000000	17.438858
1942.000000	17.442073
1941.000000	17.439896
1940.000000	17.418013
1939.000000	17.406709
1938.000000	17.390841
1937.000000	17.407642
1936.000000	17.395093
1935.000000	17.428695
1934.000000	17.428902
1933.000000	17.485839
1932.000000	17.535619
1931.000000	17.596497
1930.000000	17.652293
1929.000000	17.706014
1928.000000	17.771870
1927.000000	17.887298
1926.000000	17.978044
1925.000000	18.058004
1924.000000	18.187019
1923.000000	18.310226
1922.000000	18.449611
1921.000000	18.582878
1920.000000	18.741554
1919.000000	18.899503
1918.000000	19.042415
1917.000000	19.222766
1916.000000	19.427696
1915.000000	19.586786
1914.000000	19.792857
1913.000000	20.028900
1912.000000	20.241297
1911.000000	20.460331
1910.000000	20.689011
1909.000000	20.921320
1908.000000	21.150103
1907.000000	21.404399
1906.000000	21.689704
1905.000000	21.970446
1904.000000	22.280641
1903.000000	22.553086
1902.000000	22.874896
1901.000000	23.160305
1900.000000	23.496635
1899.000000	23.847277
1898.000000	24.180599
1897.000000	24.494320
1896.000000	24.851807
1895.000000	25.180359
1894.000000	25.495739
1893.000000	25.850322
1892.000000	26.195882
1891.000000	26.609580
1890.000000	26.985941
1889.000000	27.342184
1888.000000	27.734413
1887.000000	28.124672
1886.000000	28.510264
1885.000000	28.936821
1884.000000	29.355082
1883.000000	29.789624
1882.000000	30.239516
1881.000000	30.645954
1880.000000	31.074378
1879.000000	31.486312
1878.000000	31.887357
1877.000000	32.269215
1876.000000	32.648896
1875.000000	32.992278
1874.000000	33.354017
1873.000000	33.683502
1872.000000	33.993697
1871.000000	34.284706
1870.000000	34.527490
1869.000000	34.731590
1868.000000	34.950832
1867.000000	35.117701
1866.000000	35.236656
1865.000000	35.348766
1864.000000	35.452268
1863.000000	35.568941
1862.000000	35.675658
1861.000000	35.796272
1860.000000	35.921242
1859.000000	36.012921
1858.000000	36.073280
1857.000000	36.132291
1856.000000	36.169211
1855.000000	36.198354
1854.000000	36.228118
1853.000000	36.245023
1852.000000	36.223659
1851.000000	36.225422
1850.000000	36.258402
1849.000000	36.267943
1848.000000	36.280596
1847.000000	36.270121
1846.000000	36.187568
1845.000000	36.116942
1844.000000	36.103563
1843.000000	36.098067
1842.000000	36.120364
1841.000000	36.145566
1840.000000	36.118083
1839.000000	36.072762
1838.000000	36.033041
1837.000000	35.989172
1836.000000	35.949140
1835.000000	35.887744
1834.000000	35.833608
1833.000000	35.764641
1832.000000	35.710608
1831.000000	35.684992
1830.000000	35.646308
1829.000000	35.585327
1828.000000	35.529116
1827.000000	35.459112
1826.000000	35.395331
1825.000000	35.347832
1824.000000	35.290792
1823.000000	35.252316
1822.000000	35.261650
1821.000000	35.278865
1820.000000	35.243189
1819.000000	35.194446
1818.000000	35.138235
1817.000000	35.116353
1816.000000	35.100381
1815.000000	35.093433
1814.000000	35.094781
1813.000000	35.075076
1812.000000	35.048112
1811.000000	35.034111
1810.000000	35.012436
1809.000000	34.967426
1808.000000	34.937142
1807.000000	34.896903
1806.000000	34.872117
1805.000000	34.848471
1804.000000	34.802735
1803.000000	34.754510
1802.000000	34.726923
1801.000000	34.701618
1800.000000	34.655156
1799.000000	34.606413
1798.000000	34.557566
1797.000000	34.520334
1796.000000	34.505400
1795.000000	34.479887
1794.000000	34.439441
1793.000000	34.395053
1792.000000	34.362695
1791.000000	34.329716
1790.000000	34.293729
1789.000000	34.262927
1788.000000	34.237207
1787.000000	34.198420
1786.000000	34.166373
1785.000000	34.127275
1784.000000	34.081954
1783.000000	34.046900
1782.000000	34.006142
1781.000000	33.952939
1780.000000	33.899010
1779.000000	33.854104
1778.000000	33.797375
1777.000000	33.731519
1776.000000	33.663901
1775.000000	33.613809
1774.000000	33.533538
1773.000000	33.439162
1772.000000	33.359099
1771.000000	33.280590
1770.000000	33.200941
1769.000000	33.106981
1768.000000	32.994456
1767.000000	32.906303
1766.000000	32.844181
1765.000000	32.781333
1764.000000	32.706973
1763.000000	32.685713
1762.000000	32.688720
1761.000000	32.696602
1760.000000	32.714233
1759.000000	32.759761
1758.000000	32.818150
1757.000000	32.886909
1756.000000	32.934512
1755.000000	32.967491
1754.000000	33.016235
1753.000000	33.054815
1752.000000	33.072031
1751.000000	33.079187
1750.000000	33.084891
1749.000000	33.082713
1748.000000	33.069127
1747.000000	33.051289
1746.000000	33.004931
1745.000000	32.926422
1744.000000	32.843351
1743.000000	32.745657
1742.000000	32.644540
1741.000000	32.500902
1740.000000	32.334552
1739.000000	32.193404
1738.000000	32.044892
1737.000000	31.888601
1736.000000	31.733141
1735.000000	31.624661
1734.000000	31.521677
1733.000000	31.457170
1732.000000	31.412367
1731.000000	31.408011
1730.000000	31.440887
1729.000000	31.491912
1728.000000	31.562850
1727.000000	31.632024
1726.000000	31.697672
1725.000000	31.768713
1724.000000	31.820360
1723.000000	31.891609
1722.000000	31.943982
1721.000000	31.982666
1720.000000	32.029646
1719.000000	32.109917
1718.000000	32.195996
1717.000000	32.267348
1716.000000	32.378318
1715.000000	32.469478
1714.000000	32.566758
1713.000000	32.666423
1712.000000	32.741508
1711.000000	32.836403
1710.000000	32.886183
1709.000000	32.924556
1708.000000	32.986367
1707.000000	33.019346
1706.000000	33.020280
1705.000000	33.032102
1704.000000	33.018413
1703.000000	32.994248
1702.000000	32.943016
1701.000000	32.901117
1700.000000	32.843973
1699.000000	32.770443
1698.000000	32.685402
1697.000000	32.616746
1696.000000	32.559809
1695.000000	32.516459
1694.000000	32.535023
1693.000000	32.569039
1692.000000	32.611042
1691.000000	32.703862
1690.000000	32.805601
1689.000000	32.899147
1688.000000	32.971743
1687.000000	33.042370
1686.000000	33.097543
1685.000000	33.157798
1684.000000	33.223343
1683.000000	33.347068
1682.000000	33.524100
1681.000000	33.749357
1680.000000	34.058930
1679.000000	34.417247
1678.000000	34.767992
1677.000000	35.174948
1676.000000	35.506508
1675.000000	35.838586
1674.000000	36.111342
1673.000000	36.365326
1672.000000	36.603236
1671.000000	36.793543
1670.000000	36.968916
1669.000000	37.129976
1668.000000	37.271540
1667.000000	37.375042
1666.000000	37.455209
1665.000000	37.554978
1664.000000	37.649976
1663.000000	37.714691
1662.000000	37.777850
1661.000000	37.839557
1660.000000	37.875337
1659.000000	37.911116
1658.000000	37.964527
1657.000000	38.002899
1656.000000	38.001966
1655.000000	38.011818
1654.000000	38.019908
1653.000000	38.005907
1652.000000	37.999270
1651.000000	37.994706
1650.000000	37.962349
1649.000000	37.950319
1648.000000	37.899916
1647.000000	37.875337
1646.000000	37.835305
1645.000000	37.787910
1644.000000	37.752234
1643.000000	37.698408
1642.000000	37.668747
1641.000000	37.595943
1640.000000	37.565038
1639.000000	37.506753
1638.000000	37.472425
1637.000000	37.411237
1636.000000	37.345796
1635.000000	37.287822
1634.000000	37.249242
1633.000000	37.172497
1632.000000	37.100108
1631.000000	37.026682
1630.000000	36.962071
1629.000000	36.901090
1628.000000	36.835545
1627.000000	36.766371
1626.000000	36.695330
1625.000000	36.621281
1624.000000	36.572745
1623.000000	36.502534
1622.000000	36.409610
1621.000000	36.350807
1620.000000	36.271780
1619.000000	36.221896
1618.000000	36.163819
1617.000000	36.096822
1616.000000	36.039886
1615.000000	35.989794
1614.000000	35.918027
1613.000000	35.868350
1612.000000	35.802806
1611.000000	35.743277
1610.000000	35.696607
1609.000000	35.634693
1608.000000	35.570704
1607.000000	35.505782
1606.000000	35.456105
1605.000000	35.399687
1604.000000	35.342750
1603.000000	35.271813
1602.000000	35.209173
1601.000000	35.163540
1600.000000	35.102041
1599.000000	35.041682
1598.000000	34.967426
1597.000000	34.925527
1596.000000	34.879273
1595.000000	34.828870
1594.000000	34.783549
1593.000000	34.728894
1592.000000	34.678180
1591.000000	34.643541
1590.000000	34.613984
1589.000000	34.558292
1588.000000	34.525727
1587.000000	34.497933
1586.000000	34.473354
1585.000000	34.431040
1584.000000	34.388312
1583.000000	34.348384
1582.000000	34.321834
1581.000000	34.294869
1580.000000	34.275268
1579.000000	34.260956
1578.000000	34.233681
1577.000000	34.203087
1576.000000	34.202361
1575.000000	34.196345
1574.000000	34.190953
1573.000000	34.189501
1572.000000	34.198420
1571.000000	34.204331
1570.000000	34.213354
1569.000000	34.217295
1568.000000	34.225799
1567.000000	34.237622
1566.000000	34.248511
1565.000000	34.266246
1564.000000	34.271327
1563.000000	34.282839
1562.000000	34.314263
1561.000000	34.329923
1560.000000	34.321626
1559.000000	34.323286
1558.000000	34.321108
1557.000000	34.314989
1556.000000	34.299122
1555.000000	34.306900
1554.000000	34.303581
1553.000000	34.275579
1552.000000	34.256290
1551.000000	34.229844
1550.000000	34.201635
1549.000000	34.182033
1548.000000	34.144283
1547.000000	34.101451
1546.000000	34.077079
1545.000000	34.056856
1544.000000	34.017758
1543.000000	33.990897
1542.000000	33.974926
1541.000000	33.956258
1540.000000	33.937901
1539.000000	33.927323
1538.000000	33.909900
1537.000000	33.879202
1536.000000	33.865927
1535.000000	33.858460
1534.000000	33.835333
1533.000000	33.806916
1532.000000	33.785552
1531.000000	33.754024
1530.000000	33.733179
1529.000000	33.709118
1528.000000	33.676761
1527.000000	33.647929
1526.000000	33.612565
1525.000000	33.570562
1524.000000	33.528975
1523.000000	33.493299
1522.000000	33.458037
1521.000000	33.410435
1520.000000	33.366877
1519.000000	33.326534
1518.000000	33.279242
1517.000000	33.239107
1516.000000	33.198452
1515.000000	33.140790
1514.000000	33.091839
1513.000000	33.032828
1512.000000	32.975684
1511.000000	32.930986
1510.000000	32.867827
1509.000000	32.809023
1508.000000	32.751153
1507.000000	32.693698
1506.000000	32.636347
1505.000000	32.572773
1504.000000	32.516562
1503.000000	32.462945
1502.000000	32.403830
1501.000000	32.349383
1500.000000	32.296491
1499.000000	32.244532
1498.000000	32.187803
1497.000000	32.139163
1496.000000	32.082953
1495.000000	32.037113
1494.000000	32.004030
1493.000000	31.972295
1492.000000	31.949271
1491.000000	31.916603
1490.000000	31.870763
1489.000000	31.818701
1488.000000	31.794433
1487.000000	31.775454
1486.000000	31.724637
1485.000000	31.685745
1484.000000	31.663863
1483.000000	31.646440
1482.000000	31.624142
1481.000000	31.602778
1480.000000	31.573013
1479.000000	31.546982
1478.000000	31.540241
1477.000000	31.535989
1476.000000	31.524166
1475.000000	31.506743
1474.000000	31.506121
1473.000000	31.516803
1472.000000	31.538789
1471.000000	31.547397
1470.000000	31.549056
1469.000000	31.546152
1468.000000	31.550716
1467.000000	31.566272
1466.000000	31.581414
1465.000000	31.587118
1464.000000	31.597281
1463.000000	31.629742
1462.000000	31.652040
1461.000000	31.682634
1460.000000	31.714058
1459.000000	31.746312
1458.000000	31.788936
1457.000000	31.837576
1456.000000	31.897417
1455.000000	31.954975
1454.000000	31.999778
1453.000000	32.062626
1452.000000	32.143416
1451.000000	32.230946
1450.000000	32.303647
1449.000000	32.356746
1448.000000	32.414201
1447.000000	32.494576
1446.000000	32.590092
1445.000000	32.705417
1444.000000	32.779362
1443.000000	32.847811
1442.000000	32.932334
1441.000000	33.035006
1440.000000	33.135190
1439.000000	33.228528
1438.000000	33.340949
1437.000000	33.452852
1436.000000	33.551065
1435.000000	33.651456
1434.000000	33.775181
1433.000000	33.913944
1432.000000	34.050322
1431.000000	34.161810
1430.000000	34.287195
1429.000000	34.417765
1428.000000	34.576856
1427.000000	34.747147
1426.000000	34.906859
1425.000000	35.103389
1424.000000	35.291622
1423.000000	35.474980
1422.000000	35.676384
1421.000000	35.869387
1420.000000	36.138617
1419.000000	36.357548
1418.000000	36.594524
1417.000000	36.795824
1416.000000	37.012370
1415.000000	37.280044
1414.000000	37.578727
1413.000000	37.815185
1412.000000	38.051124
1411.000000	38.290797
1410.000000	38.629927
1409.000000	38.985547
1408.000000	39.299165
1407.000000	39.643895
1406.000000	39.995263
1405.000000	40.342897
1404.000000	40.715214
1403.000000	41.014001
1402.000000	41.371384
1401.000000	41.763303
1400.000000	42.160303
1399.000000	42.475165
1398.000000	42.712245
1397.000000	42.963740
1396.000000	43.306293
1395.000000	43.629659
1394.000000	43.873791
1393.000000	44.063787
1392.000000	44.295163
1391.000000	44.585861
1390.000000	44.840882
1389.000000	45.110631
1388.000000	45.454324
1387.000000	45.836805
1386.000000	46.167120
1385.000000	46.560594
1384.000000	47.042843
1383.000000	47.436732
1382.000000	47.856963
1381.000000	48.241517
1380.000000	48.533667
1379.000000	48.692861
1378.000000	48.876116
1377.000000	49.010212
1376.000000	49.185689
1375.000000	49.334408
1374.000000	49.536538
1373.000000	49.739394
1372.000000	50.028225
1371.000000	50.281587
1370.000000	50.560877
1369.000000	50.791320
1368.000000	51.035659
1367.000000	51.277821
1366.000000	51.463565
1365.000000	51.636448
1364.000000	51.817110
1363.000000	51.954525
1362.000000	52.146077
1361.000000	52.288574
1360.000000	52.378801
1359.000000	52.347999
1358.000000	52.448598
1357.000000	52.549507
1356.000000	52.655705
1355.000000	52.848087
1354.000000	53.117524
1353.000000	53.419941
1352.000000	53.699231
1351.000000	54.088764
1350.000000	54.468237
1349.000000	54.802181
1348.000000	55.135919
1347.000000	55.427964
1346.000000	55.720010
1345.000000	55.941430
1344.000000	56.227357
1343.000000	56.489846
1342.000000	56.752335
1341.000000	56.973755
1340.000000	57.236140
1339.000000	57.473531
1338.000000	57.685721
1337.000000	57.930786
1336.000000	58.152102
1335.000000	58.380678
1334.000000	58.574615
1333.000000	58.774774
1332.000000	58.979808
1331.000000	59.184738
1330.000000	59.367578
1329.000000	59.546373
1328.000000	59.740206
1327.000000	59.908423
1326.000000	60.072491
1325.000000	60.232723
1324.000000	60.377501
1323.000000	60.523420
1322.000000	60.653265
1321.000000	60.793272
1320.000000	60.924050
1319.000000	61.044250
1318.000000	61.167871
1317.000000	61.275522
1316.000000	61.407751
1315.000000	61.514468
1314.000000	61.623156
1313.000000	61.738170
1312.000000	61.833479
1311.000000	61.928788
1310.000000	62.016111
1309.000000	62.112250
1308.000000	62.184328
1307.000000	62.265636
1306.000000	62.328070
1305.000000	62.400251
1304.000000	62.466729
1303.000000	62.517547
1302.000000	62.561935
1301.000000	62.603729
1300.000000	62.649051
1299.000000	62.685971
1298.000000	62.708995
1297.000000	62.737618
1296.000000	62.770805
1295.000000	62.819030
1294.000000	62.835002
1293.000000	62.851284
1292.000000	62.875241
1291.000000	62.899820
1290.000000	62.900235
1289.000000	62.898264
1288.000000	62.900650
1287.000000	62.897435
1286.000000	62.872026
1285.000000	62.849936
1284.000000	62.824216
1283.000000	62.801504
1282.000000	62.772776
1281.000000	62.738656
1280.000000	62.712936
1279.000000	62.681926
1278.000000	62.647391
1277.000000	62.623227
1276.000000	62.599581
1275.000000	62.577698
1274.000000	62.551149
1273.000000	62.526570
1272.000000	62.510702
1271.000000	62.497324
1270.000000	62.480108
1269.000000	62.469115
1268.000000	62.454388
1267.000000	62.423379
1266.000000	62.411763
1265.000000	62.395792
1264.000000	62.367479
1263.000000	62.342900
1262.000000	62.313861
1261.000000	62.286171
1260.000000	62.268540
1259.000000	62.245932
1258.000000	62.206626
1257.000000	62.167631
1256.000000	62.129362
1255.000000	62.090678
1254.000000	62.040794
1253.000000	61.982406
1252.000000	61.938951
1251.000000	61.883052
1250.000000	61.812841
1249.000000	61.740866
1248.000000	61.664536
1247.000000	61.577005
1246.000000	61.499431
1245.000000	61.403188
1244.000000	61.287552
1243.000000	61.187265
1242.000000	61.094030
1241.000000	60.967816
1240.000000	60.853735
1239.000000	60.731150
1238.000000	60.599854
1237.000000	60.475092
1236.000000	60.350640
1235.000000	60.208558
1234.000000	60.074773
1233.000000	59.932380
1232.000000	59.787394
1231.000000	59.648734
1230.000000	59.494103
1229.000000	59.344762
1228.000000	59.186916
1227.000000	59.029174
1226.000000	58.873506
1225.000000	58.695851
1224.000000	58.528049
1223.000000	58.365640
1222.000000	58.208417
1221.000000	58.060838
1220.000000	57.897184
1219.000000	57.740583
1218.000000	57.598293
1217.000000	57.468864
1216.000000	57.337360
1215.000000	57.217368
1214.000000	57.105570
1213.000000	56.976140
1212.000000	56.858326
1211.000000	56.761773
1210.000000	56.660759
1209.000000	56.565243
1208.000000	56.475845
1207.000000	56.387900
1206.000000	56.315096
1205.000000	56.276308
1204.000000	56.239284
1203.000000	56.205267
1202.000000	56.190126
1201.000000	56.157665
1200.000000	56.127589
1199.000000	56.081334
1198.000000	56.036532
1197.000000	55.984470
1196.000000	55.897043
1195.000000	55.758176
1194.000000	55.597115
1193.000000	55.403385
1192.000000	55.154690
1191.000000	54.871563
1190.000000	54.574643
1189.000000	54.272226
1188.000000	54.024049
1187.000000	53.847224
1186.000000	53.739366
1185.000000	53.715824
1184.000000	53.785310
1183.000000	53.954667
1182.000000	54.198488
1181.000000	54.521543
1180.000000	54.887016
1179.000000	55.271985
1178.000000	55.645858
1177.000000	55.990692
1176.000000	56.302132
1175.000000	56.574888
1174.000000	56.827836
1173.000000	57.077568
1172.000000	57.329064
1171.000000	57.585848
1170.000000	57.854041
1169.000000	58.119434
1168.000000	58.390323
1167.000000	58.661835
1166.000000	58.960311
1165.000000	59.250386
1164.000000	59.520757
1163.000000	59.819233
1162.000000	60.142184
1161.000000	60.449683
1160.000000	60.740692
1159.000000	61.021641
1158.000000	61.304042
1157.000000	61.576798
1156.000000	61.838561
1155.000000	62.069625
1154.000000	62.268540
1153.000000	62.430949
1152.000000	62.549386
1151.000000	62.643554
1150.000000	62.719366
1149.000000	62.751930
1148.000000	62.795903
1147.000000	62.882604
1146.000000	62.959246
1145.000000	63.084216
1144.000000	63.263737
1143.000000	63.466800
1142.000000	63.704710
1141.000000	63.979021
1140.000000	64.267541
1139.000000	64.556580
1138.000000	64.863041
1137.000000	65.184644
1136.000000	65.516100
1135.000000	65.883543
1134.000000	66.241755
1133.000000	66.557862
1132.000000	66.820247
1131.000000	67.120486
1130.000000	67.365863
1129.000000	67.595372
1128.000000	67.795843
1127.000000	67.954103
1126.000000	68.084155
1125.000000	68.194709
1124.000000	68.290122
1123.000000	68.346333
1122.000000	68.422144
1121.000000	68.477940
1120.000000	68.500341
1119.000000	68.534358
1118.000000	68.553337
1117.000000	68.568064
1116.000000	68.580509
1115.000000	68.587146
1114.000000	68.585694
1113.000000	68.578746
1112.000000	68.570138
1111.000000	68.552403
1110.000000	68.556344
1109.000000	68.548774
1108.000000	68.546803
1107.000000	68.555411
1106.000000	68.541721
1105.000000	68.540166
1104.000000	68.537573
1103.000000	68.545144
1102.000000	68.520046
1101.000000	68.525958
1100.000000	68.524194
1099.000000	68.525854
1098.000000	68.514757
1097.000000	68.518698
1096.000000	68.491837
1095.000000	68.497230
1094.000000	68.471510
1093.000000	68.459480
1092.000000	68.425567
1091.000000	68.396839
1090.000000	68.388128
1089.000000	68.367697
1088.000000	68.311279
1087.000000	68.293959
1086.000000	68.258180
1085.000000	68.218044
1084.000000	68.203421
1083.000000	68.149596
1082.000000	68.106141
1081.000000	68.070465
1080.000000	68.041219
1079.000000	67.991646
1078.000000	67.955140
1077.000000	67.897478
1076.000000	67.853712
1075.000000	67.823637
1074.000000	67.741810
1073.000000	67.715468
1072.000000	67.665272
1071.000000	67.616529
1070.000000	67.554718
1069.000000	67.501100
1068.000000	67.457750
1067.000000	67.408799
1066.000000	67.327594
1065.000000	67.280510
1064.000000	67.218803
1063.000000	67.156473
1062.000000	67.100263
1061.000000	67.046334
1060.000000	66.976952
1059.000000	66.914519
1058.000000	66.833418
1057.000000	66.768289
1056.000000	66.693825
1055.000000	66.615836
1054.000000	66.538676
1053.000000	66.469294
1052.000000	66.380934
1051.000000	66.325864
1050.000000	66.267268
1049.000000	66.200375
1048.000000	66.127986
1047.000000	66.064309
1046.000000	66.006127
1045.000000	65.944939
1044.000000	65.863216
1043.000000	65.827332
1042.000000	65.771122
1041.000000	65.709000
1040.000000	65.655071
1039.000000	65.589112
1038.000000	65.533938
1037.000000	65.482602
1036.000000	65.410005
1035.000000	65.359395
1034.000000	65.295406
1033.000000	65.249774
1032.000000	65.160584
1031.000000	65.104373
1030.000000	65.037792
1029.000000	64.985418
1028.000000	64.932527
1027.000000	64.862315
1026.000000	64.796771
1025.000000	64.725522
1024.000000	64.667964
1023.000000	64.581885
1022.000000	64.538742
1021.000000	64.486679
1020.000000	64.420824
1019.000000	64.352894
1018.000000	64.309129
1017.000000	64.280505
1016.000000	64.227820
1015.000000	64.174203
1014.000000	64.147342
1013.000000	64.123385
1012.000000	64.105651
1011.000000	64.086568
1010.000000	64.086776
1009.000000	64.079101
1008.000000	64.087916
1007.000000	64.090509
1006.000000	64.094969
1005.000000	64.111873
1004.000000	64.102436
1003.000000	64.109280
1002.000000	64.103162
1001.000000	64.097769
1000.000000	64.108140
999.000000	64.129608
998.000000	64.145060
997.000000	64.143608
996.000000	64.136452
995.000000	64.144334
994.000000	64.173995
993.000000	64.189552
992.000000	64.187581
991.000000	64.172751
990.000000	64.185714
989.000000	64.195152
988.000000	64.194219
987.000000	64.181773
986.000000	64.198471
985.000000	64.207079
984.000000	64.208634
983.000000	64.211538
982.000000	64.209671
981.000000	64.215583
980.000000	64.230932
979.000000	64.226887
978.000000	64.242962
977.000000	64.244933
976.000000	64.248355
975.000000	64.258933
974.000000	64.265156
973.000000	64.279571
972.000000	64.287557
971.000000	64.287661
970.000000	64.307677
969.000000	64.327382
968.000000	64.346257
967.000000	64.388259
966.000000	64.403401
965.000000	64.438454
964.000000	64.486576
963.000000	64.518311
962.000000	64.554402
961.000000	64.601071
960.000000	64.665267
959.000000	64.742323
958.000000	64.806623
957.000000	64.871338
956.000000	64.940927
955.000000	65.029910
954.000000	65.104581
953.000000	65.170540
952.000000	65.261286
951.000000	65.346535
950.000000	65.421724
949.000000	65.508426
948.000000	65.585274
947.000000	65.654034
946.000000	65.738246
945.000000	65.836666
944.000000	65.920567
943.000000	65.989223
942.000000	66.067005
941.000000	66.124564
940.000000	66.185545
939.000000	66.255238
938.000000	66.318812
937.000000	66.400535
936.000000	66.471368
935.000000	66.537535
934.000000	66.603702
933.000000	66.672254
932.000000	66.754080
931.000000	66.813817
930.000000	66.864220
929.000000	66.907882
928.000000	66.970004
927.000000	67.020095
926.000000	67.048201
925.000000	67.079210
924.000000	67.136872
923.000000	67.172963
922.000000	67.188105
921.000000	67.222640
920.000000	67.264124
919.000000	67.299281
918.000000	67.336513
917.000000	67.370011
916.000000	67.402161
915.000000	67.441882
914.000000	67.499026
913.000000	67.541858
912.000000	67.611032
911.000000	67.660502
910.000000	67.697837
909.000000	67.748758
908.000000	67.815755
907.000000	67.894367
906.000000	67.973497
905.000000	68.066110
904.000000	68.145551
903.000000	68.237956
902.000000	68.339177
901.000000	68.453361
900.000000	68.547218
899.000000	68.637238
898.000000	68.754948
897.000000	68.870273
896.000000	68.987154
895.000000	69.102894
894.000000	69.202766
893.000000	69.293408
892.000000	69.400229
891.000000	69.485789
890.000000	69.561704
889.000000	69.640939
888.000000	69.720587
887.000000	69.781569
886.000000	69.827305
885.000000	69.845350
884.000000	69.908820
883.000000	69.947504
882.000000	69.976543
881.000000	70.014708
880.000000	70.027464
879.000000	70.041672
878.000000	70.016886
877.000000	69.991788
876.000000	69.960675
875.000000	69.929770
874.000000	69.848876
873.000000	69.733447
872.000000	69.608477
871.000000	69.502071
870.000000	69.485685
869.000000	69.531110
868.000000	69.632331
867.000000	69.739981
866.000000	69.819008
865.000000	69.900938
864.000000	69.961608
863.000000	70.037627
862.000000	70.118728
861.000000	70.173798
860.000000	70.248987
859.000000	70.337763
858.000000	70.407767
857.000000	70.028600
856.000000	70.368800
855.000000	70.825900
854.000000	70.653000
853.000000	70.607100
852.000000	71.031100
851.000000	70.911300
850.000000	70.920400
849.000000	71.114400
848.000000	70.919800
847.000000	70.615800
846.000000	70.847800
845.000000	70.727300
844.000000	71.096600
843.000000	70.997800
842.000000	71.048600
841.000000	71.261200
840.000000	71.275000
839.000000	70.917700
838.000000	71.077400
837.000000	71.152500
836.000000	71.073300
835.000000	71.135400
834.000000	71.039300
833.000000	71.023500
832.000000	71.026500
831.000000	70.970200
830.000000	70.682700
829.000000	70.799400
828.000000	70.614500
827.000000	70.713200
826.000000	70.592500
825.000000	70.593900
824.000000	70.373000
823.000000	70.215200
822.000000	70.165200
821.000000	70.221400
820.000000	70.224800
819.000000	70.270100
818.000000	70.054700
817.000000	69.978300
816.000000	70.063600
815.000000	69.847900
814.000000	69.760700
813.000000	69.700100
812.000000	69.572300
811.000000	69.239400
810.000000	69.297200
809.000000	69.190800
808.000000	69.058600
807.000000	68.881100
806.000000	68.659200
805.000000	68.715300
804.000000	68.611400
803.000000	68.454100
802.000000	68.417900
801.000000	68.329500
800.000000	68.153500
799.000000	67.968200
798.000000	67.995300
797.000000	67.735800
796.000000	67.744600
795.000000	67.649100
794.000000	67.419200
793.000000	67.118300
792.000000	67.192100
791.000000	66.973000
790.000000	66.826400
789.000000	66.488800
788.000000	66.499200
787.000000	66.401000
786.000000	66.272900
785.000000	66.130300
784.000000	66.145200
783.000000	66.106500
782.000000	65.900100
781.000000	65.849600
780.000000	65.669500
779.000000	65.562400
778.000000	65.453400
777.000000	65.222900
776.000000	65.276200
775.000000	65.073300
774.000000	64.946800
773.000000	64.819200
772.000000	64.847100
771.000000	64.712000
770.000000	64.683700
769.000000	64.625600
768.000000	64.565000
767.000000	64.442700
766.000000	64.391500
765.000000	64.371600
764.000000	64.313300
763.000000	64.246500
762.000000	64.051300
761.000000	64.080500
760.000000	63.952600
759.000000	63.760400
758.000000	63.650300
757.000000	63.624100
756.000000	63.389900
755.000000	63.175500
754.000000	63.125900
753.000000	63.129500
752.000000	62.996200
751.000000	62.957900
750.000000	62.889300
749.000000	62.786000
748.000000	62.735900
747.000000	62.686700
746.000000	62.587800
745.000000	62.504000
744.000000	62.480200
743.000000	62.385100
742.000000	62.220400
741.000000	62.194700
740.000000	62.103500
739.000000	62.013700
738.000000	61.951800
737.000000	61.915800
736.000000	61.736300
735.000000	61.682700
734.000000	61.537800
733.000000	61.435400
732.000000	61.383500
731.000000	61.261400
730.000000	61.208000
729.000000	61.069400
728.000000	60.952700
727.000000	60.936000
726.000000	60.831200
725.000000	60.699900
724.000000	60.563500
723.000000	60.470400
722.000000	60.285100
721.000000	60.066300
720.000000	59.919900
719.000000	59.793000
718.000000	59.555400
717.000000	59.392100
716.000000	59.290600
715.000000	59.166400
714.000000	58.990900
713.000000	58.819000
712.000000	58.694000
711.000000	58.563400
710.000000	58.390300
709.000000	58.290300
708.000000	58.224300
707.000000	58.120000
706.000000	58.042500
705.000000	57.965500
704.000000	57.856700
703.000000	57.817200
702.000000	57.741900
701.000000	57.645400
700.000000	57.553900
699.000000	57.469300
698.000000	57.387300
697.000000	57.370300
696.000000	57.387400
695.000000	57.363400
694.000000	57.339300
693.000000	57.361200
692.000000	57.433200
691.000000	57.466700
690.000000	57.555200
689.000000	57.687700
688.000000	57.726000
687.000000	57.760100
686.000000	57.821000
685.000000	57.894100
684.000000	57.977200
683.000000	58.025000
682.000000	58.062600
681.000000	58.078500
680.000000	58.120000
679.000000	58.154900
678.000000	58.175900
677.000000	58.172400
676.000000	58.128800
675.000000	58.099500
674.000000	58.125600
673.000000	58.146600
672.000000	58.017300
671.000000	57.916100
670.000000	57.903300
669.000000	57.800400
668.000000	57.614600
667.000000	57.470900
666.000000	57.291200
665.000000	57.032400
664.000000	56.864000
663.000000	56.650300
662.000000	56.372400
661.000000	56.118100
660.000000	55.843300
659.000000	55.511400
658.000000	55.169300
657.000000	54.819600
656.000000	54.464600
655.000000	54.120000
654.000000	53.749200
653.000000	53.378800
652.000000	53.045700
651.000000	52.731200
650.000000	52.461700
649.000000	52.223500
648.000000	52.018300
647.000000	51.834700
646.000000	51.701500
645.000000	51.601900
644.000000	51.569400
643.000000	51.591400
642.000000	51.661700
641.000000	51.846800
640.000000	52.063300
639.000000	52.321700
638.000000	52.676900
637.000000	53.086000
636.000000	53.542800
635.000000	54.073500
634.000000	54.634600
633.000000	55.202900
632.000000	55.807100
631.000000	56.417300
630.000000	57.019000
629.000000	57.570900
628.000000	58.144700
627.000000	58.699800
626.000000	59.248900
625.000000	59.810600
624.000000	60.334500
623.000000	60.922100
622.000000	61.518300
621.000000	62.098200
620.000000	62.684600
619.000000	63.270400
618.000000	63.893700
617.000000	64.550200
616.000000	65.180900
615.000000	65.753900
614.000000	66.328600
613.000000	66.857200
612.000000	67.338600
611.000000	67.726300
610.000000	68.054700
609.000000	68.349800
608.000000	68.547600
607.000000	68.712800
606.000000	68.886600
605.000000	69.045500
604.000000	69.168100
603.000000	69.310400
602.000000	69.493100
601.000000	69.675600
600.000000	69.907500
599.000000	70.195300
598.000000	70.503400
597.000000	70.847000
596.000000	71.240600
595.000000	71.663500
594.000000	72.078100
593.000000	72.474300
592.000000	72.871900
591.000000	73.212100
590.000000	73.521300
589.000000	73.712200
588.000000	73.856600
587.000000	74.004100
586.000000	74.014800
585.000000	74.007900
584.000000	73.983100
583.000000	73.879000
582.000000	73.804200
581.000000	73.707400
580.000000	73.597800
579.000000	73.524600
578.000000	73.452700
577.000000	73.413700
576.000000	73.414600
575.000000	73.446500
574.000000	73.516900
573.000000	73.579000
572.000000	73.616600
571.000000	73.663200
570.000000	73.704200
569.000000	73.700000
568.000000	73.594100
567.000000	73.491200
566.000000	73.321200
565.000000	73.096300
564.000000	72.772600
563.000000	72.438600
562.000000	72.078300
561.000000	71.661300
560.000000	71.257300
559.000000	70.726900
558.000000	70.294100
557.000000	69.906200
556.000000	69.520600
555.000000	69.119200
554.000000	68.679500
553.000000	68.179900
552.000000	67.701900
551.000000	67.165800
550.000000	66.590400
549.000000	65.950100
548.000000	65.245500
547.000000	64.490300
546.000000	63.668700
545.000000	62.799200
544.000000	61.835600
543.000000	60.854200
542.000000	59.813200
541.000000	58.792500
540.000000	57.714000
539.000000	56.608500
538.000000	55.509700
537.000000	54.385900
536.000000	53.260100
535.000000	52.109000
534.000000	50.984400
533.000000	49.810800
532.000000	48.689800
531.000000	47.603800
530.000000	46.571100
529.000000	45.573100
528.000000	44.611500
527.000000	43.713700
526.000000	42.826700
525.000000	41.991300
524.000000	41.182300
523.000000	40.412400
522.000000	39.687600
521.000000	39.013300
520.000000	38.380600
519.000000	37.781200
518.000000	37.217300
517.000000	36.668000
516.000000	36.080400
515.000000	35.571600
514.000000	35.040000
513.000000	34.525300
512.000000	34.056500
511.000000	33.571200
510.000000	33.082400
509.000000	32.593600
508.000000	32.114600
507.000000	31.628900
506.000000	31.127500
505.000000	30.662400
504.000000	30.110700
503.000000	29.608600
502.000000	29.094700
501.000000	28.523700
500.000000	27.980600
499.000000	27.386700
498.000000	26.816800
497.000000	26.200200
496.000000	25.632800
495.000000	25.059400
494.000000	24.457300
493.000000	23.866200
492.000000	23.276500
491.000000	22.724200
490.000000	22.207100
489.000000	21.780400
488.000000	21.358800
487.000000	21.026900
486.000000	20.717300
485.000000	20.455400
484.000000	20.249900
483.000000	20.103100
482.000000	20.019700
481.000000	19.968700
480.000000	19.964800
479.000000	19.942700
478.000000	19.942000
477.000000	19.950700
476.000000	19.969200
475.000000	20.033600
474.000000	20.081500
473.000000	20.118400
472.000000	20.138400
471.000000	20.177600
470.000000	20.215600
469.000000	20.184300
468.000000	20.155500
467.000000	20.159100
466.000000	20.111900
465.000000	20.048100
464.000000	19.988000
463.000000	19.945000
462.000000	19.900200
461.000000	19.843200
460.000000	19.756100
459.000000	19.679700
458.000000	19.557800
457.000000	19.448600
456.000000	19.352700
455.000000	19.238100
454.000000	19.121500
453.000000	18.960500
452.000000	18.808100
451.000000	18.637700
450.000000	18.513700
449.000000	18.312500
448.000000	18.120300
447.000000	17.921200
446.000000	17.729600
445.000000	17.498100
444.000000	17.293500
443.000000	17.046600
442.000000	16.786500
441.000000	16.551200
440.000000	16.322300
439.000000	16.088700
438.000000	15.847100
437.000000	15.568400
436.000000	15.310800
435.000000	15.022900
434.000000	14.743600
433.000000	14.439000
432.000000	14.157800
431.000000	13.841500
430.000000	13.528400
429.000000	13.238800
428.000000	12.963300
427.000000	12.652700
426.000000	12.355600
425.000000	12.046600
424.000000	11.752400
423.000000	11.423400
422.000000	11.118800
421.000000	10.807600
420.000000	10.515600
419.000000	10.220800
418.000000	9.926900
417.000000	9.629500
416.000000	9.348300
415.000000	9.088300
414.000000	8.832200
413.000000	8.580600
412.000000	8.376100
411.000000	8.152100
410.000000	7.937600
409.000000	7.755600
408.000000	7.572400
407.000000	7.422700
406.000000	7.281800
405.000000	7.133500
404.000000	6.981600
403.000000	6.861900
402.000000	6.744000
401.000000	6.657000
400.000000	6.570400
399.000000	6.473900
398.000000	6.401700
397.000000	6.340200
396.000000	6.259100
395.000000	6.202100
394.000000	6.149700
393.000000	6.096000
392.000000	6.033800
391.000000	5.998600
390.000000	5.958200
389.000000	5.915700
388.000000	5.877100
387.000000	5.871000
386.000000	5.831500
385.000000	5.793100
384.000000	5.778600
383.000000	5.756300
382.000000	5.712100
381.000000	5.706700
380.000000	5.687000
379.000000	5.656700
378.000000	5.654700
377.000000	5.604900
376.000000	5.612300
375.000000	5.478800
374.000000	5.346900
373.000000	5.527600
372.000000	5.352200
371.000000	5.445900
370.000000	5.553100
369.000000	5.441700
368.000000	5.497900
367.000000	5.431000
366.000000	5.386800
365.000000	5.492800
364.000000	5.418400
363.000000	5.409900
362.000000	5.372400
361.000000	5.343400
360.000000	5.364900
359.000000	5.356800
358.000000	5.407700
357.000000	5.461800
356.000000	5.442300
355.000000	5.400200
354.000000	5.336400
353.000000	5.255100
352.000000	5.368600
351.000000	5.552200
350.000000	5.384700
349.000000	5.283100
348.000000	5.379600
347.000000	5.310400
346.000000	5.300800
345.000000	5.398100
344.000000	5.396800
343.000000	5.615400
342.000000	5.501900
341.000000	5.270300
340.000000	5.306100
339.000000	5.369300
338.000000	5.457600
337.000000	5.283600
336.000000	5.245500
335.000000	5.357400
334.000000	5.333100
333.000000	5.442200
332.000000	5.710400
331.000000	5.774000
330.000000	5.901800
329.000000	5.829500
328.000000	5.381900
327.000000	5.351000
326.000000	5.626600
325.000000	5.524200
324.000000	5.286300
323.000000	5.381000
322.000000	5.929200
321.000000	5.796400
320.000000	5.621000
319.000000	5.466400
318.000000	5.566600
317.000000	5.742300
316.000000	5.424400
315.000000	5.234400
314.000000	5.227200
313.000000	5.258500
312.000000	5.290100
311.000000	5.271100
310.000000	5.277500
309.000000	5.281500
308.000000	5.314000
307.000000	5.282900
306.000000	5.273600
305.000000	5.285600
304.000000	5.272400
303.000000	5.297800
302.000000	5.304400
301.000000	5.309000
300.000000	5.338700
299.000000	5.316900
298.000000	5.286800
297.000000	5.341000
296.000000	5.374800
295.000000	5.334100
294.000000	5.307900
293.000000	5.348700
292.000000	5.388200
291.000000	5.368100
290.000000	5.365100
289.000000	5.361900
288.000000	5.361900
287.000000	5.391600
286.000000	5.412400
285.000000	5.413900
284.000000	5.435500
283.000000	5.460100
282.000000	5.441800
281.000000	5.468400
280.000000	5.509200
279.000000	5.545600
278.000000	5.524500
277.000000	5.535300
276.000000	5.555900
275.000000	5.526900
274.000000	5.570200
273.000000	5.584400
272.000000	5.611100
271.000000	5.643400
270.000000	5.638300
269.000000	5.630300
268.000000	5.659900
267.000000	5.663700
266.000000	5.689200
265.000000	5.702100
264.000000	5.734300
263.000000	5.773000
262.000000	5.760700
261.000000	5.812300
260.000000	5.813500
259.000000	5.823700
258.000000	5.866100
257.000000	5.872300
256.000000	5.887100
255.000000	5.875900
254.000000	5.917200
253.000000	5.851400
252.000000	5.898100
251.000000	5.916300
250.000000	5.927300
