PE UV       SUBTECH     SPECTRUM    ASCII       PEDS        4.00        
   -1
CICIMAUCR0260-2.Sample.ASC
24/07/01
11:36:37.00
24/07/01
11:36:37.00
Vinicio Soto Monge
C. resplendens. Sex F. Dorsal.
250,000000
1
Lambda 1050
1050L1511233
PerkinElmer UV WinLab 6.3.2.0749 / 2.02.05 Lambda 900 UV/VIS/NIR, Aug  7 2015 09:38:08

0
0
3350/servo 860,8/2
0
0
UV/VIS
1
1
1
DoubleDePol,CommonBeamDepol,RBeamAtt,SBeamAtt,60mm sphere, WB InGaAs Detector
0
0
0
0
Program
Program
3350/servo 860,8/2
3350/0,2 860,8/0,2
3350/0,2 860,8/0,2
0
15.00
 
 
 
0
 
860,8
319,2
860,8
Front
100
on
S:100 R:100
0
0
0
0
 
0
 
 
 
0
 
 
0
0
0
0
0
 
 
 
 
0
0


0
0
#HDR
-1
-1
#GR
nm
%R
1.0
0.0
2500,000000
-1,000000
2251
8
91,591200
5,627200
#DATA
2500.000000	9.032314
2499.000000	9.084755
2498.000000	9.058938
2497.000000	9.095243
2496.000000	9.062972
2495.000000	9.062367
2494.000000	9.092218
2493.000000	9.036752
2492.000000	8.971402
2491.000000	8.939131
2490.000000	8.979470
2489.000000	8.944879
2488.000000	9.025053
2487.000000	8.969083
2486.000000	8.932475
2485.000000	8.907465
2484.000000	8.954662
2483.000000	8.926626
2482.000000	8.926324
2481.000000	8.956981
2480.000000	8.982496
2479.000000	8.987740
2478.000000	8.986933
2477.000000	9.037861
2476.000000	9.029491
2475.000000	9.014464
2474.000000	9.034029
2473.000000	9.009926
2472.000000	9.008817
2471.000000	8.994799
2470.000000	9.032012
2469.000000	9.033424
2468.000000	9.058232
2467.000000	9.092319
2466.000000	9.115514
2465.000000	9.123884
2464.000000	9.169971
2463.000000	9.170375
2462.000000	9.212428
2461.000000	9.256499
2460.000000	9.292501
2459.000000	9.300468
2458.000000	9.330924
2457.000000	9.391836
2456.000000	9.443773
2455.000000	9.508517
2454.000000	9.565899
2453.000000	9.594136
2452.000000	9.672091
2451.000000	9.727558
2450.000000	9.798554
2449.000000	9.840104
2448.000000	9.911504
2447.000000	9.986938
2446.000000	10.030201
2445.000000	10.093029
2444.000000	10.155958
2443.000000	10.242990
2442.000000	10.283329
2441.000000	10.336375
2440.000000	10.420280
2439.000000	10.479175
2438.000000	10.553500
2437.000000	10.607756
2436.000000	10.674214
2435.000000	10.742790
2434.000000	10.797450
2433.000000	10.844142
2432.000000	10.908786
2431.000000	10.988455
2430.000000	11.033131
2429.000000	11.092732
2428.000000	11.143962
2427.000000	11.201950
2426.000000	11.259332
2425.000000	11.311571
2424.000000	11.358969
2423.000000	11.396585
2422.000000	11.449430
2421.000000	11.495719
2420.000000	11.543218
2419.000000	11.584666
2418.000000	11.637208
2417.000000	11.660403
2416.000000	11.699632
2415.000000	11.745518
2414.000000	11.778294
2413.000000	11.819339
2412.000000	11.854131
2411.000000	11.888520
2410.000000	11.938944
2409.000000	11.968694
2408.000000	11.992796
2407.000000	12.032530
2406.000000	12.063087
2405.000000	12.093644
2404.000000	12.154153
2403.000000	12.196307
2402.000000	12.219603
2401.000000	12.263774
2400.000000	12.289793
2399.000000	12.315408
2398.000000	12.346570
2397.000000	12.367344
2396.000000	12.401935
2395.000000	12.429366
2394.000000	12.455384
2393.000000	12.471823
2392.000000	12.501472
2391.000000	12.526381
2390.000000	12.551896
2389.000000	12.578519
2388.000000	12.594957
2387.000000	12.610286
2386.000000	12.630758
2385.000000	12.654357
2384.000000	12.663332
2383.000000	12.682695
2382.000000	12.687233
2381.000000	12.694696
2380.000000	12.711537
2379.000000	12.721622
2378.000000	12.721420
2377.000000	12.711537
2376.000000	12.728177
2375.000000	12.732816
2374.000000	12.724849
2373.000000	12.707907
2372.000000	12.698629
2371.000000	12.699839
2370.000000	12.691166
2369.000000	12.680275
2368.000000	12.667669
2367.000000	12.656172
2366.000000	12.649516
2365.000000	12.639330
2364.000000	12.616337
2363.000000	12.598588
2362.000000	12.584873
2361.000000	12.549072
2360.000000	12.517910
2359.000000	12.509237
2358.000000	12.480294
2357.000000	12.463452
2356.000000	12.454779
2355.000000	12.423718
2354.000000	12.401733
2353.000000	12.380152
2352.000000	12.371681
2351.000000	12.381866
2350.000000	12.388220
2349.000000	12.387716
2348.000000	12.403145
2347.000000	12.430979
2346.000000	12.456191
2345.000000	12.480899
2344.000000	12.511052
2343.000000	12.552299
2342.000000	12.584974
2341.000000	12.622287
2340.000000	12.646188
2339.000000	12.655970
2338.000000	12.682897
2337.000000	12.718798
2336.000000	12.754398
2335.000000	12.760953
2334.000000	12.758331
2333.000000	12.774970
2332.000000	12.790400
2331.000000	12.787677
2330.000000	12.786568
2329.000000	12.775071
2328.000000	12.766499
2327.000000	12.748246
2326.000000	12.721723
2325.000000	12.701352
2324.000000	12.680678
2323.000000	12.654256
2322.000000	12.623497
2321.000000	12.558350
2320.000000	12.504396
2319.000000	12.469906
2318.000000	12.416659
2317.000000	12.333863
2316.000000	12.263976
2315.000000	12.203265
2314.000000	12.134790
2313.000000	12.070449
2312.000000	12.000965
2311.000000	11.925733
2310.000000	11.857963
2309.000000	11.807035
2308.000000	11.757721
2307.000000	11.728979
2306.000000	11.698120
2305.000000	11.688741
2304.000000	11.680875
2303.000000	11.692977
2302.000000	11.713549
2301.000000	11.746123
2300.000000	11.787269
2299.000000	11.858367
2298.000000	11.913329
2297.000000	11.972728
2296.000000	12.046952
2295.000000	12.120470
2294.000000	12.193181
2293.000000	12.265690
2292.000000	12.322366
2291.000000	12.393161
2290.000000	12.441568
2289.000000	12.483117
2288.000000	12.528095
2287.000000	12.554518
2286.000000	12.588806
2285.000000	12.603126
2284.000000	12.588907
2283.000000	12.588604
2282.000000	12.569746
2281.000000	12.559862
2280.000000	12.541508
2279.000000	12.510750
2278.000000	12.489673
2277.000000	12.459822
2276.000000	12.421096
2275.000000	12.372286
2274.000000	12.356251
2273.000000	12.340922
2272.000000	12.310668
2271.000000	12.294028
2270.000000	12.300583
2269.000000	12.315408
2268.000000	12.339410
2267.000000	12.362100
2266.000000	12.415146
2265.000000	12.520330
2264.000000	12.603227
2263.000000	12.694191
2262.000000	12.813898
2261.000000	12.936528
2260.000000	13.106961
2259.000000	13.277897
2258.000000	13.445607
2257.000000	13.628847
2256.000000	13.839921
2255.000000	14.021951
2254.000000	14.202972
2253.000000	14.405374
2252.000000	14.598093
2251.000000	14.808461
2250.000000	15.000576
2249.000000	15.161831
2248.000000	15.325608
2247.000000	15.510865
2246.000000	15.638336
2245.000000	15.780128
2244.000000	15.905885
2243.000000	16.029726
2242.000000	16.141667
2241.000000	16.245943
2240.000000	16.323999
2239.000000	16.421519
2238.000000	16.487675
2237.000000	16.577631
2236.000000	16.633904
2235.000000	16.671217
2234.000000	16.739290
2233.000000	16.764401
2232.000000	16.818556
2231.000000	16.843566
2230.000000	16.855063
2229.000000	16.880274
2228.000000	16.897923
2227.000000	16.889048
2226.000000	16.922328
2225.000000	16.912142
2224.000000	16.883905
2223.000000	16.870089
2222.000000	16.855365
2221.000000	16.815329
2220.000000	16.789612
2219.000000	16.748668
2218.000000	16.709338
2217.000000	16.691084
2216.000000	16.662948
2215.000000	16.621197
2214.000000	16.584993
2213.000000	16.530232
2212.000000	16.512887
2211.000000	16.485759
2210.000000	16.462059
2209.000000	16.427973
2208.000000	16.409518
2207.000000	16.366758
2206.000000	16.339731
2205.000000	16.331865
2204.000000	16.284971
2203.000000	16.285173
2202.000000	16.263793
2201.000000	16.241909
2200.000000	16.235152
2199.000000	16.214176
2198.000000	16.195822
2197.000000	16.182409
2196.000000	16.184123
2195.000000	16.167988
2194.000000	16.161634
2193.000000	16.148121
2192.000000	16.127346
2191.000000	16.116455
2190.000000	16.101832
2189.000000	16.103950
2188.000000	16.084083
2187.000000	16.081158
2186.000000	16.076922
2185.000000	16.050702
2184.000000	16.029928
2183.000000	16.007741
2182.000000	16.019238
2181.000000	16.005724
2180.000000	15.990395
2179.000000	15.974260
2178.000000	15.948039
2177.000000	15.928677
2176.000000	15.939467
2175.000000	15.925147
2174.000000	15.909717
2173.000000	15.919802
2172.000000	15.916676
2171.000000	15.916071
2170.000000	15.929887
2169.000000	15.938055
2168.000000	15.928273
2167.000000	15.941383
2166.000000	15.952174
2165.000000	15.949451
2164.000000	15.980916
2163.000000	15.996446
2162.000000	16.032449
2161.000000	16.058064
2160.000000	16.067947
2159.000000	16.107782
2158.000000	16.136221
2157.000000	16.168391
2156.000000	16.199351
2155.000000	16.239287
2154.000000	16.261877
2153.000000	16.318957
2152.000000	16.373112
2151.000000	16.413955
2150.000000	16.469825
2149.000000	16.520148
2148.000000	16.547982
2147.000000	16.583379
2146.000000	16.637333
2145.000000	16.677268
2144.000000	16.720431
2143.000000	16.773981
2142.000000	16.820169
2141.000000	16.863231
2140.000000	16.905486
2139.000000	16.936043
2138.000000	16.989694
2137.000000	17.015309
2136.000000	17.046270
2135.000000	17.069162
2134.000000	17.107081
2133.000000	17.128965
2132.000000	17.160127
2131.000000	17.183221
2130.000000	17.194011
2129.000000	17.216198
2128.000000	17.241611
2127.000000	17.255831
2126.000000	17.268134
2125.000000	17.272572
2124.000000	17.283463
2123.000000	17.288405
2122.000000	17.305448
2121.000000	17.286690
2120.000000	17.280438
2119.000000	17.287699
2118.000000	17.281648
2117.000000	17.274387
2116.000000	17.256537
2115.000000	17.234754
2114.000000	17.214887
2113.000000	17.202886
2112.000000	17.191087
2111.000000	17.193507
2110.000000	17.186044
2109.000000	17.160227
2108.000000	17.125233
2107.000000	17.104761
2106.000000	17.093063
2105.000000	17.079953
2104.000000	17.052825
2103.000000	17.020352
2102.000000	17.000384
2101.000000	16.969424
2100.000000	16.931303
2099.000000	16.924950
2098.000000	16.927169
2097.000000	16.896108
2096.000000	16.874425
2095.000000	16.863332
2094.000000	16.844070
2093.000000	16.824102
2092.000000	16.808168
2091.000000	16.805244
2090.000000	16.795260
2089.000000	16.771561
2088.000000	16.755123
2087.000000	16.755223
2086.000000	16.750383
2085.000000	16.725473
2084.000000	16.701068
2083.000000	16.671822
2082.000000	16.662242
2081.000000	16.634509
2080.000000	16.585094
2079.000000	16.549999
2078.000000	16.529224
2077.000000	16.490398
2076.000000	16.441285
2075.000000	16.411837
2074.000000	16.379465
2073.000000	16.324806
2072.000000	16.274180
2071.000000	16.222950
2070.000000	16.156189
2069.000000	16.094974
2068.000000	16.055442
2067.000000	15.997253
2066.000000	15.935534
2065.000000	15.877748
2064.000000	15.809374
2063.000000	15.757336
2062.000000	15.701870
2061.000000	15.648824
2060.000000	15.613629
2059.000000	15.570970
2058.000000	15.529824
2057.000000	15.510865
2056.000000	15.474459
2055.000000	15.439767
2054.000000	15.430691
2053.000000	15.440171
2052.000000	15.445919
2051.000000	15.465484
2050.000000	15.489687
2049.000000	15.504713
2048.000000	15.558868
2047.000000	15.599813
2046.000000	15.633092
2045.000000	15.705501
2044.000000	15.765001
2043.000000	15.826720
2042.000000	15.870487
2041.000000	15.928273
2040.000000	16.005220
2039.000000	16.050702
2038.000000	16.090033
2037.000000	16.144793
2036.000000	16.188662
2035.000000	16.234749
2034.000000	16.280332
2033.000000	16.311998
2032.000000	16.335597
2031.000000	16.362422
2030.000000	16.376339
2029.000000	16.394592
2028.000000	16.415871
2027.000000	16.434730
2026.000000	16.440982
2025.000000	16.442092
2024.000000	16.461555
2023.000000	16.453387
2022.000000	16.465791
2021.000000	16.464480
2020.000000	16.434730
2019.000000	16.429082
2018.000000	16.428477
2017.000000	16.421922
2016.000000	16.388037
2015.000000	16.368473
2014.000000	16.363834
2013.000000	16.342353
2012.000000	16.314822
2011.000000	16.275491
2010.000000	16.223857
2009.000000	16.213168
2008.000000	16.192595
2007.000000	16.153365
2006.000000	16.106471
2005.000000	16.049694
2004.000000	16.006934
2003.000000	15.954594
2002.000000	15.903162
2001.000000	15.844973
2000.000000	15.793440
1999.000000	15.721636
1998.000000	15.662842
1997.000000	15.620587
1996.000000	15.553826
1995.000000	15.464072
1994.000000	15.401950
1993.000000	15.328835
1992.000000	15.274276
1991.000000	15.196624
1990.000000	15.118064
1989.000000	15.052109
1988.000000	14.975062
1987.000000	14.890955
1986.000000	14.820765
1985.000000	14.744726
1984.000000	14.667073
1983.000000	14.586092
1982.000000	14.499565
1981.000000	14.427963
1980.000000	14.343554
1979.000000	14.249665
1978.000000	14.164449
1977.000000	14.095671
1976.000000	14.021548
1975.000000	13.960434
1974.000000	13.879252
1973.000000	13.794943
1972.000000	13.721829
1971.000000	13.619267
1970.000000	13.551900
1969.000000	13.511360
1968.000000	13.431690
1967.000000	13.343953
1966.000000	13.282133
1965.000000	13.206699
1964.000000	13.163839
1963.000000	13.119466
1962.000000	13.007828
1961.000000	12.928864
1960.000000	12.889231
1959.000000	12.809864
1958.000000	12.753591
1957.000000	12.692175
1956.000000	12.629145
1955.000000	12.570351
1954.000000	12.503287
1953.000000	12.431181
1952.000000	12.370773
1951.000000	12.333460
1950.000000	12.302499
1949.000000	12.253689
1948.000000	12.184508
1947.000000	12.145379
1946.000000	12.112906
1945.000000	12.067121
1944.000000	12.014580
1943.000000	12.009739
1942.000000	11.967484
1941.000000	11.933801
1940.000000	11.898504
1939.000000	11.893966
1938.000000	11.858165
1937.000000	11.873292
1936.000000	11.867645
1935.000000	11.844147
1934.000000	11.864720
1933.000000	11.897899
1932.000000	11.904151
1931.000000	11.925531
1930.000000	11.948222
1929.000000	11.979686
1928.000000	12.014479
1927.000000	12.076601
1926.000000	12.116536
1925.000000	12.211535
1924.000000	12.311071
1923.000000	12.358167
1922.000000	12.440963
1921.000000	12.533844
1920.000000	12.651432
1919.000000	12.762667
1918.000000	12.854539
1917.000000	13.025173
1916.000000	13.146594
1915.000000	13.263577
1914.000000	13.392359
1913.000000	13.577616
1912.000000	13.748251
1911.000000	13.919288
1910.000000	14.079434
1909.000000	14.270540
1908.000000	14.457814
1907.000000	14.656686
1906.000000	14.863322
1905.000000	15.108281
1904.000000	15.327625
1903.000000	15.564213
1902.000000	15.828232
1901.000000	16.079444
1900.000000	16.378961
1899.000000	16.705203
1898.000000	17.050404
1897.000000	17.402564
1896.000000	17.713477
1895.000000	18.043652
1894.000000	18.389761
1893.000000	18.758662
1892.000000	19.106485
1891.000000	19.541340
1890.000000	19.955017
1889.000000	20.368895
1888.000000	20.791346
1887.000000	21.243748
1886.000000	21.688083
1885.000000	22.147746
1884.000000	22.636252
1883.000000	23.127682
1882.000000	23.578572
1881.000000	24.047312
1880.000000	24.541162
1879.000000	24.964823
1878.000000	25.392013
1877.000000	25.833323
1876.000000	26.222897
1875.000000	26.573040
1874.000000	26.958479
1873.000000	27.328489
1872.000000	27.648983
1871.000000	27.949710
1870.000000	28.255077
1869.000000	28.503364
1868.000000	28.811554
1867.000000	29.048344
1866.000000	29.258611
1865.000000	29.448507
1864.000000	29.643748
1863.000000	29.849780
1862.000000	30.025860
1861.000000	30.183989
1860.000000	30.329008
1859.000000	30.457992
1858.000000	30.546032
1857.000000	30.648392
1856.000000	30.756904
1855.000000	30.816606
1854.000000	30.888510
1853.000000	30.943775
1852.000000	30.960011
1851.000000	31.015175
1850.000000	31.099382
1849.000000	31.170883
1848.000000	31.192566
1847.000000	31.151521
1846.000000	31.105938
1845.000000	31.075280
1844.000000	31.098071
1843.000000	31.139520
1842.000000	31.204062
1841.000000	31.223425
1840.000000	31.182078
1839.000000	31.141738
1838.000000	31.107551
1837.000000	31.081129
1836.000000	31.059850
1835.000000	31.025260
1834.000000	30.984416
1833.000000	30.953859
1832.000000	30.935505
1831.000000	30.938732
1830.000000	30.909991
1829.000000	30.861786
1828.000000	30.820135
1827.000000	30.762854
1826.000000	30.707892
1825.000000	30.676428
1824.000000	30.652023
1823.000000	30.657267
1822.000000	30.682882
1821.000000	30.690546
1820.000000	30.631450
1819.000000	30.567311
1818.000000	30.525963
1817.000000	30.511239
1816.000000	30.514769
1815.000000	30.517694
1814.000000	30.507004
1813.000000	30.491675
1812.000000	30.479472
1811.000000	30.452849
1810.000000	30.412308
1809.000000	30.376003
1808.000000	30.365817
1807.000000	30.349883
1806.000000	30.329714
1805.000000	30.294820
1804.000000	30.248834
1803.000000	30.215352
1802.000000	30.186207
1801.000000	30.160088
1800.000000	30.118438
1799.000000	30.058131
1798.000000	30.022431
1797.000000	30.002867
1796.000000	29.965150
1795.000000	29.944778
1794.000000	29.920272
1793.000000	29.875093
1792.000000	29.835056
1791.000000	29.789070
1790.000000	29.753672
1789.000000	29.733402
1788.000000	29.720392
1787.000000	29.690642
1786.000000	29.664825
1785.000000	29.638605
1784.000000	29.586769
1783.000000	29.550162
1782.000000	29.519504
1781.000000	29.472610
1780.000000	29.431061
1779.000000	29.396873
1778.000000	29.348063
1777.000000	29.300766
1776.000000	29.252056
1775.000000	29.208591
1774.000000	29.159075
1773.000000	29.095440
1772.000000	29.054597
1771.000000	29.005786
1770.000000	28.949009
1769.000000	28.884366
1768.000000	28.814983
1767.000000	28.766072
1766.000000	28.720287
1765.000000	28.667543
1764.000000	28.630936
1763.000000	28.622969
1762.000000	28.605522
1761.000000	28.617019
1760.000000	28.635171
1759.000000	28.672082
1758.000000	28.707580
1757.000000	28.752255
1756.000000	28.802276
1755.000000	28.845136
1754.000000	28.885979
1753.000000	28.926016
1752.000000	28.955161
1751.000000	28.986323
1750.000000	28.997618
1749.000000	28.994491
1748.000000	28.986928
1747.000000	28.967968
1746.000000	28.936807
1745.000000	28.895762
1744.000000	28.842716
1743.000000	28.786645
1742.000000	28.711110
1741.000000	28.613590
1740.000000	28.503263
1739.000000	28.383254
1738.000000	28.276356
1737.000000	28.151204
1736.000000	28.038860
1735.000000	27.941340
1734.000000	27.860864
1733.000000	27.794304
1732.000000	27.761327
1731.000000	27.745998
1730.000000	27.749830
1729.000000	27.773933
1728.000000	27.818608
1727.000000	27.856628
1726.000000	27.897370
1725.000000	27.937911
1724.000000	27.980570
1723.000000	28.033414
1722.000000	28.087569
1721.000000	28.138497
1720.000000	28.192450
1719.000000	28.244690
1718.000000	28.304391
1717.000000	28.393541
1716.000000	28.468067
1715.000000	28.559031
1714.000000	28.651811
1713.000000	28.740456
1712.000000	28.827488
1711.000000	28.904233
1710.000000	28.967868
1709.000000	29.025452
1708.000000	29.037049
1707.000000	29.050764
1706.000000	29.065791
1705.000000	29.057723
1704.000000	29.041789
1703.000000	29.008106
1702.000000	28.970288
1701.000000	28.899493
1700.000000	28.836967
1699.000000	28.756289
1698.000000	28.670871
1697.000000	28.573150
1696.000000	28.498725
1695.000000	28.415929
1694.000000	28.408769
1693.000000	28.407458
1692.000000	28.411290
1691.000000	28.464941
1690.000000	28.538358
1689.000000	28.619742
1688.000000	28.689226
1687.000000	28.753062
1686.000000	28.821235
1685.000000	28.892333
1684.000000	28.963330
1683.000000	29.067102
1682.000000	29.222609
1681.000000	29.397680
1680.000000	29.623982
1679.000000	29.877916
1678.000000	30.187216
1677.000000	30.482397
1676.000000	30.775763
1675.000000	31.063783
1674.000000	31.322457
1673.000000	31.576795
1672.000000	31.769515
1671.000000	31.956184
1670.000000	32.074175
1669.000000	32.252171
1668.000000	32.389324
1667.000000	32.507820
1666.000000	32.603827
1665.000000	32.693178
1664.000000	32.761553
1663.000000	32.832549
1662.000000	32.896184
1661.000000	32.957802
1660.000000	32.992695
1659.000000	33.049876
1658.000000	33.087694
1657.000000	33.122083
1656.000000	33.135798
1655.000000	33.150421
1654.000000	33.164540
1653.000000	33.152942
1652.000000	33.145479
1651.000000	33.179163
1650.000000	33.135395
1649.000000	33.123797
1648.000000	33.115225
1647.000000	33.087089
1646.000000	33.082349
1645.000000	33.040598
1644.000000	33.025067
1643.000000	32.986846
1642.000000	32.939649
1641.000000	32.907378
1640.000000	32.875510
1639.000000	32.825288
1638.000000	32.809455
1637.000000	32.768209
1636.000000	32.735836
1635.000000	32.675328
1634.000000	32.644872
1633.000000	32.580329
1632.000000	32.518308
1631.000000	32.480087
1630.000000	32.430571
1629.000000	32.377727
1628.000000	32.308848
1627.000000	32.249549
1626.000000	32.186822
1625.000000	32.132566
1624.000000	32.063586
1623.000000	32.026979
1622.000000	31.969798
1621.000000	31.918063
1620.000000	31.868144
1619.000000	31.808240
1618.000000	31.748034
1617.000000	31.700636
1616.000000	31.637304
1615.000000	31.593132
1614.000000	31.540389
1613.000000	31.493293
1612.000000	31.426230
1611.000000	31.384075
1610.000000	31.322558
1609.000000	31.264369
1608.000000	31.221206
1607.000000	31.178447
1606.000000	31.110173
1605.000000	31.053900
1604.000000	30.990770
1603.000000	30.927942
1602.000000	30.870559
1601.000000	30.799865
1600.000000	30.745407
1599.000000	30.687420
1598.000000	30.647989
1597.000000	30.574672
1596.000000	30.516887
1595.000000	30.466564
1594.000000	30.409585
1593.000000	30.351799
1592.000000	30.310855
1591.000000	30.263053
1590.000000	30.206780
1589.000000	30.162004
1588.000000	30.133363
1587.000000	30.077897
1586.000000	30.023944
1585.000000	29.978764
1584.000000	29.927634
1583.000000	29.903532
1582.000000	29.860571
1581.000000	29.810046
1580.000000	29.772631
1579.000000	29.739957
1578.000000	29.716762
1577.000000	29.679347
1576.000000	29.655547
1575.000000	29.631848
1574.000000	29.595341
1573.000000	29.571037
1572.000000	29.559843
1571.000000	29.540682
1570.000000	29.516277
1569.000000	29.511033
1568.000000	29.496107
1567.000000	29.492981
1566.000000	29.484107
1565.000000	29.461617
1564.000000	29.458290
1563.000000	29.451028
1562.000000	29.444776
1561.000000	29.417043
1560.000000	29.402622
1559.000000	29.381040
1558.000000	29.352904
1557.000000	29.321439
1556.000000	29.291488
1555.000000	29.257401
1554.000000	29.225332
1553.000000	29.193665
1552.000000	29.151209
1551.000000	29.102903
1550.000000	29.060446
1549.000000	29.022527
1548.000000	28.996710
1547.000000	28.944874
1546.000000	28.897980
1545.000000	28.857339
1544.000000	28.814882
1543.000000	28.772324
1542.000000	28.737330
1541.000000	28.703647
1540.000000	28.667846
1539.000000	28.641424
1538.000000	28.613187
1537.000000	28.573654
1536.000000	28.530492
1535.000000	28.492976
1534.000000	28.454957
1533.000000	28.417542
1532.000000	28.363185
1531.000000	28.310341
1530.000000	28.273330
1529.000000	28.227243
1528.000000	28.177626
1527.000000	28.122361
1526.000000	28.062559
1525.000000	28.003059
1524.000000	27.956165
1523.000000	27.908968
1522.000000	27.867620
1521.000000	27.806103
1520.000000	27.734300
1519.000000	27.673690
1518.000000	27.609148
1517.000000	27.549547
1516.000000	27.486517
1515.000000	27.427824
1514.000000	27.359752
1513.000000	27.283511
1512.000000	27.208682
1511.000000	27.133652
1510.000000	27.066386
1509.000000	26.998717
1508.000000	26.924292
1507.000000	26.855211
1506.000000	26.787543
1505.000000	26.716243
1504.000000	26.648675
1503.000000	26.570922
1502.000000	26.496396
1501.000000	26.425903
1500.000000	26.356016
1499.000000	26.286633
1498.000000	26.225015
1497.000000	26.173885
1496.000000	26.123360
1495.000000	26.069709
1494.000000	26.011016
1493.000000	25.946070
1492.000000	25.886974
1491.000000	25.841491
1490.000000	25.809523
1489.000000	25.761317
1488.000000	25.714322
1487.000000	25.680135
1486.000000	25.643628
1485.000000	25.599457
1484.000000	25.555487
1483.000000	25.513938
1482.000000	25.480860
1481.000000	25.456052
1480.000000	25.421764
1479.000000	25.383441
1478.000000	25.346229
1477.000000	25.339169
1476.000000	25.314260
1475.000000	25.304780
1474.000000	25.291065
1473.000000	25.277551
1472.000000	25.284308
1471.000000	25.290561
1470.000000	25.285518
1469.000000	25.279669
1468.000000	25.270996
1467.000000	25.274929
1466.000000	25.288342
1465.000000	25.305990
1464.000000	25.304377
1463.000000	25.312142
1462.000000	25.342497
1461.000000	25.365491
1460.000000	25.383139
1459.000000	25.405023
1458.000000	25.441530
1457.000000	25.474608
1456.000000	25.524426
1455.000000	25.583321
1454.000000	25.640300
1453.000000	25.677211
1452.000000	25.735500
1451.000000	25.787840
1450.000000	25.841290
1449.000000	25.891108
1448.000000	25.919749
1447.000000	25.992460
1446.000000	26.081509
1445.000000	26.152404
1444.000000	26.209787
1443.000000	26.254866
1442.000000	26.318097
1441.000000	26.401901
1440.000000	26.494984
1439.000000	26.573544
1438.000000	26.667030
1437.000000	26.735102
1436.000000	26.815377
1435.000000	26.932561
1434.000000	27.019290
1433.000000	27.129113
1432.000000	27.235508
1431.000000	27.324153
1430.000000	27.428530
1429.000000	27.542387
1428.000000	27.671673
1427.000000	27.800859
1426.000000	27.954047
1425.000000	28.120344
1424.000000	28.288054
1423.000000	28.443460
1422.000000	28.607035
1421.000000	28.751751
1420.000000	28.964943
1419.000000	29.171580
1418.000000	29.367728
1417.000000	29.560751
1416.000000	29.752462
1415.000000	29.963435
1414.000000	30.239758
1413.000000	30.498331
1412.000000	30.692967
1411.000000	30.912814
1410.000000	31.212836
1409.000000	31.544524
1408.000000	31.839200
1407.000000	32.148097
1406.000000	32.426335
1405.000000	32.761351
1404.000000	33.076298
1403.000000	33.387312
1402.000000	33.732816
1401.000000	34.111599
1400.000000	34.514889
1399.000000	34.819852
1398.000000	35.108075
1397.000000	35.380666
1396.000000	35.763080
1395.000000	36.177059
1394.000000	36.499469
1393.000000	36.767723
1392.000000	37.085898
1391.000000	37.444814
1390.000000	37.823295
1389.000000	38.167892
1388.000000	38.603049
1387.000000	39.026407
1386.000000	39.419713
1385.000000	39.836718
1384.000000	40.317761
1383.000000	40.742127
1382.000000	41.174764
1381.000000	41.558287
1380.000000	41.877974
1379.000000	42.099939
1378.000000	42.365673
1377.000000	42.544476
1376.000000	42.772089
1375.000000	42.968036
1374.000000	43.118904
1373.000000	43.321002
1372.000000	43.545993
1371.000000	43.803860
1370.000000	44.027036
1369.000000	44.227420
1368.000000	44.455336
1367.000000	44.653602
1366.000000	44.831800
1365.000000	44.959675
1364.000000	45.153000
1363.000000	45.250217
1362.000000	45.434768
1361.000000	45.567382
1360.000000	45.626882
1359.000000	45.690215
1358.000000	45.757884
1357.000000	45.852882
1356.000000	45.948385
1355.000000	46.111354
1354.000000	46.291166
1353.000000	46.480860
1352.000000	46.664705
1351.000000	46.961096
1350.000000	47.256882
1349.000000	47.522111
1348.000000	47.776953
1347.000000	48.023929
1346.000000	48.256988
1345.000000	48.484097
1344.000000	48.728148
1343.000000	48.981074
1342.000000	49.176214
1341.000000	49.414517
1340.000000	49.640214
1339.000000	49.854616
1338.000000	50.061252
1337.000000	50.277772
1336.000000	50.501351
1335.000000	50.705568
1334.000000	50.900304
1333.000000	51.122371
1332.000000	51.327495
1331.000000	51.522836
1330.000000	51.703959
1329.000000	51.896880
1328.000000	52.084154
1327.000000	52.260032
1326.000000	52.431978
1325.000000	52.611587
1324.000000	52.785146
1323.000000	52.946099
1322.000000	53.092933
1321.000000	53.232002
1320.000000	53.384584
1319.000000	53.539788
1318.000000	53.683093
1317.000000	53.816817
1316.000000	53.932287
1315.000000	54.067726
1314.000000	54.190659
1313.000000	54.327509
1312.000000	54.441164
1311.000000	54.554114
1310.000000	54.665853
1309.000000	54.778802
1308.000000	54.863212
1307.000000	54.949235
1306.000000	55.038081
1305.000000	55.118356
1304.000000	55.201959
1303.000000	55.266098
1302.000000	55.325194
1301.000000	55.386913
1300.000000	55.446010
1299.000000	55.499862
1298.000000	55.535462
1297.000000	55.578826
1296.000000	55.624913
1295.000000	55.655470
1294.000000	55.684010
1293.000000	55.710634
1292.000000	55.734837
1291.000000	55.750267
1290.000000	55.754906
1289.000000	55.761159
1288.000000	55.760049
1287.000000	55.770033
1286.000000	55.761864
1285.000000	55.741191
1284.000000	55.720517
1283.000000	55.704079
1282.000000	55.674430
1281.000000	55.653050
1280.000000	55.621485
1279.000000	55.589415
1278.000000	55.558152
1277.000000	55.520738
1276.000000	55.491694
1275.000000	55.469306
1274.000000	55.446312
1273.000000	55.429672
1272.000000	55.394880
1271.000000	55.386106
1270.000000	55.364122
1269.000000	55.333161
1268.000000	55.314706
1267.000000	55.303109
1266.000000	55.287982
1265.000000	55.259341
1264.000000	55.231003
1263.000000	55.195908
1262.000000	55.180176
1261.000000	55.164342
1260.000000	55.132878
1259.000000	55.098691
1258.000000	55.073580
1257.000000	55.052704
1256.000000	55.028803
1255.000000	54.984027
1254.000000	54.944495
1253.000000	54.925031
1252.000000	54.885398
1251.000000	54.839815
1250.000000	54.788887
1249.000000	54.737757
1248.000000	54.686426
1247.000000	54.630758
1246.000000	54.577309
1245.000000	54.520229
1244.000000	54.437836
1243.000000	54.365730
1242.000000	54.309054
1241.000000	54.237150
1240.000000	54.160304
1239.000000	54.084567
1238.000000	54.023857
1237.000000	53.958205
1236.000000	53.881158
1235.000000	53.808850
1234.000000	53.737752
1233.000000	53.653847
1232.000000	53.572161
1231.000000	53.493096
1230.000000	53.420687
1229.000000	53.341119
1228.000000	53.237952
1227.000000	53.146785
1226.000000	53.054409
1225.000000	52.960217
1224.000000	52.871673
1223.000000	52.770523
1222.000000	52.671491
1221.000000	52.580728
1220.000000	52.484923
1219.000000	52.385285
1218.000000	52.285345
1217.000000	52.193977
1216.000000	52.102508
1215.000000	52.001056
1214.000000	51.907570
1213.000000	51.823967
1212.000000	51.744197
1211.000000	51.666645
1210.000000	51.562066
1209.000000	51.475942
1208.000000	51.392138
1207.000000	51.314586
1206.000000	51.230681
1205.000000	51.151516
1204.000000	51.083746
1203.000000	51.011741
1202.000000	50.973822
1201.000000	50.929046
1200.000000	50.868941
1199.000000	50.813273
1198.000000	50.762143
1197.000000	50.688625
1196.000000	50.592013
1195.000000	50.482190
1194.000000	50.351290
1193.000000	50.196388
1192.000000	50.010123
1191.000000	49.791485
1190.000000	49.564780
1189.000000	49.342310
1188.000000	49.133152
1187.000000	48.964434
1186.000000	48.849972
1185.000000	48.776353
1184.000000	48.777160
1183.000000	48.863384
1182.000000	49.002252
1181.000000	49.211510
1180.000000	49.449813
1179.000000	49.712118
1178.000000	49.982995
1177.000000	50.249434
1176.000000	50.488947
1175.000000	50.701634
1174.000000	50.887295
1173.000000	51.090906
1172.000000	51.277172
1171.000000	51.453958
1170.000000	51.655552
1169.000000	51.866323
1168.000000	52.069229
1167.000000	52.281412
1166.000000	52.510538
1165.000000	52.747631
1164.000000	52.977261
1163.000000	53.216169
1162.000000	53.463346
1161.000000	53.730390
1160.000000	53.990476
1159.000000	54.231300
1158.000000	54.482814
1157.000000	54.747136
1156.000000	54.990784
1155.000000	55.212749
1154.000000	55.429874
1153.000000	55.636813
1152.000000	55.802405
1151.000000	55.935322
1150.000000	56.064710
1149.000000	56.195913
1148.000000	56.323989
1147.000000	56.470117
1146.000000	56.603740
1145.000000	56.774374
1144.000000	56.965884
1143.000000	57.182202
1142.000000	57.426052
1141.000000	57.703282
1140.000000	57.977789
1139.000000	58.266011
1138.000000	58.569462
1137.000000	58.876543
1136.000000	59.215794
1135.000000	59.583888
1134.000000	59.924551
1133.000000	60.233951
1132.000000	60.494037
1131.000000	60.763704
1130.000000	61.021571
1129.000000	61.250697
1128.000000	61.446543
1127.000000	61.602050
1126.000000	61.732849
1125.000000	61.851244
1124.000000	61.923955
1123.000000	62.034484
1122.000000	62.085110
1121.000000	62.136139
1120.000000	62.166090
1119.000000	62.191302
1118.000000	62.225792
1117.000000	62.237591
1116.000000	62.254534
1115.000000	62.252920
1114.000000	62.259979
1113.000000	62.260383
1112.000000	62.252214
1111.000000	62.252013
1110.000000	62.222363
1109.000000	62.236684
1108.000000	62.222363
1107.000000	62.204211
1106.000000	62.219842
1105.000000	62.211169
1104.000000	62.210665
1103.000000	62.186260
1102.000000	62.170931
1101.000000	62.184243
1100.000000	62.161351
1099.000000	62.166998
1098.000000	62.160745
1097.000000	62.143097
1096.000000	62.174864
1095.000000	62.152073
1094.000000	62.141887
1093.000000	62.125550
1092.000000	62.103867
1091.000000	62.091766
1090.000000	62.078857
1089.000000	62.071596
1088.000000	62.048099
1087.000000	62.013508
1086.000000	61.998280
1085.000000	61.996263
1084.000000	61.981237
1083.000000	61.955420
1082.000000	61.944125
1081.000000	61.940696
1080.000000	61.900962
1079.000000	61.899550
1078.000000	61.871212
1077.000000	61.862942
1076.000000	61.837025
1075.000000	61.809897
1074.000000	61.784281
1073.000000	61.766330
1072.000000	61.771272
1071.000000	61.741421
1070.000000	61.725286
1069.000000	61.687669
1068.000000	61.661953
1067.000000	61.652574
1066.000000	61.640069
1065.000000	61.613244
1064.000000	61.585712
1063.000000	61.574216
1062.000000	61.559593
1061.000000	61.533877
1060.000000	61.492025
1059.000000	61.472561
1058.000000	61.444627
1057.000000	61.411851
1056.000000	61.365159
1055.000000	61.335610
1054.000000	61.305558
1053.000000	61.269858
1052.000000	61.236679
1051.000000	61.218224
1050.000000	61.180507
1049.000000	61.166792
1048.000000	61.114250
1047.000000	61.104165
1046.000000	61.064532
1045.000000	61.035286
1044.000000	60.998477
1043.000000	60.977803
1042.000000	60.943717
1041.000000	60.913967
1040.000000	60.895814
1039.000000	60.857089
1038.000000	60.817556
1037.000000	60.783470
1036.000000	60.752510
1035.000000	60.723062
1034.000000	60.689076
1033.000000	60.657713
1032.000000	60.632703
1031.000000	60.589540
1030.000000	60.559790
1029.000000	60.540024
1028.000000	60.515719
1027.000000	60.472960
1026.000000	60.445126
1025.000000	60.438672
1024.000000	60.417696
1023.000000	60.375037
1022.000000	60.385223
1021.000000	60.368482
1020.000000	60.355372
1019.000000	60.361624
1018.000000	60.354767
1017.000000	60.351035
1016.000000	60.370196
1015.000000	60.381189
1014.000000	60.412351
1013.000000	60.442101
1012.000000	60.481028
1011.000000	60.509366
1010.000000	60.558277
1009.000000	60.603053
1008.000000	60.658822
1007.000000	60.718726
1006.000000	60.804244
1005.000000	60.866568
1004.000000	60.926472
1003.000000	61.004830
1002.000000	61.071491
1001.000000	61.139563
1000.000000	61.208744
999.000000	61.287204
998.000000	61.364755
997.000000	61.430710
996.000000	61.503824
995.000000	61.581578
994.000000	61.665785
993.000000	61.733051
992.000000	61.795173
991.000000	61.863548
990.000000	61.915585
989.000000	61.986481
988.000000	62.046788
987.000000	62.118692
986.000000	62.179604
985.000000	62.253626
984.000000	62.301630
983.000000	62.366172
982.000000	62.445942
981.000000	62.517343
980.000000	62.575733
979.000000	62.632511
978.000000	62.711071
977.000000	62.786807
976.000000	62.857098
975.000000	62.918918
974.000000	62.982452
973.000000	63.054154
972.000000	63.120310
971.000000	63.215006
970.000000	63.304761
969.000000	63.388565
968.000000	63.468840
967.000000	63.559098
966.000000	63.673863
965.000000	63.794477
964.000000	63.918620
963.000000	64.048915
962.000000	64.178706
961.000000	64.310917
960.000000	64.458861
959.000000	64.622637
958.000000	64.787321
957.000000	64.931836
956.000000	65.079577
955.000000	65.237001
954.000000	65.402492
953.000000	65.570302
952.000000	65.734482
951.000000	65.902595
950.000000	66.067682
949.000000	66.226517
948.000000	66.395034
947.000000	66.559415
946.000000	66.717040
945.000000	66.879505
944.000000	67.045299
943.000000	67.191931
942.000000	67.338564
941.000000	67.489734
940.000000	67.633240
939.000000	67.774225
938.000000	67.909966
937.000000	68.045808
936.000000	68.189415
935.000000	68.299339
934.000000	68.397766
933.000000	68.510009
932.000000	68.611765
931.000000	68.724311
930.000000	68.829696
929.000000	68.913299
928.000000	68.990347
927.000000	69.088572
926.000000	69.179436
925.000000	69.252046
924.000000	69.341296
923.000000	69.434984
922.000000	69.524335
921.000000	69.626997
920.000000	69.725526
919.000000	69.817398
918.000000	69.914615
917.000000	70.021715
916.000000	70.122462
915.000000	70.241563
914.000000	70.360361
913.000000	70.482992
912.000000	70.615506
911.000000	70.748927
910.000000	70.894652
909.000000	71.050461
908.000000	71.207582
907.000000	71.382754
906.000000	71.580819
905.000000	71.792599
904.000000	72.016581
903.000000	72.238143
902.000000	72.468076
901.000000	72.712833
900.000000	72.969490
899.000000	73.222719
898.000000	73.492587
897.000000	73.742588
896.000000	73.995312
895.000000	74.261852
894.000000	74.525871
893.000000	74.760443
892.000000	75.005805
891.000000	75.255907
890.000000	75.495521
889.000000	75.722932
888.000000	75.945301
887.000000	76.161922
886.000000	76.394779
885.000000	76.610593
884.000000	76.821969
883.000000	77.042019
882.000000	77.261463
881.000000	77.480302
880.000000	77.707411
879.000000	77.916872
878.000000	78.134299
877.000000	78.324195
876.000000	78.506830
875.000000	78.703886
874.000000	78.872907
873.000000	79.010766
872.000000	79.110000
871.000000	79.209637
870.000000	79.318250
869.000000	79.494229
868.000000	79.687352
867.000000	79.940177
866.000000	80.205507
865.000000	80.433221
864.000000	80.671221
863.000000	80.911339
862.000000	81.155492
861.000000	81.382903
860.000000	81.655897
859.000000	81.897730
858.000000	82.175767
857.000000	81.425800
856.000000	82.542100
855.000000	82.559400
854.000000	82.832500
853.000000	82.942500
852.000000	83.203700
851.000000	83.636000
850.000000	83.953800
849.000000	84.026600
848.000000	84.291800
847.000000	84.393700
846.000000	84.733600
845.000000	85.099700
844.000000	85.701900
843.000000	85.488300
842.000000	86.165200
841.000000	86.549400
840.000000	86.844100
839.000000	87.124600
838.000000	87.774200
837.000000	87.789400
836.000000	87.974700
835.000000	88.450000
834.000000	88.555800
833.000000	88.884900
832.000000	89.365100
831.000000	89.492600
830.000000	89.742700
829.000000	89.950900
828.000000	90.374400
827.000000	90.355800
826.000000	90.511300
825.000000	90.779000
824.000000	90.825800
823.000000	90.811900
822.000000	91.225400
821.000000	91.286000
820.000000	91.262100
819.000000	91.394300
818.000000	91.591200
817.000000	91.405000
816.000000	91.334000
815.000000	91.426700
814.000000	91.226300
813.000000	91.313600
812.000000	91.561300
811.000000	91.403000
810.000000	91.083700
809.000000	91.030100
808.000000	91.046400
807.000000	90.627800
806.000000	90.613800
805.000000	90.581900
804.000000	90.289600
803.000000	90.646100
802.000000	90.395600
801.000000	90.136900
800.000000	90.127400
799.000000	90.151800
798.000000	89.947100
797.000000	89.910400
796.000000	89.777300
795.000000	89.791100
794.000000	89.956900
793.000000	90.170600
792.000000	89.986300
791.000000	89.821900
790.000000	89.786900
789.000000	90.023300
788.000000	89.963100
787.000000	89.632400
786.000000	89.746100
785.000000	89.739100
784.000000	89.551900
783.000000	89.751200
782.000000	89.681300
781.000000	89.725100
780.000000	89.727100
779.000000	89.559200
778.000000	89.563600
777.000000	89.638000
776.000000	89.676900
775.000000	89.759100
774.000000	89.629500
773.000000	89.732100
772.000000	89.702100
771.000000	89.704500
770.000000	89.602300
769.000000	89.732100
768.000000	89.542800
767.000000	89.465400
766.000000	89.440000
765.000000	89.346500
764.000000	89.161200
763.000000	89.048800
762.000000	88.872500
761.000000	88.850300
760.000000	88.667900
759.000000	88.646300
758.000000	88.435800
757.000000	88.267800
756.000000	88.143300
755.000000	87.920200
754.000000	87.673400
753.000000	87.425900
752.000000	87.323000
751.000000	86.998100
750.000000	86.645400
749.000000	86.393800
748.000000	85.930200
747.000000	85.595700
746.000000	85.152600
745.000000	84.737800
744.000000	84.348900
743.000000	83.816300
742.000000	83.289600
741.000000	82.748200
740.000000	82.173800
739.000000	81.745800
738.000000	81.253000
737.000000	80.775800
736.000000	80.147900
735.000000	79.634900
734.000000	79.138500
733.000000	78.594200
732.000000	78.019400
731.000000	77.389800
730.000000	76.893900
729.000000	76.256300
728.000000	75.729300
727.000000	75.184200
726.000000	74.713300
725.000000	74.191200
724.000000	73.589500
723.000000	73.181900
722.000000	72.716800
721.000000	72.333500
720.000000	71.955900
719.000000	71.649400
718.000000	71.411400
717.000000	71.128700
716.000000	71.009500
715.000000	70.917400
714.000000	70.793700
713.000000	70.721500
712.000000	70.831700
711.000000	70.923300
710.000000	71.046900
709.000000	71.112700
708.000000	71.316700
707.000000	71.345000
706.000000	71.525700
705.000000	71.635600
704.000000	71.801600
703.000000	71.954800
702.000000	72.077400
701.000000	72.231900
700.000000	72.422500
699.000000	72.536700
698.000000	72.638100
697.000000	72.788200
696.000000	72.909300
695.000000	73.060400
694.000000	73.191900
693.000000	73.356000
692.000000	73.464500
691.000000	73.596200
690.000000	73.665800
689.000000	73.734900
688.000000	73.737600
687.000000	73.692900
686.000000	73.634900
685.000000	73.584700
684.000000	73.444000
683.000000	73.225300
682.000000	73.034400
681.000000	72.730500
680.000000	72.407100
679.000000	72.156400
678.000000	71.834500
677.000000	71.474100
676.000000	71.138100
675.000000	70.830800
674.000000	70.483600
673.000000	70.059400
672.000000	69.598100
671.000000	69.150900
670.000000	68.631900
669.000000	68.034900
668.000000	67.381100
667.000000	66.736000
666.000000	65.947400
665.000000	65.157000
664.000000	64.328100
663.000000	63.447600
662.000000	62.584300
661.000000	61.697400
660.000000	60.800300
659.000000	59.974700
658.000000	59.180600
657.000000	58.441400
656.000000	57.801400
655.000000	57.249700
654.000000	56.769200
653.000000	56.349200
652.000000	56.005500
651.000000	55.784600
650.000000	55.658700
649.000000	55.575400
648.000000	55.619300
647.000000	55.780300
646.000000	56.017300
645.000000	56.382600
644.000000	56.881600
643.000000	57.483500
642.000000	58.212900
641.000000	59.058500
640.000000	60.014300
639.000000	61.055800
638.000000	62.158500
637.000000	63.353400
636.000000	64.619900
635.000000	65.914800
634.000000	67.242700
633.000000	68.579300
632.000000	69.881100
631.000000	71.193200
630.000000	72.500300
629.000000	73.753500
628.000000	74.924100
627.000000	76.004300
626.000000	77.039700
625.000000	78.020600
624.000000	78.961400
623.000000	79.851900
622.000000	80.703900
621.000000	81.500700
620.000000	82.242800
619.000000	82.936700
618.000000	83.560300
617.000000	84.148800
616.000000	84.702800
615.000000	85.203900
614.000000	85.669900
613.000000	86.066900
612.000000	86.464700
611.000000	86.814300
610.000000	87.098900
609.000000	87.382700
608.000000	87.655200
607.000000	87.857200
606.000000	87.975700
605.000000	88.111800
604.000000	88.245500
603.000000	88.301500
602.000000	88.342100
601.000000	88.338600
600.000000	88.376500
599.000000	88.397600
598.000000	88.387400
597.000000	88.364600
596.000000	88.302000
595.000000	88.228800
594.000000	88.162700
593.000000	88.098600
592.000000	88.003400
591.000000	87.892200
590.000000	87.803000
589.000000	87.666000
588.000000	87.515300
587.000000	87.407300
586.000000	87.239500
585.000000	87.034700
584.000000	86.825500
583.000000	86.623100
582.000000	86.412000
581.000000	86.159500
580.000000	85.946900
579.000000	85.640200
578.000000	85.351700
577.000000	85.081400
576.000000	84.798000
575.000000	84.440400
574.000000	84.056900
573.000000	83.726700
572.000000	83.359500
571.000000	83.018400
570.000000	82.574400
569.000000	82.142500
568.000000	81.696900
567.000000	81.239600
566.000000	80.720900
565.000000	80.193400
564.000000	79.671800
563.000000	79.199900
562.000000	78.647800
561.000000	78.043800
560.000000	77.489700
559.000000	76.868700
558.000000	76.238400
557.000000	75.641500
556.000000	75.027200
555.000000	74.374000
554.000000	73.744000
553.000000	73.040900
552.000000	72.306200
551.000000	71.557600
550.000000	70.754200
549.000000	69.959300
548.000000	69.119600
547.000000	68.249500
546.000000	67.326400
545.000000	66.342300
544.000000	65.348300
543.000000	64.281500
542.000000	63.156700
541.000000	62.060600
540.000000	60.900500
539.000000	59.726900
538.000000	58.529300
537.000000	57.377100
536.000000	56.201800
535.000000	54.984300
534.000000	53.804600
533.000000	52.640300
532.000000	51.531700
531.000000	50.429600
530.000000	49.381200
529.000000	48.399000
528.000000	47.464900
527.000000	46.581700
526.000000	45.752400
525.000000	44.973000
524.000000	44.251800
523.000000	43.560200
522.000000	42.903600
521.000000	42.295900
520.000000	41.745600
519.000000	41.226400
518.000000	40.710000
517.000000	40.233600
516.000000	39.802900
515.000000	39.346700
514.000000	38.898700
513.000000	38.461800
512.000000	38.044200
511.000000	37.583000
510.000000	37.164300
509.000000	36.709000
508.000000	36.257200
507.000000	35.766300
506.000000	35.299700
505.000000	34.791500
504.000000	34.280000
503.000000	33.818000
502.000000	33.347800
501.000000	32.829200
500.000000	32.314000
499.000000	31.844000
498.000000	31.419500
497.000000	30.939700
496.000000	30.601900
495.000000	30.259300
494.000000	29.891200
493.000000	29.614900
492.000000	29.372100
491.000000	29.131000
490.000000	28.978500
489.000000	28.832500
488.000000	28.736400
487.000000	28.710100
486.000000	28.648100
485.000000	28.634000
484.000000	28.653600
483.000000	28.691200
482.000000	28.704200
481.000000	28.727800
480.000000	28.729700
479.000000	28.745200
478.000000	28.773100
477.000000	28.795400
476.000000	28.781400
475.000000	28.778400
474.000000	28.764300
473.000000	28.736600
472.000000	28.686800
471.000000	28.643300
470.000000	28.573400
469.000000	28.486000
468.000000	28.408300
467.000000	28.349700
466.000000	28.231000
465.000000	28.124600
464.000000	27.980100
463.000000	27.877100
462.000000	27.704000
461.000000	27.568400
460.000000	27.403800
459.000000	27.256800
458.000000	27.065700
457.000000	26.911200
456.000000	26.736700
455.000000	26.536800
454.000000	26.342300
453.000000	26.121600
452.000000	25.867900
451.000000	25.627100
450.000000	25.356700
449.000000	25.095100
448.000000	24.824600
447.000000	24.522500
446.000000	24.252200
445.000000	23.929100
444.000000	23.557600
443.000000	23.210200
442.000000	22.841700
441.000000	22.472100
440.000000	22.057400
439.000000	21.634100
438.000000	21.199600
437.000000	20.745000
436.000000	20.304600
435.000000	19.818300
434.000000	19.334900
433.000000	18.831600
432.000000	18.313900
431.000000	17.818300
430.000000	17.284200
429.000000	16.768600
428.000000	16.237400
427.000000	15.722000
426.000000	15.203500
425.000000	14.726100
424.000000	14.228100
423.000000	13.722900
422.000000	13.231900
421.000000	12.782000
420.000000	12.370200
419.000000	11.953500
418.000000	11.555900
417.000000	11.174300
416.000000	10.824900
415.000000	10.480600
414.000000	10.170100
413.000000	9.885300
412.000000	9.603300
411.000000	9.355800
410.000000	9.130800
409.000000	8.939400
408.000000	8.738000
407.000000	8.559200
406.000000	8.416200
405.000000	8.261300
404.000000	8.143300
403.000000	8.019100
402.000000	7.914300
401.000000	7.806900
400.000000	7.712100
399.000000	7.637300
398.000000	7.570600
397.000000	7.509000
396.000000	7.441200
395.000000	7.365400
394.000000	7.311800
393.000000	7.270700
392.000000	7.193200
391.000000	7.137000
390.000000	7.111400
389.000000	7.043700
388.000000	7.016400
387.000000	6.970700
386.000000	6.923400
385.000000	6.874900
384.000000	6.839800
383.000000	6.804900
382.000000	6.783600
381.000000	6.740900
380.000000	6.691800
379.000000	6.667500
378.000000	6.615500
377.000000	6.582800
376.000000	6.594400
375.000000	6.572100
374.000000	6.458400
373.000000	6.496700
372.000000	6.514500
371.000000	6.441100
370.000000	6.383700
369.000000	6.474600
368.000000	6.394700
367.000000	6.394200
366.000000	6.330200
365.000000	6.232200
364.000000	6.222900
363.000000	6.281900
362.000000	6.215700
361.000000	6.063600
360.000000	6.178800
359.000000	6.166300
358.000000	6.061500
357.000000	6.020000
356.000000	5.928900
355.000000	5.930600
354.000000	6.011800
353.000000	5.940700
352.000000	5.877700
351.000000	5.963600
350.000000	5.928700
349.000000	5.828600
348.000000	5.903800
347.000000	5.946100
346.000000	5.863200
345.000000	5.870400
344.000000	5.908100
343.000000	5.923000
342.000000	5.897100
341.000000	5.851300
340.000000	5.710800
339.000000	5.636100
338.000000	5.805000
337.000000	5.891100
336.000000	5.776400
335.000000	5.751500
334.000000	5.795400
333.000000	5.736200
332.000000	5.721100
331.000000	5.799200
330.000000	5.827500
329.000000	5.979200
328.000000	6.124000
327.000000	6.032500
326.000000	5.930500
325.000000	5.874100
324.000000	5.829800
323.000000	5.831500
322.000000	5.627200
321.000000	5.636100
320.000000	6.056600
319.000000	6.108900
318.000000	6.164700
317.000000	6.391200
316.000000	6.046400
315.000000	5.716800
314.000000	5.733900
313.000000	5.745000
312.000000	5.727100
311.000000	5.747400
310.000000	5.774400
309.000000	5.748200
308.000000	5.762600
307.000000	5.811100
306.000000	5.797500
305.000000	5.788100
304.000000	5.762900
303.000000	5.748100
302.000000	5.748900
301.000000	5.767800
300.000000	5.780000
299.000000	5.738500
298.000000	5.731400
297.000000	5.742800
296.000000	5.775600
295.000000	5.789700
294.000000	5.785800
293.000000	5.788500
292.000000	5.795700
291.000000	5.797000
290.000000	5.814100
289.000000	5.819200
288.000000	5.810900
287.000000	5.817300
286.000000	5.826600
285.000000	5.827100
284.000000	5.852300
283.000000	5.862800
282.000000	5.864900
281.000000	5.885800
280.000000	5.870300
279.000000	5.892500
278.000000	5.922400
277.000000	5.925800
276.000000	5.918400
275.000000	5.936700
274.000000	5.972000
273.000000	5.960600
272.000000	5.975700
271.000000	5.996600
270.000000	5.981300
269.000000	6.023300
268.000000	6.044700
267.000000	6.071300
266.000000	6.083700
265.000000	6.125000
264.000000	6.163700
263.000000	6.164200
262.000000	6.166400
261.000000	6.202200
260.000000	6.228900
259.000000	6.239000
258.000000	6.268200
257.000000	6.302200
256.000000	6.326100
255.000000	6.306200
254.000000	6.318700
253.000000	6.342100
252.000000	6.319300
251.000000	6.343200
250.000000	6.354200
