PE UV       SUBTECH     SPECTRUM    ASCII       PEDS        4.00        
   -1
CICIMAUCR0239-2.Sample.ASC
24/06/20
11:42:40.00
24/06/20
11:42:40.00
Vinicio Soto Monge
C. cupreomarginata. Sex M. Dorsal.
250,000000
1
Lambda 1050
1050L1511233
PerkinElmer UV WinLab 6.3.2.0749 / 2.02.05 Lambda 900 UV/VIS/NIR, Aug  7 2015 09:38:08

0
0
3350/servo 860,8/2
0
0
UV/VIS
1
1
1
DoubleDePol,CommonBeamDepol,RBeamAtt,SBeamAtt,60mm sphere, WB InGaAs Detector
0
0
0
0
Program
Program
3350/servo 860,8/2
3350/0,2 860,8/0,2
3350/0,2 860,8/0,2
0
15.00
 
 
 
0
 
860,8
319,2
860,8
Front
100
on
S:100 R:100
0
0
0
0
 
0
 
 
 
0
 
 
0
0
0
0
0
 
 
 
 
0
0


0
0
#HDR
-1
-1
#GR
nm
%R
1.0
0.0
2500,000000
-1,000000
2251
8
72,155700
5,345900
#DATA
2482.000000	8.690427
2481.000000	8.728414
2480.000000	8.706678
2479.000000	8.680755
2478.000000	8.683148
2477.000000	8.705582
2476.000000	8.672181
2475.000000	8.740279
2474.000000	8.713259
2473.000000	8.683348
2472.000000	8.737686
2471.000000	8.731505
2470.000000	8.755434
2469.000000	8.716549
2468.000000	8.746161
2467.000000	8.772683
2466.000000	8.782853
2465.000000	8.780460
2464.000000	8.824330
2463.000000	8.831010
2462.000000	8.874580
2461.000000	8.889337
2460.000000	8.932808
2459.000000	8.959130
2458.000000	8.984754
2457.000000	9.027826
2456.000000	9.086153
2455.000000	9.164022
2454.000000	9.201012
2453.000000	9.259240
2452.000000	9.320059
2451.000000	9.382574
2450.000000	9.441001
2449.000000	9.482577
2448.000000	9.563836
2447.000000	9.645095
2446.000000	9.703323
2445.000000	9.789467
2444.000000	9.795449
2443.000000	9.858463
2442.000000	9.933141
2441.000000	10.023473
2440.000000	10.083994
2439.000000	10.156180
2438.000000	10.195962
2437.000000	10.255485
2436.000000	10.312117
2435.000000	10.380016
2434.000000	10.430765
2433.000000	10.484107
2432.000000	10.531666
2431.000000	10.570950
2430.000000	10.630672
2429.000000	10.666865
2428.000000	10.690495
2427.000000	10.753807
2426.000000	10.804158
2425.000000	10.832673
2424.000000	10.887112
2423.000000	10.921410
2422.000000	10.951920
2421.000000	10.987514
2420.000000	11.026199
2419.000000	11.048633
2418.000000	11.094597
2417.000000	11.127599
2416.000000	11.148636
2415.000000	11.175357
2414.000000	11.221321
2413.000000	11.253625
2412.000000	11.275161
2411.000000	11.297495
2410.000000	11.324913
2409.000000	11.350338
2408.000000	11.387827
2407.000000	11.425814
2406.000000	11.443462
2405.000000	11.469285
2404.000000	11.505578
2403.000000	11.522627
2402.000000	11.542169
2401.000000	11.578561
2400.000000	11.607775
2399.000000	11.617645
2398.000000	11.632900
2397.000000	11.661814
2396.000000	11.676870
2395.000000	11.715056
2394.000000	11.760621
2393.000000	11.770691
2392.000000	11.785149
2391.000000	11.809576
2390.000000	11.821142
2389.000000	11.856537
2388.000000	11.869997
2387.000000	11.887246
2386.000000	11.908383
2385.000000	11.912571
2384.000000	11.916060
2383.000000	11.917356
2382.000000	11.920547
2381.000000	11.918054
2380.000000	11.922142
2379.000000	11.924635
2378.000000	11.926430
2377.000000	11.926629
2376.000000	11.910676
2375.000000	11.907386
2374.000000	11.914066
2373.000000	11.891433
2372.000000	11.875182
2371.000000	11.856038
2370.000000	11.832010
2369.000000	11.807881
2368.000000	11.796814
2367.000000	11.773084
2366.000000	11.729912
2365.000000	11.700001
2364.000000	11.668295
2363.000000	11.622032
2362.000000	11.582151
2361.000000	11.534891
2360.000000	11.486235
2359.000000	11.439773
2358.000000	11.396900
2357.000000	11.366490
2356.000000	11.333388
2355.000000	11.303377
2354.000000	11.273566
2353.000000	11.242657
2352.000000	11.223813
2351.000000	11.227502
2350.000000	11.241262
2349.000000	11.245349
2348.000000	11.260006
2347.000000	11.280844
2346.000000	11.316538
2345.000000	11.346350
2344.000000	11.377059
2343.000000	11.415146
2342.000000	11.462206
2341.000000	11.494311
2340.000000	11.517542
2339.000000	11.534990
2338.000000	11.560315
2337.000000	11.580854
2336.000000	11.590925
2335.000000	11.599300
2334.000000	11.606379
2333.000000	11.585241
2332.000000	11.552439
2331.000000	11.534492
2330.000000	11.501390
2329.000000	11.460412
2328.000000	11.417240
2327.000000	11.376161
2326.000000	11.312550
2325.000000	11.251930
2324.000000	11.183732
2323.000000	11.118825
2322.000000	11.054515
2321.000000	10.985719
2320.000000	10.894191
2319.000000	10.789701
2318.000000	10.701662
2317.000000	10.604151
2316.000000	10.505244
2315.000000	10.410326
2314.000000	10.323583
2313.000000	10.244817
2312.000000	10.151494
2311.000000	10.067842
2310.000000	10.000940
2309.000000	9.924367
2308.000000	9.882691
2307.000000	9.847495
2306.000000	9.822968
2305.000000	9.810006
2304.000000	9.810804
2303.000000	9.833536
2302.000000	9.860457
2301.000000	9.894655
2300.000000	9.949891
2299.000000	10.026065
2298.000000	10.088879
2297.000000	10.156878
2296.000000	10.231257
2295.000000	10.287291
2294.000000	10.375728
2293.000000	10.451603
2292.000000	10.495174
2291.000000	10.541038
2290.000000	10.595277
2289.000000	10.619107
2288.000000	10.633065
2287.000000	10.646924
2286.000000	10.649118
2285.000000	10.632068
2284.000000	10.610133
2283.000000	10.581618
2282.000000	10.555495
2281.000000	10.514118
2280.000000	10.456688
2279.000000	10.419598
2278.000000	10.365858
2277.000000	10.317202
2276.000000	10.274429
2275.000000	10.233151
2274.000000	10.182402
2273.000000	10.161265
2272.000000	10.143517
2271.000000	10.129858
2270.000000	10.128960
2269.000000	10.132749
2268.000000	10.172132
2267.000000	10.218495
2266.000000	10.278118
2265.000000	10.347911
2264.000000	10.441035
2263.000000	10.558786
2262.000000	10.679727
2261.000000	10.825196
2260.000000	10.979039
2259.000000	11.150830
2258.000000	11.327905
2257.000000	11.524023
2256.000000	11.728018
2255.000000	11.909879
2254.000000	12.097522
2253.000000	12.289154
2252.000000	12.507307
2251.000000	12.704821
2250.000000	12.858067
2249.000000	13.025769
2248.000000	13.185496
2247.000000	13.356987
2246.000000	13.485506
2245.000000	13.622200
2244.000000	13.722802
2243.000000	13.852816
2242.000000	13.933776
2241.000000	14.034876
2240.000000	14.152129
2239.000000	14.247945
2238.000000	14.311357
2237.000000	14.369684
2236.000000	14.449846
2235.000000	14.490126
2234.000000	14.555532
2233.000000	14.594816
2232.000000	14.626721
2231.000000	14.687940
2230.000000	14.709177
2229.000000	14.743076
2228.000000	14.760225
2227.000000	14.767404
2226.000000	14.772888
2225.000000	14.787744
2224.000000	14.817555
2223.000000	14.758132
2222.000000	14.761123
2221.000000	14.770694
2220.000000	14.744073
2219.000000	14.731211
2218.000000	14.727821
2217.000000	14.697711
2216.000000	14.670491
2215.000000	14.670990
2214.000000	14.613760
2213.000000	14.603490
2212.000000	14.590329
2211.000000	14.570089
2210.000000	14.558025
2209.000000	14.534894
2208.000000	14.502988
2207.000000	14.487036
2206.000000	14.474473
2205.000000	14.466496
2204.000000	14.471183
2203.000000	14.432896
2202.000000	14.420234
2201.000000	14.410762
2200.000000	14.385537
2199.000000	14.391818
2198.000000	14.383044
2197.000000	14.357021
2196.000000	14.340969
2195.000000	14.349045
2194.000000	14.325515
2193.000000	14.317837
2192.000000	14.311456
2191.000000	14.295803
2190.000000	14.289521
2189.000000	14.277357
2188.000000	14.266490
2187.000000	14.269979
2186.000000	14.252531
2185.000000	14.243458
2184.000000	14.238572
2183.000000	14.214544
2182.000000	14.214843
2181.000000	14.200784
2180.000000	14.184533
2179.000000	14.184134
2178.000000	14.173465
2177.000000	14.172768
2176.000000	14.162997
2175.000000	14.156815
2174.000000	14.175759
2173.000000	14.158410
2172.000000	14.148041
2171.000000	14.141959
2170.000000	14.159008
2169.000000	14.159607
2168.000000	14.155918
2167.000000	14.166586
2166.000000	14.192310
2165.000000	14.184433
2164.000000	14.203776
2163.000000	14.221922
2162.000000	14.246150
2161.000000	14.268384
2160.000000	14.280049
2159.000000	14.298794
2158.000000	14.345057
2157.000000	14.379853
2156.000000	14.386633
2155.000000	14.424720
2154.000000	14.465898
2153.000000	14.501393
2152.000000	14.529809
2151.000000	14.578564
2150.000000	14.600798
2149.000000	14.630111
2148.000000	14.650949
2147.000000	14.692327
2146.000000	14.721839
2145.000000	14.742877
2144.000000	14.771093
2143.000000	14.792928
2142.000000	14.810775
2141.000000	14.818851
2140.000000	14.851953
2139.000000	14.877577
2138.000000	14.890539
2137.000000	14.899811
2136.000000	14.912175
2135.000000	14.933113
2134.000000	14.964719
2133.000000	14.986255
2132.000000	15.005697
2131.000000	15.012078
2130.000000	15.008290
2129.000000	15.009785
2128.000000	15.003404
2127.000000	15.002706
2126.000000	15.010583
2125.000000	15.007293
2124.000000	15.002606
2123.000000	14.988648
2122.000000	14.989047
2121.000000	14.976883
2120.000000	14.941986
2119.000000	14.933511
2118.000000	14.907987
2117.000000	14.899413
2116.000000	14.891735
2115.000000	14.866111
2114.000000	14.843478
2113.000000	14.821942
2112.000000	14.795321
2111.000000	14.772090
2110.000000	14.741979
2109.000000	14.719047
2108.000000	14.694321
2107.000000	14.676274
2106.000000	14.641278
2105.000000	14.613959
2104.000000	14.586241
2103.000000	14.564207
2102.000000	14.546160
2101.000000	14.516947
2100.000000	14.499897
2099.000000	14.475968
2098.000000	14.447253
2097.000000	14.428110
2096.000000	14.407771
2095.000000	14.367989
2094.000000	14.339274
2093.000000	14.325415
2092.000000	14.313849
2091.000000	14.304278
2090.000000	14.285633
2089.000000	14.259411
2088.000000	14.248244
2087.000000	14.222719
2086.000000	14.190116
2085.000000	14.173964
2084.000000	14.159806
2083.000000	14.131889
2082.000000	14.102675
2081.000000	14.070770
2080.000000	14.047539
2079.000000	14.030190
2078.000000	14.003669
2077.000000	13.972462
2076.000000	13.946140
2075.000000	13.912440
2074.000000	13.880036
2073.000000	13.848729
2072.000000	13.816923
2071.000000	13.778437
2070.000000	13.735265
2069.000000	13.700668
2068.000000	13.663279
2067.000000	13.630675
2066.000000	13.598770
2065.000000	13.564771
2064.000000	13.540343
2063.000000	13.504549
2062.000000	13.471547
2061.000000	13.453401
2060.000000	13.443630
2059.000000	13.426880
2058.000000	13.393878
2057.000000	13.377027
2056.000000	13.376828
2055.000000	13.368951
2054.000000	13.379720
2053.000000	13.394675
2052.000000	13.403449
2051.000000	13.424487
2050.000000	13.460081
2049.000000	13.488995
2048.000000	13.537651
2047.000000	13.574641
2046.000000	13.612330
2045.000000	13.670158
2044.000000	13.721107
2043.000000	13.765575
2042.000000	13.824301
2041.000000	13.867074
2040.000000	13.921712
2039.000000	14.000279
2038.000000	14.055615
2037.000000	14.085127
2036.000000	14.123813
2035.000000	14.160005
2034.000000	14.193506
2033.000000	14.237276
2032.000000	14.261106
2031.000000	14.296800
2030.000000	14.316641
2029.000000	14.329004
2028.000000	14.339772
2027.000000	14.352534
2026.000000	14.380352
2025.000000	14.399395
2024.000000	14.406973
2023.000000	14.415647
2022.000000	14.416844
2021.000000	14.417841
2020.000000	14.429506
2019.000000	14.420632
2018.000000	14.415248
2017.000000	14.412656
2016.000000	14.400392
2015.000000	14.385038
2014.000000	14.368786
2013.000000	14.352036
2012.000000	14.342165
2011.000000	14.308764
2010.000000	14.300788
2009.000000	14.272871
2008.000000	14.249540
2007.000000	14.213048
2006.000000	14.154223
2005.000000	14.116435
2004.000000	14.091209
2003.000000	14.054718
2002.000000	14.013639
2001.000000	13.970069
2000.000000	13.922510
1999.000000	13.854511
1998.000000	13.810243
1997.000000	13.764379
1996.000000	13.697776
1995.000000	13.637555
1994.000000	13.570952
1993.000000	13.527382
1992.000000	13.468257
1991.000000	13.392482
1990.000000	13.331164
1989.000000	13.255986
1988.000000	13.187290
1987.000000	13.129063
1986.000000	13.068642
1985.000000	12.994961
1984.000000	12.903332
1983.000000	12.841615
1982.000000	12.776309
1981.000000	12.706018
1980.000000	12.643104
1979.000000	12.577200
1978.000000	12.494943
1977.000000	12.445889
1976.000000	12.357551
1975.000000	12.262433
1974.000000	12.214376
1973.000000	12.157046
1972.000000	12.094032
1971.000000	12.036005
1970.000000	11.951854
1969.000000	11.900407
1968.000000	11.842778
1967.000000	11.777870
1966.000000	11.719842
1965.000000	11.655932
1964.000000	11.589529
1963.000000	11.544562
1962.000000	11.469983
1961.000000	11.431198
1960.000000	11.341664
1959.000000	11.308761
1958.000000	11.256516
1957.000000	11.208559
1956.000000	11.138068
1955.000000	11.091007
1954.000000	11.039859
1953.000000	11.011942
1952.000000	10.961491
1951.000000	10.896683
1950.000000	10.841148
1949.000000	10.823501
1948.000000	10.764276
1947.000000	10.738154
1946.000000	10.707744
1945.000000	10.691991
1944.000000	10.645229
1943.000000	10.629875
1942.000000	10.596374
1941.000000	10.569255
1940.000000	10.553102
1939.000000	10.547818
1938.000000	10.561478
1937.000000	10.561677
1936.000000	10.544029
1935.000000	10.554598
1934.000000	10.527279
1933.000000	10.574938
1932.000000	10.575935
1931.000000	10.606345
1930.000000	10.645229
1929.000000	10.685809
1928.000000	10.760388
1927.000000	10.805853
1926.000000	10.849723
1925.000000	10.920613
1924.000000	10.975350
1923.000000	11.027196
1922.000000	11.119523
1921.000000	11.240265
1920.000000	11.316239
1919.000000	11.452236
1918.000000	11.532598
1917.000000	11.644067
1916.000000	11.731209
1915.000000	11.814462
1914.000000	11.940588
1913.000000	12.108988
1912.000000	12.303711
1911.000000	12.421461
1910.000000	12.550579
1909.000000	12.704223
1908.000000	12.819182
1907.000000	12.965448
1906.000000	13.158874
1905.000000	13.393977
1904.000000	13.627784
1903.000000	13.816923
1902.000000	14.013041
1901.000000	14.210855
1900.000000	14.466995
1899.000000	14.724132
1898.000000	15.010084
1897.000000	15.266025
1896.000000	15.497937
1895.000000	15.683088
1894.000000	15.922080
1893.000000	16.197463
1892.000000	16.494482
1891.000000	16.870866
1890.000000	17.230798
1889.000000	17.556532
1888.000000	17.923045
1887.000000	18.261442
1886.000000	18.623767
1885.000000	19.017300
1884.000000	19.491593
1883.000000	19.958309
1882.000000	20.438385
1881.000000	20.898222
1880.000000	21.388268
1879.000000	21.811314
1878.000000	22.258388
1877.000000	22.705263
1876.000000	23.134190
1875.000000	23.547365
1874.000000	23.974498
1873.000000	24.367134
1872.000000	24.777816
1871.000000	25.127778
1870.000000	25.482526
1869.000000	25.797093
1868.000000	26.092517
1867.000000	26.313661
1866.000000	26.509680
1865.000000	26.663623
1864.000000	26.812881
1863.000000	26.951469
1862.000000	27.070716
1861.000000	27.209205
1860.000000	27.351184
1859.000000	27.487679
1858.000000	27.600545
1857.000000	27.698454
1856.000000	27.769444
1855.000000	27.801150
1854.000000	27.863066
1853.000000	27.915311
1852.000000	27.912120
1851.000000	27.928971
1850.000000	27.954894
1849.000000	27.963668
1848.000000	27.995174
1847.000000	28.019103
1846.000000	28.003848
1845.000000	27.960178
1844.000000	27.930865
1843.000000	27.892279
1842.000000	27.912220
1841.000000	27.952600
1840.000000	27.944724
1839.000000	27.941334
1838.000000	27.927874
1837.000000	27.907235
1836.000000	27.896666
1835.000000	27.878221
1834.000000	27.816903
1833.000000	27.754388
1832.000000	27.683299
1831.000000	27.633447
1830.000000	27.623576
1829.000000	27.586985
1828.000000	27.535836
1827.000000	27.468636
1826.000000	27.426162
1825.000000	27.382491
1824.000000	27.326657
1823.000000	27.284681
1822.000000	27.259656
1821.000000	27.264342
1820.000000	27.265937
1819.000000	27.261251
1818.000000	27.221967
1817.000000	27.173511
1816.000000	27.149881
1815.000000	27.161048
1814.000000	27.155963
1813.000000	27.144198
1812.000000	27.134327
1811.000000	27.117876
1810.000000	27.098733
1809.000000	27.061045
1808.000000	27.028142
1807.000000	27.009597
1806.000000	26.984771
1805.000000	26.946185
1804.000000	26.901518
1803.000000	26.863929
1802.000000	26.833220
1801.000000	26.798025
1800.000000	26.754155
1799.000000	26.705100
1798.000000	26.662227
1797.000000	26.617460
1796.000000	26.579174
1795.000000	26.550160
1794.000000	26.502202
1793.000000	26.455540
1792.000000	26.422937
1791.000000	26.381061
1790.000000	26.340382
1789.000000	26.302594
1788.000000	26.250449
1787.000000	26.198802
1786.000000	26.151442
1785.000000	26.107074
1784.000000	26.063503
1783.000000	26.003780
1782.000000	25.950339
1781.000000	25.890715
1780.000000	25.823714
1779.000000	25.778448
1778.000000	25.723312
1777.000000	25.653120
1776.000000	25.581333
1775.000000	25.506056
1774.000000	25.433471
1773.000000	25.352412
1772.000000	25.258191
1771.000000	25.180223
1770.000000	25.092582
1769.000000	24.991183
1768.000000	24.895567
1767.000000	24.817299
1766.000000	24.746808
1765.000000	24.683595
1764.000000	24.638031
1763.000000	24.599445
1762.000000	24.584689
1761.000000	24.603932
1760.000000	24.638529
1759.000000	24.686188
1758.000000	24.744116
1757.000000	24.796162
1756.000000	24.849703
1755.000000	24.919296
1754.000000	24.977324
1753.000000	25.005341
1752.000000	25.037346
1751.000000	25.055393
1750.000000	25.039340
1749.000000	25.018702
1748.000000	24.991083
1747.000000	24.951800
1746.000000	24.908329
1745.000000	24.835445
1744.000000	24.743817
1743.000000	24.628259
1742.000000	24.511007
1741.000000	24.371621
1740.000000	24.208106
1739.000000	24.046485
1738.000000	23.841393
1737.000000	23.654946
1736.000000	23.516158
1735.000000	23.400800
1734.000000	23.301395
1733.000000	23.238880
1732.000000	23.239977
1731.000000	23.249947
1730.000000	23.290228
1729.000000	23.367897
1728.000000	23.442676
1727.000000	23.525330
1726.000000	23.592033
1725.000000	23.672793
1724.000000	23.730921
1723.000000	23.793535
1722.000000	23.838003
1721.000000	23.875691
1720.000000	23.917268
1719.000000	23.941696
1718.000000	23.970809
1717.000000	24.014779
1716.000000	24.082179
1715.000000	24.131234
1714.000000	24.193449
1713.000000	24.251078
1712.000000	24.321469
1711.000000	24.369726
1710.000000	24.417784
1709.000000	24.422370
1708.000000	24.419578
1707.000000	24.395450
1706.000000	24.364542
1705.000000	24.321469
1704.000000	24.290262
1703.000000	24.217179
1702.000000	24.162341
1701.000000	24.056854
1700.000000	23.922951
1699.000000	23.805001
1698.000000	23.659034
1697.000000	23.543078
1696.000000	23.428916
1695.000000	23.364607
1694.000000	23.343869
1693.000000	23.358824
1692.000000	23.434799
1691.000000	23.546268
1690.000000	23.672893
1689.000000	23.783664
1688.000000	23.882272
1687.000000	23.953560
1686.000000	24.004410
1685.000000	24.051271
1684.000000	24.107504
1683.000000	24.209302
1682.000000	24.349785
1681.000000	24.590172
1680.000000	24.916505
1679.000000	25.281721
1678.000000	25.730391
1677.000000	26.142469
1676.000000	26.565115
1675.000000	26.941399
1674.000000	27.271520
1673.000000	27.549695
1672.000000	27.784300
1671.000000	28.014816
1670.000000	28.198172
1669.000000	28.364977
1668.000000	28.490206
1667.000000	28.604966
1666.000000	28.707462
1665.000000	28.810556
1664.000000	28.890519
1663.000000	28.954030
1662.000000	29.037782
1661.000000	29.106777
1660.000000	29.133299
1659.000000	29.170389
1658.000000	29.208376
1657.000000	29.234598
1656.000000	29.261020
1655.000000	29.251349
1654.000000	29.275278
1653.000000	29.244868
1652.000000	29.246862
1651.000000	29.209074
1650.000000	29.206781
1649.000000	29.179462
1648.000000	29.151246
1647.000000	29.116150
1646.000000	29.073476
1645.000000	29.006973
1644.000000	28.986833
1643.000000	28.934389
1642.000000	28.890918
1641.000000	28.858314
1640.000000	28.788820
1639.000000	28.745349
1638.000000	28.693403
1637.000000	28.633880
1636.000000	28.568075
1635.000000	28.533278
1634.000000	28.472459
1633.000000	28.424202
1632.000000	28.355506
1631.000000	28.276839
1630.000000	28.219409
1629.000000	28.159985
1628.000000	28.065665
1627.000000	28.020998
1626.000000	27.963169
1625.000000	27.876626
1624.000000	27.815806
1623.000000	27.750201
1622.000000	27.673827
1621.000000	27.623078
1620.000000	27.553983
1619.000000	27.495057
1618.000000	27.429651
1617.000000	27.368632
1616.000000	27.309408
1615.000000	27.250283
1614.000000	27.188267
1613.000000	27.129442
1612.000000	27.078194
1611.000000	27.021163
1610.000000	26.963334
1609.000000	26.901119
1608.000000	26.838205
1607.000000	26.801714
1606.000000	26.738800
1605.000000	26.689646
1604.000000	26.626334
1603.000000	26.559332
1602.000000	26.489539
1601.000000	26.438790
1600.000000	26.385348
1599.000000	26.326623
1598.000000	26.267299
1597.000000	26.212661
1596.000000	26.146955
1595.000000	26.094312
1594.000000	26.062506
1593.000000	26.006871
1592.000000	25.960508
1591.000000	25.914246
1590.000000	25.869179
1589.000000	25.804870
1588.000000	25.775856
1587.000000	25.727998
1586.000000	25.673161
1585.000000	25.634376
1584.000000	25.613039
1583.000000	25.575849
1582.000000	25.547334
1581.000000	25.499077
1580.000000	25.453213
1579.000000	25.444339
1578.000000	25.428087
1577.000000	25.382921
1576.000000	25.363180
1575.000000	25.333667
1574.000000	25.320706
1573.000000	25.305252
1572.000000	25.297973
1571.000000	25.291991
1570.000000	25.284114
1569.000000	25.271851
1568.000000	25.254801
1567.000000	25.266566
1566.000000	25.263176
1565.000000	25.252907
1564.000000	25.257493
1563.000000	25.245030
1562.000000	25.244631
1561.000000	25.237054
1560.000000	25.232168
1559.000000	25.220802
1558.000000	25.212427
1557.000000	25.196574
1556.000000	25.173343
1555.000000	25.153701
1554.000000	25.132065
1553.000000	25.115714
1552.000000	25.088794
1551.000000	25.051704
1550.000000	25.022889
1549.000000	24.996567
1548.000000	24.957483
1547.000000	24.930563
1546.000000	24.902845
1545.000000	24.854887
1544.000000	24.833551
1543.000000	24.808724
1542.000000	24.795164
1541.000000	24.769939
1540.000000	24.738931
1539.000000	24.705730
1538.000000	24.672229
1537.000000	24.636635
1536.000000	24.620183
1535.000000	24.592366
1534.000000	24.553681
1533.000000	24.512204
1532.000000	24.480298
1531.000000	24.446199
1530.000000	24.402230
1529.000000	24.363744
1528.000000	24.318678
1527.000000	24.263541
1526.000000	24.221267
1525.000000	24.170617
1524.000000	24.125849
1523.000000	24.089158
1522.000000	24.034520
1521.000000	23.971507
1520.000000	23.918564
1519.000000	23.870008
1518.000000	23.812579
1517.000000	23.744481
1516.000000	23.675385
1515.000000	23.618155
1514.000000	23.559928
1513.000000	23.503096
1512.000000	23.445966
1511.000000	23.377768
1510.000000	23.313160
1509.000000	23.253636
1508.000000	23.188330
1507.000000	23.117640
1506.000000	23.047946
1505.000000	22.984634
1504.000000	22.928600
1503.000000	22.863693
1502.000000	22.792304
1501.000000	22.729590
1500.000000	22.660595
1499.000000	22.599476
1498.000000	22.545536
1497.000000	22.490699
1496.000000	22.451017
1495.000000	22.392490
1494.000000	22.329676
1493.000000	22.292387
1492.000000	22.235556
1491.000000	22.194876
1490.000000	22.149511
1489.000000	22.111823
1488.000000	22.077823
1487.000000	22.036047
1486.000000	21.991978
1485.000000	21.960471
1484.000000	21.923681
1483.000000	21.881705
1482.000000	21.847606
1481.000000	21.829061
1480.000000	21.791672
1479.000000	21.768541
1478.000000	21.753784
1477.000000	21.729157
1476.000000	21.709815
1475.000000	21.676613
1474.000000	21.669933
1473.000000	21.675816
1472.000000	21.683991
1471.000000	21.663552
1470.000000	21.663552
1469.000000	21.674918
1468.000000	21.652884
1467.000000	21.662056
1466.000000	21.667740
1465.000000	21.669335
1464.000000	21.671130
1463.000000	21.674121
1462.000000	21.692367
1461.000000	21.732348
1460.000000	21.766247
1459.000000	21.800147
1458.000000	21.826668
1457.000000	21.863858
1456.000000	21.918994
1455.000000	21.975527
1454.000000	22.019496
1453.000000	22.089389
1452.000000	22.152602
1451.000000	22.235057
1450.000000	22.321600
1449.000000	22.386608
1448.000000	22.436659
1447.000000	22.503860
1446.000000	22.596086
1445.000000	22.711145
1444.000000	22.785624
1443.000000	22.855716
1442.000000	22.945550
1441.000000	23.039870
1440.000000	23.116144
1439.000000	23.224722
1438.000000	23.343869
1437.000000	23.438488
1436.000000	23.530316
1435.000000	23.627029
1434.000000	23.757243
1433.000000	23.880677
1432.000000	24.019166
1431.000000	24.136019
1430.000000	24.262544
1429.000000	24.386078
1428.000000	24.542813
1427.000000	24.704633
1426.000000	24.861966
1425.000000	25.041135
1424.000000	25.200762
1423.000000	25.401566
1422.000000	25.612142
1421.000000	25.769475
1420.000000	25.999393
1419.000000	26.232601
1418.000000	26.432309
1417.000000	26.654351
1416.000000	26.862633
1415.000000	27.111694
1414.000000	27.385582
1413.000000	27.661264
1412.000000	27.903546
1411.000000	28.121998
1410.000000	28.423404
1409.000000	28.778351
1408.000000	29.119540
1407.000000	29.475185
1406.000000	29.794338
1405.000000	30.160652
1404.000000	30.526666
1403.000000	30.937249
1402.000000	31.262385
1401.000000	31.613045
1400.000000	32.060218
1399.000000	32.443681
1398.000000	32.715276
1397.000000	32.960847
1396.000000	33.284986
1395.000000	33.674531
1394.000000	34.034762
1393.000000	34.263983
1392.000000	34.527601
1391.000000	34.837482
1390.000000	35.190435
1389.000000	35.459637
1388.000000	35.862741
1387.000000	36.293464
1386.000000	36.708234
1385.000000	37.145437
1384.000000	37.642463
1383.000000	38.117255
1382.000000	38.605307
1381.000000	39.062452
1380.000000	39.440730
1379.000000	39.675434
1378.000000	39.938653
1377.000000	40.070761
1376.000000	40.302773
1375.000000	40.463098
1374.000000	40.661410
1373.000000	40.876472
1372.000000	41.169602
1371.000000	41.451766
1370.000000	41.785675
1369.000000	42.038127
1368.000000	42.308325
1367.000000	42.577427
1366.000000	42.780126
1365.000000	42.955107
1364.000000	43.173061
1363.000000	43.303873
1362.000000	43.510759
1361.000000	43.651841
1360.000000	43.782254
1359.000000	43.803890
1358.000000	43.900204
1357.000000	44.002002
1356.000000	44.140292
1355.000000	44.364527
1354.000000	44.621066
1353.000000	44.962155
1352.000000	45.258576
1351.000000	45.699468
1350.000000	46.107757
1349.000000	46.459714
1348.000000	46.799306
1347.000000	47.144483
1346.000000	47.427045
1345.000000	47.710005
1344.000000	48.010913
1343.000000	48.294173
1342.000000	48.553404
1341.000000	48.839954
1340.000000	49.106065
1339.000000	49.377061
1338.000000	49.621138
1337.000000	49.873489
1336.000000	50.115870
1335.000000	50.355859
1334.000000	50.584082
1333.000000	50.816193
1332.000000	51.071038
1331.000000	51.297067
1330.000000	51.482916
1329.000000	51.705855
1328.000000	51.916730
1327.000000	52.107264
1326.000000	52.282146
1325.000000	52.464405
1324.000000	52.642577
1323.000000	52.804497
1322.000000	52.960334
1321.000000	53.119463
1320.000000	53.279189
1319.000000	53.426951
1318.000000	53.577205
1317.000000	53.709812
1316.000000	53.842418
1315.000000	53.963559
1314.000000	54.089486
1313.000000	54.206439
1312.000000	54.317410
1311.000000	54.431272
1310.000000	54.552313
1309.000000	54.636962
1308.000000	54.724104
1307.000000	54.812242
1306.000000	54.898088
1305.000000	54.974860
1304.000000	55.041961
1303.000000	55.098992
1302.000000	55.150340
1301.000000	55.204280
1300.000000	55.262208
1299.000000	55.299597
1298.000000	55.336288
1297.000000	55.366997
1296.000000	55.401196
1295.000000	55.435294
1294.000000	55.456531
1293.000000	55.473381
1292.000000	55.487240
1291.000000	55.496313
1290.000000	55.508278
1289.000000	55.510671
1288.000000	55.512964
1287.000000	55.504489
1286.000000	55.484748
1285.000000	55.467100
1284.000000	55.436291
1283.000000	55.407676
1282.000000	55.364504
1281.000000	55.338083
1280.000000	55.312858
1279.000000	55.283245
1278.000000	55.257522
1277.000000	55.215347
1276.000000	55.182444
1275.000000	55.157917
1274.000000	55.137777
1273.000000	55.117337
1272.000000	55.104276
1271.000000	55.082042
1270.000000	55.061503
1269.000000	55.048940
1268.000000	55.024214
1267.000000	54.991810
1266.000000	54.954720
1265.000000	54.937670
1264.000000	54.920920
1263.000000	54.893302
1262.000000	54.857408
1261.000000	54.827198
1260.000000	54.795691
1259.000000	54.759698
1258.000000	54.717723
1257.000000	54.685319
1256.000000	54.658498
1255.000000	54.609444
1254.000000	54.554806
1253.000000	54.508044
1252.000000	54.472051
1251.000000	54.403953
1250.000000	54.328876
1249.000000	54.284109
1248.000000	54.219201
1247.000000	54.138241
1246.000000	54.058079
1245.000000	53.969242
1244.000000	53.879209
1243.000000	53.797352
1242.000000	53.693660
1241.000000	53.571921
1240.000000	53.455665
1239.000000	53.360747
1238.000000	53.259447
1237.000000	53.151069
1236.000000	53.024046
1235.000000	52.906494
1234.000000	52.788644
1233.000000	52.666705
1232.000000	52.546362
1231.000000	52.406078
1230.000000	52.258715
1229.000000	52.122619
1228.000000	51.988317
1227.000000	51.850027
1226.000000	51.704958
1225.000000	51.556298
1224.000000	51.406742
1223.000000	51.255690
1222.000000	51.112016
1221.000000	50.973028
1220.000000	50.826563
1219.000000	50.675610
1218.000000	50.539813
1217.000000	50.413089
1216.000000	50.288359
1215.000000	50.166221
1214.000000	50.046277
1213.000000	49.937300
1212.000000	49.837695
1211.000000	49.725029
1210.000000	49.626123
1209.000000	49.528612
1208.000000	49.415747
1207.000000	49.334887
1206.000000	49.256718
1205.000000	49.203277
1204.000000	49.151829
1203.000000	49.116933
1202.000000	49.079644
1201.000000	49.054917
1200.000000	49.030888
1199.000000	48.977546
1198.000000	48.917425
1197.000000	48.854013
1196.000000	48.761288
1195.000000	48.619109
1194.000000	48.435155
1193.000000	48.221189
1192.000000	47.949296
1191.000000	47.626852
1190.000000	47.291746
1189.000000	46.957437
1188.000000	46.662512
1187.000000	46.441169
1186.000000	46.299190
1185.000000	46.249836
1184.000000	46.313846
1183.000000	46.465895
1182.000000	46.741877
1181.000000	47.099217
1180.000000	47.497934
1179.000000	47.906124
1178.000000	48.337744
1177.000000	48.701365
1176.000000	49.028495
1175.000000	49.340171
1174.000000	49.622833
1173.000000	49.887348
1172.000000	50.159341
1171.000000	50.435423
1170.000000	50.731245
1169.000000	51.021185
1168.000000	51.313020
1167.000000	51.613130
1166.000000	51.920817
1165.000000	52.231995
1164.000000	52.555036
1163.000000	52.878577
1162.000000	53.209994
1161.000000	53.552279
1160.000000	53.867444
1159.000000	54.185800
1158.000000	54.492989
1157.000000	54.824207
1156.000000	55.111056
1155.000000	55.369390
1154.000000	55.613466
1153.000000	55.828827
1152.000000	55.988952
1151.000000	56.131530
1150.000000	56.218372
1149.000000	56.312991
1148.000000	56.416385
1147.000000	56.537625
1146.000000	56.650590
1145.000000	56.834943
1144.000000	57.057583
1143.000000	57.309536
1142.000000	57.602567
1141.000000	57.922319
1140.000000	58.272680
1139.000000	58.627826
1138.000000	58.984967
1137.000000	59.366835
1136.000000	59.770238
1135.000000	60.153103
1134.000000	60.559697
1133.000000	60.942063
1132.000000	61.266002
1131.000000	61.603202
1130.000000	61.909095
1129.000000	62.178795
1128.000000	62.422672
1127.000000	62.612409
1126.000000	62.766851
1125.000000	62.920695
1124.000000	63.049413
1123.000000	63.156196
1122.000000	63.261484
1121.000000	63.339553
1120.000000	63.408947
1119.000000	63.475250
1118.000000	63.517226
1117.000000	63.569969
1116.000000	63.617528
1115.000000	63.628296
1114.000000	63.663392
1113.000000	63.696295
1112.000000	63.707561
1111.000000	63.730593
1110.000000	63.755519
1109.000000	63.794404
1108.000000	63.809958
1107.000000	63.821523
1106.000000	63.843857
1105.000000	63.869980
1104.000000	63.888026
1103.000000	63.925216
1102.000000	63.945256
1101.000000	63.962904
1100.000000	63.986634
1099.000000	64.017143
1098.000000	64.029706
1097.000000	64.063605
1096.000000	64.067793
1095.000000	64.089528
1094.000000	64.112261
1093.000000	64.107575
1092.000000	64.131005
1091.000000	64.146460
1090.000000	64.154835
1089.000000	64.174875
1088.000000	64.173280
1087.000000	64.191925
1086.000000	64.197010
1085.000000	64.212364
1084.000000	64.220340
1083.000000	64.228616
1082.000000	64.260521
1081.000000	64.251448
1080.000000	64.259425
1079.000000	64.285846
1078.000000	64.284849
1077.000000	64.306784
1076.000000	64.308878
1075.000000	64.337892
1074.000000	64.353944
1073.000000	64.366108
1072.000000	64.393627
1071.000000	64.388741
1070.000000	64.403198
1069.000000	64.428822
1068.000000	64.433309
1067.000000	64.452851
1066.000000	64.466211
1065.000000	64.484158
1064.000000	64.497917
1063.000000	64.503202
1062.000000	64.524738
1061.000000	64.538098
1060.000000	64.534708
1059.000000	64.547470
1058.000000	64.563224
1057.000000	64.570303
1056.000000	64.562227
1055.000000	64.577880
1054.000000	64.572596
1053.000000	64.582267
1052.000000	64.580772
1051.000000	64.592238
1050.000000	64.577282
1049.000000	64.604302
1048.000000	64.605698
1047.000000	64.609985
1046.000000	64.619357
1045.000000	64.638201
1044.000000	64.656447
1043.000000	64.672101
1042.000000	64.674194
1041.000000	64.676986
1040.000000	64.683866
1039.000000	64.703308
1038.000000	64.705402
1037.000000	64.711683
1036.000000	64.719361
1035.000000	64.709988
1034.000000	64.709091
1033.000000	64.703807
1032.000000	64.695930
1031.000000	64.699719
1030.000000	64.682071
1029.000000	64.687754
1028.000000	64.701214
1027.000000	64.671901
1026.000000	64.664822
1025.000000	64.665720
1024.000000	64.658840
1023.000000	64.651861
1022.000000	64.641392
1021.000000	64.647873
1020.000000	64.641491
1019.000000	64.648969
1018.000000	64.664922
1017.000000	64.682570
1016.000000	64.704305
1015.000000	64.728932
1014.000000	64.756351
1013.000000	64.799722
1012.000000	64.836812
1011.000000	64.880782
1010.000000	64.953067
1009.000000	65.011893
1008.000000	65.079492
1007.000000	65.153672
1006.000000	65.214891
1005.000000	65.289968
1004.000000	65.365544
1003.000000	65.425766
1002.000000	65.493664
1001.000000	65.567346
1000.000000	65.633350
999.000000	65.699155
998.000000	65.766355
997.000000	65.827574
996.000000	65.913718
995.000000	65.989294
994.000000	66.059586
993.000000	66.134663
992.000000	66.209541
991.000000	66.282026
990.000000	66.346934
989.000000	66.442749
988.000000	66.532882
987.000000	66.615238
986.000000	66.699787
985.000000	66.777457
984.000000	66.857021
983.000000	66.953634
982.000000	67.053937
981.000000	67.150650
980.000000	67.216355
979.000000	67.301004
978.000000	67.392732
977.000000	67.471798
976.000000	67.535209
975.000000	67.605501
974.000000	67.693141
973.000000	67.785467
972.000000	67.857254
971.000000	67.935622
970.000000	68.000330
969.000000	68.082686
968.000000	68.160555
967.000000	68.229650
966.000000	68.306223
965.000000	68.404332
964.000000	68.483996
963.000000	68.560269
962.000000	68.645716
961.000000	68.727573
960.000000	68.816410
959.000000	68.911927
958.000000	68.997473
957.000000	69.086509
956.000000	69.164677
955.000000	69.247132
954.000000	69.324403
953.000000	69.388812
952.000000	69.473062
951.000000	69.550931
950.000000	69.626507
949.000000	69.680248
948.000000	69.735185
947.000000	69.809564
946.000000	69.868888
945.000000	69.926019
944.000000	69.995912
943.000000	70.060121
942.000000	70.094021
941.000000	70.134301
940.000000	70.190235
939.000000	70.257735
938.000000	70.313271
937.000000	70.354249
936.000000	70.396723
935.000000	70.440593
934.000000	70.490345
933.000000	70.539101
932.000000	70.579880
931.000000	70.626342
930.000000	70.651468
929.000000	70.678687
928.000000	70.713484
927.000000	70.732527
926.000000	70.767424
925.000000	70.816578
924.000000	70.846190
923.000000	70.873509
922.000000	70.877896
921.000000	70.899731
920.000000	70.928247
919.000000	70.945496
918.000000	70.969125
917.000000	70.997641
916.000000	71.008409
915.000000	71.020274
914.000000	71.032637
913.000000	71.046596
912.000000	71.056466
911.000000	71.056068
910.000000	71.075311
909.000000	71.095551
908.000000	71.111204
907.000000	71.135233
906.000000	71.159660
905.000000	71.185584
904.000000	71.225665
903.000000	71.264649
902.000000	71.308320
901.000000	71.347703
900.000000	71.416499
899.000000	71.470439
898.000000	71.521986
897.000000	71.563463
896.000000	71.623684
895.000000	71.678023
894.000000	71.720597
893.000000	71.754895
892.000000	71.795176
891.000000	71.831568
890.000000	71.859684
889.000000	71.883613
888.000000	71.911231
887.000000	71.929079
886.000000	71.920803
885.000000	71.939149
884.000000	71.942339
883.000000	71.931172
882.000000	71.933466
881.000000	71.931571
880.000000	71.911730
879.000000	71.880223
878.000000	71.854201
877.000000	71.817509
876.000000	71.761874
875.000000	71.667754
874.000000	71.590283
873.000000	71.467547
872.000000	71.345609
871.000000	71.204727
870.000000	71.136330
869.000000	71.081293
868.000000	71.069129
867.000000	71.083287
866.000000	71.067334
865.000000	71.022766
864.000000	70.991659
863.000000	70.973712
862.000000	70.940112
861.000000	70.900529
860.000000	70.845692
859.000000	70.817475
858.000000	70.775400
857.000000	71.128600
856.000000	71.033500
855.000000	70.164100
854.000000	70.899200
853.000000	70.320300
852.000000	70.336800
851.000000	70.744000
850.000000	70.330100
849.000000	70.232200
848.000000	70.396500
847.000000	70.073600
846.000000	70.083300
845.000000	69.871800
844.000000	70.271900
843.000000	69.828100
842.000000	69.822600
841.000000	69.782000
840.000000	69.651100
839.000000	69.151700
838.000000	69.411900
837.000000	69.292100
836.000000	69.163400
835.000000	68.942400
834.000000	68.838100
833.000000	68.908800
832.000000	68.649600
831.000000	68.570300
830.000000	68.309800
829.000000	68.334300
828.000000	68.445300
827.000000	68.473600
826.000000	68.030900
825.000000	68.127500
824.000000	67.952800
823.000000	67.739400
822.000000	67.631800
821.000000	67.256200
820.000000	67.421800
819.000000	67.267600
818.000000	67.095400
817.000000	66.824600
816.000000	66.773300
815.000000	66.681500
814.000000	66.467400
813.000000	66.589900
812.000000	66.269600
811.000000	66.163800
810.000000	65.930300
809.000000	65.742600
808.000000	65.504600
807.000000	65.592300
806.000000	65.367000
805.000000	65.262300
804.000000	65.204900
803.000000	64.996700
802.000000	64.834900
801.000000	64.604500
800.000000	64.458200
799.000000	64.299500
798.000000	64.094000
797.000000	63.661300
796.000000	63.590800
795.000000	63.455500
794.000000	63.278900
793.000000	62.985500
792.000000	62.790200
791.000000	62.423600
790.000000	62.365400
789.000000	62.256300
788.000000	62.088000
787.000000	61.916600
786.000000	61.576000
785.000000	61.396300
784.000000	61.209100
783.000000	60.952500
782.000000	60.771300
781.000000	60.562100
780.000000	60.330500
779.000000	60.141600
778.000000	59.908900
777.000000	59.611100
776.000000	59.478200
775.000000	59.319400
774.000000	59.045400
773.000000	58.906400
772.000000	58.758200
771.000000	58.495900
770.000000	58.275100
769.000000	58.061200
768.000000	57.832800
767.000000	57.728700
766.000000	57.481900
765.000000	57.261400
764.000000	57.027300
763.000000	56.883000
762.000000	56.664300
761.000000	56.400100
760.000000	56.123700
759.000000	56.069100
758.000000	55.957500
757.000000	55.698100
756.000000	55.525500
755.000000	55.545000
754.000000	55.331100
753.000000	55.252500
752.000000	55.164600
751.000000	54.959800
750.000000	55.013700
749.000000	54.899700
748.000000	54.789400
747.000000	54.641100
746.000000	54.623900
745.000000	54.579900
744.000000	54.558100
743.000000	54.416600
742.000000	54.284200
741.000000	54.149700
740.000000	54.161100
739.000000	54.061900
738.000000	53.884000
737.000000	53.767800
736.000000	53.733400
735.000000	53.497900
734.000000	53.382400
733.000000	53.269500
732.000000	53.063400
731.000000	52.947600
730.000000	52.736900
729.000000	52.464000
728.000000	52.373300
727.000000	52.159800
726.000000	51.978900
725.000000	51.780700
724.000000	51.589400
723.000000	51.321600
722.000000	51.135500
721.000000	50.898800
720.000000	50.615700
719.000000	50.395000
718.000000	50.129900
717.000000	49.891900
716.000000	49.642500
715.000000	49.359700
714.000000	49.118700
713.000000	48.906400
712.000000	48.642400
711.000000	48.409000
710.000000	48.131700
709.000000	47.912700
708.000000	47.701700
707.000000	47.461900
706.000000	47.273100
705.000000	47.038400
704.000000	46.849100
703.000000	46.664400
702.000000	46.497400
701.000000	46.295700
700.000000	46.125300
699.000000	45.951200
698.000000	45.780100
697.000000	45.661900
696.000000	45.538900
695.000000	45.413900
694.000000	45.334800
693.000000	45.230400
692.000000	45.148900
691.000000	45.152800
690.000000	45.149600
689.000000	45.124300
688.000000	45.112200
687.000000	45.111700
686.000000	45.122300
685.000000	45.127500
684.000000	45.189500
683.000000	45.236800
682.000000	45.299600
681.000000	45.339000
680.000000	45.393500
679.000000	45.488800
678.000000	45.563500
677.000000	45.580600
676.000000	45.629500
675.000000	45.688900
674.000000	45.738600
673.000000	45.809100
672.000000	45.873900
671.000000	45.890300
670.000000	45.912200
669.000000	45.924500
668.000000	45.934600
667.000000	45.952300
666.000000	45.934700
665.000000	45.930300
664.000000	45.924200
663.000000	45.910700
662.000000	45.901000
661.000000	45.862700
660.000000	45.786700
659.000000	45.711700
658.000000	45.647300
657.000000	45.541300
656.000000	45.448100
655.000000	45.348300
654.000000	45.246200
653.000000	45.122800
652.000000	44.972000
651.000000	44.865900
650.000000	44.723800
649.000000	44.561100
648.000000	44.457600
647.000000	44.358900
646.000000	44.272400
645.000000	44.187400
644.000000	44.140600
643.000000	44.111100
642.000000	44.086500
641.000000	44.116200
640.000000	44.168200
639.000000	44.253700
638.000000	44.386300
637.000000	44.542700
636.000000	44.744800
635.000000	44.957600
634.000000	45.247700
633.000000	45.566100
632.000000	45.875800
631.000000	46.262900
630.000000	46.691800
629.000000	47.122500
628.000000	47.596900
627.000000	48.084700
626.000000	48.580200
625.000000	49.099700
624.000000	49.635900
623.000000	50.166100
622.000000	50.682500
621.000000	51.234400
620.000000	51.734400
619.000000	52.211400
618.000000	52.700600
617.000000	53.175000
616.000000	53.657200
615.000000	54.098000
614.000000	54.494900
613.000000	54.890100
612.000000	55.306800
611.000000	55.661400
610.000000	56.006600
609.000000	56.387400
608.000000	56.726300
607.000000	57.039300
606.000000	57.355200
605.000000	57.687500
604.000000	58.010300
603.000000	58.312000
602.000000	58.594900
601.000000	58.857900
600.000000	59.135800
599.000000	59.438600
598.000000	59.657000
597.000000	59.872200
596.000000	60.059200
595.000000	60.219000
594.000000	60.342500
593.000000	60.446800
592.000000	60.562900
591.000000	60.668600
590.000000	60.740500
589.000000	60.842700
588.000000	60.863200
587.000000	60.917900
586.000000	60.955900
585.000000	61.016200
584.000000	61.101000
583.000000	61.157900
582.000000	61.220300
581.000000	61.306400
580.000000	61.369800
579.000000	61.444400
578.000000	61.486300
577.000000	61.526200
576.000000	61.570900
575.000000	61.611200
574.000000	61.624200
573.000000	61.640200
572.000000	61.617600
571.000000	61.579600
570.000000	61.508900
569.000000	61.466500
568.000000	61.395200
567.000000	61.299600
566.000000	61.194700
565.000000	61.097600
564.000000	61.002800
563.000000	60.884800
562.000000	60.753600
561.000000	60.604200
560.000000	60.416100
559.000000	60.150500
558.000000	59.957900
557.000000	59.779200
556.000000	59.537200
555.000000	59.297500
554.000000	58.984900
553.000000	58.664700
552.000000	58.359700
551.000000	57.941500
550.000000	57.549400
549.000000	57.134100
548.000000	56.651900
547.000000	56.146100
546.000000	55.569700
545.000000	54.936600
544.000000	54.315700
543.000000	53.671500
542.000000	52.962500
541.000000	52.187200
540.000000	51.425100
539.000000	50.631600
538.000000	49.806900
537.000000	48.994500
536.000000	48.168700
535.000000	47.324000
534.000000	46.491000
533.000000	45.676800
532.000000	44.863600
531.000000	44.075400
530.000000	43.308500
529.000000	42.577000
528.000000	41.878200
527.000000	41.179700
526.000000	40.492900
525.000000	39.834600
524.000000	39.202900
523.000000	38.555100
522.000000	37.943400
521.000000	37.329200
520.000000	36.734700
519.000000	36.137700
518.000000	35.513600
517.000000	34.938000
516.000000	34.328200
515.000000	33.778700
514.000000	33.177900
513.000000	32.606100
512.000000	32.025500
511.000000	31.495400
510.000000	30.916900
509.000000	30.398900
508.000000	29.902100
507.000000	29.389700
506.000000	28.915800
505.000000	28.487900
504.000000	27.996800
503.000000	27.545700
502.000000	27.124200
501.000000	26.711000
500.000000	26.283400
499.000000	25.882500
498.000000	25.531600
497.000000	25.175900
496.000000	24.802000
495.000000	24.468100
494.000000	24.093900
493.000000	23.743200
492.000000	23.383200
491.000000	23.057300
490.000000	22.728400
489.000000	22.417300
488.000000	22.113000
487.000000	21.841000
486.000000	21.571400
485.000000	21.273900
484.000000	21.037300
483.000000	20.777400
482.000000	20.569500
481.000000	20.317200
480.000000	20.082900
479.000000	19.881300
478.000000	19.662800
477.000000	19.439800
476.000000	19.273400
475.000000	19.085600
474.000000	18.921100
473.000000	18.739800
472.000000	18.569200
471.000000	18.405300
470.000000	18.277400
469.000000	18.103100
468.000000	17.976800
467.000000	17.822900
466.000000	17.689700
465.000000	17.561200
464.000000	17.398100
463.000000	17.301800
462.000000	17.151500
461.000000	17.005400
460.000000	16.846100
459.000000	16.704600
458.000000	16.571100
457.000000	16.414300
456.000000	16.266900
455.000000	16.134300
454.000000	15.946800
453.000000	15.793500
452.000000	15.669900
451.000000	15.486400
450.000000	15.290500
449.000000	15.111300
448.000000	14.913300
447.000000	14.738400
446.000000	14.522400
445.000000	14.373800
444.000000	14.197000
443.000000	13.994100
442.000000	13.789800
441.000000	13.606800
440.000000	13.443500
439.000000	13.224200
438.000000	13.030300
437.000000	12.807400
436.000000	12.619600
435.000000	12.436400
434.000000	12.241600
433.000000	12.022600
432.000000	11.805700
431.000000	11.634300
430.000000	11.430000
429.000000	11.253700
428.000000	11.049200
427.000000	10.864000
426.000000	10.701300
425.000000	10.516500
424.000000	10.347000
423.000000	10.192600
422.000000	10.011400
421.000000	9.828500
420.000000	9.641900
419.000000	9.485800
418.000000	9.347500
417.000000	9.205800
416.000000	9.056200
415.000000	8.901400
414.000000	8.770800
413.000000	8.606700
412.000000	8.487500
411.000000	8.363600
410.000000	8.251000
409.000000	8.140100
408.000000	8.026500
407.000000	7.924600
406.000000	7.828200
405.000000	7.701600
404.000000	7.615900
403.000000	7.524700
402.000000	7.426800
401.000000	7.340500
400.000000	7.271300
399.000000	7.205700
398.000000	7.134100
397.000000	7.050200
396.000000	7.011400
395.000000	6.941700
394.000000	6.887500
393.000000	6.840400
392.000000	6.808500
391.000000	6.731300
390.000000	6.654000
389.000000	6.610400
388.000000	6.581100
387.000000	6.541000
386.000000	6.501600
385.000000	6.450100
384.000000	6.415200
383.000000	6.378600
382.000000	6.339500
381.000000	6.296700
380.000000	6.251400
379.000000	6.233200
378.000000	6.189600
377.000000	6.139400
376.000000	6.165600
375.000000	5.998200
374.000000	5.595100
373.000000	5.756900
372.000000	5.888800
371.000000	5.896500
370.000000	5.894400
369.000000	5.908500
368.000000	5.901300
367.000000	5.770000
366.000000	5.878800
365.000000	5.897800
364.000000	5.823800
363.000000	5.857800
362.000000	5.927600
361.000000	5.941600
360.000000	5.838500
359.000000	5.834300
358.000000	5.805800
357.000000	5.763600
356.000000	5.807600
355.000000	5.676200
354.000000	5.606400
353.000000	5.739300
352.000000	5.703500
351.000000	5.776600
350.000000	5.807300
349.000000	5.554800
348.000000	5.575000
347.000000	5.757600
346.000000	5.786600
345.000000	5.796500
344.000000	5.841500
343.000000	5.780700
342.000000	5.605400
341.000000	5.591500
340.000000	5.636000
339.000000	5.570200
338.000000	5.631200
337.000000	5.826800
336.000000	5.681500
335.000000	5.719900
334.000000	5.828800
333.000000	5.726600
332.000000	5.659500
331.000000	5.581700
330.000000	5.750400
329.000000	5.849300
328.000000	5.911600
327.000000	6.006600
326.000000	5.985800
325.000000	5.827700
324.000000	5.796200
323.000000	5.970300
322.000000	6.063800
321.000000	6.007900
320.000000	5.674400
319.000000	5.801500
318.000000	6.068800
317.000000	6.098800
316.000000	5.686000
315.000000	5.366000
314.000000	5.382800
313.000000	5.377000
312.000000	5.390000
311.000000	5.394900
310.000000	5.351600
309.000000	5.352200
308.000000	5.376700
307.000000	5.409200
306.000000	5.390000
305.000000	5.417500
304.000000	5.392500
303.000000	5.349300
302.000000	5.345900
301.000000	5.371500
300.000000	5.395100
299.000000	5.398300
298.000000	5.454500
297.000000	5.424300
296.000000	5.394100
295.000000	5.404200
294.000000	5.411600
293.000000	5.412400
292.000000	5.394000
291.000000	5.424300
290.000000	5.426700
289.000000	5.439900
288.000000	5.469300
287.000000	5.464600
286.000000	5.482000
285.000000	5.493500
284.000000	5.535600
283.000000	5.535300
282.000000	5.560600
281.000000	5.516000
280.000000	5.520700
279.000000	5.577000
278.000000	5.579200
277.000000	5.570900
276.000000	5.595600
275.000000	5.599600
274.000000	5.623500
273.000000	5.643900
272.000000	5.623900
271.000000	5.656800
270.000000	5.669800
269.000000	5.714600
268.000000	5.696000
267.000000	5.710800
266.000000	5.759400
265.000000	5.736800
264.000000	5.796500
263.000000	5.798800
262.000000	5.848900
261.000000	5.831500
260.000000	5.866800
259.000000	5.886900
258.000000	5.935400
257.000000	5.981000
256.000000	5.988500
255.000000	5.928400
254.000000	5.980800
253.000000	5.976800
252.000000	5.983900
251.000000	6.019000
250.000000	6.025400
