PE UV       SUBTECH     SPECTRUM    ASCII       PEDS        4.00        
   -1
CICIMAUCR0232-2.Sample.ASC
24/06/13
16:37:20.00
24/06/13
16:37:20.00
Vinicio Soto Monge
C. resplendens. Sex M. Dorsal.
250,000000
1
Lambda 1050
1050L1511233
PerkinElmer UV WinLab 6.3.2.0749 / 2.02.05 Lambda 900 UV/VIS/NIR, Aug  7 2015 09:38:08

0
0
3350/servo 860,8/2
0
0
UV/VIS
1
1
1
DoubleDePol,CommonBeamDepol,RBeamAtt,SBeamAtt,60mm sphere, WB InGaAs Detector
0
0
0
0
Program
Program
3350/servo 860,8/2
3350/0,2 860,8/0,2
3350/0,2 860,8/0,2
0
15.00
 
 
 
0
 
860,8
319,2
860,8
Front
100
on
S:100 R:100
0
0
0
0
 
0
 
 
 
0
 
 
0
0
0
0
0
 
 
 
 
0
0


0
0
#HDR
-1
-1
#GR
nm
%R
1.0
0.0
2500,000000
-1,000000
2251
8
91,902200
5,778000
#DATA
2500.000000	8.709667
2499.000000	8.657331
2498.000000	8.731013
2497.000000	8.648300
2496.000000	8.582725
2495.000000	8.534390
2494.000000	8.507196
2493.000000	8.451985
2492.000000	8.546397
2491.000000	8.467892
2490.000000	8.463069
2489.000000	8.416068
2488.000000	8.395339
2487.000000	8.443365
2486.000000	8.420276
2485.000000	8.448907
2484.000000	8.379124
2483.000000	8.386513
2482.000000	8.438953
2481.000000	8.425714
2480.000000	8.457014
2479.000000	8.395441
2478.000000	8.399546
2477.000000	8.397288
2476.000000	8.411245
2475.000000	8.454551
2474.000000	8.434950
2473.000000	8.430332
2472.000000	8.439055
2471.000000	8.438439
2470.000000	8.434745
2469.000000	8.458451
2468.000000	8.501346
2467.000000	8.480925
2466.000000	8.478051
2465.000000	8.493034
2464.000000	8.541266
2463.000000	8.594834
2462.000000	8.606533
2461.000000	8.645632
2460.000000	8.664822
2459.000000	8.688014
2458.000000	8.771856
2457.000000	8.797614
2456.000000	8.876837
2455.000000	8.929585
2454.000000	8.987873
2453.000000	9.067302
2452.000000	9.145910
2451.000000	9.179570
2450.000000	9.247300
2449.000000	9.311951
2448.000000	9.380913
2447.000000	9.478711
2446.000000	9.522017
2445.000000	9.592825
2444.000000	9.687134
2443.000000	9.748912
2442.000000	9.831522
2441.000000	9.905615
2440.000000	9.973345
2439.000000	10.025990
2438.000000	10.112704
2437.000000	10.191107
2436.000000	10.240776
2435.000000	10.292394
2434.000000	10.372541
2433.000000	10.423647
2432.000000	10.476907
2431.000000	10.534580
2430.000000	10.600463
2429.000000	10.669630
2428.000000	10.709652
2427.000000	10.756345
2426.000000	10.819765
2425.000000	10.867483
2424.000000	10.902375
2423.000000	10.932443
2422.000000	10.990116
2421.000000	11.025623
2420.000000	11.064106
2419.000000	11.111619
2418.000000	11.143637
2417.000000	11.178631
2416.000000	11.215575
2415.000000	11.258265
2414.000000	11.293875
2413.000000	11.325379
2412.000000	11.333486
2411.000000	11.371354
2410.000000	11.409426
2409.000000	11.435800
2408.000000	11.464944
2407.000000	11.502298
2406.000000	11.536882
2405.000000	11.562845
2404.000000	11.598967
2403.000000	11.638579
2402.000000	11.664132
2401.000000	11.671315
2400.000000	11.718624
2399.000000	11.737917
2398.000000	11.758646
2397.000000	11.790664
2396.000000	11.802978
2395.000000	11.816730
2394.000000	11.844232
2393.000000	11.887230
2392.000000	11.917093
2391.000000	11.937515
2390.000000	11.957218
2389.000000	11.958347
2388.000000	11.978563
2387.000000	11.995085
2386.000000	11.997856
2385.000000	12.013044
2384.000000	12.028848
2383.000000	12.018175
2382.000000	12.017252
2381.000000	12.030079
2380.000000	12.028027
2379.000000	12.016738
2378.000000	12.022690
2377.000000	12.002987
2376.000000	11.984002
2375.000000	11.976408
2374.000000	11.958347
2373.000000	11.935565
2372.000000	11.918735
2371.000000	11.896261
2370.000000	11.866706
2369.000000	11.847824
2368.000000	11.824632
2367.000000	11.772089
2366.000000	11.733812
2365.000000	11.705386
2364.000000	11.658898
2363.000000	11.599378
2362.000000	11.543655
2361.000000	11.480748
2360.000000	11.429437
2359.000000	11.379461
2358.000000	11.328047
2357.000000	11.281663
2356.000000	11.237330
2355.000000	11.203671
2354.000000	11.168061
2353.000000	11.132657
2352.000000	11.122497
2351.000000	11.112851
2350.000000	11.095200
2349.000000	11.109567
2348.000000	11.128449
2347.000000	11.152463
2346.000000	11.176681
2345.000000	11.198129
2344.000000	11.228197
2343.000000	11.278379
2342.000000	11.321274
2341.000000	11.351240
2340.000000	11.381924
2339.000000	11.409631
2338.000000	11.440315
2337.000000	11.464226
2336.000000	11.467612
2335.000000	11.451911
2334.000000	11.446164
2333.000000	11.433234
2332.000000	11.416712
2331.000000	11.393212
2330.000000	11.356576
2329.000000	11.319633
2328.000000	11.268014
2327.000000	11.211778
2326.000000	11.155336
2325.000000	11.084014
2324.000000	11.004483
2323.000000	10.921770
2322.000000	10.846549
2321.000000	10.768044
2320.000000	10.682457
2319.000000	10.576347
2318.000000	10.462951
2317.000000	10.358072
2316.000000	10.256374
2315.000000	10.126148
2314.000000	10.008749
2313.000000	9.914851
2312.000000	9.807612
2311.000000	9.699038
2310.000000	9.612631
2309.000000	9.541104
2308.000000	9.487536
2307.000000	9.437457
2306.000000	9.396203
2305.000000	9.381631
2304.000000	9.391688
2303.000000	9.415188
2302.000000	9.470090
2301.000000	9.520067
2300.000000	9.565118
2299.000000	9.637260
2298.000000	9.715971
2297.000000	9.803199
2296.000000	9.892069
2295.000000	9.972011
2294.000000	10.055031
2293.000000	10.131484
2292.000000	10.215120
2291.000000	10.267457
2290.000000	10.305735
2289.000000	10.324309
2288.000000	10.360124
2287.000000	10.361971
2286.000000	10.364537
2285.000000	10.360535
2284.000000	10.337445
2283.000000	10.299372
2282.000000	10.262326
2281.000000	10.231642
2280.000000	10.173046
2279.000000	10.147185
2278.000000	10.079660
2277.000000	10.045180
2276.000000	9.998795
2275.000000	9.958260
2274.000000	9.921213
2273.000000	9.900689
2272.000000	9.887348
2271.000000	9.894327
2270.000000	9.894429
2269.000000	9.917211
2268.000000	9.952513
2267.000000	10.008954
2266.000000	10.101827
2265.000000	10.186489
2264.000000	10.290752
2263.000000	10.434525
2262.000000	10.602926
2261.000000	10.773790
2260.000000	10.955943
2259.000000	11.175552
2258.000000	11.379974
2257.000000	11.620826
2256.000000	11.843001
2255.000000	12.100067
2254.000000	12.330349
2253.000000	12.561144
2252.000000	12.784756
2251.000000	13.017295
2250.000000	13.241112
2249.000000	13.438863
2248.000000	13.637640
2247.000000	13.801527
2246.000000	13.994454
2245.000000	14.142639
2244.000000	14.289388
2243.000000	14.430287
2242.000000	14.562052
2241.000000	14.664776
2240.000000	14.794489
2239.000000	14.876689
2238.000000	14.987828
2237.000000	15.093014
2236.000000	15.138578
2235.000000	15.217391
2234.000000	15.281016
2233.000000	15.345770
2232.000000	15.387127
2231.000000	15.422531
2230.000000	15.450752
2229.000000	15.482359
2228.000000	15.502986
2227.000000	15.516737
2226.000000	15.518790
2225.000000	15.517764
2224.000000	15.512530
2223.000000	15.491390
2222.000000	15.489030
2221.000000	15.462861
2220.000000	15.439977
2219.000000	15.408985
2218.000000	15.403751
2217.000000	15.357572
2216.000000	15.313753
2215.000000	15.293536
2214.000000	15.275988
2213.000000	15.208874
2212.000000	15.199740
2211.000000	15.168544
2210.000000	15.151098
2209.000000	15.108100
2208.000000	15.096709
2207.000000	15.070643
2206.000000	15.046322
2205.000000	15.032365
2204.000000	14.999013
2203.000000	14.996243
2202.000000	14.957247
2201.000000	14.936825
2200.000000	14.927281
2199.000000	14.905525
2198.000000	14.892903
2197.000000	14.872071
2196.000000	14.885822
2195.000000	14.850726
2194.000000	14.855959
2193.000000	14.827328
2192.000000	14.812243
2191.000000	14.789769
2190.000000	14.781764
2189.000000	14.785767
2188.000000	14.764011
2187.000000	14.741742
2186.000000	14.721526
2185.000000	14.706132
2184.000000	14.708903
2183.000000	14.686327
2182.000000	14.680169
2181.000000	14.666521
2180.000000	14.648357
2179.000000	14.628859
2178.000000	14.612850
2177.000000	14.596841
2176.000000	14.592018
2175.000000	14.593454
2174.000000	14.583911
2173.000000	14.581653
2172.000000	14.594788
2171.000000	14.583090
2170.000000	14.595096
2169.000000	14.604435
2168.000000	14.626191
2167.000000	14.631732
2166.000000	14.657285
2165.000000	14.675962
2164.000000	14.684274
2163.000000	14.723886
2162.000000	14.746976
2161.000000	14.774581
2160.000000	14.811832
2159.000000	14.828662
2158.000000	14.881409
2157.000000	14.903268
2156.000000	14.942161
2155.000000	14.978079
2154.000000	15.037702
2153.000000	15.068898
2152.000000	15.112615
2151.000000	15.152740
2150.000000	15.204051
2149.000000	15.250333
2148.000000	15.288610
2147.000000	15.337663
2146.000000	15.373889
2145.000000	15.431049
2144.000000	15.486259
2143.000000	15.523305
2142.000000	15.559017
2141.000000	15.594114
2140.000000	15.645219
2139.000000	15.665128
2138.000000	15.706176
2137.000000	15.739733
2136.000000	15.761284
2135.000000	15.799972
2134.000000	15.812389
2133.000000	15.827269
2132.000000	15.849538
2131.000000	15.879401
2130.000000	15.888534
2129.000000	15.891305
2128.000000	15.903312
2127.000000	15.891715
2126.000000	15.908443
2125.000000	15.908237
2124.000000	15.890279
2123.000000	15.894999
2122.000000	15.890894
2121.000000	15.874167
2120.000000	15.868933
2119.000000	15.854361
2118.000000	15.827988
2117.000000	15.814339
2116.000000	15.798330
2115.000000	15.758616
2114.000000	15.725674
2113.000000	15.700635
2112.000000	15.680008
2111.000000	15.650350
2110.000000	15.613099
2109.000000	15.579849
2108.000000	15.553989
2107.000000	15.544343
2106.000000	15.508836
2105.000000	15.490569
2104.000000	15.448392
2103.000000	15.415348
2102.000000	15.378507
2101.000000	15.344231
2100.000000	15.309443
2099.000000	15.270960
2098.000000	15.248588
2097.000000	15.215134
2096.000000	15.193378
2095.000000	15.179627
2094.000000	15.154998
2093.000000	15.131908
2092.000000	15.111897
2091.000000	15.089217
2090.000000	15.054018
2089.000000	15.032776
2088.000000	15.024566
2087.000000	14.997371
2086.000000	14.968432
2085.000000	14.949858
2084.000000	14.932720
2083.000000	14.899368
2082.000000	14.871660
2081.000000	14.851034
2080.000000	14.814808
2079.000000	14.763292
2078.000000	14.731172
2077.000000	14.709622
2076.000000	14.660671
2075.000000	14.614184
2074.000000	14.573033
2073.000000	14.527982
2072.000000	14.486010
2071.000000	14.443217
2070.000000	14.390675
2069.000000	14.331873
2068.000000	14.272147
2067.000000	14.226891
2066.000000	14.193026
2065.000000	14.139048
2064.000000	14.087634
2063.000000	14.035708
2062.000000	13.994249
2061.000000	13.945915
2060.000000	13.905790
2059.000000	13.879006
2058.000000	13.849040
2057.000000	13.819690
2056.000000	13.803989
2055.000000	13.815996
2054.000000	13.813944
2053.000000	13.809120
2052.000000	13.812917
2051.000000	13.835289
2050.000000	13.879108
2049.000000	13.935037
2048.000000	13.989734
2047.000000	14.051717
2046.000000	14.129914
2045.000000	14.193437
2044.000000	14.270813
2043.000000	14.358247
2042.000000	14.433673
2041.000000	14.535884
2040.000000	14.626909
2039.000000	14.711879
2038.000000	14.782277
2037.000000	14.844774
2036.000000	14.931078
2035.000000	15.009994
2034.000000	15.077724
2033.000000	15.133139
2032.000000	15.179729
2031.000000	15.243970
2030.000000	15.299386
2029.000000	15.347823
2028.000000	15.376967
2027.000000	15.419350
2026.000000	15.460090
2025.000000	15.484309
2024.000000	15.510991
2023.000000	15.544343
2022.000000	15.560762
2021.000000	15.582004
2020.000000	15.592472
2019.000000	15.603658
2018.000000	15.613509
2017.000000	15.616588
2016.000000	15.626439
2015.000000	15.627979
2014.000000	15.625824
2013.000000	15.623771
2012.000000	15.604786
2011.000000	15.596269
2010.000000	15.579028
2009.000000	15.546600
2008.000000	15.531823
2007.000000	15.500934
2006.000000	15.461527
2005.000000	15.431049
2004.000000	15.371631
2003.000000	15.320628
2002.000000	15.285327
2001.000000	15.237402
2000.000000	15.202409
1999.000000	15.141862
1998.000000	15.076698
1997.000000	14.996243
1996.000000	14.937543
1995.000000	14.870942
1994.000000	14.807727
1993.000000	14.726965
1992.000000	14.657080
1991.000000	14.610797
1990.000000	14.519157
1989.000000	14.418075
1988.000000	14.368098
1987.000000	14.262706
1986.000000	14.188203
1985.000000	14.103028
1984.000000	14.011284
1983.000000	13.908047
1982.000000	13.823898
1981.000000	13.752371
1980.000000	13.668940
1979.000000	13.560059
1978.000000	13.473960
1977.000000	13.378830
1976.000000	13.326801
1975.000000	13.233313
1974.000000	13.150703
1973.000000	13.075892
1972.000000	12.981994
1971.000000	12.905643
1970.000000	12.814824
1969.000000	12.734369
1968.000000	12.663457
1967.000000	12.573048
1966.000000	12.507678
1965.000000	12.410291
1964.000000	12.317829
1963.000000	12.259951
1962.000000	12.197967
1961.000000	12.111971
1960.000000	12.051117
1959.000000	11.976203
1958.000000	11.898724
1957.000000	11.820835
1956.000000	11.745511
1955.000000	11.670289
1954.000000	11.614771
1953.000000	11.546528
1952.000000	11.486392
1951.000000	11.425435
1950.000000	11.379563
1949.000000	11.306189
1948.000000	11.235483
1947.000000	11.208802
1946.000000	11.149179
1945.000000	11.101768
1944.000000	11.067082
1943.000000	11.017310
1942.000000	10.999147
1941.000000	10.953070
1940.000000	10.947118
1939.000000	10.917563
1938.000000	10.924028
1937.000000	10.936548
1936.000000	10.919102
1935.000000	10.928851
1934.000000	10.944552
1933.000000	10.945681
1932.000000	10.971952
1931.000000	11.017721
1930.000000	11.024904
1929.000000	11.116340
1928.000000	11.191048
1927.000000	11.245540
1926.000000	11.335641
1925.000000	11.431284
1924.000000	11.512047
1923.000000	11.582445
1922.000000	11.687324
1921.000000	11.821758
1920.000000	11.970969
1919.000000	12.128903
1918.000000	12.256154
1917.000000	12.402184
1916.000000	12.520198
1915.000000	12.640573
1914.000000	12.796044
1913.000000	13.001902
1912.000000	13.249219
1911.000000	13.473549
1910.000000	13.641540
1909.000000	13.822256
1908.000000	13.981627
1907.000000	14.186356
1906.000000	14.428953
1905.000000	14.710545
1904.000000	15.037291
1903.000000	15.316010
1902.000000	15.573282
1901.000000	15.836608
1900.000000	16.137801
1899.000000	16.460237
1898.000000	16.821156
1897.000000	17.153854
1896.000000	17.456791
1895.000000	17.724222
1894.000000	17.991961
1893.000000	18.332663
1892.000000	18.675829
1891.000000	19.107248
1890.000000	19.547083
1889.000000	19.945048
1888.000000	20.340550
1887.000000	20.758424
1886.000000	21.163162
1885.000000	21.600328
1884.000000	22.074438
1883.000000	22.620588
1882.000000	23.179258
1881.000000	23.658602
1880.000000	24.178583
1879.000000	24.670857
1878.000000	25.132345
1877.000000	25.603992
1876.000000	26.092982
1875.000000	26.526659
1874.000000	26.952024
1873.000000	27.370616
1872.000000	27.773917
1871.000000	28.166751
1870.000000	28.518126
1869.000000	28.835842
1868.000000	29.128928
1867.000000	29.330681
1866.000000	29.529561
1865.000000	29.665226
1864.000000	29.798326
1863.000000	29.912954
1862.000000	30.022759
1861.000000	30.167968
1860.000000	30.318000
1859.000000	30.452331
1858.000000	30.551053
1857.000000	30.655624
1856.000000	30.715246
1855.000000	30.737823
1854.000000	30.790263
1853.000000	30.823409
1852.000000	30.817970
1851.000000	30.818381
1850.000000	30.817457
1849.000000	30.835005
1848.000000	30.867126
1847.000000	30.869076
1846.000000	30.869383
1845.000000	30.819817
1844.000000	30.762452
1843.000000	30.710834
1842.000000	30.691438
1841.000000	30.709192
1840.000000	30.726330
1839.000000	30.716478
1838.000000	30.692670
1837.000000	30.654803
1836.000000	30.617551
1835.000000	30.593846
1834.000000	30.534325
1833.000000	30.451613
1832.000000	30.370747
1831.000000	30.327133
1830.000000	30.290908
1829.000000	30.233953
1828.000000	30.191878
1827.000000	30.115733
1826.000000	30.053545
1825.000000	30.016293
1824.000000	29.944972
1823.000000	29.889351
1822.000000	29.846455
1821.000000	29.845019
1820.000000	29.872111
1819.000000	29.865543
1818.000000	29.815156
1817.000000	29.765590
1816.000000	29.748760
1815.000000	29.737369
1814.000000	29.712945
1813.000000	29.706788
1812.000000	29.696423
1811.000000	29.663071
1810.000000	29.638339
1809.000000	29.609606
1808.000000	29.564863
1807.000000	29.516425
1806.000000	29.489436
1805.000000	29.455571
1804.000000	29.404568
1803.000000	29.368240
1802.000000	29.321343
1801.000000	29.277215
1800.000000	29.242016
1799.000000	29.183522
1798.000000	29.131391
1797.000000	29.078746
1796.000000	29.019020
1795.000000	28.975099
1794.000000	28.936205
1793.000000	28.893515
1792.000000	28.836868
1791.000000	28.793870
1790.000000	28.749024
1789.000000	28.688991
1788.000000	28.641580
1787.000000	28.598171
1786.000000	28.552197
1785.000000	28.495344
1784.000000	28.432745
1783.000000	28.380717
1782.000000	28.325917
1781.000000	28.251619
1780.000000	28.181631
1779.000000	28.118622
1778.000000	28.065772
1777.000000	28.002763
1776.000000	27.915945
1775.000000	27.832001
1774.000000	27.739129
1773.000000	27.649848
1772.000000	27.548151
1771.000000	27.446145
1770.000000	27.347834
1769.000000	27.244187
1768.000000	27.141258
1767.000000	27.043357
1766.000000	26.965057
1765.000000	26.877213
1764.000000	26.800247
1763.000000	26.770385
1762.000000	26.745242
1761.000000	26.761662
1760.000000	26.803121
1759.000000	26.842630
1758.000000	26.890451
1757.000000	26.949664
1756.000000	27.023756
1755.000000	27.080814
1754.000000	27.121349
1753.000000	27.160242
1752.000000	27.190618
1751.000000	27.209911
1750.000000	27.201394
1749.000000	27.188976
1748.000000	27.153367
1747.000000	27.102364
1746.000000	27.046743
1745.000000	26.967520
1744.000000	26.860383
1743.000000	26.741548
1742.000000	26.607833
1741.000000	26.445794
1740.000000	26.260357
1739.000000	26.054088
1738.000000	25.850283
1737.000000	25.657252
1736.000000	25.492648
1735.000000	25.358419
1734.000000	25.231066
1733.000000	25.161387
1732.000000	25.139118
1731.000000	25.153895
1730.000000	25.182219
1729.000000	25.242252
1728.000000	25.316755
1727.000000	25.416503
1726.000000	25.501781
1725.000000	25.576797
1724.000000	25.633649
1723.000000	25.704048
1722.000000	25.746020
1721.000000	25.792404
1720.000000	25.840842
1719.000000	25.902312
1718.000000	25.962140
1717.000000	26.033564
1716.000000	26.104373
1715.000000	26.182160
1714.000000	26.282523
1713.000000	26.413468
1712.000000	26.491050
1711.000000	26.566784
1710.000000	26.630820
1709.000000	26.683977
1708.000000	26.691161
1707.000000	26.710043
1706.000000	26.691161
1705.000000	26.667661
1704.000000	26.632872
1703.000000	26.584845
1702.000000	26.525838
1701.000000	26.442305
1700.000000	26.307050
1699.000000	26.194269
1698.000000	26.058296
1697.000000	25.932790
1696.000000	25.830785
1695.000000	25.728677
1694.000000	25.689681
1693.000000	25.710205
1692.000000	25.777422
1691.000000	25.866907
1690.000000	26.009859
1689.000000	26.135262
1688.000000	26.247016
1687.000000	26.312694
1686.000000	26.364210
1685.000000	26.419420
1684.000000	26.485303
1683.000000	26.572018
1682.000000	26.736930
1681.000000	26.999127
1680.000000	27.351734
1679.000000	27.773199
1678.000000	28.229966
1677.000000	28.698329
1676.000000	29.132725
1675.000000	29.551625
1674.000000	29.908541
1673.000000	30.209734
1672.000000	30.495329
1671.000000	30.732487
1670.000000	30.935369
1669.000000	31.126552
1668.000000	31.288386
1667.000000	31.419844
1666.000000	31.529546
1665.000000	31.660798
1664.000000	31.767627
1663.000000	31.866554
1662.000000	31.949677
1661.000000	32.037213
1660.000000	32.107714
1659.000000	32.133266
1658.000000	32.209924
1657.000000	32.234451
1656.000000	32.261851
1655.000000	32.269650
1654.000000	32.304541
1653.000000	32.305362
1652.000000	32.301462
1651.000000	32.290892
1650.000000	32.277449
1649.000000	32.243379
1648.000000	32.222649
1647.000000	32.174725
1646.000000	32.162103
1645.000000	32.112639
1644.000000	32.072104
1643.000000	32.043165
1642.000000	31.988673
1641.000000	31.951524
1640.000000	31.890978
1639.000000	31.820272
1638.000000	31.779941
1637.000000	31.728631
1636.000000	31.650844
1635.000000	31.598507
1634.000000	31.546068
1633.000000	31.484187
1632.000000	31.410403
1631.000000	31.348522
1630.000000	31.264270
1629.000000	31.202492
1628.000000	31.110133
1627.000000	31.043121
1626.000000	30.953943
1625.000000	30.872667
1624.000000	30.806579
1623.000000	30.716888
1622.000000	30.657265
1621.000000	30.577324
1620.000000	30.515032
1619.000000	30.455307
1618.000000	30.382959
1617.000000	30.289882
1616.000000	30.236005
1615.000000	30.156269
1614.000000	30.104650
1613.000000	30.019783
1612.000000	29.955131
1611.000000	29.893764
1610.000000	29.840606
1609.000000	29.775134
1608.000000	29.704017
1607.000000	29.637621
1606.000000	29.568762
1605.000000	29.518375
1604.000000	29.426016
1603.000000	29.343714
1602.000000	29.291069
1601.000000	29.229086
1600.000000	29.158996
1599.000000	29.097731
1598.000000	29.030104
1597.000000	28.955908
1596.000000	28.896799
1595.000000	28.835842
1594.000000	28.772524
1593.000000	28.724190
1592.000000	28.675753
1591.000000	28.615103
1590.000000	28.563793
1589.000000	28.519871
1588.000000	28.488571
1587.000000	28.428641
1586.000000	28.373636
1585.000000	28.328174
1584.000000	28.293386
1583.000000	28.256032
1582.000000	28.215496
1581.000000	28.172498
1580.000000	28.121803
1579.000000	28.105486
1578.000000	28.078702
1577.000000	28.065259
1576.000000	28.050481
1575.000000	28.020208
1574.000000	28.009946
1573.000000	27.993321
1572.000000	27.990551
1571.000000	27.980289
1570.000000	27.965409
1569.000000	27.985009
1568.000000	27.989114
1567.000000	27.982341
1566.000000	27.976081
1565.000000	27.995784
1564.000000	28.010151
1563.000000	28.005636
1562.000000	28.008509
1561.000000	28.006662
1560.000000	28.008817
1559.000000	28.017130
1558.000000	28.005944
1557.000000	27.988396
1556.000000	27.968282
1555.000000	27.955762
1554.000000	27.929183
1553.000000	27.903425
1552.000000	27.882901
1551.000000	27.838158
1550.000000	27.813426
1549.000000	27.778843
1548.000000	27.744362
1547.000000	27.711216
1546.000000	27.682071
1545.000000	27.663805
1544.000000	27.623680
1543.000000	27.581297
1542.000000	27.560670
1541.000000	27.536657
1540.000000	27.511310
1539.000000	27.492735
1538.000000	27.476316
1537.000000	27.441938
1536.000000	27.410228
1535.000000	27.382725
1534.000000	27.355018
1533.000000	27.320537
1532.000000	27.287903
1531.000000	27.252807
1530.000000	27.207243
1529.000000	27.166092
1528.000000	27.121760
1527.000000	27.083687
1526.000000	27.042844
1525.000000	26.984350
1524.000000	26.931808
1523.000000	26.882960
1522.000000	26.829186
1521.000000	26.785572
1520.000000	26.739496
1519.000000	26.676794
1518.000000	26.628665
1517.000000	26.572120
1516.000000	26.514345
1515.000000	26.459955
1514.000000	26.403616
1513.000000	26.344712
1512.000000	26.274621
1511.000000	26.205455
1510.000000	26.148603
1509.000000	26.088056
1508.000000	26.029870
1507.000000	25.966450
1506.000000	25.890202
1505.000000	25.825448
1504.000000	25.770854
1503.000000	25.707024
1502.000000	25.645553
1501.000000	25.579773
1500.000000	25.516559
1499.000000	25.464837
1498.000000	25.415169
1497.000000	25.371863
1496.000000	25.328864
1495.000000	25.281864
1494.000000	25.243997
1493.000000	25.207156
1492.000000	25.175651
1491.000000	25.152972
1490.000000	25.116028
1489.000000	25.076724
1488.000000	25.050248
1487.000000	25.026748
1486.000000	24.995140
1485.000000	24.960762
1484.000000	24.941982
1483.000000	24.917251
1482.000000	24.891082
1481.000000	24.882770
1480.000000	24.863785
1479.000000	24.859167
1478.000000	24.852086
1477.000000	24.849315
1476.000000	24.837206
1475.000000	24.834435
1474.000000	24.853420
1473.000000	24.873431
1472.000000	24.886362
1471.000000	24.898984
1470.000000	24.918585
1469.000000	24.916532
1468.000000	24.933157
1467.000000	24.962712
1466.000000	24.966612
1465.000000	24.988470
1464.000000	25.003863
1463.000000	25.032494
1462.000000	25.056610
1461.000000	25.100430
1460.000000	25.134192
1459.000000	25.175856
1458.000000	25.217213
1457.000000	25.268318
1456.000000	25.324657
1455.000000	25.389000
1454.000000	25.454678
1453.000000	25.539546
1452.000000	25.594551
1451.000000	25.683318
1450.000000	25.764491
1449.000000	25.827603
1448.000000	25.886919
1447.000000	25.964911
1446.000000	26.058912
1445.000000	26.159173
1444.000000	26.259536
1443.000000	26.341633
1442.000000	26.411723
1441.000000	26.504698
1440.000000	26.598699
1439.000000	26.709120
1438.000000	26.818719
1437.000000	26.930063
1436.000000	27.018009
1435.000000	27.125351
1434.000000	27.247368
1433.000000	27.353170
1432.000000	27.468824
1431.000000	27.596588
1430.000000	27.727225
1429.000000	27.853244
1428.000000	28.006252
1427.000000	28.171575
1426.000000	28.320170
1425.000000	28.516382
1424.000000	28.704281
1423.000000	28.905008
1422.000000	29.109943
1421.000000	29.294353
1420.000000	29.512013
1419.000000	29.745271
1418.000000	30.006647
1417.000000	30.223178
1416.000000	30.418261
1415.000000	30.684460
1414.000000	30.989450
1413.000000	31.276790
1412.000000	31.523388
1411.000000	31.783636
1410.000000	32.092013
1409.000000	32.448827
1408.000000	32.817442
1407.000000	33.192522
1406.000000	33.550465
1405.000000	33.920517
1404.000000	34.344651
1403.000000	34.703004
1402.000000	35.103227
1401.000000	35.478205
1400.000000	35.952109
1399.000000	36.345149
1398.000000	36.649728
1397.000000	36.895301
1396.000000	37.253449
1395.000000	37.647309
1394.000000	37.985343
1393.000000	38.224040
1392.000000	38.469921
1391.000000	38.799232
1390.000000	39.107712
1389.000000	39.388381
1388.000000	39.779367
1387.000000	40.202372
1386.000000	40.608239
1385.000000	41.045303
1384.000000	41.502891
1383.000000	42.018562
1382.000000	42.524895
1381.000000	42.958059
1380.000000	43.352638
1379.000000	43.515908
1378.000000	43.817102
1377.000000	43.991660
1376.000000	44.159754
1375.000000	44.332670
1374.000000	44.511642
1373.000000	44.743053
1372.000000	45.031213
1371.000000	45.327686
1370.000000	45.634215
1369.000000	45.893026
1368.000000	46.151529
1367.000000	46.422962
1366.000000	46.643905
1365.000000	46.828931
1364.000000	47.013034
1363.000000	47.157935
1362.000000	47.329723
1361.000000	47.470006
1360.000000	47.627632
1359.000000	47.674941
1358.000000	47.708498
1357.000000	47.792545
1356.000000	47.920513
1355.000000	48.104410
1354.000000	48.391339
1353.000000	48.693251
1352.000000	48.991468
1351.000000	49.399593
1350.000000	49.834194
1349.000000	50.216252
1348.000000	50.555210
1347.000000	50.898375
1346.000000	51.249340
1345.000000	51.510819
1344.000000	51.833563
1343.000000	52.133011
1342.000000	52.383202
1341.000000	52.658534
1340.000000	52.947105
1339.000000	53.229724
1338.000000	53.484738
1337.000000	53.752271
1336.000000	53.994047
1335.000000	54.241980
1334.000000	54.496070
1333.000000	54.717629
1332.000000	54.952221
1331.000000	55.187839
1330.000000	55.411348
1329.000000	55.623877
1328.000000	55.815881
1327.000000	56.012811
1326.000000	56.198556
1325.000000	56.385839
1324.000000	56.570763
1323.000000	56.725926
1322.000000	56.894533
1321.000000	57.039844
1320.000000	57.205886
1319.000000	57.342167
1318.000000	57.481629
1317.000000	57.626735
1316.000000	57.765479
1315.000000	57.886572
1314.000000	58.012180
1313.000000	58.119522
1312.000000	58.227582
1311.000000	58.355756
1310.000000	58.458172
1309.000000	58.555765
1308.000000	58.645764
1307.000000	58.719343
1306.000000	58.786971
1305.000000	58.863423
1304.000000	58.926946
1303.000000	58.973536
1302.000000	59.026899
1301.000000	59.070616
1300.000000	59.101197
1299.000000	59.134959
1298.000000	59.153533
1297.000000	59.187398
1296.000000	59.204434
1295.000000	59.223419
1294.000000	59.235836
1293.000000	59.243327
1292.000000	59.240864
1291.000000	59.240967
1290.000000	59.219622
1289.000000	59.198174
1288.000000	59.177752
1287.000000	59.154149
1286.000000	59.116795
1285.000000	59.078312
1284.000000	59.041882
1283.000000	58.985132
1282.000000	58.942955
1281.000000	58.891336
1280.000000	58.842078
1279.000000	58.795796
1278.000000	58.742741
1277.000000	58.685478
1276.000000	58.628421
1275.000000	58.580599
1274.000000	58.546734
1273.000000	58.507020
1272.000000	58.474284
1271.000000	58.443292
1270.000000	58.407477
1269.000000	58.365095
1268.000000	58.335027
1267.000000	58.326714
1266.000000	58.288745
1265.000000	58.250775
1264.000000	58.214652
1263.000000	58.175451
1262.000000	58.140252
1261.000000	58.116957
1260.000000	58.084015
1259.000000	58.045430
1258.000000	58.002329
1257.000000	57.976981
1256.000000	57.951942
1255.000000	57.908943
1254.000000	57.863585
1253.000000	57.815045
1252.000000	57.777280
1251.000000	57.726586
1250.000000	57.674249
1249.000000	57.601696
1248.000000	57.535607
1247.000000	57.487068
1246.000000	57.412462
1245.000000	57.317640
1244.000000	57.218405
1243.000000	57.141234
1242.000000	57.045283
1241.000000	56.932400
1240.000000	56.811102
1239.000000	56.704068
1238.000000	56.600318
1237.000000	56.482303
1236.000000	56.363365
1235.000000	56.241965
1234.000000	56.115843
1233.000000	55.979152
1232.000000	55.845539
1231.000000	55.710900
1230.000000	55.565588
1229.000000	55.427255
1228.000000	55.286356
1227.000000	55.130679
1226.000000	54.975721
1225.000000	54.810912
1224.000000	54.647334
1223.000000	54.515157
1222.000000	54.366357
1221.000000	54.209449
1220.000000	54.057775
1219.000000	53.906408
1218.000000	53.759044
1217.000000	53.629331
1216.000000	53.498181
1215.000000	53.378833
1214.000000	53.255482
1213.000000	53.119919
1212.000000	53.008268
1211.000000	52.886969
1210.000000	52.777062
1209.000000	52.673004
1208.000000	52.549038
1207.000000	52.452574
1206.000000	52.371092
1205.000000	52.290945
1204.000000	52.226807
1203.000000	52.180730
1202.000000	52.148918
1201.000000	52.114437
1200.000000	52.065692
1199.000000	52.009250
1198.000000	51.956503
1197.000000	51.879742
1196.000000	51.774350
1195.000000	51.635504
1194.000000	51.443089
1193.000000	51.218964
1192.000000	50.956151
1191.000000	50.636794
1190.000000	50.288190
1189.000000	49.953850
1188.000000	49.651015
1187.000000	49.428737
1186.000000	49.263312
1185.000000	49.201226
1184.000000	49.238683
1183.000000	49.378863
1182.000000	49.621460
1181.000000	49.937123
1180.000000	50.320515
1179.000000	50.716941
1178.000000	51.111622
1177.000000	51.486806
1176.000000	51.805239
1175.000000	52.087961
1174.000000	52.356623
1173.000000	52.603016
1172.000000	52.853002
1171.000000	53.124435
1170.000000	53.394329
1169.000000	53.654781
1168.000000	53.931243
1167.000000	54.205139
1166.000000	54.491862
1165.000000	54.779099
1164.000000	55.058947
1163.000000	55.359012
1162.000000	55.666260
1161.000000	55.987669
1160.000000	56.276240
1159.000000	56.574355
1158.000000	56.875753
1157.000000	57.153138
1156.000000	57.423545
1155.000000	57.673428
1154.000000	57.867792
1153.000000	58.038657
1152.000000	58.167652
1151.000000	58.267502
1150.000000	58.345802
1149.000000	58.410761
1148.000000	58.473873
1147.000000	58.539756
1146.000000	58.638170
1145.000000	58.754747
1144.000000	58.940902
1143.000000	59.158870
1142.000000	59.426814
1141.000000	59.709022
1140.000000	60.021298
1139.000000	60.341579
1138.000000	60.655498
1137.000000	61.001947
1136.000000	61.368920
1135.000000	61.757649
1134.000000	62.145660
1133.000000	62.510068
1132.000000	62.828809
1131.000000	63.154427
1130.000000	63.432941
1129.000000	63.712994
1128.000000	63.943173
1127.000000	64.139898
1126.000000	64.280489
1125.000000	64.425801
1124.000000	64.548433
1123.000000	64.645205
1122.000000	64.727507
1121.000000	64.788259
1120.000000	64.828281
1119.000000	64.873434
1118.000000	64.930902
1117.000000	64.958610
1116.000000	64.959636
1115.000000	64.983239
1114.000000	64.980571
1113.000000	64.984060
1112.000000	65.002121
1111.000000	64.986728
1110.000000	64.978005
1109.000000	64.982008
1108.000000	64.973798
1107.000000	64.979647
1106.000000	64.952555
1105.000000	64.949682
1104.000000	64.939112
1103.000000	64.943730
1102.000000	64.920127
1101.000000	64.909147
1100.000000	64.895601
1099.000000	64.890572
1098.000000	64.850242
1097.000000	64.826639
1096.000000	64.796674
1095.000000	64.781896
1094.000000	64.768863
1093.000000	64.717450
1092.000000	64.698773
1091.000000	64.657519
1090.000000	64.646334
1089.000000	64.591944
1088.000000	64.558900
1087.000000	64.526370
1086.000000	64.487989
1085.000000	64.465207
1084.000000	64.427340
1083.000000	64.379519
1082.000000	64.343088
1081.000000	64.310968
1080.000000	64.287159
1079.000000	64.258323
1078.000000	64.202087
1077.000000	64.170171
1076.000000	64.143900
1075.000000	64.113524
1074.000000	64.083662
1073.000000	64.036045
1072.000000	64.023423
1071.000000	64.005156
1070.000000	63.944918
1069.000000	63.924701
1068.000000	63.892581
1067.000000	63.865592
1066.000000	63.842604
1065.000000	63.817154
1064.000000	63.791499
1063.000000	63.757942
1062.000000	63.725821
1061.000000	63.707144
1060.000000	63.666814
1059.000000	63.659323
1058.000000	63.619198
1057.000000	63.585128
1056.000000	63.544387
1055.000000	63.502005
1054.000000	63.480967
1053.000000	63.449565
1052.000000	63.404001
1051.000000	63.383888
1050.000000	63.366442
1049.000000	63.340274
1048.000000	63.297275
1047.000000	63.291221
1046.000000	63.283421
1045.000000	63.262589
1044.000000	63.231187
1043.000000	63.230161
1042.000000	63.214768
1041.000000	63.197630
1040.000000	63.170641
1039.000000	63.169922
1038.000000	63.126616
1037.000000	63.127129
1036.000000	63.107426
1035.000000	63.089775
1034.000000	63.077974
1033.000000	63.068738
1032.000000	63.037644
1031.000000	63.028408
1030.000000	63.033949
1029.000000	63.008294
1028.000000	63.006549
1027.000000	63.015991
1026.000000	62.991464
1025.000000	62.971556
1024.000000	62.965706
1023.000000	62.965706
1022.000000	62.958523
1021.000000	62.955034
1020.000000	62.954213
1019.000000	62.950929
1018.000000	62.963756
1017.000000	62.975045
1016.000000	62.992080
1015.000000	62.989720
1014.000000	63.013836
1013.000000	63.047701
1012.000000	63.073253
1011.000000	63.094188
1010.000000	63.114712
1009.000000	63.165920
1008.000000	63.205429
1007.000000	63.247401
1006.000000	63.313797
1005.000000	63.364697
1004.000000	63.425244
1003.000000	63.488253
1002.000000	63.555060
1001.000000	63.624740
1000.000000	63.699550
999.000000	63.776208
998.000000	63.825261
997.000000	63.900585
996.000000	63.975704
995.000000	64.037893
994.000000	64.102236
993.000000	64.173660
992.000000	64.245598
991.000000	64.340933
990.000000	64.405174
989.000000	64.478856
988.000000	64.580246
987.000000	64.687177
986.000000	64.789696
985.000000	64.909762
984.000000	65.026135
983.000000	65.156977
982.000000	65.300339
981.000000	65.424921
980.000000	65.565307
979.000000	65.706719
978.000000	65.845770
977.000000	65.979999
976.000000	66.101502
975.000000	66.218491
974.000000	66.354361
973.000000	66.498339
972.000000	66.618816
971.000000	66.719898
970.000000	66.824058
969.000000	66.933247
968.000000	67.042539
967.000000	67.152344
966.000000	67.253426
965.000000	67.363333
964.000000	67.469956
963.000000	67.607674
962.000000	67.732154
961.000000	67.861661
960.000000	67.998250
959.000000	68.120164
958.000000	68.242078
957.000000	68.371484
956.000000	68.501094
955.000000	68.604639
954.000000	68.694638
953.000000	68.793052
952.000000	68.891671
951.000000	68.979001
950.000000	69.068384
949.000000	69.153252
948.000000	69.211746
947.000000	69.296819
946.000000	69.417707
945.000000	69.511400
944.000000	69.579746
943.000000	69.684625
942.000000	69.788067
941.000000	69.885660
940.000000	69.967243
939.000000	70.071609
938.000000	70.174744
937.000000	70.259098
936.000000	70.348379
935.000000	70.429449
934.000000	70.540383
933.000000	70.630690
932.000000	70.697701
931.000000	70.765534
930.000000	70.830596
929.000000	70.920081
928.000000	70.977960
927.000000	71.024447
926.000000	71.109828
925.000000	71.173351
924.000000	71.216246
923.000000	71.271764
922.000000	71.343086
921.000000	71.406711
920.000000	71.465718
919.000000	71.560848
918.000000	71.624371
917.000000	71.660801
916.000000	71.707289
915.000000	71.743103
914.000000	71.771016
913.000000	71.808576
912.000000	71.836694
911.000000	71.853421
910.000000	71.884208
909.000000	71.917867
908.000000	71.942497
907.000000	71.961584
906.000000	72.002119
905.000000	72.053943
904.000000	72.101457
903.000000	72.160259
902.000000	72.219574
901.000000	72.281865
900.000000	72.337896
899.000000	72.411373
898.000000	72.517791
897.000000	72.603685
896.000000	72.684653
895.000000	72.774960
894.000000	72.862393
893.000000	72.963988
892.000000	73.085902
891.000000	73.190063
890.000000	73.286013
889.000000	73.396536
888.000000	73.496900
887.000000	73.619635
886.000000	73.733852
885.000000	73.853201
884.000000	73.953256
883.000000	74.042845
882.000000	74.163527
881.000000	74.258760
880.000000	74.347630
879.000000	74.445838
878.000000	74.514800
877.000000	74.585711
876.000000	74.629530
875.000000	74.655391
874.000000	74.666679
873.000000	74.713372
872.000000	74.692437
871.000000	74.627888
870.000000	74.594331
869.000000	74.655699
868.000000	74.774329
867.000000	74.910712
866.000000	75.062181
865.000000	75.161006
864.000000	75.307549
863.000000	75.434183
862.000000	75.565641
861.000000	75.704590
860.000000	75.852570
859.000000	76.035030
858.000000	76.187833
857.000000	75.712300
856.000000	76.320800
855.000000	76.530400
854.000000	76.288200
853.000000	76.797200
852.000000	76.464600
851.000000	76.654200
850.000000	77.392300
849.000000	77.370000
848.000000	77.465200
847.000000	77.505100
846.000000	77.647100
845.000000	78.119100
844.000000	78.460800
843.000000	78.418700
842.000000	78.773100
841.000000	78.619900
840.000000	78.852900
839.000000	79.179000
838.000000	79.524100
837.000000	79.809500
836.000000	80.330800
835.000000	80.439100
834.000000	80.783300
833.000000	80.853300
832.000000	81.092200
831.000000	81.357400
830.000000	81.726500
829.000000	82.048400
828.000000	82.088800
827.000000	82.626400
826.000000	82.613600
825.000000	82.932600
824.000000	83.193500
823.000000	83.724400
822.000000	84.016300
821.000000	84.150000
820.000000	84.563400
819.000000	84.714200
818.000000	85.383800
817.000000	85.884300
816.000000	86.000500
815.000000	86.462700
814.000000	86.547600
813.000000	86.750500
812.000000	86.810200
811.000000	87.415400
810.000000	87.401300
809.000000	88.039600
808.000000	87.924400
807.000000	87.946900
806.000000	87.800600
805.000000	88.269800
804.000000	88.318200
803.000000	88.322400
802.000000	88.267100
801.000000	88.272900
800.000000	88.436600
799.000000	88.506400
798.000000	88.691500
797.000000	88.571500
796.000000	88.635800
795.000000	88.634900
794.000000	88.774300
793.000000	88.673500
792.000000	88.930700
791.000000	88.933500
790.000000	89.019400
789.000000	89.210100
788.000000	89.113600
787.000000	89.272500
786.000000	89.563900
785.000000	89.586800
784.000000	89.949900
783.000000	90.191800
782.000000	90.499600
781.000000	90.596800
780.000000	90.808100
779.000000	91.014400
778.000000	91.480000
777.000000	91.467400
776.000000	91.685700
775.000000	91.902200
774.000000	91.768200
773.000000	91.727800
772.000000	91.670500
771.000000	91.738200
770.000000	91.651300
769.000000	91.748000
768.000000	91.864700
767.000000	91.707600
766.000000	91.728600
765.000000	91.840100
764.000000	91.828000
763.000000	91.767400
762.000000	91.650400
761.000000	91.584900
760.000000	91.655900
759.000000	91.587400
758.000000	91.541300
757.000000	91.499000
756.000000	91.353600
755.000000	91.148400
754.000000	91.174200
753.000000	91.158400
752.000000	90.930500
751.000000	90.731200
750.000000	90.714900
749.000000	90.671600
748.000000	90.614600
747.000000	90.527000
746.000000	90.556200
745.000000	90.396700
744.000000	90.330400
743.000000	90.100000
742.000000	90.022500
741.000000	89.713000
740.000000	89.484500
739.000000	89.141800
738.000000	88.877600
737.000000	88.505100
736.000000	88.103600
735.000000	87.690100
734.000000	87.292100
733.000000	86.849500
732.000000	86.397300
731.000000	86.002100
730.000000	85.478500
729.000000	85.190000
728.000000	84.863800
727.000000	84.510800
726.000000	84.127300
725.000000	83.758300
724.000000	83.350900
723.000000	83.048900
722.000000	82.737800
721.000000	82.328700
720.000000	82.037900
719.000000	81.790400
718.000000	81.463400
717.000000	81.204100
716.000000	80.888300
715.000000	80.602300
714.000000	80.485900
713.000000	80.367600
712.000000	80.207600
711.000000	80.166000
710.000000	80.163900
709.000000	80.163400
708.000000	80.159500
707.000000	80.170400
706.000000	80.215300
705.000000	80.248600
704.000000	80.351500
703.000000	80.386700
702.000000	80.350700
701.000000	80.375800
700.000000	80.401500
699.000000	80.428100
698.000000	80.440600
697.000000	80.412200
696.000000	80.356400
695.000000	80.410100
694.000000	80.506600
693.000000	80.557300
692.000000	80.737500
691.000000	80.784800
690.000000	80.793000
689.000000	80.841300
688.000000	80.884000
687.000000	80.869600
686.000000	80.866400
685.000000	80.746600
684.000000	80.602700
683.000000	80.410700
682.000000	80.162100
681.000000	79.988200
680.000000	79.739500
679.000000	79.412400
678.000000	79.027700
677.000000	78.683900
676.000000	78.306300
675.000000	77.849500
674.000000	77.389800
673.000000	76.900700
672.000000	76.312900
671.000000	75.723300
670.000000	75.081700
669.000000	74.326200
668.000000	73.501900
667.000000	72.642500
666.000000	71.709600
665.000000	70.716600
664.000000	69.679700
663.000000	68.564900
662.000000	67.438600
661.000000	66.344700
660.000000	65.226100
659.000000	64.106000
658.000000	63.074300
657.000000	62.085200
656.000000	61.136300
655.000000	60.268800
654.000000	59.544500
653.000000	58.896500
652.000000	58.315700
651.000000	57.927600
650.000000	57.642400
649.000000	57.453600
648.000000	57.401700
647.000000	57.495200
646.000000	57.684800
645.000000	58.025400
644.000000	58.495600
643.000000	59.055800
642.000000	59.803200
641.000000	60.627500
640.000000	61.535200
639.000000	62.520000
638.000000	63.535500
637.000000	64.631200
636.000000	65.765700
635.000000	66.883500
634.000000	68.003100
633.000000	69.076000
632.000000	70.108800
631.000000	71.058600
630.000000	71.954700
629.000000	72.816400
628.000000	73.581700
627.000000	74.285700
626.000000	74.975000
625.000000	75.625500
624.000000	76.287000
623.000000	76.955200
622.000000	77.664800
621.000000	78.348600
620.000000	79.032800
619.000000	79.701500
618.000000	80.396700
617.000000	81.116800
616.000000	81.738400
615.000000	82.344500
614.000000	82.897800
613.000000	83.381700
612.000000	83.818600
611.000000	84.241500
610.000000	84.630900
609.000000	84.962800
608.000000	85.241800
607.000000	85.562100
606.000000	85.818000
605.000000	86.074800
604.000000	86.368400
603.000000	86.648500
602.000000	86.864000
601.000000	87.084500
600.000000	87.282300
599.000000	87.470300
598.000000	87.648300
597.000000	87.792100
596.000000	87.892100
595.000000	87.905000
594.000000	87.928100
593.000000	87.946400
592.000000	87.945500
591.000000	87.940900
590.000000	87.886700
589.000000	87.855400
588.000000	87.841800
587.000000	87.753200
586.000000	87.685000
585.000000	87.670200
584.000000	87.562400
583.000000	87.471700
582.000000	87.470000
581.000000	87.419200
580.000000	87.307900
579.000000	87.139100
578.000000	86.993900
577.000000	86.794600
576.000000	86.594800
575.000000	86.381500
574.000000	86.143400
573.000000	85.901300
572.000000	85.625100
571.000000	85.334800
570.000000	85.048500
569.000000	84.764500
568.000000	84.450800
567.000000	84.148900
566.000000	83.878400
565.000000	83.599100
564.000000	83.333400
563.000000	83.016100
562.000000	82.661400
561.000000	82.299300
560.000000	81.975800
559.000000	81.479200
558.000000	81.059200
557.000000	80.568400
556.000000	80.070800
555.000000	79.536400
554.000000	78.992200
553.000000	78.410300
552.000000	77.803200
551.000000	77.209700
550.000000	76.611200
549.000000	76.003600
548.000000	75.386500
547.000000	74.765200
546.000000	74.082600
545.000000	73.397700
544.000000	72.653500
543.000000	71.894600
542.000000	71.069700
541.000000	70.083700
540.000000	69.094500
539.000000	68.111200
538.000000	67.029500
537.000000	65.910100
536.000000	64.738000
535.000000	63.505900
534.000000	62.190100
533.000000	60.845500
532.000000	59.425600
531.000000	57.996800
530.000000	56.495300
529.000000	55.009700
528.000000	53.528600
527.000000	52.064800
526.000000	50.597800
525.000000	49.211400
524.000000	47.858300
523.000000	46.582000
522.000000	45.418800
521.000000	44.329500
520.000000	43.351200
519.000000	42.514100
518.000000	41.770300
517.000000	41.156800
516.000000	40.633200
515.000000	40.185100
514.000000	39.833700
513.000000	39.495200
512.000000	39.298600
511.000000	39.137800
510.000000	38.900500
509.000000	38.757400
508.000000	38.625300
507.000000	38.436300
506.000000	38.274500
505.000000	38.057700
504.000000	37.788800
503.000000	37.552500
502.000000	37.256200
501.000000	36.896900
500.000000	36.549900
499.000000	36.129600
498.000000	35.703300
497.000000	35.264900
496.000000	34.740600
495.000000	34.274800
494.000000	33.757700
493.000000	33.288100
492.000000	32.830400
491.000000	32.382400
490.000000	31.940900
489.000000	31.522300
488.000000	31.185700
487.000000	30.858800
486.000000	30.615000
485.000000	30.384700
484.000000	30.203100
483.000000	30.059100
482.000000	29.955700
481.000000	29.875400
480.000000	29.809000
479.000000	29.785000
478.000000	29.777200
477.000000	29.811200
476.000000	29.832500
475.000000	29.868500
474.000000	29.938800
473.000000	29.979100
472.000000	30.015400
471.000000	30.092400
470.000000	30.117900
469.000000	30.158900
468.000000	30.168400
467.000000	30.193100
466.000000	30.184200
465.000000	30.205200
464.000000	30.152400
463.000000	30.125500
462.000000	30.067100
461.000000	30.052300
460.000000	29.977600
459.000000	29.872600
458.000000	29.771400
457.000000	29.647700
456.000000	29.534400
455.000000	29.436500
454.000000	29.280400
453.000000	29.113800
452.000000	28.942400
451.000000	28.776800
450.000000	28.555600
449.000000	28.363800
448.000000	28.152600
447.000000	27.920400
446.000000	27.665400
445.000000	27.448700
444.000000	27.158800
443.000000	26.863000
442.000000	26.601900
441.000000	26.262400
440.000000	25.936300
439.000000	25.586200
438.000000	25.251500
437.000000	24.861900
436.000000	24.477800
435.000000	24.069600
434.000000	23.656800
433.000000	23.207100
432.000000	22.784100
431.000000	22.308300
430.000000	21.846900
429.000000	21.324000
428.000000	20.788400
427.000000	20.280900
426.000000	19.755000
425.000000	19.190800
424.000000	18.640900
423.000000	18.109600
422.000000	17.518400
421.000000	16.967500
420.000000	16.398500
419.000000	15.850300
418.000000	15.309900
417.000000	14.797000
416.000000	14.340100
415.000000	13.836300
414.000000	13.338700
413.000000	12.905300
412.000000	12.471800
411.000000	12.055400
410.000000	11.653600
409.000000	11.309300
408.000000	10.948200
407.000000	10.663200
406.000000	10.350000
405.000000	10.043800
404.000000	9.813000
403.000000	9.536900
402.000000	9.309600
401.000000	9.118700
400.000000	8.927700
399.000000	8.753200
398.000000	8.585200
397.000000	8.434300
396.000000	8.259800
395.000000	8.137100
394.000000	8.012100
393.000000	7.888800
392.000000	7.800300
391.000000	7.697300
390.000000	7.580700
389.000000	7.505600
388.000000	7.414200
387.000000	7.346100
386.000000	7.260200
385.000000	7.194300
384.000000	7.120600
383.000000	7.042300
382.000000	6.981100
381.000000	6.898200
380.000000	6.845100
379.000000	6.808200
378.000000	6.752000
377.000000	6.692300
376.000000	6.512700
375.000000	6.254300
374.000000	6.252600
373.000000	6.226900
372.000000	6.225100
371.000000	6.354300
370.000000	6.439400
369.000000	6.398300
368.000000	6.221700
367.000000	6.293900
366.000000	6.303100
365.000000	6.273300
364.000000	6.329200
363.000000	6.284800
362.000000	6.310200
361.000000	6.134100
360.000000	6.124800
359.000000	6.083200
358.000000	6.152300
357.000000	6.154400
356.000000	6.032500
355.000000	6.004500
354.000000	5.971100
353.000000	6.027200
352.000000	5.876000
351.000000	5.849400
350.000000	6.119300
349.000000	6.059100
348.000000	5.854200
347.000000	5.941200
346.000000	5.941200
345.000000	6.071000
344.000000	6.039300
343.000000	6.009000
342.000000	6.049300
341.000000	5.999200
340.000000	6.143600
339.000000	6.059100
338.000000	5.920900
337.000000	6.037100
336.000000	6.043300
335.000000	6.024100
334.000000	6.356900
333.000000	6.321700
332.000000	6.357200
331.000000	6.291200
330.000000	6.085400
329.000000	6.006700
328.000000	5.945900
327.000000	6.241000
326.000000	6.352100
325.000000	6.470900
324.000000	6.136100
323.000000	5.925600
322.000000	6.240700
321.000000	6.468600
320.000000	6.511800
319.000000	6.892300
318.000000	7.069500
317.000000	6.672000
316.000000	6.126000
315.000000	5.863600
314.000000	5.859000
313.000000	5.813800
312.000000	5.792300
311.000000	5.811000
310.000000	5.783500
309.000000	5.778000
308.000000	5.807300
307.000000	5.857800
306.000000	5.886900
305.000000	5.869900
304.000000	5.891500
303.000000	5.891000
302.000000	5.865600
301.000000	5.842300
300.000000	5.879000
299.000000	5.910400
298.000000	5.882900
297.000000	5.919000
296.000000	5.910500
295.000000	5.899700
294.000000	5.883400
293.000000	5.861000
292.000000	5.855700
291.000000	5.899100
290.000000	5.896000
289.000000	5.914300
288.000000	5.916300
287.000000	5.931300
286.000000	5.933500
285.000000	5.905800
284.000000	5.909200
283.000000	5.884000
282.000000	5.929800
281.000000	5.947000
280.000000	5.917300
279.000000	5.899600
278.000000	5.866500
277.000000	5.931200
276.000000	5.925100
275.000000	5.962700
274.000000	5.980000
273.000000	5.972100
272.000000	5.989500
271.000000	5.983900
270.000000	6.027300
269.000000	6.003200
268.000000	6.029800
267.000000	6.031600
266.000000	6.057400
265.000000	6.091600
264.000000	6.136200
263.000000	6.142000
262.000000	6.157200
261.000000	6.152500
260.000000	6.196800
259.000000	6.179300
258.000000	6.234700
257.000000	6.230500
256.000000	6.274200
255.000000	6.262800
254.000000	6.263200
253.000000	6.273900
252.000000	6.333300
251.000000	6.341000
250.000000	6.331100
