PE UV       SUBTECH     SPECTRUM    ASCII       PEDS        4.00        
   -1
CICIMAUCR0257-2.Sample.ASC
24/06/26
13:49:23.00
24/06/26
13:49:23.00
Vinicio Soto Monge
C. resplendens. Sex F. Dorsal.
250,000000
1
Lambda 1050
1050L1511233
PerkinElmer UV WinLab 6.3.2.0749 / 2.02.05 Lambda 900 UV/VIS/NIR, Aug  7 2015 09:38:08

0
0
3350/servo 860,8/2
0
0
UV/VIS
1
1
1
DoubleDePol,CommonBeamDepol,RBeamAtt,SBeamAtt,60mm sphere, WB InGaAs Detector
0
0
0
0
Program
Program
3350/servo 860,8/2
3350/0,2 860,8/0,2
3350/0,2 860,8/0,2
0
15.00
 
 
 
0
 
860,8
319,2
860,8
Front
100
on
S:100 R:100
0
0
0
0
 
0
 
 
 
0
 
 
0
0
0
0
0
 
 
 
 
0
0


0
0
#HDR
-1
-1
#GR
nm
%R
1.0
0.0
2500,000000
-1,000000
2251
8
90,525700
5,794300
#DATA
2482.000000	8.726491
2481.000000	8.767843
2480.000000	8.689417
2479.000000	8.758677
2478.000000	8.718954
2477.000000	8.791371
2476.000000	8.780066
2475.000000	8.749815
2474.000000	8.771306
2473.000000	8.716408
2472.000000	8.705510
2471.000000	8.753482
2470.000000	8.772630
2469.000000	8.758575
2468.000000	8.746658
2467.000000	8.753177
2466.000000	8.751751
2465.000000	8.768149
2464.000000	8.764075
2463.000000	8.854723
2462.000000	8.861038
2461.000000	8.889964
2460.000000	8.921640
2459.000000	8.961362
2458.000000	8.991511
2457.000000	9.028992
2456.000000	9.091122
2455.000000	9.138585
2454.000000	9.216910
2453.000000	9.265595
2452.000000	9.299817
2451.000000	9.360521
2450.000000	9.459827
2449.000000	9.523383
2448.000000	9.586633
2447.000000	9.650902
2446.000000	9.716291
2445.000000	9.773328
2444.000000	9.834847
2443.000000	9.927125
2442.000000	9.990171
2441.000000	10.051690
2440.000000	10.137450
2439.000000	10.218015
2438.000000	10.265070
2437.000000	10.325367
2436.000000	10.373441
2435.000000	10.447488
2434.000000	10.499330
2433.000000	10.552294
2432.000000	10.613201
2431.000000	10.650072
2430.000000	10.696109
2429.000000	10.743776
2428.000000	10.763128
2427.000000	10.834730
2426.000000	10.877508
2425.000000	10.906739
2424.000000	10.933832
2423.000000	10.970499
2422.000000	11.002582
2421.000000	11.038943
2420.000000	11.075712
2419.000000	11.119508
2418.000000	11.140490
2417.000000	11.149657
2416.000000	11.180212
2415.000000	11.208833
2414.000000	11.224518
2413.000000	11.238879
2412.000000	11.254564
2411.000000	11.298157
2410.000000	11.307120
2409.000000	11.322703
2408.000000	11.361305
2407.000000	11.366805
2406.000000	11.385241
2405.000000	11.406120
2404.000000	11.433111
2403.000000	11.460204
2402.000000	11.480982
2401.000000	11.493102
2400.000000	11.512760
2399.000000	11.539139
2398.000000	11.564501
2397.000000	11.600149
2396.000000	11.611251
2395.000000	11.630603
2394.000000	11.636510
2393.000000	11.649343
2392.000000	11.656168
2391.000000	11.660343
2390.000000	11.684992
2389.000000	11.700982
2388.000000	11.710149
2387.000000	11.725834
2386.000000	11.724816
2385.000000	11.720131
2384.000000	11.729196
2383.000000	11.731946
2382.000000	11.731334
2381.000000	11.708010
2380.000000	11.682344
2379.000000	11.691103
2378.000000	11.674501
2377.000000	11.648223
2376.000000	11.635186
2375.000000	11.611047
2374.000000	11.583751
2373.000000	11.562565
2372.000000	11.537713
2371.000000	11.501861
2370.000000	11.457759
2369.000000	11.433824
2368.000000	11.397667
2367.000000	11.343787
2366.000000	11.301009
2365.000000	11.254564
2364.000000	11.210361
2363.000000	11.164934
2362.000000	11.099545
2361.000000	11.036804
2360.000000	10.988628
2359.000000	10.938415
2358.000000	10.891563
2357.000000	10.843998
2356.000000	10.799285
2355.000000	10.775350
2354.000000	10.744896
2353.000000	10.714340
2352.000000	10.710266
2351.000000	10.711285
2350.000000	10.722183
2349.000000	10.731044
2348.000000	10.744489
2347.000000	10.776368
2346.000000	10.810998
2345.000000	10.834933
2344.000000	10.859276
2343.000000	10.910610
2342.000000	10.937499
2341.000000	10.960823
2340.000000	10.981397
2339.000000	10.998304
2338.000000	11.018369
2337.000000	11.035786
2336.000000	11.029980
2335.000000	11.014804
2334.000000	11.002073
2333.000000	10.976712
2332.000000	10.964082
2331.000000	10.930878
2330.000000	10.891563
2329.000000	10.832794
2328.000000	10.795313
2327.000000	10.734609
2326.000000	10.666062
2325.000000	10.612183
2324.000000	10.541599
2323.000000	10.467043
2322.000000	10.396969
2321.000000	10.305608
2320.000000	10.224126
2319.000000	10.135005
2318.000000	10.041505
2317.000000	9.946069
2316.000000	9.850023
2315.000000	9.768948
2314.000000	9.666180
2313.000000	9.566263
2312.000000	9.478059
2311.000000	9.411244
2310.000000	9.359197
2309.000000	9.309595
2308.000000	9.290752
2307.000000	9.240437
2306.000000	9.233410
2305.000000	9.231576
2304.000000	9.238808
2303.000000	9.281178
2302.000000	9.334141
2301.000000	9.378447
2300.000000	9.448318
2299.000000	9.513299
2298.000000	9.589281
2297.000000	9.657318
2296.000000	9.734522
2295.000000	9.802560
2294.000000	9.861736
2293.000000	9.923764
2292.000000	9.971838
2291.000000	10.011255
2290.000000	10.046190
2289.000000	10.077662
2288.000000	10.096607
2287.000000	10.088662
2286.000000	10.095588
2285.000000	10.071857
2284.000000	10.065848
2283.000000	10.046190
2282.000000	9.996282
2281.000000	9.965218
2280.000000	9.925393
2279.000000	9.891578
2278.000000	9.852162
2277.000000	9.807550
2276.000000	9.777708
2275.000000	9.775976
2274.000000	9.741652
2273.000000	9.730856
2272.000000	9.714967
2271.000000	9.741958
2270.000000	9.753467
2269.000000	9.771291
2268.000000	9.802865
2267.000000	9.874060
2266.000000	9.959718
2265.000000	10.055459
2264.000000	10.162505
2263.000000	10.301839
2262.000000	10.454210
2261.000000	10.625831
2260.000000	10.793378
2259.000000	10.972230
2258.000000	11.204657
2257.000000	11.407444
2256.000000	11.613491
2255.000000	11.820353
2254.000000	12.032206
2253.000000	12.265447
2252.000000	12.467522
2251.000000	12.665013
2250.000000	12.876866
2249.000000	13.063154
2248.000000	13.242923
2247.000000	13.408738
2246.000000	13.572414
2245.000000	13.711850
2244.000000	13.870027
2243.000000	13.981657
2242.000000	14.106120
2241.000000	14.220500
2240.000000	14.308500
2239.000000	14.420639
2238.000000	14.516482
2237.000000	14.591751
2236.000000	14.659788
2235.000000	14.754511
2234.000000	14.806863
2233.000000	14.867872
2232.000000	14.922974
2231.000000	14.950067
2230.000000	14.967789
2229.000000	15.022280
2228.000000	15.032567
2227.000000	15.078706
2226.000000	15.063530
2225.000000	15.063225
2224.000000	15.065160
2223.000000	15.048660
2222.000000	15.055993
2221.000000	15.054975
2220.000000	15.032364
2219.000000	14.995901
2218.000000	14.985104
2217.000000	14.963512
2216.000000	14.941104
2215.000000	14.900363
2214.000000	14.887021
2213.000000	14.848520
2212.000000	14.817048
2211.000000	14.801159
2210.000000	14.760113
2209.000000	14.741066
2208.000000	14.721103
2207.000000	14.711937
2206.000000	14.703687
2205.000000	14.675372
2204.000000	14.663353
2203.000000	14.635242
2202.000000	14.640946
2201.000000	14.624446
2200.000000	14.616909
2199.000000	14.578918
2198.000000	14.586862
2197.000000	14.568121
2196.000000	14.585233
2195.000000	14.558242
2194.000000	14.539297
2193.000000	14.555390
2192.000000	14.522186
2191.000000	14.519742
2190.000000	14.498251
2189.000000	14.498556
2188.000000	14.480529
2187.000000	14.466778
2186.000000	14.478797
2185.000000	14.459140
2184.000000	14.436834
2183.000000	14.417686
2182.000000	14.415547
2181.000000	14.402204
2180.000000	14.385500
2179.000000	14.383362
2178.000000	14.360445
2177.000000	14.363195
2176.000000	14.354537
2175.000000	14.360547
2174.000000	14.351787
2173.000000	14.336510
2172.000000	14.334676
2171.000000	14.321537
2170.000000	14.339463
2169.000000	14.367676
2168.000000	14.350565
2167.000000	14.355963
2166.000000	14.371241
2165.000000	14.382343
2164.000000	14.378676
2163.000000	14.417584
2162.000000	14.441723
2161.000000	14.453028
2160.000000	14.485723
2159.000000	14.508029
2158.000000	14.545510
2157.000000	14.574844
2156.000000	14.616399
2155.000000	14.656937
2154.000000	14.700427
2153.000000	14.746159
2152.000000	14.786289
2151.000000	14.818067
2150.000000	14.872863
2149.000000	14.913197
2148.000000	14.970743
2147.000000	15.024215
2146.000000	15.044891
2145.000000	15.069642
2144.000000	15.122910
2143.000000	15.161003
2142.000000	15.205818
2141.000000	15.257559
2140.000000	15.284550
2139.000000	15.319689
2138.000000	15.359004
2137.000000	15.395263
2136.000000	15.420115
2135.000000	15.442624
2134.000000	15.481634
2133.000000	15.522986
2132.000000	15.530013
2131.000000	15.558226
2130.000000	15.590819
2129.000000	15.606199
2128.000000	15.631458
2127.000000	15.639301
2126.000000	15.651421
2125.000000	15.659060
2124.000000	15.678208
2123.000000	15.668736
2122.000000	15.672301
2121.000000	15.672505
2120.000000	15.678921
2119.000000	15.668634
2118.000000	15.662829
2117.000000	15.655801
2116.000000	15.643884
2115.000000	15.640523
2114.000000	15.618319
2113.000000	15.614347
2112.000000	15.592449
2111.000000	15.566680
2110.000000	15.559347
2109.000000	15.550078
2108.000000	15.532763
2107.000000	15.501699
2106.000000	15.484995
2105.000000	15.462791
2104.000000	15.448124
2103.000000	15.440078
2102.000000	15.417467
2101.000000	15.399032
2100.000000	15.389559
2099.000000	15.361448
2098.000000	15.336494
2097.000000	15.331707
2096.000000	15.326818
2095.000000	15.307161
2094.000000	15.288929
2093.000000	15.278337
2092.000000	15.271513
2091.000000	15.268050
2090.000000	15.243300
2089.000000	15.233725
2088.000000	15.248290
2087.000000	15.241466
2086.000000	15.223438
2085.000000	15.208568
2084.000000	15.201438
2083.000000	15.193596
2082.000000	15.184123
2081.000000	15.175262
2080.000000	15.160494
2079.000000	15.135234
2078.000000	15.120568
2077.000000	15.100299
2076.000000	15.079114
2075.000000	15.067605
2074.000000	15.044993
2073.000000	15.007919
2072.000000	14.971660
2071.000000	14.957095
2070.000000	14.938558
2069.000000	14.908206
2068.000000	14.880095
2067.000000	14.845669
2066.000000	14.819187
2065.000000	14.793622
2064.000000	14.770604
2063.000000	14.728131
2062.000000	14.705418
2061.000000	14.707964
2060.000000	14.690344
2059.000000	14.672316
2058.000000	14.658872
2057.000000	14.669261
2056.000000	14.684844
2055.000000	14.705520
2054.000000	14.718863
2053.000000	14.749215
2052.000000	14.802789
2051.000000	14.861659
2050.000000	14.920224
2049.000000	14.979910
2048.000000	15.066382
2047.000000	15.162836
2046.000000	15.264587
2045.000000	15.375300
2044.000000	15.485097
2043.000000	15.594282
2042.000000	15.713958
2041.000000	15.820190
2040.000000	15.933450
2039.000000	16.036117
2038.000000	16.143673
2037.000000	16.259071
2036.000000	16.367849
2035.000000	16.474896
2034.000000	16.572776
2033.000000	16.655073
2032.000000	16.733906
2031.000000	16.822619
2030.000000	16.906749
2029.000000	16.968777
2028.000000	17.058000
2027.000000	17.142333
2026.000000	17.220963
2025.000000	17.260889
2024.000000	17.295315
2023.000000	17.365084
2022.000000	17.436177
2021.000000	17.473760
2020.000000	17.498103
2019.000000	17.544038
2018.000000	17.603826
2017.000000	17.649456
2016.000000	17.682557
2015.000000	17.708733
2014.000000	17.743567
2013.000000	17.766789
2012.000000	17.791641
2011.000000	17.803965
2010.000000	17.818123
2009.000000	17.811808
2008.000000	17.805493
2007.000000	17.818021
2006.000000	17.813743
2005.000000	17.794086
2004.000000	17.783799
2003.000000	17.765873
2002.000000	17.748965
2001.000000	17.731243
2000.000000	17.699261
1999.000000	17.667076
1998.000000	17.632650
1997.000000	17.590178
1996.000000	17.531409
1995.000000	17.491992
1994.000000	17.448909
1993.000000	17.410510
1992.000000	17.340538
1991.000000	17.285130
1990.000000	17.217806
1989.000000	17.171361
1988.000000	17.092833
1987.000000	17.040685
1986.000000	16.973463
1985.000000	16.896259
1984.000000	16.846351
1983.000000	16.753767
1982.000000	16.692351
1981.000000	16.622174
1980.000000	16.544970
1979.000000	16.464304
1978.000000	16.398303
1977.000000	16.333322
1976.000000	16.246238
1975.000000	16.192154
1974.000000	16.106599
1973.000000	16.029700
1972.000000	15.966043
1971.000000	15.885070
1970.000000	15.836385
1969.000000	15.746857
1968.000000	15.702042
1967.000000	15.639403
1966.000000	15.555069
1965.000000	15.510152
1964.000000	15.431013
1963.000000	15.378050
1962.000000	15.307568
1961.000000	15.229753
1960.000000	15.187485
1959.000000	15.115271
1958.000000	15.044993
1957.000000	15.008225
1956.000000	14.927761
1955.000000	14.875409
1954.000000	14.823974
1953.000000	14.767242
1952.000000	14.697881
1951.000000	14.646242
1950.000000	14.566797
1949.000000	14.534510
1948.000000	14.470853
1947.000000	14.410760
1946.000000	14.400167
1945.000000	14.369000
1944.000000	14.311352
1943.000000	14.286908
1942.000000	14.263991
1941.000000	14.232111
1940.000000	14.232926
1939.000000	14.216528
1938.000000	14.224880
1937.000000	14.211130
1936.000000	14.225491
1935.000000	14.243009
1934.000000	14.278658
1933.000000	14.280796
1932.000000	14.323880
1931.000000	14.358306
1930.000000	14.400880
1929.000000	14.482158
1928.000000	14.568733
1927.000000	14.648890
1926.000000	14.715807
1925.000000	14.841391
1924.000000	14.941104
1923.000000	15.027475
1922.000000	15.125558
1921.000000	15.264688
1920.000000	15.432133
1919.000000	15.627792
1918.000000	15.753172
1917.000000	15.899126
1916.000000	16.067080
1915.000000	16.181867
1914.000000	16.323951
1913.000000	16.532850
1912.000000	16.791147
1911.000000	17.027750
1910.000000	17.176861
1909.000000	17.377510
1908.000000	17.559214
1907.000000	17.741530
1906.000000	17.982308
1905.000000	18.227772
1904.000000	18.551662
1903.000000	18.803848
1902.000000	19.060516
1901.000000	19.324720
1900.000000	19.550221
1899.000000	19.857203
1898.000000	20.191482
1897.000000	20.431344
1896.000000	20.714188
1895.000000	20.970040
1894.000000	21.195032
1893.000000	21.447320
1892.000000	21.728330
1891.000000	22.061794
1890.000000	22.395462
1889.000000	22.688694
1888.000000	22.956260
1887.000000	23.279233
1886.000000	23.598641
1885.000000	23.954920
1884.000000	24.350514
1883.000000	24.771673
1882.000000	25.218295
1881.000000	25.633139
1880.000000	26.093816
1879.000000	26.503364
1878.000000	26.893763
1877.000000	27.308404
1876.000000	27.691164
1875.000000	28.041026
1874.000000	28.370314
1873.000000	28.720890
1872.000000	29.026650
1871.000000	29.308780
1870.000000	29.560253
1869.000000	29.765995
1868.000000	29.986912
1867.000000	30.128283
1866.000000	30.258756
1865.000000	30.325469
1864.000000	30.413775
1863.000000	30.483442
1862.000000	30.547099
1861.000000	30.622062
1860.000000	30.687655
1859.000000	30.739294
1858.000000	30.768831
1857.000000	30.787878
1856.000000	30.787674
1855.000000	30.774433
1854.000000	30.749989
1853.000000	30.744081
1852.000000	30.685822
1851.000000	30.640498
1850.000000	30.618396
1849.000000	30.586516
1848.000000	30.540581
1847.000000	30.494544
1846.000000	30.444942
1845.000000	30.359691
1844.000000	30.296747
1843.000000	30.247450
1842.000000	30.232274
1841.000000	30.212413
1840.000000	30.200191
1839.000000	30.164950
1838.000000	30.107913
1837.000000	30.067274
1836.000000	30.017570
1835.000000	29.956051
1834.000000	29.872227
1833.000000	29.803680
1832.000000	29.717819
1831.000000	29.636133
1830.000000	29.589689
1829.000000	29.529800
1828.000000	29.455346
1827.000000	29.376818
1826.000000	29.295030
1825.000000	29.225669
1824.000000	29.160280
1823.000000	29.111187
1822.000000	29.087863
1821.000000	29.079206
1820.000000	29.061381
1819.000000	29.045900
1818.000000	29.000270
1817.000000	28.967270
1816.000000	28.947307
1815.000000	28.937835
1814.000000	28.927446
1813.000000	28.905446
1812.000000	28.903511
1811.000000	28.887214
1810.000000	28.840260
1809.000000	28.794325
1808.000000	28.762853
1807.000000	28.725269
1806.000000	28.679538
1805.000000	28.633093
1804.000000	28.577889
1803.000000	28.539695
1802.000000	28.500991
1801.000000	28.447926
1800.000000	28.409731
1799.000000	28.359925
1798.000000	28.302379
1797.000000	28.253694
1796.000000	28.210203
1795.000000	28.168036
1794.000000	28.120878
1793.000000	28.071276
1792.000000	28.019332
1791.000000	27.974924
1790.000000	27.926748
1789.000000	27.859424
1788.000000	27.790674
1787.000000	27.738525
1786.000000	27.687192
1785.000000	27.626590
1784.000000	27.564562
1783.000000	27.496117
1782.000000	27.422580
1781.000000	27.350774
1780.000000	27.270413
1779.000000	27.186996
1778.000000	27.114477
1777.000000	27.036458
1776.000000	26.942143
1775.000000	26.846096
1774.000000	26.732124
1773.000000	26.616827
1772.000000	26.513040
1771.000000	26.387456
1770.000000	26.264419
1769.000000	26.148307
1768.000000	26.046964
1767.000000	25.942871
1766.000000	25.834297
1765.000000	25.746398
1764.000000	25.694963
1763.000000	25.672963
1762.000000	25.657991
1761.000000	25.654528
1760.000000	25.691602
1759.000000	25.758621
1758.000000	25.819426
1757.000000	25.879010
1756.000000	25.938084
1755.000000	25.975362
1754.000000	26.007140
1753.000000	26.034233
1752.000000	26.029038
1751.000000	26.027103
1750.000000	25.995631
1749.000000	25.958760
1748.000000	25.904371
1747.000000	25.829510
1746.000000	25.755158
1745.000000	25.653000
1744.000000	25.526805
1743.000000	25.373518
1742.000000	25.205971
1741.000000	25.003387
1740.000000	24.785118
1739.000000	24.583654
1738.000000	24.381070
1737.000000	24.178893
1736.000000	24.015522
1735.000000	23.888411
1734.000000	23.802550
1733.000000	23.736448
1732.000000	23.730846
1731.000000	23.771994
1730.000000	23.837077
1729.000000	23.897170
1728.000000	23.981809
1727.000000	24.090180
1726.000000	24.174412
1725.000000	24.245607
1724.000000	24.306310
1723.000000	24.358153
1722.000000	24.406533
1721.000000	24.428737
1720.000000	24.433116
1719.000000	24.461941
1718.000000	24.502478
1717.000000	24.542506
1716.000000	24.586302
1715.000000	24.644969
1714.000000	24.733377
1713.000000	24.817914
1712.000000	24.864562
1711.000000	24.918544
1710.000000	24.940137
1709.000000	24.959081
1708.000000	24.977924
1707.000000	24.956840
1706.000000	24.932498
1705.000000	24.904386
1704.000000	24.858349
1703.000000	24.791636
1702.000000	24.704654
1701.000000	24.611154
1700.000000	24.477626
1699.000000	24.356320
1698.000000	24.198653
1697.000000	24.058810
1696.000000	23.955022
1695.000000	23.899513
1694.000000	23.882707
1693.000000	23.935569
1692.000000	24.006865
1691.000000	24.125319
1690.000000	24.237051
1689.000000	24.378727
1688.000000	24.464385
1687.000000	24.508487
1686.000000	24.539348
1685.000000	24.537922
1684.000000	24.593126
1683.000000	24.685812
1682.000000	24.885544
1681.000000	25.166961
1680.000000	25.571416
1679.000000	26.045844
1678.000000	26.531679
1677.000000	27.022810
1676.000000	27.466274
1675.000000	27.873887
1674.000000	28.239638
1673.000000	28.562713
1672.000000	28.818158
1671.000000	29.030724
1670.000000	29.237484
1669.000000	29.431818
1668.000000	29.580726
1667.000000	29.694698
1666.000000	29.820791
1665.000000	29.919792
1664.000000	30.023273
1663.000000	30.121052
1662.000000	30.168515
1661.000000	30.262830
1660.000000	30.306423
1659.000000	30.356534
1658.000000	30.396765
1657.000000	30.436997
1656.000000	30.447080
1655.000000	30.475803
1654.000000	30.475090
1653.000000	30.475293
1652.000000	30.461238
1651.000000	30.454719
1650.000000	30.415404
1649.000000	30.409803
1648.000000	30.392182
1647.000000	30.351034
1646.000000	30.296543
1645.000000	30.272200
1644.000000	30.218219
1643.000000	30.186339
1642.000000	30.126042
1641.000000	30.105163
1640.000000	30.052811
1639.000000	29.998523
1638.000000	29.938634
1637.000000	29.877930
1636.000000	29.833319
1635.000000	29.772106
1634.000000	29.711606
1633.000000	29.642652
1632.000000	29.579300
1631.000000	29.513300
1630.000000	29.469198
1629.000000	29.398105
1628.000000	29.314382
1627.000000	29.244002
1626.000000	29.165576
1625.000000	29.107622
1624.000000	29.026141
1623.000000	28.957492
1622.000000	28.895974
1621.000000	28.829464
1620.000000	28.768251
1619.000000	28.698584
1618.000000	28.628713
1617.000000	28.566685
1616.000000	28.512093
1615.000000	28.437639
1614.000000	28.369500
1613.000000	28.312361
1612.000000	28.266527
1611.000000	28.213055
1610.000000	28.142675
1609.000000	28.101221
1608.000000	28.031961
1607.000000	27.962295
1606.000000	27.918498
1605.000000	27.836202
1604.000000	27.783340
1603.000000	27.722433
1602.000000	27.665803
1601.000000	27.610395
1600.000000	27.545617
1599.000000	27.497238
1598.000000	27.438367
1597.000000	27.376441
1596.000000	27.321644
1595.000000	27.261144
1594.000000	27.223051
1593.000000	27.165403
1592.000000	27.123236
1591.000000	27.071394
1590.000000	27.026680
1589.000000	27.003764
1588.000000	26.966282
1587.000000	26.911587
1586.000000	26.879198
1585.000000	26.832754
1584.000000	26.794865
1583.000000	26.777957
1582.000000	26.743124
1581.000000	26.724078
1580.000000	26.694744
1579.000000	26.670911
1578.000000	26.649216
1577.000000	26.624364
1576.000000	26.618559
1575.000000	26.624364
1574.000000	26.628846
1573.000000	26.619679
1572.000000	26.603790
1571.000000	26.618762
1570.000000	26.625281
1569.000000	26.638216
1568.000000	26.655429
1567.000000	26.659809
1566.000000	26.675290
1565.000000	26.679874
1564.000000	26.691281
1563.000000	26.713689
1562.000000	26.730800
1561.000000	26.736911
1560.000000	26.754633
1559.000000	26.757791
1558.000000	26.758096
1557.000000	26.759726
1556.000000	26.760337
1555.000000	26.746689
1554.000000	26.739967
1553.000000	26.731105
1552.000000	26.720716
1551.000000	26.711448
1550.000000	26.702383
1549.000000	26.689448
1548.000000	26.675494
1547.000000	26.649216
1546.000000	26.620596
1545.000000	26.608883
1544.000000	26.601651
1543.000000	26.590957
1542.000000	26.576494
1541.000000	26.564475
1540.000000	26.569568
1539.000000	26.567429
1538.000000	26.552253
1537.000000	26.550521
1536.000000	26.551744
1535.000000	26.539114
1534.000000	26.516605
1533.000000	26.512429
1532.000000	26.503568
1531.000000	26.486355
1530.000000	26.479225
1529.000000	26.471484
1528.000000	26.458956
1527.000000	26.422086
1526.000000	26.414753
1525.000000	26.401715
1524.000000	26.369530
1523.000000	26.353030
1522.000000	26.330928
1521.000000	26.309437
1520.000000	26.286317
1519.000000	26.258104
1518.000000	26.235187
1517.000000	26.223983
1516.000000	26.203511
1515.000000	26.179474
1514.000000	26.151872
1513.000000	26.113576
1512.000000	26.074464
1511.000000	26.053585
1510.000000	26.032094
1509.000000	26.000825
1508.000000	25.968945
1507.000000	25.942057
1506.000000	25.910177
1505.000000	25.882371
1504.000000	25.839899
1503.000000	25.807102
1502.000000	25.796917
1501.000000	25.773797
1500.000000	25.744973
1499.000000	25.724602
1498.000000	25.713195
1497.000000	25.693232
1496.000000	25.671945
1495.000000	25.658296
1494.000000	25.657685
1493.000000	25.662778
1492.000000	25.653917
1491.000000	25.650657
1490.000000	25.656565
1489.000000	25.655241
1488.000000	25.657889
1487.000000	25.659926
1486.000000	25.660843
1485.000000	25.669195
1484.000000	25.675815
1483.000000	25.686102
1482.000000	25.697408
1481.000000	25.703009
1480.000000	25.707389
1479.000000	25.730000
1478.000000	25.743241
1477.000000	25.760149
1476.000000	25.774713
1475.000000	25.796102
1474.000000	25.832871
1473.000000	25.865260
1472.000000	25.903760
1471.000000	25.933705
1470.000000	25.963751
1469.000000	25.986668
1468.000000	26.000723
1467.000000	26.028936
1466.000000	26.077113
1465.000000	26.116529
1464.000000	26.142094
1463.000000	26.167252
1462.000000	26.219706
1461.000000	26.272771
1460.000000	26.339789
1459.000000	26.399577
1458.000000	26.444595
1457.000000	26.515790
1456.000000	26.584947
1455.000000	26.673864
1454.000000	26.748624
1453.000000	26.831633
1452.000000	26.912810
1451.000000	27.009875
1450.000000	27.120690
1449.000000	27.216940
1448.000000	27.281413
1447.000000	27.382145
1446.000000	27.513941
1445.000000	27.615182
1444.000000	27.718766
1443.000000	27.812063
1442.000000	27.919924
1441.000000	28.033489
1440.000000	28.141962
1439.000000	28.261638
1438.000000	28.378666
1437.000000	28.527472
1436.000000	28.619139
1435.000000	28.731380
1434.000000	28.858288
1433.000000	28.980205
1432.000000	29.122900
1431.000000	29.258771
1430.000000	29.394744
1429.000000	29.518290
1428.000000	29.697347
1427.000000	29.872125
1426.000000	30.032542
1425.000000	30.236756
1424.000000	30.443923
1423.000000	30.659951
1422.000000	30.838397
1421.000000	31.061860
1420.000000	31.305796
1419.000000	31.540464
1418.000000	31.772890
1417.000000	31.996150
1416.000000	32.194864
1415.000000	32.429837
1414.000000	32.700866
1413.000000	32.930950
1412.000000	33.174274
1411.000000	33.360664
1410.000000	33.659193
1409.000000	33.982981
1408.000000	34.308399
1407.000000	34.670279
1406.000000	34.986429
1405.000000	35.384874
1404.000000	35.760709
1403.000000	36.107821
1402.000000	36.472146
1401.000000	36.846249
1400.000000	37.266593
1399.000000	37.611363
1398.000000	37.844299
1397.000000	38.060735
1396.000000	38.314347
1395.000000	38.604422
1394.000000	38.794885
1393.000000	38.939821
1392.000000	39.083840
1391.000000	39.299563
1390.000000	39.485851
1389.000000	39.663277
1388.000000	39.943167
1387.000000	40.240270
1386.000000	40.568030
1385.000000	40.902920
1384.000000	41.310227
1383.000000	41.740450
1382.000000	42.177804
1381.000000	42.537953
1380.000000	42.799000
1379.000000	42.930288
1378.000000	43.058418
1377.000000	43.145399
1376.000000	43.246131
1375.000000	43.402169
1374.000000	43.566762
1373.000000	43.826791
1372.000000	44.145486
1371.000000	44.501561
1370.000000	44.838896
1369.000000	45.154434
1368.000000	45.438296
1367.000000	45.720223
1366.000000	45.967723
1365.000000	46.177132
1364.000000	46.377577
1363.000000	46.560809
1362.000000	46.747809
1361.000000	46.879708
1360.000000	46.996125
1359.000000	46.972190
1358.000000	47.063958
1357.000000	47.150533
1356.000000	47.303006
1355.000000	47.590738
1354.000000	47.977063
1353.000000	48.424296
1352.000000	48.866844
1351.000000	49.444855
1350.000000	49.987625
1349.000000	50.522451
1348.000000	50.964795
1347.000000	51.375056
1346.000000	51.752418
1345.000000	52.099836
1344.000000	52.455606
1343.000000	52.809338
1342.000000	53.147691
1341.000000	53.444692
1340.000000	53.760638
1339.000000	54.051018
1338.000000	54.317056
1337.000000	54.593890
1336.000000	54.872456
1335.000000	55.109975
1334.000000	55.349022
1333.000000	55.583894
1332.000000	55.820292
1331.000000	56.031738
1330.000000	56.245424
1329.000000	56.430489
1328.000000	56.615452
1327.000000	56.792268
1326.000000	56.948407
1325.000000	57.114834
1324.000000	57.281566
1323.000000	57.436279
1322.000000	57.573169
1321.000000	57.704354
1320.000000	57.838392
1319.000000	57.955725
1318.000000	58.069902
1317.000000	58.191819
1316.000000	58.294078
1315.000000	58.379227
1314.000000	58.495135
1313.000000	58.575700
1312.000000	58.666450
1311.000000	58.760459
1310.000000	58.823608
1309.000000	58.886145
1308.000000	58.951127
1307.000000	59.007044
1306.000000	59.056849
1305.000000	59.099322
1304.000000	59.126414
1303.000000	59.134155
1302.000000	59.157072
1301.000000	59.174387
1300.000000	59.181415
1299.000000	59.176526
1298.000000	59.182739
1297.000000	59.182840
1296.000000	59.180498
1295.000000	59.172146
1294.000000	59.155951
1293.000000	59.148720
1292.000000	59.112868
1291.000000	59.081396
1290.000000	59.052775
1289.000000	59.004395
1288.000000	58.964979
1287.000000	58.898877
1286.000000	58.831349
1285.000000	58.763311
1284.000000	58.687941
1283.000000	58.615015
1282.000000	58.540153
1281.000000	58.453070
1280.000000	58.368329
1279.000000	58.280328
1278.000000	58.209439
1277.000000	58.135698
1276.000000	58.070411
1275.000000	57.997077
1274.000000	57.935966
1273.000000	57.875058
1272.000000	57.821688
1271.000000	57.767808
1270.000000	57.707410
1269.000000	57.654548
1268.000000	57.605456
1267.000000	57.549641
1266.000000	57.506557
1265.000000	57.459603
1264.000000	57.408066
1263.000000	57.357344
1262.000000	57.305094
1261.000000	57.259464
1260.000000	57.210575
1259.000000	57.164130
1258.000000	57.117074
1257.000000	57.061667
1256.000000	57.006157
1255.000000	56.947592
1254.000000	56.892083
1253.000000	56.844824
1252.000000	56.778620
1251.000000	56.692249
1250.000000	56.612601
1249.000000	56.542628
1248.000000	56.465424
1247.000000	56.374368
1246.000000	56.263553
1245.000000	56.147136
1244.000000	56.024608
1243.000000	55.915932
1242.000000	55.784950
1241.000000	55.637264
1240.000000	55.488051
1239.000000	55.334356
1238.000000	55.184735
1237.000000	55.027170
1236.000000	54.856771
1235.000000	54.686168
1234.000000	54.514751
1233.000000	54.336917
1232.000000	54.161528
1231.000000	53.978601
1230.000000	53.788341
1229.000000	53.595841
1228.000000	53.396109
1227.000000	53.209108
1226.000000	53.021293
1225.000000	52.834088
1224.000000	52.650041
1223.000000	52.447661
1222.000000	52.247114
1221.000000	52.058688
1220.000000	51.866900
1219.000000	51.687640
1218.000000	51.525899
1217.000000	51.367315
1216.000000	51.214435
1215.000000	51.060740
1214.000000	50.908980
1213.000000	50.769952
1212.000000	50.650683
1211.000000	50.526729
1210.000000	50.405016
1209.000000	50.276886
1208.000000	50.166885
1207.000000	50.074811
1206.000000	49.996283
1205.000000	49.936394
1204.000000	49.873755
1203.000000	49.830671
1202.000000	49.808162
1201.000000	49.773125
1200.000000	49.729023
1199.000000	49.673004
1198.000000	49.593356
1197.000000	49.483457
1196.000000	49.332003
1195.000000	49.132780
1194.000000	48.874788
1193.000000	48.556297
1192.000000	48.175166
1191.000000	47.741174
1190.000000	47.274894
1189.000000	46.839069
1188.000000	46.466086
1187.000000	46.196483
1186.000000	46.044113
1185.000000	45.995427
1184.000000	46.071205
1183.000000	46.293854
1182.000000	46.641374
1181.000000	47.075570
1180.000000	47.578821
1179.000000	48.124342
1178.000000	48.604167
1177.000000	49.049669
1176.000000	49.441596
1175.000000	49.791967
1174.000000	50.113718
1173.000000	50.428238
1172.000000	50.758341
1171.000000	51.096796
1170.000000	51.449713
1169.000000	51.808641
1168.000000	52.170216
1167.000000	52.529448
1166.000000	52.888783
1165.000000	53.265840
1164.000000	53.651045
1163.000000	54.046129
1162.000000	54.438158
1161.000000	54.812669
1160.000000	55.197466
1159.000000	55.569431
1158.000000	55.918274
1157.000000	56.257748
1156.000000	56.553323
1155.000000	56.809583
1154.000000	57.018889
1153.000000	57.172177
1152.000000	57.273723
1151.000000	57.315075
1150.000000	57.351335
1149.000000	57.349705
1148.000000	57.319149
1147.000000	57.336872
1146.000000	57.401853
1145.000000	57.520104
1144.000000	57.695900
1143.000000	57.916309
1142.000000	58.219930
1141.000000	58.560625
1140.000000	58.906414
1139.000000	59.251998
1138.000000	59.607055
1137.000000	59.994908
1136.000000	60.388261
1135.000000	60.798725
1134.000000	61.205217
1133.000000	61.581561
1132.000000	61.875201
1131.000000	62.204897
1130.000000	62.499861
1129.000000	62.755204
1128.000000	62.988445
1127.000000	63.188992
1126.000000	63.326289
1125.000000	63.462975
1124.000000	63.560345
1123.000000	63.663216
1122.000000	63.729013
1121.000000	63.792568
1120.000000	63.859893
1119.000000	63.905013
1118.000000	63.944226
1117.000000	63.990773
1116.000000	63.995560
1115.000000	63.986088
1114.000000	64.008902
1113.000000	64.006051
1112.000000	63.986291
1111.000000	64.014402
1110.000000	64.010328
1109.000000	64.003504
1108.000000	63.996680
1107.000000	63.992504
1106.000000	63.995967
1105.000000	63.995967
1104.000000	63.971421
1103.000000	63.989143
1102.000000	63.964393
1101.000000	63.946161
1100.000000	63.932615
1099.000000	63.904300
1098.000000	63.876087
1097.000000	63.857346
1096.000000	63.795930
1095.000000	63.776476
1094.000000	63.721272
1093.000000	63.691022
1092.000000	63.633475
1091.000000	63.581225
1090.000000	63.534679
1089.000000	63.469493
1088.000000	63.422132
1087.000000	63.364382
1086.000000	63.311724
1085.000000	63.236761
1084.000000	63.171474
1083.000000	63.070131
1082.000000	63.037029
1081.000000	62.969399
1080.000000	62.895658
1079.000000	62.827926
1078.000000	62.753778
1077.000000	62.691954
1076.000000	62.642454
1075.000000	62.547833
1074.000000	62.514425
1073.000000	62.415425
1072.000000	62.367045
1071.000000	62.308073
1070.000000	62.245841
1069.000000	62.175258
1068.000000	62.117711
1067.000000	62.066887
1066.000000	61.992637
1065.000000	61.937433
1064.000000	61.863794
1063.000000	61.813988
1062.000000	61.748599
1061.000000	61.693904
1060.000000	61.634524
1059.000000	61.560376
1058.000000	61.498348
1057.000000	61.441005
1056.000000	61.356773
1055.000000	61.317560
1054.000000	61.256755
1053.000000	61.200227
1052.000000	61.135652
1051.000000	61.084523
1050.000000	61.032476
1049.000000	60.973402
1048.000000	60.920642
1047.000000	60.892327
1046.000000	60.822049
1045.000000	60.774077
1044.000000	60.730688
1043.000000	60.696364
1042.000000	60.669780
1041.000000	60.614577
1040.000000	60.566808
1039.000000	60.534419
1038.000000	60.490113
1037.000000	60.446419
1036.000000	60.391520
1035.000000	60.341613
1034.000000	60.284168
1033.000000	60.231307
1032.000000	60.175186
1031.000000	60.107760
1030.000000	60.047260
1029.000000	59.975963
1028.000000	59.912102
1027.000000	59.846917
1026.000000	59.772666
1025.000000	59.697703
1024.000000	59.628240
1023.000000	59.544314
1022.000000	59.470369
1021.000000	59.382776
1020.000000	59.296813
1019.000000	59.229896
1018.000000	59.147090
1017.000000	59.094840
1016.000000	59.015395
1015.000000	58.946849
1014.000000	58.894293
1013.000000	58.842043
1012.000000	58.801913
1011.000000	58.782256
1010.000000	58.744061
1009.000000	58.696496
1008.000000	58.682339
1007.000000	58.672357
1006.000000	58.651172
1005.000000	58.636200
1004.000000	58.617765
1003.000000	58.609820
1002.000000	58.590977
1001.000000	58.579774
1000.000000	58.550950
999.000000	58.534959
998.000000	58.527218
997.000000	58.510209
996.000000	58.503690
995.000000	58.480264
994.000000	58.477820
993.000000	58.485866
992.000000	58.490449
991.000000	58.495236
990.000000	58.494014
989.000000	58.505727
988.000000	58.513773
987.000000	58.525690
986.000000	58.537505
985.000000	58.571320
984.000000	58.594237
983.000000	58.613181
982.000000	58.652802
981.000000	58.693848
980.000000	58.720533
979.000000	58.757200
978.000000	58.786534
977.000000	58.824932
976.000000	58.859765
975.000000	58.898469
974.000000	58.938090
973.000000	58.991969
972.000000	59.038109
971.000000	59.068257
970.000000	59.094738
969.000000	59.140368
968.000000	59.192618
967.000000	59.223276
966.000000	59.247720
965.000000	59.291720
964.000000	59.344174
963.000000	59.393573
962.000000	59.450610
961.000000	59.504490
960.000000	59.550119
959.000000	59.622842
958.000000	59.681611
957.000000	59.733861
956.000000	59.768898
955.000000	59.801185
954.000000	59.854250
953.000000	59.895704
952.000000	59.934713
951.000000	59.971278
950.000000	60.003158
949.000000	60.045325
948.000000	60.090038
947.000000	60.143816
946.000000	60.191788
945.000000	60.230390
944.000000	60.301279
943.000000	60.364631
942.000000	60.415965
941.000000	60.469539
940.000000	60.542465
939.000000	60.615290
938.000000	60.689744
937.000000	60.770410
936.000000	60.867985
935.000000	60.961689
934.000000	61.040421
933.000000	61.136773
932.000000	61.244532
931.000000	61.360542
930.000000	61.489691
929.000000	61.604376
928.000000	61.723034
927.000000	61.858905
926.000000	61.996609
925.000000	62.142359
924.000000	62.272934
923.000000	62.418582
922.000000	62.576861
921.000000	62.743898
920.000000	62.903093
919.000000	63.035297
918.000000	63.181557
917.000000	63.334743
916.000000	63.482632
915.000000	63.621762
914.000000	63.766189
913.000000	63.919476
912.000000	64.063495
911.000000	64.229616
910.000000	64.379237
909.000000	64.529469
908.000000	64.702312
907.000000	64.863952
906.000000	65.045147
905.000000	65.239481
904.000000	65.424037
903.000000	65.599324
902.000000	65.775529
901.000000	65.957742
900.000000	66.160530
899.000000	66.346817
898.000000	66.531781
897.000000	66.723671
896.000000	66.904764
895.000000	67.083311
894.000000	67.281820
893.000000	67.476154
892.000000	67.665090
891.000000	67.840683
890.000000	68.017703
889.000000	68.194110
888.000000	68.398324
887.000000	68.598464
886.000000	68.789538
885.000000	68.997622
884.000000	69.189512
883.000000	69.407883
882.000000	69.617291
881.000000	69.818958
880.000000	70.044154
879.000000	70.263543
878.000000	70.472951
877.000000	70.681035
876.000000	70.872212
875.000000	71.043833
874.000000	71.193759
873.000000	71.292454
872.000000	71.431890
871.000000	71.630807
870.000000	71.898882
869.000000	72.156364
868.000000	72.469661
867.000000	72.713292
866.000000	73.006015
865.000000	73.277044
864.000000	73.541961
863.000000	73.819305
862.000000	74.123537
861.000000	74.379288
860.000000	74.674456
859.000000	74.934790
858.000000	75.224967
857.000000	74.625300
856.000000	75.137300
855.000000	75.912300
854.000000	75.578000
853.000000	76.035400
852.000000	76.052600
851.000000	76.074400
850.000000	77.001900
849.000000	77.307300
848.000000	77.678800
847.000000	77.830200
846.000000	78.697200
845.000000	78.945400
844.000000	79.011200
843.000000	79.338200
842.000000	79.320500
841.000000	79.742800
840.000000	80.029100
839.000000	80.396500
838.000000	80.709000
837.000000	80.983600
836.000000	81.379100
835.000000	81.559700
834.000000	82.025300
833.000000	81.706700
832.000000	82.287400
831.000000	82.483200
830.000000	82.095800
829.000000	82.663500
828.000000	82.621700
827.000000	82.810100
826.000000	83.047400
825.000000	83.157800
824.000000	83.079700
823.000000	82.989800
822.000000	83.276100
821.000000	83.328600
820.000000	83.248100
819.000000	83.211200
818.000000	83.431700
817.000000	83.590100
816.000000	83.452300
815.000000	83.742800
814.000000	83.818700
813.000000	84.017100
812.000000	84.072500
811.000000	84.198100
810.000000	84.292400
809.000000	84.566800
808.000000	85.101000
807.000000	85.118700
806.000000	85.275600
805.000000	85.523200
804.000000	85.839100
803.000000	86.213400
802.000000	86.308700
801.000000	86.455500
800.000000	86.697600
799.000000	87.134900
798.000000	87.315900
797.000000	87.613100
796.000000	87.380800
795.000000	87.620400
794.000000	87.868500
793.000000	88.117900
792.000000	88.141900
791.000000	88.132900
790.000000	88.224700
789.000000	88.198700
788.000000	88.192500
787.000000	88.074900
786.000000	88.160000
785.000000	88.023600
784.000000	87.871300
783.000000	87.795300
782.000000	87.617300
781.000000	87.547700
780.000000	87.292800
779.000000	87.263400
778.000000	87.060500
777.000000	86.944000
776.000000	86.901000
775.000000	86.891300
774.000000	86.766400
773.000000	86.602500
772.000000	86.600300
771.000000	86.549100
770.000000	86.449900
769.000000	86.547200
768.000000	86.471100
767.000000	86.335300
766.000000	86.378600
765.000000	86.446100
764.000000	86.485400
763.000000	86.610500
762.000000	86.707400
761.000000	86.706800
760.000000	86.569800
759.000000	86.682100
758.000000	86.667200
757.000000	86.800400
756.000000	86.733800
755.000000	86.644600
754.000000	86.662700
753.000000	86.638800
752.000000	86.654800
751.000000	86.631100
750.000000	86.396500
749.000000	86.213800
748.000000	86.036600
747.000000	85.751200
746.000000	85.591700
745.000000	85.269700
744.000000	85.091300
743.000000	84.819200
742.000000	84.495900
741.000000	84.093500
740.000000	83.869200
739.000000	83.542800
738.000000	83.259700
737.000000	83.016700
736.000000	82.861400
735.000000	82.615200
734.000000	82.427500
733.000000	82.248900
732.000000	82.051400
731.000000	81.811900
730.000000	81.736800
729.000000	81.672200
728.000000	81.586600
727.000000	81.468300
726.000000	81.417200
725.000000	81.315700
724.000000	81.315000
723.000000	81.302400
722.000000	81.293400
721.000000	81.212600
720.000000	81.268400
719.000000	81.301900
718.000000	81.220800
717.000000	81.272500
716.000000	81.255600
715.000000	81.276400
714.000000	81.245400
713.000000	81.236900
712.000000	81.042900
711.000000	80.910900
710.000000	80.836400
709.000000	80.646500
708.000000	80.418700
707.000000	80.342900
706.000000	80.284400
705.000000	80.142600
704.000000	79.910900
703.000000	79.712900
702.000000	79.539400
701.000000	79.375600
700.000000	79.262900
699.000000	79.099200
698.000000	78.943000
697.000000	78.791600
696.000000	78.576100
695.000000	78.400900
694.000000	78.156600
693.000000	77.908600
692.000000	77.648900
691.000000	77.355400
690.000000	77.004500
689.000000	76.613100
688.000000	76.255100
687.000000	75.899500
686.000000	75.462200
685.000000	75.067900
684.000000	74.662300
683.000000	74.254800
682.000000	73.813500
681.000000	73.345900
680.000000	72.907400
679.000000	72.406000
678.000000	71.864000
677.000000	71.326200
676.000000	70.679200
675.000000	70.012900
674.000000	69.304400
673.000000	68.570900
672.000000	67.800400
671.000000	67.004400
670.000000	66.156200
669.000000	65.298100
668.000000	64.450700
667.000000	63.580200
666.000000	62.774300
665.000000	62.028100
664.000000	61.251600
663.000000	60.477800
662.000000	59.769100
661.000000	59.156600
660.000000	58.574400
659.000000	58.076600
658.000000	57.672400
657.000000	57.335500
656.000000	57.065100
655.000000	56.864800
654.000000	56.728400
653.000000	56.659200
652.000000	56.709700
651.000000	56.863100
650.000000	57.051000
649.000000	57.330600
648.000000	57.764600
647.000000	58.263900
646.000000	58.875900
645.000000	59.621800
644.000000	60.421400
643.000000	61.311100
642.000000	62.268900
641.000000	63.231500
640.000000	64.251100
639.000000	65.245500
638.000000	66.213900
637.000000	67.174700
636.000000	68.081700
635.000000	68.962300
634.000000	69.797200
633.000000	70.586500
632.000000	71.368600
631.000000	72.105700
630.000000	72.807900
629.000000	73.536000
628.000000	74.274100
627.000000	75.024300
626.000000	75.773100
625.000000	76.494100
624.000000	77.273800
623.000000	78.084800
622.000000	78.828400
621.000000	79.504900
620.000000	80.134400
619.000000	80.741800
618.000000	81.325100
617.000000	81.843900
616.000000	82.310500
615.000000	82.708700
614.000000	83.078100
613.000000	83.448100
612.000000	83.864900
611.000000	84.210700
610.000000	84.604200
609.000000	85.000700
608.000000	85.375600
607.000000	85.795500
606.000000	86.266400
605.000000	86.666000
604.000000	87.029200
603.000000	87.405200
602.000000	87.792700
601.000000	88.120000
600.000000	88.447300
599.000000	88.718100
598.000000	89.016700
597.000000	89.286200
596.000000	89.478100
595.000000	89.636100
594.000000	89.792800
593.000000	89.938300
592.000000	90.083900
591.000000	90.192100
590.000000	90.270900
589.000000	90.355400
588.000000	90.386800
587.000000	90.390900
586.000000	90.438800
585.000000	90.491400
584.000000	90.491100
583.000000	90.525700
582.000000	90.501700
581.000000	90.454700
580.000000	90.398800
579.000000	90.349900
578.000000	90.320800
577.000000	90.263600
576.000000	90.141300
575.000000	90.067900
574.000000	89.986800
573.000000	89.839200
572.000000	89.722300
571.000000	89.573700
570.000000	89.385200
569.000000	89.211500
568.000000	89.027000
567.000000	88.748200
566.000000	88.454700
565.000000	88.155000
564.000000	87.863900
563.000000	87.521900
562.000000	87.147600
561.000000	86.731700
560.000000	86.340400
559.000000	85.882900
558.000000	85.440000
557.000000	84.994800
556.000000	84.543300
555.000000	84.072200
554.000000	83.594800
553.000000	83.155000
552.000000	82.647200
551.000000	82.106100
550.000000	81.540600
549.000000	81.032100
548.000000	80.401100
547.000000	79.755800
546.000000	79.094700
545.000000	78.367000
544.000000	77.611300
543.000000	76.788800
542.000000	75.913800
541.000000	75.021600
540.000000	74.011500
539.000000	72.936300
538.000000	71.904200
537.000000	70.756600
536.000000	69.572900
535.000000	68.291000
534.000000	66.973200
533.000000	65.592800
532.000000	64.119100
531.000000	62.618300
530.000000	61.126200
529.000000	59.585500
528.000000	58.053500
527.000000	56.531100
526.000000	55.004300
525.000000	53.504400
524.000000	52.032400
523.000000	50.621400
522.000000	49.250600
521.000000	47.997300
520.000000	46.824900
519.000000	45.781300
518.000000	44.804300
517.000000	43.992200
516.000000	43.171500
515.000000	42.518600
514.000000	41.912800
513.000000	41.372800
512.000000	40.893400
511.000000	40.496800
510.000000	40.116900
509.000000	39.838600
508.000000	39.542300
507.000000	39.223400
506.000000	38.968600
505.000000	38.702800
504.000000	38.400900
503.000000	38.143500
502.000000	37.815300
501.000000	37.473500
500.000000	37.120100
499.000000	36.704500
498.000000	36.280100
497.000000	35.806000
496.000000	35.255800
495.000000	34.700700
494.000000	34.123300
493.000000	33.481700
492.000000	32.853100
491.000000	32.209700
490.000000	31.593400
489.000000	30.993700
488.000000	30.418400
487.000000	29.927500
486.000000	29.509200
485.000000	29.128600
484.000000	28.793300
483.000000	28.529800
482.000000	28.321800
481.000000	28.238000
480.000000	28.168800
479.000000	28.171200
478.000000	28.165900
477.000000	28.227200
476.000000	28.319700
475.000000	28.451100
474.000000	28.583700
473.000000	28.766100
472.000000	28.900000
471.000000	29.057700
470.000000	29.184400
469.000000	29.318800
468.000000	29.436800
467.000000	29.533900
466.000000	29.602500
465.000000	29.681500
464.000000	29.688300
463.000000	29.733300
462.000000	29.768100
461.000000	29.752800
460.000000	29.748800
459.000000	29.724700
458.000000	29.628300
457.000000	29.573700
456.000000	29.488100
455.000000	29.386300
454.000000	29.281700
453.000000	29.142400
452.000000	28.982000
451.000000	28.885300
450.000000	28.689000
449.000000	28.507100
448.000000	28.361300
447.000000	28.131700
446.000000	27.943400
445.000000	27.731500
444.000000	27.509700
443.000000	27.243500
442.000000	26.970900
441.000000	26.661400
440.000000	26.377300
439.000000	26.070500
438.000000	25.729800
437.000000	25.408800
436.000000	25.093400
435.000000	24.707400
434.000000	24.386400
433.000000	23.974100
432.000000	23.537500
431.000000	23.164600
430.000000	22.748900
429.000000	22.287100
428.000000	21.844000
427.000000	21.390500
426.000000	20.891200
425.000000	20.440700
424.000000	19.923400
423.000000	19.410200
422.000000	18.919600
421.000000	18.385300
420.000000	17.826600
419.000000	17.315100
418.000000	16.791300
417.000000	16.261300
416.000000	15.741400
415.000000	15.245600
414.000000	14.724300
413.000000	14.274700
412.000000	13.775500
411.000000	13.304500
410.000000	12.875700
409.000000	12.482600
408.000000	12.068500
407.000000	11.698100
406.000000	11.335100
405.000000	11.009300
404.000000	10.698700
403.000000	10.418100
402.000000	10.133100
401.000000	9.904300
400.000000	9.630500
399.000000	9.397700
398.000000	9.217000
397.000000	9.017200
396.000000	8.834700
395.000000	8.672400
394.000000	8.506800
393.000000	8.361500
392.000000	8.239700
391.000000	8.134800
390.000000	8.021400
389.000000	7.899900
388.000000	7.798300
387.000000	7.737400
386.000000	7.651600
385.000000	7.537400
384.000000	7.459400
383.000000	7.375300
382.000000	7.314000
381.000000	7.262800
380.000000	7.202400
379.000000	7.148200
378.000000	7.088700
377.000000	7.055500
376.000000	7.139500
375.000000	7.066800
374.000000	6.629700
373.000000	6.485700
372.000000	6.477500
371.000000	6.557100
370.000000	6.584000
369.000000	6.671900
368.000000	6.703600
367.000000	6.662300
366.000000	6.503000
365.000000	6.386400
364.000000	6.529100
363.000000	6.549000
362.000000	6.536800
361.000000	6.556200
360.000000	6.652500
359.000000	6.588800
358.000000	6.569300
357.000000	6.507300
356.000000	6.454900
355.000000	6.368200
354.000000	6.248800
353.000000	6.395300
352.000000	6.472400
351.000000	6.493500
350.000000	6.578900
349.000000	6.519300
348.000000	6.356600
347.000000	6.281600
346.000000	6.298100
345.000000	6.309800
344.000000	6.142900
343.000000	6.183000
342.000000	6.445200
341.000000	6.392600
340.000000	6.211200
339.000000	6.223600
338.000000	6.349200
337.000000	6.201400
336.000000	6.098000
335.000000	6.458800
334.000000	6.587800
333.000000	6.189300
332.000000	5.794300
331.000000	6.172500
330.000000	6.371600
329.000000	6.205300
328.000000	6.470400
327.000000	6.585700
326.000000	6.284000
325.000000	6.220100
324.000000	6.292000
323.000000	6.185700
322.000000	6.401800
321.000000	6.272100
320.000000	6.170200
319.000000	6.744100
318.000000	7.332300
317.000000	7.384900
316.000000	6.536400
315.000000	5.937400
314.000000	5.981400
313.000000	5.979800
312.000000	5.954600
311.000000	5.919000
310.000000	5.937700
309.000000	5.985500
308.000000	6.010300
307.000000	6.032100
306.000000	6.041000
305.000000	6.008700
304.000000	5.979000
303.000000	5.993400
302.000000	5.977200
301.000000	6.001400
300.000000	6.033200
299.000000	6.000500
298.000000	5.982700
297.000000	6.006500
296.000000	6.027000
295.000000	5.984500
294.000000	5.999200
293.000000	6.014700
292.000000	6.072300
291.000000	6.034400
290.000000	6.030600
289.000000	6.050700
288.000000	6.043700
287.000000	6.048100
286.000000	6.063100
285.000000	6.085600
284.000000	6.090100
283.000000	6.083500
282.000000	6.129700
281.000000	6.149400
280.000000	6.131400
279.000000	6.127400
278.000000	6.137700
277.000000	6.176800
276.000000	6.159600
275.000000	6.151100
274.000000	6.186000
273.000000	6.225800
272.000000	6.248100
271.000000	6.269300
270.000000	6.281500
269.000000	6.288800
268.000000	6.294900
267.000000	6.281500
266.000000	6.298500
265.000000	6.343200
264.000000	6.355400
263.000000	6.389100
262.000000	6.436200
261.000000	6.491800
260.000000	6.498800
259.000000	6.527300
258.000000	6.526200
257.000000	6.544100
256.000000	6.558400
255.000000	6.566700
254.000000	6.608800
253.000000	6.636900
252.000000	6.595300
251.000000	6.604800
250.000000	6.655000
