PE UV       SUBTECH     SPECTRUM    ASCII       PEDS        4.00        
   -1
CICIMAUCR0247-2.Sample.ASC
24/06/24
16:44:50.00
24/06/24
16:44:50.00
Vinicio Soto Monge
C. resplendens. Sex M.Dorsal. 
250,000000
1
Lambda 1050
1050L1511233
PerkinElmer UV WinLab 6.3.2.0749 / 2.02.05 Lambda 900 UV/VIS/NIR, Aug  7 2015 09:38:08

0
0
3350/servo 860,8/2
0
0
UV/VIS
1
1
1
DoubleDePol,CommonBeamDepol,RBeamAtt,SBeamAtt,60mm sphere, WB InGaAs Detector
0
0
0
0
Program
Program
3350/servo 860,8/2
3350/0,2 860,8/0,2
3350/0,2 860,8/0,2
0
15.00
 
 
 
0
 
860,8
319,2
860,8
Front
100
on
S:100 R:100
0
0
0
0
 
0
 
 
 
0
 
 
0
0
0
0
0
 
 
 
 
0
0


0
0
#HDR
-1
-1
#GR
nm
%R
1.0
0.0
2500,000000
-1,000000
2251
8
88,436700
5,788500
#DATA
2482.000000	11.359897
2481.000000	11.400479
2480.000000	11.372163
2479.000000	11.332194
2478.000000	11.354377
2477.000000	11.380648
2476.000000	11.368790
2475.000000	11.382897
2474.000000	11.408351
2473.000000	11.452818
2472.000000	11.472649
2471.000000	11.474080
2470.000000	11.502601
2469.000000	11.520285
2468.000000	11.562095
2467.000000	11.591228
2466.000000	11.620158
2465.000000	11.661865
2464.000000	11.684865
2463.000000	11.696723
2462.000000	11.748142
2461.000000	11.791280
2460.000000	11.813156
2459.000000	11.847707
2458.000000	11.905157
2457.000000	11.981007
2456.000000	12.079346
2455.000000	12.106742
2454.000000	12.155502
2453.000000	12.229614
2452.000000	12.324273
2451.000000	12.362812
2450.000000	12.436515
2449.000000	12.535161
2448.000000	12.589441
2447.000000	12.685838
2446.000000	12.786324
2445.000000	12.846942
2444.000000	12.918601
2443.000000	13.009580
2442.000000	13.071834
2441.000000	13.161791
2440.000000	13.251236
2439.000000	13.330971
2438.000000	13.421132
2437.000000	13.505569
2436.000000	13.575081
2435.000000	13.636721
2434.000000	13.717478
2433.000000	13.792817
2432.000000	13.848528
2431.000000	13.936645
2430.000000	14.001966
2429.000000	14.075362
2428.000000	14.140172
2427.000000	14.215715
2426.000000	14.285739
2425.000000	14.342473
2424.000000	14.395322
2423.000000	14.458087
2422.000000	14.518297
2421.000000	14.585867
2420.000000	14.634627
2419.000000	14.681650
2418.000000	14.757398
2417.000000	14.809736
2416.000000	14.839483
2415.000000	14.893253
2414.000000	14.949476
2413.000000	14.996499
2412.000000	15.041682
2411.000000	15.084411
2410.000000	15.132558
2409.000000	15.172119
2408.000000	15.211475
2407.000000	15.237542
2406.000000	15.282418
2405.000000	15.323512
2404.000000	15.356837
2403.000000	15.393228
2402.000000	15.427269
2401.000000	15.458754
2400.000000	15.492794
2399.000000	15.521519
2398.000000	15.554333
2397.000000	15.570791
2396.000000	15.570893
2395.000000	15.601049
2394.000000	15.628956
2393.000000	15.645720
2392.000000	15.682419
2391.000000	15.716459
2390.000000	15.732815
2389.000000	15.739868
2388.000000	15.750806
2387.000000	15.763891
2386.000000	15.777895
2385.000000	15.800282
2384.000000	15.824816
2383.000000	15.828496
2382.000000	15.826860
2381.000000	15.834016
2380.000000	15.823896
2379.000000	15.836878
2378.000000	15.836367
2377.000000	15.829212
2376.000000	15.832994
2375.000000	15.821647
2374.000000	15.810914
2373.000000	15.804167
2372.000000	15.789140
2371.000000	15.772886
2370.000000	15.763993
2369.000000	15.764709
2368.000000	15.764197
2367.000000	15.756633
2366.000000	15.738233
2365.000000	15.712779
2364.000000	15.694277
2363.000000	15.679454
2362.000000	15.670765
2361.000000	15.655227
2360.000000	15.626400
2359.000000	15.602684
2358.000000	15.576311
2357.000000	15.560568
2356.000000	15.553208
2355.000000	15.520190
2354.000000	15.486456
2353.000000	15.475007
2352.000000	15.469487
2351.000000	15.449145
2350.000000	15.444442
2349.000000	15.456300
2348.000000	15.453336
2347.000000	15.458140
2346.000000	15.478585
2345.000000	15.488092
2344.000000	15.511092
2343.000000	15.540123
2342.000000	15.551777
2341.000000	15.576311
2340.000000	15.598595
2339.000000	15.621596
2338.000000	15.633045
2337.000000	15.649196
2336.000000	15.660747
2335.000000	15.677205
2334.000000	15.683543
2333.000000	15.683645
2332.000000	15.697752
2331.000000	15.705930
2330.000000	15.697241
2329.000000	15.692028
2328.000000	15.683850
2327.000000	15.671174
2326.000000	15.647049
2325.000000	15.639076
2324.000000	15.606569
2323.000000	15.583160
2322.000000	15.544212
2321.000000	15.500256
2320.000000	15.446384
2319.000000	15.392410
2318.000000	15.346103
2317.000000	15.269436
2316.000000	15.188475
2315.000000	15.113034
2314.000000	15.036979
2313.000000	14.948556
2312.000000	14.874035
2311.000000	14.802785
2310.000000	14.723051
2309.000000	14.667339
2308.000000	14.604983
2307.000000	14.557040
2306.000000	14.522182
2305.000000	14.479861
2304.000000	14.479452
2303.000000	14.478328
2302.000000	14.477305
2301.000000	14.495501
2300.000000	14.525453
2299.000000	14.575440
2298.000000	14.623178
2297.000000	14.656503
2296.000000	14.720393
2295.000000	14.772118
2294.000000	14.828341
2293.000000	14.883951
2292.000000	14.949578
2291.000000	14.999565
2290.000000	15.046384
2289.000000	15.094838
2288.000000	15.127549
2287.000000	15.141247
2286.000000	15.182750
2285.000000	15.213622
2284.000000	15.224457
2283.000000	15.213110
2282.000000	15.207795
2281.000000	15.212497
2280.000000	15.194915
2279.000000	15.177639
2278.000000	15.165883
2277.000000	15.135523
2276.000000	15.115487
2275.000000	15.100971
2274.000000	15.078686
2273.000000	15.069180
2272.000000	15.070713
2271.000000	15.056606
2270.000000	15.077255
2269.000000	15.093611
2268.000000	15.102505
2267.000000	15.149323
2266.000000	15.211066
2265.000000	15.301738
2264.000000	15.381268
2263.000000	15.481345
2262.000000	15.617916
2261.000000	15.755100
2260.000000	15.898826
2259.000000	16.057681
2258.000000	16.238106
2257.000000	16.422926
2256.000000	16.627066
2255.000000	16.814033
2254.000000	17.001920
2253.000000	17.219554
2252.000000	17.390676
2251.000000	17.580812
2250.000000	17.779228
2249.000000	17.952292
2248.000000	18.117383
2247.000000	18.283599
2246.000000	18.428960
2245.000000	18.570949
2244.000000	18.698831
2243.000000	18.823646
2242.000000	18.923416
2241.000000	19.011839
2240.000000	19.112427
2239.000000	19.186437
2238.000000	19.274451
2237.000000	19.330163
2236.000000	19.392622
2235.000000	19.430342
2234.000000	19.486054
2233.000000	19.509974
2232.000000	19.526330
2231.000000	19.548921
2230.000000	19.569060
2229.000000	19.570797
2228.000000	19.566095
2227.000000	19.546264
2226.000000	19.529090
2225.000000	19.524388
2224.000000	19.465098
2223.000000	19.421551
2222.000000	19.396608
2221.000000	19.337114
2220.000000	19.300212
2219.000000	19.261776
2218.000000	19.200748
2217.000000	19.145343
2216.000000	19.090756
2215.000000	19.032795
2214.000000	19.015621
2213.000000	18.932820
2212.000000	18.896429
2211.000000	18.835708
2210.000000	18.775703
2209.000000	18.738596
2208.000000	18.689119
2207.000000	18.640972
2206.000000	18.612656
2205.000000	18.578207
2204.000000	18.564304
2203.000000	18.526584
2202.000000	18.495508
2201.000000	18.491010
2200.000000	18.464534
2199.000000	18.428245
2198.000000	18.390627
2197.000000	18.397271
2196.000000	18.364662
2195.000000	18.348306
2194.000000	18.331133
2193.000000	18.295150
2192.000000	18.271843
2191.000000	18.263972
2190.000000	18.252012
2189.000000	18.243527
2188.000000	18.223082
2187.000000	18.199571
2186.000000	18.178308
2185.000000	18.162975
2184.000000	18.143348
2183.000000	18.132103
2182.000000	18.112272
2181.000000	18.087227
2180.000000	18.067703
2179.000000	18.051142
2178.000000	18.022111
2177.000000	18.015671
2176.000000	18.003813
2175.000000	18.015262
2174.000000	17.999622
2173.000000	17.989195
2172.000000	17.998497
2171.000000	18.007800
2170.000000	18.010457
2169.000000	18.022111
2168.000000	18.023951
2167.000000	18.062591
2166.000000	18.074551
2165.000000	18.094587
2164.000000	18.126685
2163.000000	18.158784
2162.000000	18.182602
2161.000000	18.225945
2160.000000	18.270310
2159.000000	18.289732
2158.000000	18.333893
2157.000000	18.392978
2156.000000	18.427632
2155.000000	18.483855
2154.000000	18.547846
2153.000000	18.609385
2152.000000	18.657635
2151.000000	18.730827
2150.000000	18.771103
2149.000000	18.834583
2148.000000	18.913398
2147.000000	18.965941
2146.000000	19.019301
2145.000000	19.094436
2144.000000	19.156179
2143.000000	19.206984
2142.000000	19.259629
2141.000000	19.325768
2140.000000	19.366861
2139.000000	19.419711
2138.000000	19.471947
2137.000000	19.524899
2136.000000	19.564664
2135.000000	19.598807
2134.000000	19.640616
2133.000000	19.691114
2132.000000	19.716977
2131.000000	19.731288
2130.000000	19.759604
2129.000000	19.795485
2128.000000	19.805094
2127.000000	19.820427
2126.000000	19.840565
2125.000000	19.850685
2124.000000	19.850379
2123.000000	19.856410
2122.000000	19.857841
2121.000000	19.858659
2120.000000	19.856103
2119.000000	19.843427
2118.000000	19.839441
2117.000000	19.828298
2116.000000	19.833512
2115.000000	19.813476
2114.000000	19.769827
2113.000000	19.754902
2112.000000	19.750915
2111.000000	19.731697
2110.000000	19.698577
2109.000000	19.668830
2108.000000	19.646852
2107.000000	19.626100
2106.000000	19.591753
2105.000000	19.567628
2104.000000	19.554953
2103.000000	19.521219
2102.000000	19.485850
2101.000000	19.461009
2100.000000	19.444142
2099.000000	19.415724
2098.000000	19.379742
2097.000000	19.358683
2096.000000	19.345701
2095.000000	19.324439
2094.000000	19.307367
2093.000000	19.294896
2092.000000	19.266887
2091.000000	19.249713
2090.000000	19.238366
2089.000000	19.204939
2088.000000	19.182859
2087.000000	19.168957
2086.000000	19.150761
2085.000000	19.122547
2084.000000	19.084520
2083.000000	19.056817
2082.000000	19.032488
2081.000000	18.980252
2080.000000	18.931287
2079.000000	18.897042
2078.000000	18.842557
2077.000000	18.774680
2076.000000	18.719173
2075.000000	18.666017
2074.000000	18.594358
2073.000000	18.514726
2072.000000	18.440614
2071.000000	18.380507
2070.000000	18.299750
2069.000000	18.203455
2068.000000	18.112476
2067.000000	18.032435
2066.000000	17.959141
2065.000000	17.869798
2064.000000	17.784441
2063.000000	17.707978
2062.000000	17.611888
2061.000000	17.526736
2060.000000	17.467037
2059.000000	17.394254
2058.000000	17.333124
2057.000000	17.275470
2056.000000	17.226505
2055.000000	17.186638
2054.000000	17.169873
2053.000000	17.157709
2052.000000	17.142477
2051.000000	17.151882
2050.000000	17.165784
2049.000000	17.196145
2048.000000	17.256150
2047.000000	17.291928
2046.000000	17.345289
2045.000000	17.399876
2044.000000	17.473170
2043.000000	17.555358
2042.000000	17.622826
2041.000000	17.693360
2040.000000	17.775241
2039.000000	17.836780
2038.000000	17.897807
2037.000000	17.968239
2036.000000	18.038569
2035.000000	18.084058
2034.000000	18.136499
2033.000000	18.190575
2032.000000	18.222571
2031.000000	18.271945
2030.000000	18.301386
2029.000000	18.324897
2028.000000	18.346773
2027.000000	18.375089
2026.000000	18.386538
2025.000000	18.398805
2024.000000	18.386742
2023.000000	18.401565
2022.000000	18.433458
2021.000000	18.422112
2020.000000	18.413627
2019.000000	18.396249
2018.000000	18.389707
2017.000000	18.386231
2016.000000	18.377440
2015.000000	18.333586
2014.000000	18.318661
2013.000000	18.289323
2012.000000	18.261416
2011.000000	18.213371
2010.000000	18.187406
2009.000000	18.143655
2008.000000	18.112272
2007.000000	18.057787
2006.000000	18.006675
2005.000000	17.968750
2004.000000	17.922238
2003.000000	17.854362
2002.000000	17.788530
2001.000000	17.732307
2000.000000	17.660955
1999.000000	17.589910
1998.000000	17.542785
1997.000000	17.461619
1996.000000	17.375751
1995.000000	17.307466
1994.000000	17.215669
1993.000000	17.151269
1992.000000	17.069285
1991.000000	16.984542
1990.000000	16.885896
1989.000000	16.813113
1988.000000	16.724588
1987.000000	16.627475
1986.000000	16.537416
1985.000000	16.446233
1984.000000	16.354232
1983.000000	16.267648
1982.000000	16.177896
1981.000000	16.083646
1980.000000	15.987249
1979.000000	15.888603
1978.000000	15.793024
1977.000000	15.696832
1976.000000	15.593893
1975.000000	15.548812
1974.000000	15.447407
1973.000000	15.340685
1972.000000	15.228751
1971.000000	15.162816
1970.000000	15.063966
1969.000000	14.992205
1968.000000	14.915640
1967.000000	14.843572
1966.000000	14.758727
1965.000000	14.671735
1964.000000	14.592716
1963.000000	14.510630
1962.000000	14.437029
1961.000000	14.362100
1960.000000	14.278992
1959.000000	14.196804
1958.000000	14.114719
1957.000000	14.056451
1956.000000	13.987552
1955.000000	13.912316
1954.000000	13.830128
1953.000000	13.760923
1952.000000	13.697953
1951.000000	13.627215
1950.000000	13.576512
1949.000000	13.534702
1948.000000	13.473981
1947.000000	13.407434
1946.000000	13.378914
1945.000000	13.314002
1944.000000	13.303473
1943.000000	13.233961
1942.000000	13.220569
1941.000000	13.203702
1940.000000	13.189391
1939.000000	13.147684
1938.000000	13.145946
1937.000000	13.178964
1936.000000	13.152897
1935.000000	13.157600
1934.000000	13.168946
1933.000000	13.186427
1932.000000	13.200738
1931.000000	13.271783
1930.000000	13.330051
1929.000000	13.371145
1928.000000	13.437488
1927.000000	13.506080
1926.000000	13.585814
1925.000000	13.643877
1924.000000	13.754278
1923.000000	13.843008
1922.000000	13.961690
1921.000000	14.098056
1920.000000	14.230947
1919.000000	14.359646
1918.000000	14.494070
1917.000000	14.654152
1916.000000	14.810759
1915.000000	14.983414
1914.000000	15.151367
1913.000000	15.359699
1912.000000	15.576413
1911.000000	15.775033
1910.000000	15.980809
1909.000000	16.218172
1908.000000	16.460544
1907.000000	16.717636
1906.000000	17.013982
1905.000000	17.322391
1904.000000	17.663102
1903.000000	17.971204
1902.000000	18.293105
1901.000000	18.655488
1900.000000	19.007239
1899.000000	19.398960
1898.000000	19.818178
1897.000000	20.215828
1896.000000	20.635455
1895.000000	21.044452
1894.000000	21.467555
1893.000000	21.941054
1892.000000	22.408727
1891.000000	22.985268
1890.000000	23.521226
1889.000000	24.025188
1888.000000	24.572390
1887.000000	25.139424
1886.000000	25.671600
1885.000000	26.234545
1884.000000	26.815072
1883.000000	27.387217
1882.000000	27.936260
1881.000000	28.467618
1880.000000	29.003985
1879.000000	29.530640
1878.000000	30.016407
1877.000000	30.525071
1876.000000	31.016153
1875.000000	31.495070
1874.000000	31.947511
1873.000000	32.379099
1872.000000	32.813345
1871.000000	33.205474
1870.000000	33.560497
1869.000000	33.869416
1868.000000	34.198882
1867.000000	34.433690
1866.000000	34.667271
1865.000000	34.866913
1864.000000	35.060116
1863.000000	35.272945
1862.000000	35.486899
1861.000000	35.676932
1860.000000	35.884957
1859.000000	36.059555
1858.000000	36.198681
1857.000000	36.346803
1856.000000	36.465178
1855.000000	36.560859
1854.000000	36.655007
1853.000000	36.720328
1852.000000	36.771338
1851.000000	36.864770
1850.000000	36.938984
1849.000000	37.017390
1848.000000	37.074942
1847.000000	37.096511
1846.000000	37.055008
1845.000000	37.028328
1844.000000	37.059915
1843.000000	37.085471
1842.000000	37.138013
1841.000000	37.186774
1840.000000	37.161116
1839.000000	37.150894
1838.000000	37.132596
1837.000000	37.121249
1836.000000	37.094466
1835.000000	37.041310
1834.000000	36.978034
1833.000000	36.924162
1832.000000	36.914859
1831.000000	36.906682
1830.000000	36.879695
1829.000000	36.844427
1828.000000	36.804969
1827.000000	36.760502
1826.000000	36.694977
1825.000000	36.666354
1824.000000	36.626487
1823.000000	36.607576
1822.000000	36.642127
1821.000000	36.663798
1820.000000	36.613300
1819.000000	36.556873
1818.000000	36.526819
1817.000000	36.502490
1816.000000	36.481943
1815.000000	36.470800
1814.000000	36.446062
1813.000000	36.422960
1812.000000	36.403844
1811.000000	36.375324
1810.000000	36.336785
1809.000000	36.291398
1808.000000	36.261038
1807.000000	36.241104
1806.000000	36.218308
1805.000000	36.162188
1804.000000	36.102285
1803.000000	36.064053
1802.000000	36.032875
1801.000000	36.006501
1800.000000	35.965305
1799.000000	35.906527
1798.000000	35.856437
1797.000000	35.820148
1796.000000	35.778543
1795.000000	35.748285
1794.000000	35.715369
1793.000000	35.669061
1792.000000	35.631545
1791.000000	35.591678
1790.000000	35.554469
1789.000000	35.521553
1788.000000	35.495179
1787.000000	35.469112
1786.000000	35.438343
1785.000000	35.414116
1784.000000	35.384369
1783.000000	35.335915
1782.000000	35.307803
1781.000000	35.263949
1780.000000	35.204251
1779.000000	35.168984
1778.000000	35.125845
1777.000000	35.080560
1776.000000	35.034253
1775.000000	34.967297
1774.000000	34.921194
1773.000000	34.863131
1772.000000	34.795970
1771.000000	34.738112
1770.000000	34.679946
1769.000000	34.611252
1768.000000	34.529371
1767.000000	34.460779
1766.000000	34.403841
1765.000000	34.352013
1764.000000	34.301617
1763.000000	34.276981
1762.000000	34.272381
1761.000000	34.266043
1760.000000	34.295279
1759.000000	34.330444
1758.000000	34.352320
1757.000000	34.400058
1756.000000	34.444730
1755.000000	34.495944
1754.000000	34.541025
1753.000000	34.578438
1752.000000	34.606959
1751.000000	34.629652
1750.000000	34.646724
1749.000000	34.650710
1748.000000	34.642226
1747.000000	34.632821
1746.000000	34.598985
1745.000000	34.550634
1744.000000	34.485313
1743.000000	34.418765
1742.000000	34.343222
1741.000000	34.228527
1740.000000	34.134482
1739.000000	34.017947
1738.000000	33.890985
1737.000000	33.770259
1736.000000	33.656280
1735.000000	33.549559
1734.000000	33.456842
1733.000000	33.400619
1732.000000	33.333049
1731.000000	33.301053
1730.000000	33.295431
1729.000000	33.303915
1728.000000	33.331720
1727.000000	33.367192
1726.000000	33.390805
1725.000000	33.424744
1724.000000	33.475753
1723.000000	33.528194
1722.000000	33.591777
1721.000000	33.666707
1720.000000	33.770259
1719.000000	33.889963
1718.000000	34.001489
1717.000000	34.134891
1716.000000	34.280559
1715.000000	34.420708
1714.000000	34.571385
1713.000000	34.713885
1712.000000	34.840131
1711.000000	34.954212
1710.000000	35.052653
1709.000000	35.133717
1708.000000	35.198935
1707.000000	35.265687
1706.000000	35.295741
1705.000000	35.316697
1704.000000	35.318332
1703.000000	35.326101
1702.000000	35.281430
1701.000000	35.259452
1700.000000	35.210180
1699.000000	35.156921
1698.000000	35.081685
1697.000000	35.008186
1696.000000	34.962697
1695.000000	34.909234
1694.000000	34.874989
1693.000000	34.864051
1692.000000	34.876727
1691.000000	34.913527
1690.000000	34.969035
1689.000000	34.991728
1688.000000	35.077085
1687.000000	35.159784
1686.000000	35.237065
1685.000000	35.343479
1684.000000	35.444067
1683.000000	35.601492
1682.000000	35.777316
1681.000000	35.997301
1680.000000	36.233744
1679.000000	36.511383
1678.000000	36.822245
1677.000000	37.126462
1676.000000	37.432315
1675.000000	37.709852
1674.000000	37.951508
1673.000000	38.209316
1672.000000	38.428994
1671.000000	38.638348
1670.000000	38.805177
1669.000000	38.968632
1668.000000	39.132497
1667.000000	39.231960
1666.000000	39.356469
1665.000000	39.454603
1664.000000	39.554680
1663.000000	39.652406
1662.000000	39.719362
1661.000000	39.804105
1660.000000	39.861555
1659.000000	39.915427
1658.000000	39.958974
1657.000000	40.005179
1656.000000	40.035948
1655.000000	40.032984
1654.000000	40.041366
1653.000000	40.058233
1652.000000	40.052100
1651.000000	40.061709
1650.000000	40.052304
1649.000000	40.035335
1648.000000	40.009677
1647.000000	39.971241
1646.000000	39.919107
1645.000000	39.894982
1644.000000	39.853173
1643.000000	39.815861
1642.000000	39.761580
1641.000000	39.731322
1640.000000	39.670193
1639.000000	39.625419
1638.000000	39.593627
1637.000000	39.531577
1636.000000	39.481283
1635.000000	39.438656
1634.000000	39.378549
1633.000000	39.324881
1632.000000	39.262627
1631.000000	39.185653
1630.000000	39.116141
1629.000000	39.058691
1628.000000	38.981410
1627.000000	38.910978
1626.000000	38.835946
1625.000000	38.747318
1624.000000	38.697229
1623.000000	38.619846
1622.000000	38.540520
1621.000000	38.470497
1620.000000	38.402314
1619.000000	38.329838
1618.000000	38.272388
1617.000000	38.204205
1616.000000	38.128968
1615.000000	38.065488
1614.000000	38.010593
1613.000000	37.934744
1612.000000	37.874636
1611.000000	37.805329
1610.000000	37.733466
1609.000000	37.657513
1608.000000	37.586877
1607.000000	37.513276
1606.000000	37.439062
1605.000000	37.376399
1604.000000	37.295233
1603.000000	37.215192
1602.000000	37.145680
1601.000000	37.061652
1600.000000	36.988972
1599.000000	36.914655
1598.000000	36.845654
1597.000000	36.761626
1596.000000	36.679439
1595.000000	36.627918
1594.000000	36.564028
1593.000000	36.488587
1592.000000	36.435636
1591.000000	36.374915
1590.000000	36.307447
1589.000000	36.256438
1588.000000	36.186926
1587.000000	36.115880
1586.000000	36.073355
1585.000000	36.022652
1584.000000	35.971234
1583.000000	35.899269
1582.000000	35.848668
1581.000000	35.787743
1580.000000	35.735302
1579.000000	35.695946
1578.000000	35.661701
1577.000000	35.602207
1576.000000	35.559887
1575.000000	35.550789
1574.000000	35.515930
1573.000000	35.482503
1572.000000	35.453574
1571.000000	35.419534
1570.000000	35.407267
1569.000000	35.388764
1568.000000	35.370977
1567.000000	35.367093
1566.000000	35.343275
1565.000000	35.338777
1564.000000	35.317310
1563.000000	35.297888
1562.000000	35.273865
1561.000000	35.247696
1560.000000	35.219073
1559.000000	35.190246
1558.000000	35.152526
1557.000000	35.102334
1556.000000	35.047133
1555.000000	34.990297
1554.000000	34.941434
1553.000000	34.879180
1552.000000	34.825615
1551.000000	34.753956
1550.000000	34.673813
1549.000000	34.593056
1548.000000	34.517104
1547.000000	34.458837
1546.000000	34.388303
1545.000000	34.312862
1544.000000	34.230776
1543.000000	34.162593
1542.000000	34.100646
1541.000000	34.057303
1540.000000	34.004760
1539.000000	33.941279
1538.000000	33.882501
1537.000000	33.821780
1536.000000	33.770361
1535.000000	33.714752
1534.000000	33.649431
1533.000000	33.593106
1532.000000	33.524820
1531.000000	33.459704
1530.000000	33.385592
1529.000000	33.308618
1528.000000	33.240741
1527.000000	33.167958
1526.000000	33.091086
1525.000000	33.009103
1524.000000	32.940715
1523.000000	32.858732
1522.000000	32.768571
1521.000000	32.688530
1520.000000	32.607569
1519.000000	32.528550
1518.000000	32.447180
1517.000000	32.358552
1516.000000	32.269004
1515.000000	32.192030
1514.000000	32.106571
1513.000000	32.011401
1512.000000	31.922467
1511.000000	31.833839
1510.000000	31.743780
1509.000000	31.642783
1508.000000	31.544751
1507.000000	31.458678
1506.000000	31.366166
1505.000000	31.283467
1504.000000	31.200053
1503.000000	31.106825
1502.000000	31.019015
1501.000000	30.932330
1500.000000	30.849528
1499.000000	30.785741
1498.000000	30.711833
1497.000000	30.635472
1496.000000	30.566880
1495.000000	30.497368
1494.000000	30.435932
1493.000000	30.382367
1492.000000	30.323179
1491.000000	30.278610
1490.000000	30.235881
1489.000000	30.179044
1488.000000	30.132533
1487.000000	30.087452
1486.000000	30.049118
1485.000000	30.026936
1484.000000	29.973166
1483.000000	29.926143
1482.000000	29.911423
1481.000000	29.900996
1480.000000	29.862662
1479.000000	29.831484
1478.000000	29.819115
1477.000000	29.797035
1476.000000	29.779657
1475.000000	29.762381
1474.000000	29.775466
1473.000000	29.787528
1472.000000	29.809608
1471.000000	29.837004
1470.000000	29.841809
1469.000000	29.835675
1468.000000	29.842729
1467.000000	29.868591
1466.000000	29.904472
1465.000000	29.932686
1464.000000	29.953539
1463.000000	29.983695
1462.000000	30.014056
1461.000000	30.048300
1460.000000	30.100434
1459.000000	30.148275
1458.000000	30.204089
1457.000000	30.258676
1456.000000	30.330131
1455.000000	30.397700
1454.000000	30.458523
1453.000000	30.519551
1452.000000	30.610734
1451.000000	30.682700
1450.000000	30.757118
1449.000000	30.819679
1448.000000	30.879582
1447.000000	30.985384
1446.000000	31.090060
1445.000000	31.184106
1444.000000	31.232867
1443.000000	31.296348
1442.000000	31.406749
1441.000000	31.506519
1440.000000	31.592898
1439.000000	31.698802
1438.000000	31.787838
1437.000000	31.922467
1436.000000	32.027144
1435.000000	32.120678
1434.000000	32.273707
1433.000000	32.424282
1432.000000	32.554617
1431.000000	32.667778
1430.000000	32.798318
1429.000000	32.960240
1428.000000	33.145878
1427.000000	33.299622
1426.000000	33.479842
1425.000000	33.674169
1424.000000	33.881376
1423.000000	34.113832
1422.000000	34.297630
1421.000000	34.524056
1420.000000	34.793312
1419.000000	35.064307
1418.000000	35.292981
1417.000000	35.552118
1416.000000	35.798578
1415.000000	36.128352
1414.000000	36.469983
1413.000000	36.782173
1412.000000	37.086084
1411.000000	37.404101
1410.000000	37.790302
1409.000000	38.214121
1408.000000	38.617392
1407.000000	39.005535
1406.000000	39.412589
1405.000000	39.828230
1404.000000	40.226697
1403.000000	40.626494
1402.000000	41.093553
1401.000000	41.599662
1400.000000	42.115379
1399.000000	42.526216
1398.000000	42.887883
1397.000000	43.316915
1396.000000	43.821797
1395.000000	44.320034
1394.000000	44.772476
1393.000000	45.160618
1392.000000	45.637798
1391.000000	46.095350
1390.000000	46.557707
1389.000000	47.024051
1388.000000	47.596605
1387.000000	48.117639
1386.000000	48.608107
1385.000000	49.139056
1384.000000	49.666836
1383.000000	50.197683
1382.000000	50.697352
1381.000000	51.116264
1380.000000	51.441334
1379.000000	51.751992
1378.000000	52.033311
1377.000000	52.286519
1376.000000	52.540135
1375.000000	52.762574
1374.000000	52.977141
1373.000000	53.216139
1372.000000	53.484783
1371.000000	53.747395
1370.000000	54.002954
1369.000000	54.227437
1368.000000	54.499045
1367.000000	54.705945
1366.000000	54.895876
1365.000000	55.051461
1364.000000	55.252534
1363.000000	55.388083
1362.000000	55.602752
1361.000000	55.736461
1360.000000	55.813537
1359.000000	55.837662
1358.000000	55.975766
1357.000000	56.077989
1356.000000	56.213333
1355.000000	56.379855
1354.000000	56.555987
1353.000000	56.748678
1352.000000	56.931965
1351.000000	57.214204
1350.000000	57.503496
1349.000000	57.770811
1348.000000	58.047019
1347.000000	58.308302
1346.000000	58.525016
1345.000000	58.766775
1344.000000	59.018960
1343.000000	59.271146
1342.000000	59.503295
1341.000000	59.730436
1340.000000	59.978839
1339.000000	60.177255
1338.000000	60.393765
1337.000000	60.633070
1336.000000	60.853975
1335.000000	61.071916
1334.000000	61.268798
1333.000000	61.460569
1332.000000	61.681168
1331.000000	61.854948
1330.000000	62.058781
1329.000000	62.266397
1328.000000	62.436089
1327.000000	62.618660
1326.000000	62.788044
1325.000000	62.948331
1324.000000	63.118942
1323.000000	63.285771
1322.000000	63.447897
1321.000000	63.591726
1320.000000	63.729012
1319.000000	63.888787
1318.000000	64.020656
1317.000000	64.164586
1316.000000	64.287970
1315.000000	64.424745
1314.000000	64.551605
1313.000000	64.694513
1312.000000	64.796941
1311.000000	64.908876
1310.000000	65.020811
1309.000000	65.121603
1308.000000	65.218818
1307.000000	65.319099
1306.000000	65.402820
1305.000000	65.485110
1304.000000	65.560346
1303.000000	65.643454
1302.000000	65.706935
1301.000000	65.773585
1300.000000	65.838497
1299.000000	65.892266
1298.000000	65.953294
1297.000000	66.001645
1296.000000	66.034459
1295.000000	66.080357
1294.000000	66.111127
1293.000000	66.147109
1292.000000	66.186772
1291.000000	66.202412
1290.000000	66.217644
1289.000000	66.235942
1288.000000	66.232262
1287.000000	66.240235
1286.000000	66.248822
1285.000000	66.241871
1284.000000	66.230422
1283.000000	66.214781
1282.000000	66.213350
1281.000000	66.176243
1280.000000	66.158865
1279.000000	66.146701
1278.000000	66.119714
1277.000000	66.104993
1276.000000	66.097122
1275.000000	66.073508
1274.000000	66.054597
1273.000000	66.055313
1272.000000	66.035072
1271.000000	66.020250
1270.000000	66.018512
1269.000000	66.010948
1268.000000	65.995819
1267.000000	65.984165
1266.000000	65.973738
1265.000000	65.953089
1264.000000	65.920378
1263.000000	65.901568
1262.000000	65.878670
1261.000000	65.852501
1260.000000	65.824492
1259.000000	65.802616
1258.000000	65.775220
1257.000000	65.740669
1256.000000	65.703255
1255.000000	65.667579
1254.000000	65.612583
1253.000000	65.563617
1252.000000	65.521604
1251.000000	65.482759
1250.000000	65.412429
1249.000000	65.340157
1248.000000	65.289761
1247.000000	65.213911
1246.000000	65.142354
1245.000000	65.066913
1244.000000	65.001899
1243.000000	64.912147
1242.000000	64.823928
1241.000000	64.757278
1240.000000	64.681224
1239.000000	64.599445
1238.000000	64.512657
1237.000000	64.429345
1236.000000	64.354006
1235.000000	64.276419
1234.000000	64.205067
1233.000000	64.128706
1232.000000	64.042531
1231.000000	63.959015
1230.000000	63.866196
1229.000000	63.778897
1228.000000	63.691598
1227.000000	63.601437
1226.000000	63.506982
1225.000000	63.406701
1224.000000	63.321038
1223.000000	63.229445
1222.000000	63.134684
1221.000000	63.042887
1220.000000	62.937291
1219.000000	62.845187
1218.000000	62.745315
1217.000000	62.651269
1216.000000	62.560597
1215.000000	62.471356
1214.000000	62.390497
1213.000000	62.306469
1212.000000	62.219477
1211.000000	62.129622
1210.000000	62.033839
1209.000000	61.948278
1208.000000	61.866806
1207.000000	61.778076
1206.000000	61.687403
1205.000000	61.617380
1204.000000	61.546437
1203.000000	61.474778
1202.000000	61.401689
1201.000000	61.343421
1200.000000	61.284949
1199.000000	61.214722
1198.000000	61.152059
1197.000000	61.080400
1196.000000	60.991772
1195.000000	60.897727
1194.000000	60.781192
1193.000000	60.636034
1192.000000	60.476055
1191.000000	60.291132
1190.000000	60.089138
1189.000000	59.916892
1188.000000	59.752925
1187.000000	59.607563
1186.000000	59.505647
1185.000000	59.445641
1184.000000	59.450139
1183.000000	59.519856
1182.000000	59.635470
1181.000000	59.799130
1180.000000	60.021978
1179.000000	60.230309
1178.000000	60.460517
1177.000000	60.696551
1176.000000	60.887402
1175.000000	61.070587
1174.000000	61.252238
1173.000000	61.431436
1172.000000	61.599593
1171.000000	61.771227
1170.000000	61.955945
1169.000000	62.154565
1168.000000	62.335705
1167.000000	62.540663
1166.000000	62.766782
1165.000000	62.996785
1164.000000	63.203276
1163.000000	63.424999
1162.000000	63.672278
1161.000000	63.914343
1160.000000	64.157431
1159.000000	64.398985
1158.000000	64.635326
1157.000000	64.872893
1156.000000	65.120478
1155.000000	65.339237
1154.000000	65.550124
1153.000000	65.747824
1152.000000	65.933156
1151.000000	66.080664
1150.000000	66.229808
1149.000000	66.378339
1148.000000	66.520430
1147.000000	66.681738
1146.000000	66.845705
1145.000000	67.014783
1144.000000	67.196025
1143.000000	67.417339
1142.000000	67.647853
1141.000000	67.900039
1140.000000	68.158869
1139.000000	68.428534
1138.000000	68.727231
1137.000000	69.033186
1136.000000	69.357644
1135.000000	69.684759
1134.000000	70.016372
1133.000000	70.281745
1132.000000	70.523094
1131.000000	70.762706
1130.000000	71.011927
1129.000000	71.213103
1128.000000	71.395368
1127.000000	71.535721
1126.000000	71.639375
1125.000000	71.738634
1124.000000	71.805182
1123.000000	71.914254
1122.000000	71.946659
1121.000000	71.996749
1120.000000	72.017909
1119.000000	72.029665
1118.000000	72.050825
1117.000000	72.066363
1116.000000	72.073928
1115.000000	72.066567
1114.000000	72.066261
1113.000000	72.054403
1112.000000	72.036105
1111.000000	72.043567
1110.000000	72.015762
1109.000000	72.006051
1108.000000	72.009322
1107.000000	71.991842
1106.000000	71.983869
1105.000000	71.950237
1104.000000	71.954428
1103.000000	71.932552
1102.000000	71.923455
1101.000000	71.940424
1100.000000	71.932450
1099.000000	71.906894
1098.000000	71.898512
1097.000000	71.860894
1096.000000	71.857827
1095.000000	71.811315
1094.000000	71.839120
1093.000000	71.810395
1092.000000	71.789439
1091.000000	71.766541
1090.000000	71.733625
1089.000000	71.734750
1088.000000	71.713998
1087.000000	71.672496
1086.000000	71.639375
1085.000000	71.613513
1084.000000	71.599713
1083.000000	71.573646
1082.000000	71.531223
1081.000000	71.509245
1080.000000	71.489720
1079.000000	71.467538
1078.000000	71.411417
1077.000000	71.371345
1076.000000	71.351207
1075.000000	71.318189
1074.000000	71.277300
1073.000000	71.238455
1072.000000	71.186832
1071.000000	71.166591
1070.000000	71.117933
1069.000000	71.075613
1068.000000	71.036972
1067.000000	70.967562
1066.000000	70.934749
1065.000000	70.898868
1064.000000	70.846325
1063.000000	70.795009
1062.000000	70.746657
1061.000000	70.685119
1060.000000	70.626340
1059.000000	70.545277
1058.000000	70.505103
1057.000000	70.430991
1056.000000	70.363728
1055.000000	70.277145
1054.000000	70.242900
1053.000000	70.171752
1052.000000	70.110725
1051.000000	70.039781
1050.000000	69.981616
1049.000000	69.909958
1048.000000	69.831450
1047.000000	69.775636
1046.000000	69.703057
1045.000000	69.649185
1044.000000	69.588567
1043.000000	69.526210
1042.000000	69.467125
1041.000000	69.389129
1040.000000	69.343435
1039.000000	69.299888
1038.000000	69.229558
1037.000000	69.185908
1036.000000	69.123143
1035.000000	69.058538
1034.000000	69.019386
1033.000000	68.969194
1032.000000	68.895798
1031.000000	68.853273
1030.000000	68.813610
1029.000000	68.730605
1028.000000	68.691146
1027.000000	68.614581
1026.000000	68.551305
1025.000000	68.497740
1024.000000	68.436712
1023.000000	68.399707
1022.000000	68.361271
1021.000000	68.293190
1020.000000	68.238705
1019.000000	68.177473
1018.000000	68.143739
1017.000000	68.124215
1016.000000	68.068401
1015.000000	68.015960
1014.000000	67.966382
1013.000000	67.958204
1012.000000	67.915474
1011.000000	67.894723
1010.000000	67.867020
1009.000000	67.845758
1008.000000	67.824393
1007.000000	67.805380
1006.000000	67.759277
1005.000000	67.738219
1004.000000	67.713481
1003.000000	67.707961
1002.000000	67.694569
1001.000000	67.665231
1000.000000	67.632928
999.000000	67.621173
998.000000	67.612177
997.000000	67.576603
996.000000	67.541745
995.000000	67.545016
994.000000	67.545118
993.000000	67.537145
992.000000	67.529580
991.000000	67.528865
990.000000	67.516087
989.000000	67.532852
988.000000	67.550127
987.000000	67.541541
986.000000	67.550843
985.000000	67.575172
984.000000	67.590710
983.000000	67.598684
982.000000	67.624751
981.000000	67.644786
980.000000	67.664311
979.000000	67.679031
978.000000	67.711436
977.000000	67.756210
976.000000	67.767659
975.000000	67.785957
974.000000	67.813455
973.000000	67.847700
972.000000	67.879798
971.000000	67.916088
970.000000	67.925697
969.000000	67.962088
968.000000	68.024138
967.000000	68.060427
966.000000	68.083632
965.000000	68.129121
964.000000	68.183402
963.000000	68.246270
962.000000	68.280923
961.000000	68.309750
960.000000	68.363009
959.000000	68.413507
958.000000	68.471468
957.000000	68.513482
956.000000	68.538527
955.000000	68.595056
954.000000	68.659253
953.000000	68.715271
952.000000	68.758716
951.000000	68.829455
950.000000	68.898047
949.000000	68.956417
948.000000	69.027973
947.000000	69.092476
946.000000	69.157081
945.000000	69.223015
944.000000	69.295492
943.000000	69.360199
942.000000	69.412333
941.000000	69.469170
940.000000	69.545428
939.000000	69.615247
938.000000	69.656648
937.000000	69.700502
936.000000	69.756111
935.000000	69.827565
934.000000	69.875815
933.000000	69.913740
932.000000	69.966283
931.000000	70.007990
930.000000	70.069017
929.000000	70.099173
928.000000	70.117880
927.000000	70.174205
926.000000	70.219695
925.000000	70.244126
924.000000	70.271829
923.000000	70.309549
922.000000	70.343079
921.000000	70.394804
920.000000	70.432422
919.000000	70.450413
918.000000	70.490383
917.000000	70.511645
916.000000	70.528308
915.000000	70.564597
914.000000	70.587495
913.000000	70.618776
912.000000	70.658132
911.000000	70.705154
910.000000	70.746146
909.000000	70.801653
908.000000	70.857979
907.000000	70.916451
906.000000	70.976456
905.000000	71.040039
904.000000	71.118444
903.000000	71.212797
902.000000	71.300198
901.000000	71.385248
900.000000	71.488391
899.000000	71.575077
898.000000	71.671474
897.000000	71.757546
896.000000	71.855680
895.000000	71.954326
894.000000	72.042443
893.000000	72.124630
892.000000	72.190053
891.000000	72.272650
890.000000	72.328771
889.000000	72.387447
888.000000	72.474337
887.000000	72.544667
886.000000	72.576561
885.000000	72.624810
884.000000	72.659771
883.000000	72.708940
882.000000	72.754941
881.000000	72.788572
880.000000	72.808404
879.000000	72.838048
878.000000	72.859515
877.000000	72.836311
876.000000	72.786834
875.000000	72.764141
874.000000	72.688393
873.000000	72.586885
872.000000	72.545382
871.000000	72.603957
870.000000	72.727034
869.000000	72.853484
868.000000	72.993326
867.000000	73.113439
866.000000	73.245205
865.000000	73.349575
864.000000	73.488701
863.000000	73.655121
862.000000	73.790158
861.000000	73.941143
860.000000	74.116967
859.000000	74.257116
858.000000	74.434167
857.000000	74.169800
856.000000	74.426100
855.000000	74.706600
854.000000	75.054700
853.000000	75.711000
852.000000	75.268100
851.000000	75.723700
850.000000	75.805700
849.000000	75.718900
848.000000	76.377100
847.000000	76.700400
846.000000	76.889300
845.000000	77.234400
844.000000	77.289600
843.000000	77.614200
842.000000	78.057900
841.000000	78.434400
840.000000	78.766300
839.000000	79.184000
838.000000	79.161500
837.000000	79.227100
836.000000	79.813200
835.000000	80.016000
834.000000	80.357700
833.000000	80.817200
832.000000	80.926100
831.000000	80.994900
830.000000	81.155900
829.000000	81.208100
828.000000	81.690400
827.000000	81.706400
826.000000	81.759400
825.000000	82.002000
824.000000	82.176700
823.000000	82.450000
822.000000	82.262400
821.000000	82.638000
820.000000	82.752800
819.000000	82.880500
818.000000	83.074800
817.000000	83.051300
816.000000	83.126900
815.000000	83.305500
814.000000	83.565400
813.000000	83.694000
812.000000	84.196700
811.000000	84.137400
810.000000	84.348200
809.000000	84.619600
808.000000	85.020400
807.000000	85.028700
806.000000	85.124500
805.000000	85.554300
804.000000	85.720100
803.000000	86.114300
802.000000	86.354500
801.000000	86.353100
800.000000	86.628700
799.000000	86.768400
798.000000	86.816800
797.000000	87.063500
796.000000	87.158600
795.000000	87.252400
794.000000	87.325400
793.000000	87.567200
792.000000	87.374200
791.000000	87.573900
790.000000	87.681700
789.000000	87.552500
788.000000	87.442100
787.000000	87.533000
786.000000	87.413900
785.000000	87.342100
784.000000	87.486300
783.000000	87.350000
782.000000	87.398100
781.000000	87.279000
780.000000	87.396600
779.000000	87.119700
778.000000	87.294400
777.000000	87.163200
776.000000	87.076300
775.000000	87.401300
774.000000	87.204500
773.000000	87.378700
772.000000	87.301000
771.000000	87.361100
770.000000	87.295500
769.000000	87.440200
768.000000	87.355700
767.000000	87.562900
766.000000	87.436600
765.000000	87.497600
764.000000	87.571900
763.000000	87.408600
762.000000	87.384600
761.000000	87.550500
760.000000	87.430400
759.000000	87.442800
758.000000	87.569500
757.000000	87.467000
756.000000	87.388800
755.000000	87.340900
754.000000	87.210200
753.000000	87.111500
752.000000	86.903300
751.000000	86.960500
750.000000	86.707500
749.000000	86.582100
748.000000	86.295500
747.000000	86.212100
746.000000	86.047300
745.000000	85.893100
744.000000	85.783700
743.000000	85.679700
742.000000	85.614300
741.000000	85.535100
740.000000	85.496900
739.000000	85.390800
738.000000	85.181600
737.000000	85.123800
736.000000	85.034300
735.000000	84.954700
734.000000	84.792800
733.000000	84.783100
732.000000	84.632500
731.000000	84.464900
730.000000	84.220700
729.000000	84.037300
728.000000	83.798600
727.000000	83.611200
726.000000	83.328100
725.000000	83.134600
724.000000	82.949000
723.000000	82.623400
722.000000	82.436600
721.000000	82.140500
720.000000	81.961600
719.000000	81.738800
718.000000	81.601600
717.000000	81.491700
716.000000	81.291400
715.000000	81.161100
714.000000	80.943100
713.000000	80.722500
712.000000	80.577700
711.000000	80.469800
710.000000	80.272900
709.000000	80.045400
708.000000	79.898400
707.000000	79.679500
706.000000	79.512100
705.000000	79.391700
704.000000	79.168100
703.000000	79.038800
702.000000	78.782500
701.000000	78.705600
700.000000	78.654000
699.000000	78.474600
698.000000	78.333800
697.000000	78.350300
696.000000	78.327200
695.000000	78.234000
694.000000	78.159400
693.000000	78.129900
692.000000	78.112900
691.000000	78.076300
690.000000	77.977500
689.000000	77.850300
688.000000	77.722000
687.000000	77.574400
686.000000	77.392700
685.000000	77.200200
684.000000	77.027900
683.000000	76.788700
682.000000	76.506700
681.000000	76.217800
680.000000	75.916700
679.000000	75.612900
678.000000	75.338800
677.000000	75.037300
676.000000	74.660900
675.000000	74.323100
674.000000	74.049900
673.000000	73.714200
672.000000	73.328900
671.000000	72.826400
670.000000	72.321900
669.000000	71.750600
668.000000	71.147900
667.000000	70.496700
666.000000	69.808700
665.000000	69.108600
664.000000	68.369300
663.000000	67.564200
662.000000	66.775000
661.000000	65.977700
660.000000	65.185800
659.000000	64.427200
658.000000	63.722500
657.000000	63.070200
656.000000	62.425500
655.000000	61.830900
654.000000	61.281500
653.000000	60.802900
652.000000	60.382400
651.000000	59.958500
650.000000	59.580900
649.000000	59.229000
648.000000	58.947500
647.000000	58.759500
646.000000	58.615100
645.000000	58.508500
644.000000	58.508100
643.000000	58.605500
642.000000	58.748100
641.000000	58.974800
640.000000	59.300000
639.000000	59.709900
638.000000	60.204000
637.000000	60.779300
636.000000	61.455200
635.000000	62.214400
634.000000	63.051600
633.000000	63.954800
632.000000	64.890100
631.000000	65.889700
630.000000	66.921200
629.000000	67.934300
628.000000	68.921100
627.000000	69.875200
626.000000	70.828000
625.000000	71.759600
624.000000	72.668800
623.000000	73.557500
622.000000	74.424500
621.000000	75.250400
620.000000	76.046200
619.000000	76.803900
618.000000	77.578100
617.000000	78.299300
616.000000	78.968900
615.000000	79.612600
614.000000	80.265700
613.000000	80.882400
612.000000	81.482800
611.000000	82.123000
610.000000	82.694700
609.000000	83.293800
608.000000	83.813300
607.000000	84.304900
606.000000	84.776900
605.000000	85.214800
604.000000	85.651300
603.000000	86.023300
602.000000	86.376300
601.000000	86.686900
600.000000	86.958500
599.000000	87.187400
598.000000	87.420400
597.000000	87.577800
596.000000	87.736100
595.000000	87.860200
594.000000	88.014800
593.000000	88.145000
592.000000	88.230900
591.000000	88.277200
590.000000	88.315600
589.000000	88.345700
588.000000	88.402100
587.000000	88.436700
586.000000	88.415800
585.000000	88.426700
584.000000	88.407900
583.000000	88.396100
582.000000	88.350400
581.000000	88.337200
580.000000	88.279700
579.000000	88.234600
578.000000	88.169700
577.000000	88.078000
576.000000	87.983700
575.000000	87.842900
574.000000	87.698200
573.000000	87.527000
572.000000	87.386200
571.000000	87.259800
570.000000	87.043000
569.000000	86.818200
568.000000	86.559800
567.000000	86.259700
566.000000	85.976500
565.000000	85.634300
564.000000	85.290500
563.000000	84.917500
562.000000	84.511900
561.000000	84.054300
560.000000	83.566100
559.000000	83.047800
558.000000	82.564700
557.000000	82.037100
556.000000	81.434200
555.000000	80.936300
554.000000	80.376900
553.000000	79.849800
552.000000	79.298200
551.000000	78.797900
550.000000	78.271900
549.000000	77.823600
548.000000	77.348500
547.000000	76.928000
546.000000	76.444700
545.000000	75.975300
544.000000	75.463400
543.000000	74.981500
542.000000	74.432200
541.000000	73.879000
540.000000	73.269500
539.000000	72.612100
538.000000	71.928600
537.000000	71.207900
536.000000	70.460800
535.000000	69.608900
534.000000	68.724900
533.000000	67.775200
532.000000	66.769300
531.000000	65.700700
530.000000	64.582500
529.000000	63.430100
528.000000	62.231900
527.000000	60.968900
526.000000	59.680300
525.000000	58.350000
524.000000	56.997500
523.000000	55.585300
522.000000	54.125600
521.000000	52.704800
520.000000	51.269000
519.000000	49.867100
518.000000	48.515900
517.000000	47.206800
516.000000	46.015000
515.000000	44.860400
514.000000	43.849200
513.000000	42.889000
512.000000	42.055100
511.000000	41.324300
510.000000	40.771000
509.000000	40.308500
508.000000	39.903100
507.000000	39.657600
506.000000	39.423200
505.000000	39.291700
504.000000	39.144800
503.000000	39.123400
502.000000	39.074500
501.000000	39.073900
500.000000	39.052100
499.000000	39.066900
498.000000	39.063900
497.000000	39.043300
496.000000	39.033800
495.000000	38.998300
494.000000	38.961000
493.000000	38.903200
492.000000	38.812700
491.000000	38.694600
490.000000	38.585000
489.000000	38.471400
488.000000	38.336300
487.000000	38.148200
486.000000	38.007500
485.000000	37.862900
484.000000	37.676200
483.000000	37.486500
482.000000	37.273100
481.000000	37.024400
480.000000	36.776500
479.000000	36.552900
478.000000	36.281000
477.000000	36.036100
476.000000	35.754000
475.000000	35.514300
474.000000	35.190200
473.000000	34.930200
472.000000	34.628300
471.000000	34.338200
470.000000	34.029000
469.000000	33.740100
468.000000	33.449100
467.000000	33.113800
466.000000	32.839000
465.000000	32.491500
464.000000	32.133000
463.000000	31.786600
462.000000	31.464900
461.000000	31.009800
460.000000	30.630400
459.000000	30.284000
458.000000	29.867000
457.000000	29.440300
456.000000	28.986800
455.000000	28.533300
454.000000	28.059700
453.000000	27.552100
452.000000	27.016000
451.000000	26.473500
450.000000	25.915200
449.000000	25.296900
448.000000	24.688300
447.000000	24.051800
446.000000	23.400600
445.000000	22.716200
444.000000	22.003200
443.000000	21.325000
442.000000	20.622100
441.000000	19.889100
440.000000	19.201400
439.000000	18.476500
438.000000	17.787200
437.000000	17.081100
436.000000	16.439200
435.000000	15.810100
434.000000	15.209500
433.000000	14.597600
432.000000	14.023000
431.000000	13.510700
430.000000	13.024700
429.000000	12.582600
428.000000	12.134500
427.000000	11.703200
426.000000	11.329900
425.000000	10.999100
424.000000	10.675500
423.000000	10.386000
422.000000	10.107700
421.000000	9.854200
420.000000	9.652900
419.000000	9.446500
418.000000	9.266300
417.000000	9.115900
416.000000	8.944200
415.000000	8.788700
414.000000	8.648200
413.000000	8.529700
412.000000	8.439000
411.000000	8.325600
410.000000	8.241400
409.000000	8.159700
408.000000	8.082500
407.000000	7.993700
406.000000	7.909900
405.000000	7.857700
404.000000	7.817500
403.000000	7.752100
402.000000	7.694800
401.000000	7.640900
400.000000	7.593800
399.000000	7.549900
398.000000	7.499600
397.000000	7.441600
396.000000	7.411700
395.000000	7.390100
394.000000	7.356500
393.000000	7.301300
392.000000	7.255100
391.000000	7.249500
390.000000	7.210200
389.000000	7.167200
388.000000	7.148500
387.000000	7.116100
386.000000	7.064700
385.000000	7.048900
384.000000	7.016300
383.000000	6.975700
382.000000	6.950000
381.000000	6.937500
380.000000	6.926100
379.000000	6.877400
378.000000	6.847000
377.000000	6.832900
376.000000	6.762700
375.000000	6.574000
374.000000	6.506000
373.000000	6.658400
372.000000	6.613400
371.000000	6.570900
370.000000	6.687900
369.000000	6.569200
368.000000	6.615700
367.000000	6.603500
366.000000	6.631700
365.000000	6.661100
364.000000	6.513800
363.000000	6.435200
362.000000	6.537500
361.000000	6.644000
360.000000	6.722200
359.000000	6.591100
358.000000	6.419300
357.000000	6.412800
356.000000	6.466600
355.000000	6.359600
354.000000	6.345300
353.000000	6.319200
352.000000	6.280400
351.000000	6.345800
350.000000	6.330900
349.000000	6.240800
348.000000	6.080300
347.000000	6.016800
346.000000	5.969600
345.000000	6.015300
344.000000	6.147600
343.000000	6.284500
342.000000	6.279700
341.000000	6.249000
340.000000	6.209400
339.000000	6.313500
338.000000	6.247200
337.000000	6.101400
336.000000	6.148400
335.000000	6.428100
334.000000	6.633800
333.000000	6.362400
332.000000	6.182100
331.000000	6.205700
330.000000	6.147300
329.000000	6.223300
328.000000	6.294200
327.000000	6.363000
326.000000	6.136300
325.000000	6.071900
324.000000	6.313000
323.000000	6.169100
322.000000	6.667900
321.000000	7.174600
320.000000	6.975000
319.000000	6.576200
318.000000	6.352600
317.000000	6.320700
316.000000	6.034100
315.000000	5.845800
314.000000	5.856900
313.000000	5.851200
312.000000	5.885200
311.000000	5.904800
310.000000	5.881800
309.000000	5.844200
308.000000	5.845400
307.000000	5.826700
306.000000	5.828500
305.000000	5.849000
304.000000	5.806700
303.000000	5.788500
302.000000	5.813700
301.000000	5.803700
300.000000	5.801200
299.000000	5.839900
298.000000	5.852300
297.000000	5.796600
296.000000	5.845500
295.000000	5.888200
294.000000	5.871000
293.000000	5.873100
292.000000	5.866400
291.000000	5.870400
290.000000	5.869200
289.000000	5.846300
288.000000	5.828800
287.000000	5.845800
286.000000	5.856100
285.000000	5.850600
284.000000	5.866500
283.000000	5.858900
282.000000	5.875900
281.000000	5.882200
280.000000	5.899200
279.000000	5.869400
278.000000	5.876500
277.000000	5.880300
276.000000	5.888500
275.000000	5.935700
274.000000	5.948400
273.000000	5.958400
272.000000	5.955300
271.000000	5.945500
270.000000	5.953100
269.000000	5.977400
268.000000	5.947200
267.000000	5.989000
266.000000	6.074100
265.000000	6.095000
264.000000	6.118800
263.000000	6.108300
262.000000	6.108500
261.000000	6.145200
260.000000	6.168700
259.000000	6.208700
258.000000	6.226900
257.000000	6.238800
256.000000	6.221100
255.000000	6.235300
254.000000	6.243400
253.000000	6.252800
252.000000	6.238500
251.000000	6.247900
250.000000	6.288600
