PE UV       SUBTECH     SPECTRUM    ASCII       PEDS        4.00        
   -1
CICIMAUCR0250-2.Sample.ASC
24/05/27
15:54:30.00
24/05/27
15:54:30.00
Vinicio Soto Monge
C. resplendens, M
250,000000
1
Lambda 1050
1050L1511233
PerkinElmer UV WinLab 6.3.2.0749 / 2.02.05 Lambda 900 UV/VIS/NIR, Aug  7 2015 09:38:08

0
0
3350/servo 860,8/2
0
0
UV/VIS
1
1
1
DoubleDePol,CommonBeamDepol,RBeamAtt,SBeamAtt,60mm sphere, WB InGaAs Detector
0
0
0
0
Program
Program
3350/servo 860,8/2
3350/0,2 860,8/0,2
3350/0,2 860,8/0,2
0
15.00
 
 
 
0
 
860,8
319,2
860,8
Front
100
on
S:100 R:100
0
0
0
0
 
0
 
 
 
0
 
 
0
0
0
0
0
 
 
 
 
0
0


0
0
#HDR
-1
-1
#GR
nm
%R
1.0
0.0
2500,000000
-1,000000
2251
8
93,577500
5,517900
#DATA
2482.000000	7.569634
2481.000000	7.531452
2480.000000	7.557981
2479.000000	7.529475
2478.000000	7.577853
2477.000000	7.573795
2476.000000	7.567345
2475.000000	7.520320
2474.000000	7.529787
2473.000000	7.520528
2472.000000	7.587528
2471.000000	7.546225
2470.000000	7.512205
2469.000000	7.527082
2468.000000	7.574835
2467.000000	7.596371
2466.000000	7.597620
2465.000000	7.610000
2464.000000	7.584303
2463.000000	7.600741
2462.000000	7.620092
2461.000000	7.655880
2460.000000	7.677728
2459.000000	7.698536
2458.000000	7.742335
2457.000000	7.752531
2456.000000	7.801636
2455.000000	7.833368
2454.000000	7.858961
2453.000000	7.920343
2452.000000	7.967784
2451.000000	8.013352
2450.000000	8.060377
2449.000000	8.098142
2448.000000	8.180019
2447.000000	8.213207
2446.000000	8.255966
2445.000000	8.325359
2444.000000	8.361252
2443.000000	8.420657
2442.000000	8.486408
2441.000000	8.543213
2440.000000	8.583995
2439.000000	8.638823
2438.000000	8.685951
2437.000000	8.732664
2436.000000	8.771886
2435.000000	8.811940
2434.000000	8.870201
2433.000000	8.911608
2432.000000	8.960401
2431.000000	9.008362
2430.000000	9.034060
2429.000000	9.078171
2428.000000	9.142986
2427.000000	9.168267
2426.000000	9.203640
2425.000000	9.235163
2424.000000	9.254722
2423.000000	9.297689
2422.000000	9.325363
2421.000000	9.356262
2420.000000	9.371452
2419.000000	9.397981
2418.000000	9.424511
2417.000000	9.442301
2416.000000	9.477882
2415.000000	9.524906
2414.000000	9.529484
2413.000000	9.542801
2412.000000	9.570787
2411.000000	9.590034
2410.000000	9.609489
2409.000000	9.626447
2408.000000	9.653496
2407.000000	9.664732
2406.000000	9.674616
2405.000000	9.710717
2404.000000	9.738182
2403.000000	9.751291
2402.000000	9.769394
2401.000000	9.774699
2400.000000	9.773451
2399.000000	9.776156
2398.000000	9.791033
2397.000000	9.813505
2396.000000	9.830567
2395.000000	9.846693
2394.000000	9.842115
2393.000000	9.857617
2392.000000	9.888724
2391.000000	9.896735
2390.000000	9.910364
2389.000000	9.921496
2388.000000	9.926698
2387.000000	9.920559
2386.000000	9.926073
2385.000000	9.947297
2384.000000	9.953331
2383.000000	9.937726
2382.000000	9.938558
2381.000000	9.933876
2380.000000	9.907763
2379.000000	9.908075
2378.000000	9.897983
2377.000000	9.881233
2376.000000	9.870934
2375.000000	9.851895
2374.000000	9.828279
2373.000000	9.815690
2372.000000	9.802165
2371.000000	9.772827
2370.000000	9.743176
2369.000000	9.716439
2368.000000	9.670870
2367.000000	9.633521
2366.000000	9.604703
2365.000000	9.575989
2364.000000	9.532397
2363.000000	9.483500
2362.000000	9.438972
2361.000000	9.387577
2360.000000	9.354702
2359.000000	9.309238
2358.000000	9.242342
2357.000000	9.200623
2356.000000	9.172637
2355.000000	9.133311
2354.000000	9.090031
2353.000000	9.053723
2352.000000	9.050289
2351.000000	9.038117
2350.000000	9.026465
2349.000000	9.037285
2348.000000	9.039469
2347.000000	9.037493
2346.000000	9.055699
2345.000000	9.089199
2344.000000	9.101996
2343.000000	9.136224
2342.000000	9.162857
2341.000000	9.187306
2340.000000	9.212795
2339.000000	9.223303
2338.000000	9.241718
2337.000000	9.236100
2336.000000	9.237348
2335.000000	9.233499
2334.000000	9.227568
2333.000000	9.209674
2332.000000	9.180336
2331.000000	9.159216
2330.000000	9.130086
2329.000000	9.096170
2328.000000	9.034372
2327.000000	9.000143
2326.000000	8.973510
2325.000000	8.906822
2324.000000	8.833164
2323.000000	8.764083
2322.000000	8.700725
2321.000000	8.645897
2320.000000	8.560067
2319.000000	8.486200
2318.000000	8.397873
2317.000000	8.318909
2316.000000	8.254614
2315.000000	8.163477
2314.000000	8.063706
2313.000000	7.987134
2312.000000	7.929394
2311.000000	7.854903
2310.000000	7.793521
2309.000000	7.732972
2308.000000	7.683658
2307.000000	7.652343
2306.000000	7.616034
2305.000000	7.605734
2304.000000	7.607295
2303.000000	7.627270
2302.000000	7.631432
2301.000000	7.663371
2300.000000	7.703737
2299.000000	7.745352
2298.000000	7.804549
2297.000000	7.889236
2296.000000	7.948537
2295.000000	8.017097
2294.000000	8.073381
2293.000000	8.109586
2292.000000	8.165974
2291.000000	8.212583
2290.000000	8.254302
2289.000000	8.297061
2288.000000	8.288010
2287.000000	8.306008
2286.000000	8.307256
2285.000000	8.307152
2284.000000	8.282288
2283.000000	8.272612
2282.000000	8.227876
2281.000000	8.199682
2280.000000	8.148288
2279.000000	8.113019
2278.000000	8.073797
2277.000000	8.068387
2276.000000	8.022611
2275.000000	7.987342
2274.000000	7.944791
2273.000000	7.917846
2272.000000	7.892669
2271.000000	7.913892
2270.000000	7.908586
2269.000000	7.918366
2268.000000	7.928874
2267.000000	7.958940
2266.000000	8.015016
2265.000000	8.108546
2264.000000	8.185949
2263.000000	8.277918
2262.000000	8.400370
2261.000000	8.538115
2260.000000	8.664520
2259.000000	8.826506
2258.000000	9.006386
2257.000000	9.178879
2256.000000	9.370723
2255.000000	9.552892
2254.000000	9.759302
2253.000000	9.965816
2252.000000	10.164734
2251.000000	10.343782
2250.000000	10.537083
2249.000000	10.700942
2248.000000	10.878533
2247.000000	11.040102
2246.000000	11.179512
2245.000000	11.325580
2244.000000	11.455835
2243.000000	11.566114
2242.000000	11.678058
2241.000000	11.791250
2240.000000	11.894143
2239.000000	11.989441
2238.000000	12.068821
2237.000000	12.118967
2236.000000	12.190024
2235.000000	12.273982
2234.000000	12.326209
2233.000000	12.378539
2232.000000	12.417449
2231.000000	12.454174
2230.000000	12.491316
2229.000000	12.532930
2228.000000	12.558732
2227.000000	12.537612
2226.000000	12.555298
2225.000000	12.574129
2224.000000	12.579123
2223.000000	12.578603
2222.000000	12.538548
2221.000000	12.560084
2220.000000	12.548120
2219.000000	12.506609
2218.000000	12.506193
2217.000000	12.461665
2216.000000	12.425356
2215.000000	12.408398
2214.000000	12.398931
2213.000000	12.354611
2212.000000	12.341294
2211.000000	12.286154
2210.000000	12.262746
2209.000000	12.269404
2208.000000	12.218634
2207.000000	12.219675
2206.000000	12.186383
2205.000000	12.176707
2204.000000	12.177644
2203.000000	12.136341
2202.000000	12.126354
2201.000000	12.084947
2200.000000	12.082034
2199.000000	12.068197
2198.000000	12.047493
2197.000000	12.042604
2196.000000	12.028767
2195.000000	12.021276
2194.000000	11.987360
2193.000000	11.989857
2192.000000	11.979973
2191.000000	11.963535
2190.000000	11.961767
2189.000000	11.920984
2188.000000	11.933365
2187.000000	11.917551
2186.000000	11.907043
2185.000000	11.901946
2184.000000	11.878121
2183.000000	11.871983
2182.000000	11.862203
2181.000000	11.832137
2180.000000	11.795412
2179.000000	11.809040
2178.000000	11.795620
2177.000000	11.784904
2176.000000	11.775957
2175.000000	11.763056
2174.000000	11.773148
2173.000000	11.774084
2172.000000	11.785008
2171.000000	11.787609
2170.000000	11.792395
2169.000000	11.793643
2168.000000	11.815803
2167.000000	11.826207
2166.000000	11.823502
2165.000000	11.839835
2164.000000	11.859915
2163.000000	11.865012
2162.000000	11.891126
2161.000000	11.925354
2160.000000	11.941480
2159.000000	11.969049
2158.000000	11.975292
2157.000000	12.005462
2156.000000	12.047389
2155.000000	12.085363
2154.000000	12.124481
2153.000000	12.147265
2152.000000	12.170569
2151.000000	12.214889
2150.000000	12.244540
2149.000000	12.280745
2148.000000	12.299991
2147.000000	12.346184
2146.000000	12.393729
2145.000000	12.422755
2144.000000	12.446788
2143.000000	12.476646
2142.000000	12.504944
2141.000000	12.544270
2140.000000	12.572777
2139.000000	12.604612
2138.000000	12.634158
2137.000000	12.634991
2136.000000	12.654654
2135.000000	12.673901
2134.000000	12.696581
2133.000000	12.723422
2132.000000	12.737571
2131.000000	12.743293
2130.000000	12.738300
2129.000000	12.749640
2128.000000	12.771696
2127.000000	12.767638
2126.000000	12.753905
2125.000000	12.750160
2124.000000	12.742253
2123.000000	12.739340
2122.000000	12.723214
2121.000000	12.707088
2120.000000	12.702823
2119.000000	12.677542
2118.000000	12.648516
2117.000000	12.630205
2116.000000	12.607421
2115.000000	12.602011
2114.000000	12.572464
2113.000000	12.548536
2112.000000	12.531266
2111.000000	12.503800
2110.000000	12.485073
2109.000000	12.450845
2108.000000	12.415369
2107.000000	12.394561
2106.000000	12.388007
2105.000000	12.349721
2104.000000	12.313828
2103.000000	12.292085
2102.000000	12.266387
2101.000000	12.240378
2100.000000	12.212808
2099.000000	12.183886
2098.000000	12.169321
2097.000000	12.145600
2096.000000	12.111164
2095.000000	12.099720
2094.000000	12.085155
2093.000000	12.067989
2092.000000	12.045829
2091.000000	12.023357
2090.000000	12.025646
2089.000000	12.009104
2088.000000	11.976124
2087.000000	11.958750
2086.000000	11.950219
2085.000000	11.940959
2084.000000	11.931076
2083.000000	11.897680
2082.000000	11.874168
2081.000000	11.858354
2080.000000	11.821629
2079.000000	11.796764
2078.000000	11.784800
2077.000000	11.751092
2076.000000	11.719881
2075.000000	11.692311
2074.000000	11.660580
2073.000000	11.628744
2072.000000	11.595348
2071.000000	11.567882
2070.000000	11.526788
2069.000000	11.488502
2068.000000	11.457707
2067.000000	11.430137
2066.000000	11.394765
2065.000000	11.346388
2064.000000	11.315176
2063.000000	11.300611
2062.000000	11.269504
2061.000000	11.238917
2060.000000	11.214052
2059.000000	11.187419
2058.000000	11.172438
2057.000000	11.162242
2056.000000	11.156416
2055.000000	11.160265
2054.000000	11.162034
2053.000000	11.170981
2052.000000	11.199591
2051.000000	11.231427
2050.000000	11.278763
2049.000000	11.325164
2048.000000	11.349093
2047.000000	11.406729
2046.000000	11.488502
2045.000000	11.552069
2044.000000	11.635611
2043.000000	11.703547
2042.000000	11.783135
2041.000000	11.867509
2040.000000	11.925666
2039.000000	11.999428
2038.000000	12.082450
2037.000000	12.147681
2036.000000	12.197515
2035.000000	12.265347
2034.000000	12.334012
2033.000000	12.385094
2032.000000	12.412768
2031.000000	12.474566
2030.000000	12.529185
2029.000000	12.564037
2028.000000	12.600138
2027.000000	12.652053
2026.000000	12.675565
2025.000000	12.707297
2024.000000	12.733306
2023.000000	12.739756
2022.000000	12.768470
2021.000000	12.784180
2020.000000	12.798537
2019.000000	12.801138
2018.000000	12.812686
2017.000000	12.834846
2016.000000	12.836198
2015.000000	12.833285
2014.000000	12.822674
2013.000000	12.814247
2012.000000	12.810605
2011.000000	12.808317
2010.000000	12.786365
2009.000000	12.772112
2008.000000	12.725919
2007.000000	12.708753
2006.000000	12.677334
2005.000000	12.649972
2004.000000	12.612727
2003.000000	12.567159
2002.000000	12.533763
2001.000000	12.483409
2000.000000	12.447724
1999.000000	12.396642
1998.000000	12.346288
1997.000000	12.287091
1996.000000	12.230807
1995.000000	12.170257
1994.000000	12.127186
1993.000000	12.046973
1992.000000	11.992874
1991.000000	11.916615
1990.000000	11.838483
1989.000000	11.756086
1988.000000	11.693247
1987.000000	11.637171
1986.000000	11.557271
1985.000000	11.490791
1984.000000	11.393308
1983.000000	11.345347
1982.000000	11.244223
1981.000000	11.177119
1980.000000	11.121667
1979.000000	11.038542
1978.000000	10.958745
1977.000000	10.899548
1976.000000	10.817671
1975.000000	10.745053
1974.000000	10.682631
1973.000000	10.609597
1972.000000	10.563405
1971.000000	10.471956
1970.000000	10.392368
1969.000000	10.333483
1968.000000	10.270956
1967.000000	10.219562
1966.000000	10.148297
1965.000000	10.087435
1964.000000	10.028966
1963.000000	9.970185
1962.000000	9.909948
1961.000000	9.856369
1960.000000	9.791033
1959.000000	9.731940
1958.000000	9.672431
1957.000000	9.610321
1956.000000	9.571827
1955.000000	9.504307
1954.000000	9.463212
1953.000000	9.370203
1952.000000	9.328797
1951.000000	9.300602
1950.000000	9.249936
1949.000000	9.216749
1948.000000	9.161921
1947.000000	9.143402
1946.000000	9.108238
1945.000000	9.070160
1944.000000	9.036348
1943.000000	9.025737
1942.000000	8.976423
1941.000000	8.985994
1940.000000	8.958737
1939.000000	8.967476
1938.000000	8.961962
1937.000000	8.971429
1936.000000	8.939802
1935.000000	8.946772
1934.000000	8.978608
1933.000000	8.977775
1932.000000	9.030418
1931.000000	9.091384
1930.000000	9.113648
1929.000000	9.164938
1928.000000	9.208530
1927.000000	9.267519
1926.000000	9.332334
1925.000000	9.396109
1924.000000	9.448439
1923.000000	9.545818
1922.000000	9.629568
1921.000000	9.743176
1920.000000	9.852103
1919.000000	9.952083
1918.000000	10.058721
1917.000000	10.152146
1916.000000	10.301959
1915.000000	10.433462
1914.000000	10.572352
1913.000000	10.709473
1912.000000	10.858246
1911.000000	11.065487
1910.000000	11.200944
1909.000000	11.355751
1908.000000	11.548219
1907.000000	11.739440
1906.000000	11.946265
1905.000000	12.151218
1904.000000	12.414744
1903.000000	12.617721
1902.000000	12.835574
1901.000000	13.080582
1900.000000	13.329646
1899.000000	13.592756
1898.000000	13.874593
1897.000000	14.122825
1896.000000	14.383750
1895.000000	14.654871
1894.000000	14.935042
1893.000000	15.209388
1892.000000	15.531279
1891.000000	15.873873
1890.000000	16.245910
1889.000000	16.614513
1888.000000	16.930266
1887.000000	17.304487
1886.000000	17.689320
1885.000000	18.117120
1884.000000	18.562711
1883.000000	19.053142
1882.000000	19.548254
1881.000000	20.040350
1880.000000	20.549299
1879.000000	21.029326
1878.000000	21.493124
1877.000000	21.977208
1876.000000	22.457963
1875.000000	22.894711
1874.000000	23.312212
1873.000000	23.731585
1872.000000	24.109864
1871.000000	24.479300
1870.000000	24.804104
1869.000000	25.081154
1868.000000	25.360598
1867.000000	25.564927
1866.000000	25.740333
1865.000000	25.879015
1864.000000	26.015823
1863.000000	26.149095
1862.000000	26.269050
1861.000000	26.420320
1860.000000	26.555256
1859.000000	26.660021
1858.000000	26.755943
1857.000000	26.802136
1856.000000	26.838340
1855.000000	26.886198
1854.000000	26.898994
1853.000000	26.918449
1852.000000	26.895873
1851.000000	26.896081
1850.000000	26.916264
1849.000000	26.922611
1848.000000	26.925524
1847.000000	26.900451
1846.000000	26.834803
1845.000000	26.771757
1844.000000	26.724316
1843.000000	26.693937
1842.000000	26.686654
1841.000000	26.678956
1840.000000	26.660229
1839.000000	26.640046
1838.000000	26.598639
1837.000000	26.556816
1836.000000	26.525917
1835.000000	26.459854
1834.000000	26.370902
1833.000000	26.288609
1832.000000	26.231804
1831.000000	26.185924
1830.000000	26.122669
1829.000000	26.041625
1828.000000	25.966198
1827.000000	25.887754
1826.000000	25.823355
1825.000000	25.760620
1824.000000	25.701111
1823.000000	25.659288
1822.000000	25.649093
1821.000000	25.643267
1820.000000	25.622043
1819.000000	25.566487
1818.000000	25.513220
1817.000000	25.491581
1816.000000	25.476911
1815.000000	25.467236
1814.000000	25.448197
1813.000000	25.430823
1812.000000	25.414697
1811.000000	25.377452
1810.000000	25.343328
1809.000000	25.309308
1808.000000	25.272582
1807.000000	25.242724
1806.000000	25.207455
1805.000000	25.149507
1804.000000	25.077721
1803.000000	25.040684
1802.000000	25.006248
1801.000000	24.961095
1800.000000	24.902523
1799.000000	24.828240
1798.000000	24.768523
1797.000000	24.727116
1796.000000	24.687790
1795.000000	24.647840
1794.000000	24.609970
1793.000000	24.558576
1792.000000	24.504061
1791.000000	24.455995
1790.000000	24.399607
1789.000000	24.344780
1788.000000	24.298587
1787.000000	24.231796
1786.000000	24.172286
1785.000000	24.118291
1784.000000	24.062527
1783.000000	24.007804
1782.000000	23.939451
1781.000000	23.854557
1780.000000	23.787349
1779.000000	23.732834
1778.000000	23.657199
1777.000000	23.564710
1776.000000	23.472117
1775.000000	23.388991
1774.000000	23.302224
1773.000000	23.196002
1772.000000	23.091029
1771.000000	22.974612
1770.000000	22.866517
1769.000000	22.763520
1768.000000	22.656778
1767.000000	22.569699
1766.000000	22.477730
1765.000000	22.387946
1764.000000	22.338009
1763.000000	22.306589
1762.000000	22.298371
1761.000000	22.306069
1760.000000	22.327397
1759.000000	22.376919
1758.000000	22.448080
1757.000000	22.531101
1756.000000	22.607985
1755.000000	22.673112
1754.000000	22.709733
1753.000000	22.745418
1752.000000	22.763936
1751.000000	22.765601
1750.000000	22.770595
1749.000000	22.751764
1748.000000	22.701826
1747.000000	22.645334
1746.000000	22.582184
1745.000000	22.504572
1744.000000	22.389299
1743.000000	22.247080
1742.000000	22.093626
1741.000000	21.915618
1740.000000	21.710977
1739.000000	21.505920
1738.000000	21.304816
1737.000000	21.109643
1736.000000	20.934132
1735.000000	20.795659
1734.000000	20.680802
1733.000000	20.627535
1732.000000	20.605999
1731.000000	20.623270
1730.000000	20.684651
1729.000000	20.741664
1728.000000	20.818755
1727.000000	20.904378
1726.000000	21.003525
1725.000000	21.075623
1724.000000	21.142519
1723.000000	21.206397
1722.000000	21.239585
1721.000000	21.266219
1720.000000	21.310747
1719.000000	21.350801
1718.000000	21.405212
1717.000000	21.451197
1716.000000	21.514555
1715.000000	21.589774
1714.000000	21.679350
1713.000000	21.768926
1712.000000	21.826354
1711.000000	21.882430
1710.000000	21.924877
1709.000000	21.942772
1708.000000	21.942876
1707.000000	21.945581
1706.000000	21.922589
1705.000000	21.886592
1704.000000	21.842688
1703.000000	21.776521
1702.000000	21.708792
1701.000000	21.610581
1700.000000	21.451821
1699.000000	21.299615
1698.000000	21.167904
1697.000000	21.025893
1696.000000	20.909268
1695.000000	20.826870
1694.000000	20.782550
1693.000000	20.811057
1692.000000	20.868901
1691.000000	20.980637
1690.000000	21.121295
1689.000000	21.248116
1688.000000	21.328745
1687.000000	21.393872
1686.000000	21.445683
1685.000000	21.475957
1684.000000	21.529537
1683.000000	21.638255
1682.000000	21.816055
1681.000000	22.096435
1680.000000	22.484285
1679.000000	22.931436
1678.000000	23.406886
1677.000000	23.877029
1676.000000	24.350710
1675.000000	24.769147
1674.000000	25.139311
1673.000000	25.476287
1672.000000	25.767487
1671.000000	26.052340
1670.000000	26.240752
1669.000000	26.433844
1668.000000	26.603945
1667.000000	26.761145
1666.000000	26.883597
1665.000000	26.975878
1664.000000	27.069199
1663.000000	27.200806
1662.000000	27.295479
1661.000000	27.343128
1660.000000	27.425214
1659.000000	27.459234
1658.000000	27.515102
1657.000000	27.567848
1656.000000	27.605510
1655.000000	27.636929
1654.000000	27.634224
1653.000000	27.649205
1652.000000	27.651390
1651.000000	27.638178
1650.000000	27.618723
1649.000000	27.591985
1648.000000	27.576380
1647.000000	27.538822
1646.000000	27.503137
1645.000000	27.463915
1644.000000	27.427398
1643.000000	27.387448
1642.000000	27.333349
1641.000000	27.295167
1640.000000	27.226399
1639.000000	27.174796
1638.000000	27.138175
1637.000000	27.063997
1636.000000	27.024047
1635.000000	26.959544
1634.000000	26.884741
1633.000000	26.818677
1632.000000	26.744499
1631.000000	26.685614
1630.000000	26.599263
1629.000000	26.529142
1628.000000	26.444456
1627.000000	26.383386
1626.000000	26.299428
1625.000000	26.211413
1624.000000	26.138691
1623.000000	26.051924
1622.000000	25.992831
1621.000000	25.918445
1620.000000	25.838544
1619.000000	25.761765
1618.000000	25.700487
1617.000000	25.617986
1616.000000	25.544639
1615.000000	25.465259
1614.000000	25.385671
1613.000000	25.322416
1612.000000	25.251983
1611.000000	25.171042
1610.000000	25.115382
1609.000000	25.056393
1608.000000	24.965153
1607.000000	24.893783
1606.000000	24.842597
1605.000000	24.750108
1604.000000	24.681132
1603.000000	24.595925
1602.000000	24.531006
1601.000000	24.456828
1600.000000	24.395342
1599.000000	24.320539
1598.000000	24.248650
1597.000000	24.195383
1596.000000	24.120268
1595.000000	24.039223
1594.000000	23.983251
1593.000000	23.920205
1592.000000	23.867354
1591.000000	23.824282
1590.000000	23.756138
1589.000000	23.718061
1588.000000	23.664689
1587.000000	23.605076
1586.000000	23.551601
1585.000000	23.503536
1584.000000	23.464834
1583.000000	23.423323
1582.000000	23.379004
1581.000000	23.350810
1580.000000	23.323240
1579.000000	23.291196
1578.000000	23.267580
1577.000000	23.242507
1576.000000	23.212960
1575.000000	23.210360
1574.000000	23.193506
1573.000000	23.189136
1572.000000	23.176860
1571.000000	23.175715
1570.000000	23.172490
1569.000000	23.181541
1568.000000	23.180709
1567.000000	23.185287
1566.000000	23.192985
1565.000000	23.211504
1564.000000	23.212960
1563.000000	23.218474
1562.000000	23.213481
1561.000000	23.220659
1560.000000	23.235849
1559.000000	23.241571
1558.000000	23.244692
1557.000000	23.241883
1556.000000	23.254367
1555.000000	23.242611
1554.000000	23.214209
1553.000000	23.196731
1552.000000	23.173322
1551.000000	23.159485
1550.000000	23.168641
1549.000000	23.134204
1548.000000	23.099976
1547.000000	23.074383
1546.000000	23.047958
1545.000000	23.032560
1544.000000	23.016226
1543.000000	22.998748
1542.000000	22.982622
1541.000000	22.973155
1540.000000	22.952452
1539.000000	22.935598
1538.000000	22.921865
1537.000000	22.902202
1536.000000	22.882539
1535.000000	22.871511
1534.000000	22.855385
1533.000000	22.833329
1532.000000	22.806176
1531.000000	22.774340
1530.000000	22.743129
1529.000000	22.705988
1528.000000	22.669887
1527.000000	22.644502
1526.000000	22.620053
1525.000000	22.567514
1524.000000	22.524651
1523.000000	22.479395
1522.000000	22.427897
1521.000000	22.388675
1520.000000	22.344979
1519.000000	22.292232
1518.000000	22.249265
1517.000000	22.193501
1516.000000	22.141275
1515.000000	22.095186
1514.000000	22.033492
1513.000000	21.984491
1512.000000	21.938714
1511.000000	21.876812
1510.000000	21.812621
1509.000000	21.757482
1508.000000	21.700990
1507.000000	21.637319
1506.000000	21.571359
1505.000000	21.511954
1504.000000	21.453277
1503.000000	21.400947
1502.000000	21.349032
1501.000000	21.294517
1500.000000	21.242498
1499.000000	21.191520
1498.000000	21.135236
1497.000000	21.089772
1496.000000	21.043163
1495.000000	20.995618
1494.000000	20.967632
1493.000000	20.935277
1492.000000	20.890645
1491.000000	20.861306
1490.000000	20.828431
1489.000000	20.801485
1488.000000	20.792746
1487.000000	20.775996
1486.000000	20.740415
1485.000000	20.712221
1484.000000	20.680490
1483.000000	20.656874
1482.000000	20.632425
1481.000000	20.630448
1480.000000	20.629408
1479.000000	20.612970
1478.000000	20.595284
1477.000000	20.602982
1476.000000	20.616715
1475.000000	20.623582
1474.000000	20.625662
1473.000000	20.650839
1472.000000	20.671127
1471.000000	20.675808
1470.000000	20.685380
1469.000000	20.690582
1468.000000	20.691518
1467.000000	20.719192
1466.000000	20.770690
1465.000000	20.786296
1464.000000	20.800757
1463.000000	20.842996
1462.000000	20.875976
1461.000000	20.911348
1460.000000	20.953067
1459.000000	21.001861
1458.000000	21.056480
1457.000000	21.099239
1456.000000	21.176227
1455.000000	21.244787
1454.000000	21.319590
1453.000000	21.396681
1452.000000	21.487818
1451.000000	21.581243
1450.000000	21.661664
1449.000000	21.716803
1448.000000	21.793583
1447.000000	21.892418
1446.000000	21.994894
1445.000000	22.084886
1444.000000	22.195478
1443.000000	22.277979
1442.000000	22.381704
1441.000000	22.496873
1440.000000	22.590611
1439.000000	22.710045
1438.000000	22.824278
1437.000000	22.919160
1436.000000	23.041611
1435.000000	23.147521
1434.000000	23.271117
1433.000000	23.397522
1432.000000	23.533707
1431.000000	23.650332
1430.000000	23.786725
1429.000000	23.923222
1428.000000	24.070226
1427.000000	24.242407
1426.000000	24.401584
1425.000000	24.607473
1424.000000	24.812114
1423.000000	25.017796
1422.000000	25.222437
1421.000000	25.422188
1420.000000	25.651902
1419.000000	25.885881
1418.000000	26.117155
1417.000000	26.343748
1416.000000	26.572318
1415.000000	26.836676
1414.000000	27.130269
1413.000000	27.405863
1412.000000	27.652847
1411.000000	27.905553
1410.000000	28.226091
1409.000000	28.584707
1408.000000	28.946236
1407.000000	29.333566
1406.000000	29.685939
1405.000000	30.073685
1404.000000	30.481823
1403.000000	30.854796
1402.000000	31.275106
1401.000000	31.689277
1400.000000	32.120407
1399.000000	32.508153
1398.000000	32.822657
1397.000000	33.092529
1396.000000	33.431898
1395.000000	33.812258
1394.000000	34.118543
1393.000000	34.328386
1392.000000	34.616464
1391.000000	34.925142
1390.000000	35.229971
1389.000000	35.535216
1388.000000	35.937319
1387.000000	36.328082
1386.000000	36.738717
1385.000000	37.217287
1384.000000	37.754015
1383.000000	38.248711
1382.000000	38.785334
1381.000000	39.256726
1380.000000	39.654772
1379.000000	39.890208
1378.000000	40.150092
1377.000000	40.326539
1376.000000	40.529100
1375.000000	40.692438
1374.000000	40.937133
1373.000000	41.187550
1372.000000	41.505175
1371.000000	41.873259
1370.000000	42.231666
1369.000000	42.561672
1368.000000	42.881482
1367.000000	43.166856
1366.000000	43.428301
1365.000000	43.632838
1364.000000	43.857974
1363.000000	44.046489
1362.000000	44.243327
1361.000000	44.431634
1360.000000	44.556271
1359.000000	44.570628
1358.000000	44.685797
1357.000000	44.809705
1356.000000	44.946514
1355.000000	45.213057
1354.000000	45.564390
1353.000000	45.967742
1352.000000	46.358505
1351.000000	46.895336
1350.000000	47.403765
1349.000000	47.858407
1348.000000	48.293803
1347.000000	48.685086
1346.000000	49.092703
1345.000000	49.398676
1344.000000	49.751050
1343.000000	50.132346
1342.000000	50.447162
1341.000000	50.747205
1340.000000	51.074714
1339.000000	51.378190
1338.000000	51.682706
1337.000000	51.956116
1336.000000	52.250541
1335.000000	52.533209
1334.000000	52.798192
1333.000000	53.078780
1332.000000	53.331902
1331.000000	53.565465
1330.000000	53.795179
1329.000000	54.049134
1328.000000	54.282177
1327.000000	54.480992
1326.000000	54.696140
1325.000000	54.885384
1324.000000	55.075355
1323.000000	55.259501
1322.000000	55.435428
1321.000000	55.610522
1320.000000	55.775941
1319.000000	55.918576
1318.000000	56.046021
1317.000000	56.197083
1316.000000	56.330043
1315.000000	56.481000
1314.000000	56.626756
1313.000000	56.739532
1312.000000	56.862088
1311.000000	56.962692
1310.000000	57.068394
1309.000000	57.172327
1308.000000	57.282190
1307.000000	57.358449
1306.000000	57.423472
1305.000000	57.499003
1304.000000	57.579840
1303.000000	57.631963
1302.000000	57.678363
1301.000000	57.719042
1300.000000	57.755871
1299.000000	57.788538
1298.000000	57.809970
1297.000000	57.841493
1296.000000	57.861676
1295.000000	57.877490
1294.000000	57.894864
1293.000000	57.903811
1292.000000	57.901939
1291.000000	57.884565
1290.000000	57.894240
1289.000000	57.878010
1288.000000	57.853249
1287.000000	57.821622
1286.000000	57.773973
1285.000000	57.746507
1284.000000	57.700939
1283.000000	57.631754
1282.000000	57.574222
1281.000000	57.516793
1280.000000	57.451354
1279.000000	57.401728
1278.000000	57.336497
1277.000000	57.278653
1276.000000	57.224657
1275.000000	57.168789
1274.000000	57.120828
1273.000000	57.084623
1272.000000	57.029484
1271.000000	56.999313
1270.000000	56.971119
1269.000000	56.926799
1268.000000	56.888618
1267.000000	56.843361
1266.000000	56.792071
1265.000000	56.737556
1264.000000	56.692924
1263.000000	56.636744
1262.000000	56.591176
1261.000000	56.547584
1260.000000	56.494421
1259.000000	56.447396
1258.000000	56.408070
1257.000000	56.360942
1256.000000	56.294150
1255.000000	56.237033
1254.000000	56.183142
1253.000000	56.116038
1252.000000	56.037906
1251.000000	55.963000
1250.000000	55.893399
1249.000000	55.816620
1248.000000	55.736199
1247.000000	55.639132
1246.000000	55.536552
1245.000000	55.426689
1244.000000	55.326917
1243.000000	55.192293
1242.000000	55.054236
1241.000000	54.936154
1240.000000	54.807772
1239.000000	54.671483
1238.000000	54.529577
1237.000000	54.380492
1236.000000	54.227973
1235.000000	54.084298
1234.000000	53.943432
1233.000000	53.791538
1232.000000	53.617380
1231.000000	53.444158
1230.000000	53.277283
1229.000000	53.118730
1228.000000	52.943844
1227.000000	52.753352
1226.000000	52.585332
1225.000000	52.403267
1224.000000	52.220370
1223.000000	52.041426
1222.000000	51.855200
1221.000000	51.682914
1220.000000	51.517287
1219.000000	51.348955
1218.000000	51.188010
1217.000000	51.034243
1216.000000	50.874546
1215.000000	50.726294
1214.000000	50.573775
1213.000000	50.431348
1212.000000	50.304943
1211.000000	50.171672
1210.000000	50.045475
1209.000000	49.919174
1208.000000	49.802860
1207.000000	49.711100
1206.000000	49.621212
1205.000000	49.524145
1204.000000	49.463804
1203.000000	49.420940
1202.000000	49.373187
1201.000000	49.327619
1200.000000	49.279762
1199.000000	49.220669
1198.000000	49.150860
1197.000000	49.050152
1196.000000	48.912823
1195.000000	48.728157
1194.000000	48.496051
1193.000000	48.198609
1192.000000	47.847276
1191.000000	47.450790
1190.000000	47.028504
1189.000000	46.610171
1188.000000	46.235325
1187.000000	45.958066
1186.000000	45.785469
1185.000000	45.704736
1184.000000	45.774025
1183.000000	45.964933
1182.000000	46.272674
1181.000000	46.688511
1180.000000	47.167185
1179.000000	47.651686
1178.000000	48.144197
1177.000000	48.583442
1176.000000	48.970148
1175.000000	49.328347
1174.000000	49.640979
1173.000000	49.956627
1172.000000	50.283408
1171.000000	50.605611
1170.000000	50.933431
1169.000000	51.281956
1168.000000	51.619036
1167.000000	51.980148
1166.000000	52.365398
1165.000000	52.724742
1164.000000	53.100212
1163.000000	53.472352
1162.000000	53.857393
1161.000000	54.276143
1160.000000	54.641625
1159.000000	55.012933
1158.000000	55.360001
1157.000000	55.749308
1156.000000	56.065476
1155.000000	56.347625
1154.000000	56.599811
1153.000000	56.805492
1152.000000	56.949583
1151.000000	57.066417
1150.000000	57.143717
1149.000000	57.202081
1148.000000	57.244945
1147.000000	57.328174
1146.000000	57.435853
1145.000000	57.595237
1144.000000	57.820998
1143.000000	58.091286
1142.000000	58.407559
1141.000000	58.767735
1140.000000	59.134570
1139.000000	59.508583
1138.000000	59.895289
1137.000000	60.327979
1136.000000	60.762022
1135.000000	61.214791
1134.000000	61.668393
1133.000000	62.107534
1132.000000	62.464173
1131.000000	62.857849
1130.000000	63.200339
1129.000000	63.508601
1128.000000	63.780970
1127.000000	64.001008
1126.000000	64.174438
1125.000000	64.332991
1124.000000	64.450136
1123.000000	64.546059
1122.000000	64.650096
1121.000000	64.724586
1120.000000	64.780662
1119.000000	64.841732
1118.000000	64.879601
1117.000000	64.912061
1116.000000	64.929851
1115.000000	64.935365
1114.000000	64.940047
1113.000000	64.947642
1112.000000	64.942336
1111.000000	64.948058
1110.000000	64.945041
1109.000000	64.937862
1108.000000	64.927667
1107.000000	64.942232
1106.000000	64.906027
1105.000000	64.915182
1104.000000	64.903946
1103.000000	64.897808
1102.000000	64.911021
1101.000000	64.872007
1100.000000	64.857025
1099.000000	64.861395
1098.000000	64.833617
1097.000000	64.826959
1096.000000	64.784095
1095.000000	64.790338
1094.000000	64.731869
1093.000000	64.721569
1092.000000	64.669342
1091.000000	64.628248
1090.000000	64.597349
1089.000000	64.558959
1088.000000	64.544602
1087.000000	64.470528
1086.000000	64.432970
1085.000000	64.380744
1084.000000	64.338817
1083.000000	64.294705
1082.000000	64.242478
1081.000000	64.185050
1080.000000	64.125645
1079.000000	64.086839
1078.000000	64.025249
1077.000000	63.983634
1076.000000	63.941707
1075.000000	63.906439
1074.000000	63.838398
1073.000000	63.786484
1072.000000	63.734569
1071.000000	63.681406
1070.000000	63.635630
1069.000000	63.600257
1068.000000	63.525039
1067.000000	63.483320
1066.000000	63.448884
1065.000000	63.389374
1064.000000	63.339541
1063.000000	63.280552
1062.000000	63.226140
1061.000000	63.171313
1060.000000	63.096406
1059.000000	63.057392
1058.000000	62.998403
1057.000000	62.936813
1056.000000	62.869709
1055.000000	62.827574
1054.000000	62.772851
1053.000000	62.693158
1052.000000	62.628343
1051.000000	62.582567
1050.000000	62.527115
1049.000000	62.488309
1048.000000	62.443157
1047.000000	62.398421
1046.000000	62.356494
1045.000000	62.323306
1044.000000	62.252977
1043.000000	62.225408
1042.000000	62.179839
1041.000000	62.129589
1040.000000	62.095465
1039.000000	62.043967
1038.000000	62.010779
1037.000000	61.963130
1036.000000	61.919955
1035.000000	61.884790
1034.000000	61.831419
1033.000000	61.786267
1032.000000	61.728839
1031.000000	61.680461
1030.000000	61.641655
1029.000000	61.584747
1028.000000	61.537202
1027.000000	61.486536
1026.000000	61.413710
1025.000000	61.364709
1024.000000	61.318828
1023.000000	61.256198
1022.000000	61.197105
1021.000000	61.156114
1020.000000	61.116268
1019.000000	61.080271
1018.000000	61.039177
1017.000000	61.001619
1016.000000	60.982997
1015.000000	60.968640
1014.000000	60.952202
1013.000000	60.960837
1012.000000	60.959172
1011.000000	60.963126
1010.000000	60.981540
1009.000000	61.032206
1008.000000	61.056863
1007.000000	61.080271
1006.000000	61.112315
1005.000000	61.165166
1004.000000	61.201475
1003.000000	61.243610
1002.000000	61.286057
1001.000000	61.324342
1000.000000	61.359299
999.000000	61.400185
998.000000	61.431501
997.000000	61.488825
996.000000	61.528983
995.000000	61.582979
994.000000	61.658093
993.000000	61.704598
992.000000	61.750270
991.000000	61.820599
990.000000	61.891865
989.000000	61.954183
988.000000	62.023263
987.000000	62.103892
986.000000	62.168707
985.000000	62.242574
984.000000	62.330277
983.000000	62.421934
982.000000	62.503291
981.000000	62.579446
980.000000	62.677449
979.000000	62.794906
978.000000	62.878968
977.000000	62.958973
976.000000	63.082673
975.000000	63.205125
974.000000	63.314780
973.000000	63.433278
972.000000	63.540644
971.000000	63.682863
970.000000	63.811765
969.000000	63.935985
968.000000	64.058749
967.000000	64.196806
966.000000	64.341522
965.000000	64.475729
964.000000	64.597245
963.000000	64.740504
962.000000	64.892398
961.000000	65.038986
960.000000	65.178812
959.000000	65.325088
958.000000	65.484369
957.000000	65.647603
956.000000	65.796376
955.000000	65.950455
954.000000	66.108071
953.000000	66.252891
952.000000	66.417061
951.000000	66.585913
950.000000	66.758199
949.000000	66.919873
948.000000	67.071455
947.000000	67.222412
946.000000	67.373162
945.000000	67.539309
944.000000	67.692244
943.000000	67.814591
942.000000	67.950568
941.000000	68.097052
940.000000	68.222937
939.000000	68.341955
938.000000	68.467528
937.000000	68.604233
936.000000	68.742186
935.000000	68.867967
934.000000	68.991459
933.000000	69.125354
932.000000	69.270174
931.000000	69.399388
930.000000	69.522672
929.000000	69.649077
928.000000	69.793585
927.000000	69.916140
926.000000	70.037031
925.000000	70.165621
924.000000	70.301806
923.000000	70.413229
922.000000	70.535057
921.000000	70.659797
920.000000	70.768828
919.000000	70.883061
918.000000	70.995629
917.000000	71.104244
916.000000	71.213795
915.000000	71.309093
914.000000	71.406888
913.000000	71.540575
912.000000	71.652311
911.000000	71.738870
910.000000	71.840514
909.000000	71.943927
908.000000	72.065130
907.000000	72.195697
906.000000	72.300982
905.000000	72.405435
904.000000	72.522061
903.000000	72.639623
902.000000	72.739082
901.000000	72.853939
900.000000	72.964843
899.000000	73.053586
898.000000	73.147012
897.000000	73.249384
896.000000	73.343746
895.000000	73.420525
894.000000	73.463701
893.000000	73.518320
892.000000	73.570755
891.000000	73.623397
890.000000	73.635258
889.000000	73.649303
888.000000	73.682803
887.000000	73.683947
886.000000	73.669486
885.000000	73.662203
884.000000	73.675208
883.000000	73.691334
882.000000	73.657522
881.000000	73.653568
880.000000	73.627247
879.000000	73.604463
878.000000	73.579598
877.000000	73.515927
876.000000	73.496056
875.000000	73.418444
874.000000	73.303483
873.000000	73.157207
872.000000	73.029346
871.000000	72.932487
870.000000	72.938417
869.000000	73.063574
868.000000	73.238460
867.000000	73.345723
866.000000	73.482219
865.000000	73.614970
864.000000	73.749803
863.000000	73.881617
862.000000	74.039962
861.000000	74.175106
860.000000	74.310874
859.000000	74.418969
858.000000	74.554633
857.000000	74.105800
856.000000	74.743000
855.000000	74.815100
854.000000	75.490700
853.000000	75.796600
852.000000	75.331200
851.000000	75.673800
850.000000	75.691500
849.000000	75.545900
848.000000	75.612200
847.000000	75.948300
846.000000	75.689400
845.000000	75.661600
844.000000	75.684500
843.000000	76.066900
842.000000	76.039400
841.000000	75.969800
840.000000	76.162200
839.000000	75.904800
838.000000	76.030800
837.000000	76.536700
836.000000	76.291200
835.000000	76.505700
834.000000	76.691700
833.000000	76.936600
832.000000	76.654400
831.000000	77.119800
830.000000	77.412500
829.000000	77.859200
828.000000	77.896600
827.000000	78.388300
826.000000	78.414600
825.000000	78.641900
824.000000	78.935100
823.000000	79.429900
822.000000	79.609300
821.000000	80.010800
820.000000	80.374100
819.000000	81.233400
818.000000	81.306500
817.000000	81.904500
816.000000	82.388500
815.000000	82.691300
814.000000	83.330700
813.000000	83.756400
812.000000	84.148500
811.000000	84.674800
810.000000	84.928300
809.000000	85.486900
808.000000	86.098200
807.000000	86.475100
806.000000	87.052800
805.000000	87.264700
804.000000	87.667500
803.000000	88.064500
802.000000	88.233200
801.000000	88.588000
800.000000	88.769100
799.000000	89.088600
798.000000	89.311400
797.000000	89.623700
796.000000	89.736900
795.000000	89.867800
794.000000	89.869600
793.000000	89.902700
792.000000	90.083900
791.000000	90.228600
790.000000	90.219100
789.000000	90.414400
788.000000	90.120200
787.000000	90.395800
786.000000	90.495400
785.000000	90.663600
784.000000	90.941700
783.000000	91.017500
782.000000	91.095700
781.000000	91.274300
780.000000	91.603400
779.000000	91.711200
778.000000	91.747900
777.000000	91.909100
776.000000	92.207500
775.000000	92.273700
774.000000	92.444500
773.000000	92.614900
772.000000	92.827000
771.000000	92.942200
770.000000	93.118400
769.000000	93.196300
768.000000	93.173900
767.000000	93.338200
766.000000	93.324800
765.000000	93.185800
764.000000	93.448300
763.000000	93.577500
762.000000	93.406700
761.000000	93.455400
760.000000	93.461300
759.000000	93.422100
758.000000	93.440100
757.000000	93.428000
756.000000	93.402500
755.000000	93.441800
754.000000	93.495800
753.000000	93.418600
752.000000	93.316300
751.000000	93.249400
750.000000	93.338700
749.000000	93.274600
748.000000	93.194600
747.000000	93.195100
746.000000	93.085300
745.000000	93.061100
744.000000	92.843300
743.000000	92.893500
742.000000	92.669800
741.000000	92.642300
740.000000	92.403500
739.000000	92.256500
738.000000	92.063300
737.000000	91.822500
736.000000	91.740200
735.000000	91.373800
734.000000	91.155100
733.000000	90.886900
732.000000	90.667700
731.000000	90.321000
730.000000	89.960000
729.000000	89.659200
728.000000	89.504100
727.000000	89.145400
726.000000	88.595200
725.000000	88.289200
724.000000	87.863200
723.000000	87.362600
722.000000	86.965200
721.000000	86.634400
720.000000	86.237800
719.000000	85.814800
718.000000	85.345900
717.000000	84.905100
716.000000	84.516000
715.000000	84.106700
714.000000	83.725600
713.000000	83.312200
712.000000	82.948700
711.000000	82.741400
710.000000	82.388500
709.000000	82.106400
708.000000	81.850000
707.000000	81.643500
706.000000	81.418100
705.000000	81.287400
704.000000	81.095000
703.000000	80.995900
702.000000	80.854000
701.000000	80.741600
700.000000	80.650800
699.000000	80.604400
698.000000	80.615300
697.000000	80.548300
696.000000	80.423400
695.000000	80.376500
694.000000	80.410100
693.000000	80.318600
692.000000	80.242600
691.000000	80.226200
690.000000	80.115400
689.000000	79.999100
688.000000	79.819600
687.000000	79.604300
686.000000	79.429300
685.000000	79.290900
684.000000	79.020800
683.000000	78.742700
682.000000	78.440000
681.000000	78.122400
680.000000	77.699100
679.000000	77.259600
678.000000	76.820200
677.000000	76.317900
676.000000	75.770300
675.000000	75.242400
674.000000	74.648500
673.000000	74.023800
672.000000	73.370700
671.000000	72.657600
670.000000	71.994000
669.000000	71.325200
668.000000	70.588400
667.000000	69.817000
666.000000	69.013200
665.000000	68.267400
664.000000	67.465900
663.000000	66.650100
662.000000	65.809600
661.000000	64.880600
660.000000	63.966600
659.000000	63.062300
658.000000	62.208000
657.000000	61.310900
656.000000	60.440000
655.000000	59.644500
654.000000	58.880000
653.000000	58.207200
652.000000	57.585800
651.000000	57.101000
650.000000	56.779300
649.000000	56.576200
648.000000	56.536300
647.000000	56.569200
646.000000	56.738300
645.000000	57.050300
644.000000	57.449900
643.000000	57.925100
642.000000	58.511100
641.000000	59.193500
640.000000	59.928600
639.000000	60.764400
638.000000	61.627500
637.000000	62.503600
636.000000	63.425800
635.000000	64.344300
634.000000	65.321900
633.000000	66.331000
632.000000	67.313500
631.000000	68.267000
630.000000	69.305000
629.000000	70.348100
628.000000	71.334100
627.000000	72.333300
626.000000	73.342800
625.000000	74.348300
624.000000	75.327900
623.000000	76.288700
622.000000	77.237200
621.000000	78.143300
620.000000	79.019000
619.000000	79.862900
618.000000	80.676700
617.000000	81.431200
616.000000	82.151900
615.000000	82.843600
614.000000	83.469800
613.000000	84.058200
612.000000	84.619000
611.000000	85.149600
610.000000	85.623100
609.000000	86.042000
608.000000	86.483200
607.000000	86.879700
606.000000	87.256500
605.000000	87.624800
604.000000	87.927300
603.000000	88.233400
602.000000	88.502500
601.000000	88.774900
600.000000	89.028800
599.000000	89.211600
598.000000	89.404500
597.000000	89.618700
596.000000	89.770800
595.000000	89.893900
594.000000	89.997100
593.000000	90.075500
592.000000	90.149300
591.000000	90.266400
590.000000	90.304200
589.000000	90.322400
588.000000	90.316600
587.000000	90.285000
586.000000	90.297900
585.000000	90.256600
584.000000	90.218500
583.000000	90.135100
582.000000	90.065100
581.000000	89.946400
580.000000	89.824700
579.000000	89.609700
578.000000	89.475800
577.000000	89.277800
576.000000	89.060600
575.000000	88.879800
574.000000	88.661300
573.000000	88.425400
572.000000	88.131300
571.000000	87.913600
570.000000	87.617900
569.000000	87.345300
568.000000	87.046900
567.000000	86.766500
566.000000	86.449500
565.000000	86.126400
564.000000	85.783700
563.000000	85.421200
562.000000	85.040000
561.000000	84.647600
560.000000	84.186700
559.000000	83.707000
558.000000	83.219100
557.000000	82.716000
556.000000	82.158600
555.000000	81.600600
554.000000	81.002300
553.000000	80.352800
552.000000	79.722100
551.000000	79.065800
550.000000	78.366600
549.000000	77.598800
548.000000	76.898400
547.000000	76.134300
546.000000	75.296900
545.000000	74.453500
544.000000	73.511000
543.000000	72.573100
542.000000	71.553000
541.000000	70.472700
540.000000	69.424400
539.000000	68.277000
538.000000	67.160800
537.000000	65.957000
536.000000	64.724200
535.000000	63.467300
534.000000	62.188600
533.000000	60.878200
532.000000	59.571000
531.000000	58.317500
530.000000	57.030000
529.000000	55.769600
528.000000	54.550600
527.000000	53.341000
526.000000	52.156800
525.000000	50.964000
524.000000	49.812200
523.000000	48.697100
522.000000	47.587400
521.000000	46.540500
520.000000	45.531300
519.000000	44.543900
518.000000	43.639100
517.000000	42.745900
516.000000	41.890500
515.000000	41.105000
514.000000	40.325000
513.000000	39.557200
512.000000	38.855500
511.000000	38.182000
510.000000	37.520500
509.000000	36.905900
508.000000	36.318900
507.000000	35.750800
506.000000	35.208900
505.000000	34.725700
504.000000	34.228100
503.000000	33.756700
502.000000	33.287100
501.000000	32.818300
500.000000	32.428200
499.000000	32.059100
498.000000	31.665700
497.000000	31.333900
496.000000	31.044900
495.000000	30.765900
494.000000	30.520300
493.000000	30.318100
492.000000	30.063300
491.000000	29.902800
490.000000	29.733700
489.000000	29.595800
488.000000	29.444500
487.000000	29.324200
486.000000	29.204100
485.000000	29.107500
484.000000	29.002800
483.000000	28.936400
482.000000	28.817700
481.000000	28.764900
480.000000	28.708500
479.000000	28.687200
478.000000	28.651500
477.000000	28.628600
476.000000	28.597400
475.000000	28.555700
474.000000	28.546900
473.000000	28.513000
472.000000	28.501200
471.000000	28.443300
470.000000	28.417000
469.000000	28.406800
468.000000	28.352900
467.000000	28.313000
466.000000	28.225400
465.000000	28.203800
464.000000	28.153900
463.000000	28.031600
462.000000	27.975900
461.000000	27.878500
460.000000	27.747300
459.000000	27.645400
458.000000	27.530900
457.000000	27.375400
456.000000	27.212600
455.000000	27.041200
454.000000	26.832100
453.000000	26.656200
452.000000	26.438900
451.000000	26.243600
450.000000	26.010200
449.000000	25.749400
448.000000	25.489400
447.000000	25.229300
446.000000	24.882800
445.000000	24.596000
444.000000	24.297700
443.000000	23.965000
442.000000	23.596300
441.000000	23.287100
440.000000	22.927200
439.000000	22.535300
438.000000	22.125400
437.000000	21.703100
436.000000	21.353000
435.000000	20.931900
434.000000	20.469900
433.000000	20.083200
432.000000	19.631200
431.000000	19.171000
430.000000	18.744900
429.000000	18.292800
428.000000	17.853900
427.000000	17.417100
426.000000	16.969100
425.000000	16.508200
424.000000	16.033900
423.000000	15.607100
422.000000	15.166400
421.000000	14.722100
420.000000	14.322100
419.000000	13.879100
418.000000	13.486300
417.000000	13.108300
416.000000	12.725500
415.000000	12.348700
414.000000	11.981400
413.000000	11.645200
412.000000	11.316400
411.000000	10.990900
410.000000	10.698300
409.000000	10.418300
408.000000	10.138600
407.000000	9.865900
406.000000	9.650100
405.000000	9.412500
404.000000	9.185100
403.000000	8.995500
402.000000	8.768900
401.000000	8.580100
400.000000	8.418300
399.000000	8.261200
398.000000	8.115700
397.000000	7.985900
396.000000	7.881300
395.000000	7.761300
394.000000	7.658500
393.000000	7.535200
392.000000	7.450400
391.000000	7.364700
390.000000	7.281500
389.000000	7.197800
388.000000	7.130000
387.000000	7.064500
386.000000	6.987000
385.000000	6.923500
384.000000	6.876300
383.000000	6.815900
382.000000	6.745700
381.000000	6.709700
380.000000	6.665200
379.000000	6.619700
378.000000	6.576300
377.000000	6.554700
376.000000	6.490400
375.000000	6.470200
374.000000	6.471400
373.000000	6.394400
372.000000	6.414000
371.000000	6.403500
370.000000	6.383400
369.000000	6.336500
368.000000	6.337700
367.000000	6.349600
366.000000	6.304500
365.000000	6.249000
364.000000	6.160800
363.000000	6.118800
362.000000	6.164200
361.000000	6.096100
360.000000	6.089200
359.000000	6.060800
358.000000	6.026700
357.000000	6.005400
356.000000	5.953500
355.000000	5.918200
354.000000	5.884600
353.000000	5.858400
352.000000	5.806700
351.000000	5.750700
350.000000	5.812000
349.000000	5.881800
348.000000	5.830600
347.000000	5.784900
346.000000	5.747100
345.000000	5.727800
344.000000	5.718100
343.000000	5.747600
342.000000	5.785300
341.000000	5.740700
340.000000	5.674200
339.000000	5.675300
338.000000	5.719900
337.000000	5.740600
336.000000	5.701500
335.000000	5.659900
334.000000	5.671700
333.000000	5.731700
332.000000	5.771200
331.000000	5.688400
330.000000	5.705100
329.000000	5.657200
328.000000	5.621600
327.000000	5.704200
326.000000	5.678800
325.000000	5.651100
324.000000	5.750100
323.000000	5.700400
322.000000	5.707300
321.000000	5.867700
320.000000	5.788200
319.000000	5.593800
318.000000	5.517900
317.000000	5.525800
316.000000	5.633500
315.000000	5.715900
314.000000	5.715600
313.000000	5.691600
312.000000	5.727600
311.000000	5.729500
310.000000	5.717300
309.000000	5.730500
308.000000	5.753700
307.000000	5.764300
306.000000	5.753900
305.000000	5.751000
304.000000	5.763100
303.000000	5.763300
302.000000	5.750000
301.000000	5.777800
300.000000	5.794200
299.000000	5.826200
298.000000	5.827200
297.000000	5.828100
296.000000	5.843800
295.000000	5.836000
294.000000	5.850500
293.000000	5.882800
292.000000	5.894200
291.000000	5.901000
290.000000	5.891600
289.000000	5.921600
288.000000	5.935300
287.000000	5.905400
286.000000	5.914300
285.000000	5.935200
284.000000	5.960700
283.000000	5.987700
282.000000	5.995900
281.000000	5.989300
280.000000	6.014800
279.000000	6.023200
278.000000	6.037500
277.000000	6.028300
276.000000	6.054100
275.000000	6.064600
274.000000	6.070100
273.000000	6.086100
272.000000	6.090600
271.000000	6.117100
270.000000	6.128700
269.000000	6.133300
268.000000	6.150600
267.000000	6.161200
266.000000	6.167000
265.000000	6.203600
264.000000	6.237300
263.000000	6.237100
262.000000	6.267100
261.000000	6.295800
260.000000	6.336000
259.000000	6.346600
258.000000	6.325000
257.000000	6.353800
256.000000	6.373400
255.000000	6.405500
254.000000	6.435800
253.000000	6.454100
252.000000	6.428800
251.000000	6.471000
250.000000	6.495000
