PE UV       SUBTECH     SPECTRUM    ASCII       PEDS        4.00        
   -1
CICIMAUCR0261-3.Sample.ASC
24/07/01
14:00:31.00
24/07/01
14:00:31.00
Vinicio Soto Monge
C. resplendens. Sex M. Dorsal.
250,000000
1
Lambda 1050
1050L1511233
PerkinElmer UV WinLab 6.3.2.0749 / 2.02.05 Lambda 900 UV/VIS/NIR, Aug  7 2015 09:38:08

0
0
3350/servo 860,8/2
0
0
UV/VIS
1
1
1
DoubleDePol,CommonBeamDepol,RBeamAtt,SBeamAtt,60mm sphere, WB InGaAs Detector
0
0
0
0
Program
Program
3350/servo 860,8/2
3350/0,2 860,8/0,2
3350/0,2 860,8/0,2
0
15.00
 
 
 
0
 
860,8
319,2
860,8
Front
100
on
S:100 R:100
0
0
0
0
 
0
 
 
 
0
 
 
0
0
0
0
0
 
 
 
 
0
0


0
0
#HDR
-1
-1
#GR
nm
%R
1.0
0.0
2500,000000
-1,000000
2251
8
92,022100
5,605900
#DATA
2482.000000	9.633148
2481.000000	9.583311
2480.000000	9.470611
2479.000000	9.544991
2478.000000	9.577821
2477.000000	9.540578
2476.000000	9.629165
2475.000000	9.569317
2474.000000	9.589661
2473.000000	9.594398
2472.000000	9.572439
2471.000000	9.596228
2470.000000	9.641652
2469.000000	9.603439
2468.000000	9.604731
2467.000000	9.662642
2466.000000	9.621308
2465.000000	9.685031
2464.000000	9.718507
2463.000000	9.714201
2462.000000	9.729809
2461.000000	9.755104
2460.000000	9.794285
2459.000000	9.810001
2458.000000	9.886856
2457.000000	9.929804
2456.000000	9.952947
2455.000000	10.011073
2454.000000	10.082115
2453.000000	10.100952
2452.000000	10.172318
2451.000000	10.222478
2450.000000	10.290076
2449.000000	10.343788
2448.000000	10.392980
2447.000000	10.462731
2446.000000	10.520856
2445.000000	10.576722
2444.000000	10.648948
2443.000000	10.724727
2442.000000	10.768536
2441.000000	10.854110
2440.000000	10.937962
2439.000000	10.983063
2438.000000	11.047540
2437.000000	11.114815
2436.000000	11.170250
2435.000000	11.239032
2434.000000	11.301140
2433.000000	11.340644
2432.000000	11.400384
2431.000000	11.443225
2430.000000	11.507701
2429.000000	11.548820
2428.000000	11.600918
2427.000000	11.664856
2426.000000	11.712433
2425.000000	11.768729
2424.000000	11.819535
2423.000000	11.864098
2422.000000	11.912213
2421.000000	11.955269
2420.000000	11.988207
2419.000000	12.030402
2418.000000	12.055913
2417.000000	12.093372
2416.000000	12.133198
2415.000000	12.172487
2414.000000	12.213928
2413.000000	12.250418
2412.000000	12.288308
2411.000000	12.298857
2410.000000	12.318985
2409.000000	12.365163
2408.000000	12.413493
2407.000000	12.450844
2406.000000	12.457949
2405.000000	12.476786
2404.000000	12.529422
2403.000000	12.580766
2402.000000	12.625437
2401.000000	12.684316
2400.000000	12.706920
2399.000000	12.732969
2398.000000	12.747716
2397.000000	12.786466
2396.000000	12.819297
2395.000000	12.850405
2394.000000	12.880006
2393.000000	12.892061
2392.000000	12.926722
2391.000000	12.962889
2390.000000	12.980865
2389.000000	12.991844
2388.000000	13.035331
2387.000000	13.059227
2386.000000	13.066116
2385.000000	13.086567
2384.000000	13.110356
2383.000000	13.117029
2382.000000	13.122734
2381.000000	13.132314
2380.000000	13.141141
2379.000000	13.146092
2378.000000	13.140926
2377.000000	13.144370
2376.000000	13.154058
2375.000000	13.143617
2374.000000	13.141033
2373.000000	13.153304
2372.000000	13.143509
2371.000000	13.140387
2370.000000	13.130592
2369.000000	13.116491
2368.000000	13.113370
2367.000000	13.100883
2366.000000	13.078064
2365.000000	13.052230
2364.000000	13.028980
2363.000000	12.996365
2362.000000	12.972684
2361.000000	12.937916
2360.000000	12.909714
2359.000000	12.887541
2358.000000	12.860308
2357.000000	12.842547
2356.000000	12.814991
2355.000000	12.788081
2354.000000	12.771827
2353.000000	12.757834
2352.000000	12.744594
2351.000000	12.741796
2350.000000	12.743626
2349.000000	12.756973
2348.000000	12.772258
2347.000000	12.782053
2346.000000	12.805196
2345.000000	12.832106
2344.000000	12.867089
2343.000000	12.901964
2342.000000	12.917895
2341.000000	12.947066
2340.000000	12.977205
2339.000000	13.000670
2338.000000	13.016493
2337.000000	13.029195
2336.000000	13.049862
2335.000000	13.045987
2334.000000	13.044910
2333.000000	13.050831
2332.000000	13.036515
2331.000000	13.013480
2330.000000	12.991736
2329.000000	12.980757
2328.000000	12.966226
2327.000000	12.925538
2326.000000	12.874193
2325.000000	12.824033
2324.000000	12.776241
2323.000000	12.708104
2322.000000	12.638461
2321.000000	12.587978
2320.000000	12.536311
2319.000000	12.459671
2318.000000	12.359673
2317.000000	12.280127
2316.000000	12.218342
2315.000000	12.137073
2314.000000	12.026635
2313.000000	11.931804
2312.000000	11.857317
2311.000000	11.775941
2310.000000	11.695318
2309.000000	11.627182
2308.000000	11.586386
2307.000000	11.559584
2306.000000	11.519434
2305.000000	11.488972
2304.000000	11.474979
2303.000000	11.490371
2302.000000	11.507271
2301.000000	11.517497
2300.000000	11.575192
2299.000000	11.615449
2298.000000	11.675082
2297.000000	11.739666
2296.000000	11.800913
2295.000000	11.858824
2294.000000	11.930081
2293.000000	11.993374
2292.000000	12.038690
2291.000000	12.073781
2290.000000	12.108764
2289.000000	12.146976
2288.000000	12.172810
2287.000000	12.187664
2286.000000	12.203810
2285.000000	12.190032
2284.000000	12.176147
2283.000000	12.135889
2282.000000	12.123295
2281.000000	12.079916
2280.000000	12.056236
2279.000000	12.007582
2278.000000	11.974429
2277.000000	11.923623
2276.000000	11.881751
2275.000000	11.850105
2274.000000	11.820504
2273.000000	11.784229
2272.000000	11.763024
2271.000000	11.718353
2270.000000	11.741711
2269.000000	11.748492
2268.000000	11.746340
2267.000000	11.786059
2266.000000	11.831160
2265.000000	11.907477
2264.000000	12.014687
2263.000000	12.107365
2262.000000	12.222647
2261.000000	12.349986
2260.000000	12.485828
2259.000000	12.658805
2258.000000	12.812085
2257.000000	12.997764
2256.000000	13.178707
2255.000000	13.365571
2254.000000	13.551680
2253.000000	13.725734
2252.000000	13.907108
2251.000000	14.105058
2250.000000	14.276314
2249.000000	14.400208
2248.000000	14.557039
2247.000000	14.692020
2246.000000	14.840241
2245.000000	14.966610
2244.000000	15.068653
2243.000000	15.186950
2242.000000	15.283180
2241.000000	15.388990
2240.000000	15.465415
2239.000000	15.547975
2238.000000	15.604486
2237.000000	15.665518
2236.000000	15.691136
2235.000000	15.749585
2234.000000	15.801575
2233.000000	15.841509
2232.000000	15.893177
2231.000000	15.880690
2230.000000	15.911583
2229.000000	15.905663
2228.000000	15.929774
2227.000000	15.935264
2226.000000	15.939785
2225.000000	15.901465
2224.000000	15.883166
2223.000000	15.888656
2222.000000	15.881336
2221.000000	15.843124
2220.000000	15.784352
2219.000000	15.770359
2218.000000	15.744633
2217.000000	15.716539
2216.000000	15.684678
2215.000000	15.662073
2214.000000	15.612774
2213.000000	15.594045
2212.000000	15.550773
2211.000000	15.531829
2210.000000	15.512023
2209.000000	15.480700
2208.000000	15.456911
2207.000000	15.430001
2206.000000	15.405890
2205.000000	15.387806
2204.000000	15.389959
2203.000000	15.342274
2202.000000	15.345288
2201.000000	15.327420
2200.000000	15.322146
2199.000000	15.306215
2198.000000	15.283718
2197.000000	15.298465
2196.000000	15.275645
2195.000000	15.275537
2194.000000	15.258100
2193.000000	15.256593
2192.000000	15.235280
2191.000000	15.224193
2190.000000	15.223224
2189.000000	15.224085
2188.000000	15.209877
2187.000000	15.200620
2186.000000	15.174248
2185.000000	15.147338
2184.000000	15.180491
2183.000000	15.171126
2182.000000	15.164022
2181.000000	15.151967
2180.000000	15.145185
2179.000000	15.139480
2178.000000	15.140557
2177.000000	15.126133
2176.000000	15.110310
2175.000000	15.134421
2174.000000	15.125272
2173.000000	15.119674
2172.000000	15.136143
2171.000000	15.131730
2170.000000	15.149060
2169.000000	15.172633
2168.000000	15.171880
2167.000000	15.184904
2166.000000	15.207724
2165.000000	15.220749
2164.000000	15.261975
2163.000000	15.286409
2162.000000	15.315149
2161.000000	15.329573
2160.000000	15.361111
2159.000000	15.393511
2158.000000	15.428817
2157.000000	15.474887
2156.000000	15.521495
2155.000000	15.558308
2154.000000	15.599534
2153.000000	15.632365
2152.000000	15.689952
2151.000000	15.738821
2150.000000	15.782738
2149.000000	15.828485
2148.000000	15.871110
2147.000000	15.891239
2146.000000	15.958191
2145.000000	16.024067
2144.000000	16.054852
2143.000000	16.096509
2142.000000	16.126325
2141.000000	16.168197
2140.000000	16.219326
2139.000000	16.250542
2138.000000	16.302209
2137.000000	16.334071
2136.000000	16.356783
2135.000000	16.391551
2134.000000	16.417169
2133.000000	16.430624
2132.000000	16.461840
2131.000000	16.489288
2130.000000	16.488211
2129.000000	16.507264
2128.000000	16.526854
2127.000000	16.534497
2126.000000	16.544077
2125.000000	16.554733
2124.000000	16.559469
2123.000000	16.568403
2122.000000	16.564636
2121.000000	16.563560
2120.000000	16.561084
2119.000000	16.554518
2118.000000	16.538049
2117.000000	16.527070
2116.000000	16.531160
2115.000000	16.500482
2114.000000	16.483583
2113.000000	16.468406
2112.000000	16.438159
2111.000000	16.421259
2110.000000	16.411464
2109.000000	16.391658
2108.000000	16.371745
2107.000000	16.339668
2106.000000	16.309206
2105.000000	16.287570
2104.000000	16.265289
2103.000000	16.236011
2102.000000	16.205225
2101.000000	16.182083
2100.000000	16.156787
2099.000000	16.126756
2098.000000	16.106627
2097.000000	16.079609
2096.000000	16.070891
2095.000000	16.047533
2094.000000	16.016102
2093.000000	15.997265
2092.000000	15.972400
2091.000000	15.961205
2090.000000	15.940538
2089.000000	15.918687
2088.000000	15.897375
2087.000000	15.871003
2086.000000	15.848614
2085.000000	15.832037
2084.000000	15.799207
2083.000000	15.775418
2082.000000	15.750661
2081.000000	15.700178
2080.000000	15.657768
2079.000000	15.640438
2078.000000	15.606100
2077.000000	15.549697
2076.000000	15.512669
2075.000000	15.474241
2074.000000	15.408042
2073.000000	15.357236
2072.000000	15.317948
2071.000000	15.264773
2070.000000	15.201696
2069.000000	15.154873
2068.000000	15.100407
2067.000000	15.034531
2066.000000	14.987600
2065.000000	14.947881
2064.000000	14.884911
2063.000000	14.825494
2062.000000	14.779532
2061.000000	14.743365
2060.000000	14.697402
2059.000000	14.644874
2058.000000	14.611828
2057.000000	14.589547
2056.000000	14.548966
2055.000000	14.520765
2054.000000	14.512799
2053.000000	14.506664
2052.000000	14.510862
2051.000000	14.527761
2050.000000	14.541216
2049.000000	14.564036
2048.000000	14.607630
2047.000000	14.648856
2046.000000	14.676412
2045.000000	14.712364
2044.000000	14.762417
2043.000000	14.824633
2042.000000	14.867151
2041.000000	14.922693
2040.000000	14.983833
2039.000000	15.025597
2038.000000	15.065424
2037.000000	15.116338
2036.000000	15.159717
2035.000000	15.185766
2034.000000	15.219672
2033.000000	15.244968
2032.000000	15.273062
2031.000000	15.300618
2030.000000	15.315364
2029.000000	15.352715
2028.000000	15.363910
2027.000000	15.380810
2026.000000	15.384792
2025.000000	15.383285
2024.000000	15.408688
2023.000000	15.409872
2022.000000	15.400508
2021.000000	15.407504
2020.000000	15.407181
2019.000000	15.404813
2018.000000	15.393296
2017.000000	15.375212
2016.000000	15.373167
2015.000000	15.362295
2014.000000	15.350455
2013.000000	15.318271
2012.000000	15.299541
2011.000000	15.286409
2010.000000	15.257669
2009.000000	15.215905
2008.000000	15.210953
2007.000000	15.165206
2006.000000	15.125272
2005.000000	15.081893
2004.000000	15.062625
2003.000000	15.017955
2002.000000	14.953048
2001.000000	14.902349
2000.000000	14.867474
1999.000000	14.825925
1998.000000	14.763278
1997.000000	14.700308
1996.000000	14.638631
1995.000000	14.582335
1994.000000	14.514737
1993.000000	14.473618
1992.000000	14.398378
1991.000000	14.332394
1990.000000	14.257692
1989.000000	14.221956
1988.000000	14.139503
1987.000000	14.058235
1986.000000	13.994512
1985.000000	13.925622
1984.000000	13.828746
1983.000000	13.772343
1982.000000	13.698071
1981.000000	13.629935
1980.000000	13.568580
1979.000000	13.486558
1978.000000	13.424773
1977.000000	13.332740
1976.000000	13.264389
1975.000000	13.206155
1974.000000	13.130700
1973.000000	13.084522
1972.000000	12.999594
1971.000000	12.941791
1970.000000	12.863322
1969.000000	12.789265
1968.000000	12.714132
1967.000000	12.663757
1966.000000	12.588624
1965.000000	12.519196
1964.000000	12.460747
1963.000000	12.405528
1962.000000	12.355152
1961.000000	12.282065
1960.000000	12.217265
1959.000000	12.151820
1958.000000	12.077225
1957.000000	12.020930
1956.000000	11.959360
1955.000000	11.909845
1954.000000	11.857101
1953.000000	11.794562
1952.000000	11.739020
1951.000000	11.690151
1950.000000	11.645373
1949.000000	11.578744
1948.000000	11.534181
1947.000000	11.490910
1946.000000	11.451944
1945.000000	11.423634
1944.000000	11.395433
1943.000000	11.360665
1942.000000	11.306414
1941.000000	11.311150
1940.000000	11.288654
1939.000000	11.255716
1938.000000	11.252056
1937.000000	11.266372
1936.000000	11.226330
1935.000000	11.259591
1934.000000	11.258084
1933.000000	11.244844
1932.000000	11.270032
1931.000000	11.312227
1930.000000	11.347425
1929.000000	11.401784
1928.000000	11.442364
1927.000000	11.491340
1926.000000	11.569702
1925.000000	11.621369
1924.000000	11.694349
1923.000000	11.777232
1922.000000	11.867758
1921.000000	11.959144
1920.000000	12.088420
1919.000000	12.209408
1918.000000	12.318555
1917.000000	12.428886
1916.000000	12.539755
1915.000000	12.681410
1914.000000	12.826832
1913.000000	12.978389
1912.000000	13.178922
1911.000000	13.349532
1910.000000	13.519926
1909.000000	13.685800
1908.000000	13.848982
1907.000000	14.026266
1906.000000	14.253171
1905.000000	14.484275
1904.000000	14.763170
1903.000000	15.014187
1902.000000	15.251857
1901.000000	15.509439
1900.000000	15.778540
1899.000000	16.080471
1898.000000	16.408558
1897.000000	16.747732
1896.000000	17.039975
1895.000000	17.313381
1894.000000	17.612190
1893.000000	17.933496
1892.000000	18.277083
1891.000000	18.683855
1890.000000	19.111294
1889.000000	19.518820
1888.000000	19.919780
1887.000000	20.334732
1886.000000	20.747102
1885.000000	21.156673
1884.000000	21.608115
1883.000000	22.074413
1882.000000	22.577200
1881.000000	23.007115
1880.000000	23.469967
1879.000000	23.865007
1878.000000	24.258431
1877.000000	24.698357
1876.000000	25.088768
1875.000000	25.480578
1874.000000	25.883582
1873.000000	26.265813
1872.000000	26.615751
1871.000000	26.948897
1870.000000	27.265144
1869.000000	27.543609
1868.000000	27.819275
1867.000000	28.013996
1866.000000	28.198815
1865.000000	28.342299
1864.000000	28.481908
1863.000000	28.615382
1862.000000	28.765648
1861.000000	28.917420
1860.000000	29.085231
1859.000000	29.223441
1858.000000	29.342168
1857.000000	29.447333
1856.000000	29.541195
1855.000000	29.608470
1854.000000	29.668749
1853.000000	29.705131
1852.000000	29.737531
1851.000000	29.794687
1850.000000	29.836344
1849.000000	29.859272
1848.000000	29.921595
1847.000000	29.966804
1846.000000	29.947106
1845.000000	29.912661
1844.000000	29.908571
1843.000000	29.900498
1842.000000	29.939033
1841.000000	29.985318
1840.000000	30.002218
1839.000000	29.996082
1838.000000	29.986718
1837.000000	29.972078
1836.000000	29.956040
1835.000000	29.935373
1834.000000	29.875741
1833.000000	29.819337
1832.000000	29.781878
1831.000000	29.759704
1830.000000	29.740867
1829.000000	29.713204
1828.000000	29.678221
1827.000000	29.620095
1826.000000	29.569935
1825.000000	29.544532
1824.000000	29.498247
1823.000000	29.453791
1822.000000	29.466600
1821.000000	29.477041
1820.000000	29.455298
1819.000000	29.434631
1818.000000	29.392759
1817.000000	29.356592
1816.000000	29.339585
1815.000000	29.328175
1814.000000	29.314182
1813.000000	29.299973
1812.000000	29.287918
1811.000000	29.269619
1810.000000	29.238296
1809.000000	29.205573
1808.000000	29.175757
1807.000000	29.148524
1806.000000	29.124197
1805.000000	29.083724
1804.000000	29.033241
1803.000000	29.004071
1802.000000	28.978345
1801.000000	28.947344
1800.000000	28.911500
1799.000000	28.863385
1798.000000	28.816238
1797.000000	28.776735
1796.000000	28.734432
1795.000000	28.698480
1794.000000	28.663067
1793.000000	28.619149
1792.000000	28.578246
1791.000000	28.539603
1790.000000	28.509033
1789.000000	28.479863
1788.000000	28.451661
1787.000000	28.422814
1786.000000	28.387077
1785.000000	28.344021
1784.000000	28.278576
1783.000000	28.230353
1782.000000	28.193002
1781.000000	28.144564
1780.000000	28.100001
1779.000000	28.059205
1778.000000	28.009260
1777.000000	27.965558
1776.000000	27.917658
1775.000000	27.841449
1774.000000	27.773636
1773.000000	27.724121
1772.000000	27.654586
1771.000000	27.584943
1770.000000	27.524772
1769.000000	27.458681
1768.000000	27.391944
1767.000000	27.327683
1766.000000	27.241032
1765.000000	27.193240
1764.000000	27.142111
1763.000000	27.103899
1762.000000	27.092597
1761.000000	27.089367
1760.000000	27.097548
1759.000000	27.132424
1758.000000	27.169452
1757.000000	27.202282
1756.000000	27.249967
1755.000000	27.291408
1754.000000	27.320686
1753.000000	27.356961
1752.000000	27.383979
1751.000000	27.387854
1750.000000	27.396465
1749.000000	27.405076
1748.000000	27.391729
1747.000000	27.364819
1746.000000	27.325961
1745.000000	27.286241
1744.000000	27.237803
1743.000000	27.179032
1742.000000	27.094104
1741.000000	26.989154
1740.000000	26.876778
1739.000000	26.764079
1738.000000	26.642984
1737.000000	26.523180
1736.000000	26.406821
1735.000000	26.293153
1734.000000	26.216729
1733.000000	26.175933
1732.000000	26.138367
1731.000000	26.127710
1730.000000	26.145579
1729.000000	26.181423
1728.000000	26.227170
1727.000000	26.260108
1726.000000	26.322108
1725.000000	26.394227
1724.000000	26.441266
1723.000000	26.483999
1722.000000	26.536528
1721.000000	26.590025
1720.000000	26.645675
1719.000000	26.703262
1718.000000	26.784315
1717.000000	26.845778
1716.000000	26.905518
1715.000000	26.982481
1714.000000	27.072683
1713.000000	27.150830
1712.000000	27.240279
1711.000000	27.289901
1710.000000	27.370308
1709.000000	27.413257
1708.000000	27.474719
1707.000000	27.476119
1706.000000	27.484514
1705.000000	27.477948
1704.000000	27.459004
1703.000000	27.445764
1702.000000	27.392697
1701.000000	27.343506
1700.000000	27.279245
1699.000000	27.189688
1698.000000	27.111218
1697.000000	27.055246
1696.000000	26.954817
1695.000000	26.905733
1694.000000	26.888080
1693.000000	26.901535
1692.000000	26.925754
1691.000000	26.988078
1690.000000	27.057506
1689.000000	27.166007
1688.000000	27.249536
1687.000000	27.326929
1686.000000	27.384624
1685.000000	27.450285
1684.000000	27.534890
1683.000000	27.608946
1682.000000	27.726812
1681.000000	27.946937
1680.000000	28.175780
1679.000000	28.462318
1678.000000	28.741644
1677.000000	29.068870
1676.000000	29.376613
1675.000000	29.657984
1674.000000	29.892855
1673.000000	30.157758
1672.000000	30.359368
1671.000000	30.515338
1670.000000	30.681427
1669.000000	30.825450
1668.000000	30.944500
1667.000000	31.054508
1666.000000	31.149877
1665.000000	31.237066
1664.000000	31.321886
1663.000000	31.380980
1662.000000	31.448471
1661.000000	31.524142
1660.000000	31.579361
1659.000000	31.614452
1658.000000	31.648359
1657.000000	31.684095
1656.000000	31.724245
1655.000000	31.719078
1654.000000	31.722523
1653.000000	31.713589
1652.000000	31.711436
1651.000000	31.711005
1650.000000	31.692061
1649.000000	31.653633
1648.000000	31.634042
1647.000000	31.599705
1646.000000	31.561708
1645.000000	31.540396
1644.000000	31.508426
1643.000000	31.466231
1642.000000	31.424575
1641.000000	31.383994
1640.000000	31.342122
1639.000000	31.286688
1638.000000	31.263868
1637.000000	31.212847
1636.000000	31.160641
1635.000000	31.110265
1634.000000	31.040945
1633.000000	31.006177
1632.000000	30.931583
1631.000000	30.876040
1630.000000	30.819637
1629.000000	30.760004
1628.000000	30.709306
1627.000000	30.643538
1626.000000	30.573033
1625.000000	30.509203
1624.000000	30.446879
1623.000000	30.402962
1622.000000	30.354739
1621.000000	30.274224
1620.000000	30.215453
1619.000000	30.161310
1618.000000	30.124927
1617.000000	30.058621
1616.000000	30.004155
1615.000000	29.972078
1614.000000	29.916106
1613.000000	29.855181
1612.000000	29.800500
1611.000000	29.751954
1610.000000	29.711266
1609.000000	29.647759
1608.000000	29.594800
1607.000000	29.547869
1606.000000	29.495771
1605.000000	29.423006
1604.000000	29.365526
1603.000000	29.317088
1602.000000	29.274463
1601.000000	29.197608
1600.000000	29.146156
1599.000000	29.104284
1598.000000	29.060797
1597.000000	29.000196
1596.000000	28.939056
1595.000000	28.891694
1594.000000	28.847777
1593.000000	28.811179
1592.000000	28.767693
1591.000000	28.718071
1590.000000	28.670709
1589.000000	28.630774
1588.000000	28.584382
1587.000000	28.531638
1586.000000	28.513447
1585.000000	28.471575
1584.000000	28.421845
1583.000000	28.380188
1582.000000	28.345420
1581.000000	28.320771
1580.000000	28.289125
1579.000000	28.272656
1578.000000	28.241871
1577.000000	28.206457
1576.000000	28.184714
1575.000000	28.167707
1574.000000	28.141550
1573.000000	28.124328
1572.000000	28.116470
1571.000000	28.103876
1570.000000	28.080303
1569.000000	28.059421
1568.000000	28.056084
1567.000000	28.048226
1566.000000	28.051993
1565.000000	28.046288
1564.000000	28.034448
1563.000000	28.012274
1562.000000	27.999357
1561.000000	28.000218
1560.000000	27.975354
1559.000000	27.960499
1558.000000	27.946937
1557.000000	27.908724
1556.000000	27.883429
1555.000000	27.851998
1554.000000	27.828963
1553.000000	27.788490
1552.000000	27.754368
1551.000000	27.719708
1550.000000	27.674499
1549.000000	27.612499
1548.000000	27.575901
1547.000000	27.544255
1546.000000	27.495063
1545.000000	27.449854
1544.000000	27.413687
1543.000000	27.366971
1542.000000	27.327360
1541.000000	27.284950
1540.000000	27.256963
1539.000000	27.215845
1538.000000	27.174726
1537.000000	27.145556
1536.000000	27.109711
1535.000000	27.075912
1534.000000	27.027044
1533.000000	26.993891
1532.000000	26.951911
1531.000000	26.894323
1530.000000	26.847285
1529.000000	26.811333
1528.000000	26.758912
1527.000000	26.700679
1526.000000	26.651810
1525.000000	26.599928
1524.000000	26.545354
1523.000000	26.478294
1522.000000	26.416939
1521.000000	26.370762
1520.000000	26.311775
1519.000000	26.258170
1518.000000	26.208010
1517.000000	26.142349
1516.000000	26.082717
1515.000000	26.018348
1514.000000	25.957316
1513.000000	25.903496
1512.000000	25.846339
1511.000000	25.774328
1510.000000	25.710174
1509.000000	25.654201
1508.000000	25.600166
1507.000000	25.543762
1506.000000	25.475411
1505.000000	25.413841
1504.000000	25.350548
1503.000000	25.290378
1502.000000	25.230422
1501.000000	25.162501
1500.000000	25.113309
1499.000000	25.073375
1498.000000	25.020524
1497.000000	24.971763
1496.000000	24.928061
1495.000000	24.883067
1494.000000	24.841303
1493.000000	24.805136
1492.000000	24.765094
1491.000000	24.726881
1490.000000	24.707614
1489.000000	24.677797
1488.000000	24.640877
1487.000000	24.622147
1486.000000	24.599758
1485.000000	24.556164
1484.000000	24.515691
1483.000000	24.508479
1482.000000	24.489212
1481.000000	24.465316
1480.000000	24.450784
1479.000000	24.433992
1478.000000	24.428395
1477.000000	24.434208
1476.000000	24.417846
1475.000000	24.397287
1474.000000	24.395565
1473.000000	24.391152
1472.000000	24.407836
1471.000000	24.429687
1470.000000	24.422906
1469.000000	24.424628
1468.000000	24.434961
1467.000000	24.436468
1466.000000	24.449170
1465.000000	24.476295
1464.000000	24.480062
1463.000000	24.482538
1462.000000	24.514292
1461.000000	24.542063
1460.000000	24.565529
1459.000000	24.591685
1458.000000	24.630651
1457.000000	24.675214
1456.000000	24.713319
1455.000000	24.749916
1454.000000	24.810518
1453.000000	24.861754
1452.000000	24.918804
1451.000000	24.989308
1450.000000	25.057121
1449.000000	25.117830
1448.000000	25.157550
1447.000000	25.199745
1446.000000	25.286933
1445.000000	25.372830
1444.000000	25.449793
1443.000000	25.488220
1442.000000	25.540641
1441.000000	25.638701
1440.000000	25.711358
1439.000000	25.799300
1438.000000	25.881214
1437.000000	25.984334
1436.000000	26.043643
1435.000000	26.136644
1434.000000	26.248913
1433.000000	26.356230
1432.000000	26.466669
1431.000000	26.575278
1430.000000	26.698418
1429.000000	26.802291
1428.000000	26.953418
1427.000000	27.107020
1426.000000	27.206480
1425.000000	27.391729
1424.000000	27.555880
1423.000000	27.750170
1422.000000	27.881168
1421.000000	28.094296
1420.000000	28.288586
1419.000000	28.519367
1418.000000	28.747133
1417.000000	28.939164
1416.000000	29.119784
1415.000000	29.379519
1414.000000	29.647974
1413.000000	29.925470
1412.000000	30.167338
1411.000000	30.429011
1410.000000	30.710705
1409.000000	31.050848
1408.000000	31.384102
1407.000000	31.718109
1406.000000	32.058468
1405.000000	32.401732
1404.000000	32.773091
1403.000000	33.085678
1402.000000	33.455637
1401.000000	33.856166
1400.000000	34.274133
1399.000000	34.666481
1398.000000	34.968627
1397.000000	35.254734
1396.000000	35.639010
1395.000000	36.058806
1394.000000	36.446957
1393.000000	36.729189
1392.000000	37.056738
1391.000000	37.445534
1390.000000	37.820768
1389.000000	38.180824
1388.000000	38.608048
1387.000000	39.083495
1386.000000	39.500923
1385.000000	39.964745
1384.000000	40.454184
1383.000000	40.928016
1382.000000	41.420793
1381.000000	41.861902
1380.000000	42.227448
1379.000000	42.401825
1378.000000	42.724531
1377.000000	42.911932
1376.000000	43.114619
1375.000000	43.318597
1374.000000	43.516977
1373.000000	43.719449
1372.000000	44.007601
1371.000000	44.241934
1370.000000	44.508882
1369.000000	44.749027
1368.000000	44.987342
1367.000000	45.199285
1366.000000	45.395944
1365.000000	45.581193
1364.000000	45.747712
1363.000000	45.898516
1362.000000	46.078275
1361.000000	46.229832
1360.000000	46.337365
1359.000000	46.400227
1358.000000	46.466856
1357.000000	46.534562
1356.000000	46.630146
1355.000000	46.789023
1354.000000	47.003334
1353.000000	47.229379
1352.000000	47.442183
1351.000000	47.744545
1350.000000	48.058746
1349.000000	48.341947
1348.000000	48.628270
1347.000000	48.882193
1346.000000	49.141283
1345.000000	49.363775
1344.000000	49.619959
1343.000000	49.874743
1342.000000	50.131357
1341.000000	50.338242
1340.000000	50.597009
1339.000000	50.822407
1338.000000	51.040486
1337.000000	51.281170
1336.000000	51.516040
1335.000000	51.722602
1334.000000	51.935084
1333.000000	52.140569
1332.000000	52.354665
1331.000000	52.560580
1330.000000	52.762621
1329.000000	52.936783
1328.000000	53.117080
1327.000000	53.304589
1326.000000	53.476383
1325.000000	53.640104
1324.000000	53.814481
1323.000000	53.983153
1322.000000	54.122547
1321.000000	54.265493
1320.000000	54.410807
1319.000000	54.554830
1318.000000	54.681414
1317.000000	54.803909
1316.000000	54.945025
1315.000000	55.054065
1314.000000	55.182156
1313.000000	55.293672
1312.000000	55.403895
1311.000000	55.508198
1310.000000	55.611318
1309.000000	55.696246
1308.000000	55.778698
1307.000000	55.851248
1306.000000	55.925735
1305.000000	56.002482
1304.000000	56.070188
1303.000000	56.124977
1302.000000	56.185255
1301.000000	56.239183
1300.000000	56.294402
1299.000000	56.330569
1298.000000	56.347361
1297.000000	56.370934
1296.000000	56.392462
1295.000000	56.424109
1294.000000	56.449189
1293.000000	56.455539
1292.000000	56.467380
1291.000000	56.466734
1290.000000	56.471147
1289.000000	56.473623
1288.000000	56.458230
1287.000000	56.440147
1286.000000	56.428091
1285.000000	56.400966
1284.000000	56.391601
1283.000000	56.355219
1282.000000	56.319913
1281.000000	56.286867
1280.000000	56.241658
1279.000000	56.211627
1278.000000	56.169217
1277.000000	56.117657
1276.000000	56.083966
1275.000000	56.063837
1274.000000	56.041663
1273.000000	55.989565
1272.000000	55.946617
1271.000000	55.928749
1270.000000	55.901085
1269.000000	55.870085
1268.000000	55.839945
1267.000000	55.810129
1266.000000	55.781820
1265.000000	55.754264
1264.000000	55.720250
1263.000000	55.693770
1262.000000	55.659648
1261.000000	55.613578
1260.000000	55.580102
1259.000000	55.551900
1258.000000	55.505077
1257.000000	55.456101
1256.000000	55.427791
1255.000000	55.380430
1254.000000	55.349214
1253.000000	55.325318
1252.000000	55.254491
1251.000000	55.203146
1250.000000	55.164396
1249.000000	55.112298
1248.000000	55.056971
1247.000000	54.978609
1246.000000	54.917146
1245.000000	54.858698
1244.000000	54.784318
1243.000000	54.710047
1242.000000	54.629640
1241.000000	54.539760
1240.000000	54.466780
1239.000000	54.388203
1238.000000	54.306181
1237.000000	54.230295
1236.000000	54.145689
1235.000000	54.053334
1234.000000	53.955705
1233.000000	53.861196
1232.000000	53.767657
1231.000000	53.652805
1230.000000	53.539029
1229.000000	53.433757
1228.000000	53.324610
1227.000000	53.213095
1226.000000	53.091139
1225.000000	52.969505
1224.000000	52.847872
1223.000000	52.733773
1222.000000	52.607081
1221.000000	52.486309
1220.000000	52.371995
1219.000000	52.242181
1218.000000	52.102141
1217.000000	51.980615
1216.000000	51.877065
1215.000000	51.773839
1214.000000	51.668351
1213.000000	51.546395
1212.000000	51.424762
1211.000000	51.320458
1210.000000	51.214540
1209.000000	51.102379
1208.000000	50.999045
1207.000000	50.901953
1206.000000	50.811858
1205.000000	50.721548
1204.000000	50.646631
1203.000000	50.578495
1202.000000	50.512834
1201.000000	50.460736
1200.000000	50.396583
1199.000000	50.338565
1198.000000	50.273335
1197.000000	50.190990
1196.000000	50.080121
1195.000000	49.979154
1194.000000	49.852677
1193.000000	49.674856
1192.000000	49.475398
1191.000000	49.254521
1190.000000	49.005657
1189.000000	48.773046
1188.000000	48.544742
1187.000000	48.357555
1186.000000	48.228495
1185.000000	48.169831
1184.000000	48.180164
1183.000000	48.255835
1182.000000	48.397167
1181.000000	48.593825
1180.000000	48.833863
1179.000000	49.105009
1178.000000	49.377984
1177.000000	49.625018
1176.000000	49.865917
1175.000000	50.073662
1174.000000	50.260203
1173.000000	50.434257
1172.000000	50.612186
1171.000000	50.795067
1170.000000	50.988496
1169.000000	51.173852
1168.000000	51.355764
1167.000000	51.561787
1166.000000	51.748435
1165.000000	51.952736
1164.000000	52.161020
1163.000000	52.381467
1162.000000	52.598577
1161.000000	52.806323
1160.000000	53.014714
1159.000000	53.240220
1158.000000	53.438278
1157.000000	53.646347
1156.000000	53.823522
1155.000000	53.999622
1154.000000	54.162051
1153.000000	54.318129
1152.000000	54.425554
1151.000000	54.519416
1150.000000	54.610695
1149.000000	54.681199
1148.000000	54.753533
1147.000000	54.826621
1146.000000	54.908428
1145.000000	55.028231
1144.000000	55.158583
1143.000000	55.304005
1142.000000	55.475261
1141.000000	55.652867
1140.000000	55.879234
1139.000000	56.088271
1138.000000	56.300430
1137.000000	56.538315
1136.000000	56.788255
1135.000000	57.056172
1134.000000	57.293195
1133.000000	57.549917
1132.000000	57.735166
1131.000000	57.939574
1130.000000	58.100389
1129.000000	58.265509
1128.000000	58.391663
1127.000000	58.493921
1126.000000	58.574759
1125.000000	58.657749
1124.000000	58.692732
1123.000000	58.768726
1122.000000	58.782935
1121.000000	58.798758
1120.000000	58.800911
1119.000000	58.794452
1118.000000	58.784765
1117.000000	58.792945
1116.000000	58.786272
1115.000000	58.756671
1114.000000	58.742032
1113.000000	58.679708
1112.000000	58.654951
1111.000000	58.632023
1110.000000	58.604360
1109.000000	58.565717
1108.000000	58.537192
1107.000000	58.511036
1106.000000	58.479390
1105.000000	58.433966
1104.000000	58.397153
1103.000000	58.364107
1102.000000	58.314808
1101.000000	58.304582
1100.000000	58.251515
1099.000000	58.229665
1098.000000	58.165726
1097.000000	58.137525
1096.000000	58.070680
1095.000000	58.043770
1094.000000	57.974342
1093.000000	57.913202
1092.000000	57.856261
1091.000000	57.809007
1090.000000	57.762829
1089.000000	57.699967
1088.000000	57.631508
1087.000000	57.578442
1086.000000	57.531726
1085.000000	57.484902
1084.000000	57.399328
1083.000000	57.350998
1082.000000	57.275435
1081.000000	57.231948
1080.000000	57.183725
1079.000000	57.100412
1078.000000	57.072641
1077.000000	57.000306
1076.000000	56.931632
1075.000000	56.891913
1074.000000	56.837447
1073.000000	56.777814
1072.000000	56.705265
1071.000000	56.648431
1070.000000	56.605052
1069.000000	56.539929
1068.000000	56.475130
1067.000000	56.447359
1066.000000	56.362323
1065.000000	56.325618
1064.000000	56.266200
1063.000000	56.200432
1062.000000	56.143814
1061.000000	56.093330
1060.000000	56.028316
1059.000000	55.952752
1058.000000	55.881817
1057.000000	55.816049
1056.000000	55.766858
1055.000000	55.693555
1054.000000	55.628110
1053.000000	55.564494
1052.000000	55.486886
1051.000000	55.420041
1050.000000	55.339311
1049.000000	55.278387
1048.000000	55.219615
1047.000000	55.136086
1046.000000	55.056325
1045.000000	54.989696
1044.000000	54.938890
1043.000000	54.857944
1042.000000	54.778721
1041.000000	54.706818
1040.000000	54.631469
1039.000000	54.558166
1038.000000	54.473992
1037.000000	54.410915
1036.000000	54.316407
1035.000000	54.248701
1034.000000	54.172599
1033.000000	54.108876
1032.000000	54.032452
1031.000000	53.960441
1030.000000	53.873790
1029.000000	53.805654
1028.000000	53.740101
1027.000000	53.660448
1026.000000	53.598124
1025.000000	53.535477
1024.000000	53.468095
1023.000000	53.413090
1022.000000	53.345385
1021.000000	53.290381
1020.000000	53.254106
1019.000000	53.199532
1018.000000	53.155400
1017.000000	53.123323
1016.000000	53.097167
1015.000000	53.070041
1014.000000	53.053788
1013.000000	53.029892
1012.000000	53.002013
1011.000000	52.988881
1010.000000	52.997061
1009.000000	52.988127
1008.000000	52.971658
1007.000000	52.964339
1006.000000	52.965630
1005.000000	52.970044
1004.000000	52.964554
1003.000000	52.964662
1002.000000	52.938936
1001.000000	52.940550
1000.000000	52.940335
999.000000	52.919991
998.000000	52.911810
997.000000	52.872629
996.000000	52.850025
995.000000	52.839691
994.000000	52.819347
993.000000	52.800187
992.000000	52.779521
991.000000	52.759392
990.000000	52.740770
989.000000	52.720103
988.000000	52.686197
987.000000	52.673818
986.000000	52.668113
985.000000	52.654658
984.000000	52.643894
983.000000	52.646693
982.000000	52.649491
981.000000	52.643894
980.000000	52.650998
979.000000	52.663269
978.000000	52.692224
977.000000	52.709554
976.000000	52.737971
975.000000	52.782212
974.000000	52.826129
973.000000	52.873275
972.000000	52.918376
971.000000	52.969075
970.000000	53.034520
969.000000	53.094476
968.000000	53.164872
967.000000	53.226765
966.000000	53.298669
965.000000	53.374878
964.000000	53.446351
963.000000	53.536984
962.000000	53.634829
961.000000	53.711254
960.000000	53.779067
959.000000	53.865179
958.000000	53.963132
957.000000	54.046445
956.000000	54.117272
955.000000	54.204138
954.000000	54.273996
953.000000	54.342886
952.000000	54.422432
951.000000	54.489384
950.000000	54.579264
949.000000	54.671081
948.000000	54.744061
947.000000	54.845135
946.000000	54.961817
945.000000	55.042009
944.000000	55.136409
943.000000	55.258473
942.000000	55.359225
941.000000	55.468049
940.000000	55.602599
939.000000	55.740916
938.000000	55.879665
937.000000	55.999576
936.000000	56.140369
935.000000	56.303444
934.000000	56.473515
933.000000	56.648000
932.000000	56.811290
931.000000	56.970275
930.000000	57.128936
929.000000	57.312893
928.000000	57.484687
927.000000	57.660894
926.000000	57.843667
925.000000	58.022780
924.000000	58.197480
923.000000	58.369920
922.000000	58.547526
921.000000	58.722011
920.000000	58.895742
919.000000	59.090786
918.000000	59.258704
917.000000	59.440616
916.000000	59.633723
915.000000	59.800888
914.000000	59.974296
913.000000	60.146090
912.000000	60.308627
911.000000	60.490969
910.000000	60.676433
909.000000	60.866095
908.000000	61.060601
907.000000	61.256290
906.000000	61.460376
905.000000	61.653267
904.000000	61.844544
903.000000	62.061869
902.000000	62.285330
901.000000	62.505132
900.000000	62.742478
899.000000	62.977241
898.000000	63.211251
897.000000	63.453979
896.000000	63.699937
895.000000	63.948371
894.000000	64.185071
893.000000	64.433074
892.000000	64.686029
891.000000	64.914764
890.000000	65.145652
889.000000	65.382461
888.000000	65.655328
887.000000	65.906130
886.000000	66.145952
885.000000	66.377163
884.000000	66.625166
883.000000	66.881350
882.000000	67.133551
881.000000	67.375526
880.000000	67.621160
879.000000	67.864212
878.000000	68.121257
877.000000	68.365385
876.000000	68.618554
875.000000	68.829206
874.000000	69.010580
873.000000	69.179898
872.000000	69.327257
871.000000	69.480106
870.000000	69.693233
869.000000	70.001623
868.000000	70.351561
867.000000	70.737343
866.000000	71.125493
865.000000	71.488671
864.000000	71.854648
863.000000	72.255930
862.000000	72.653876
861.000000	73.050530
860.000000	73.440080
859.000000	73.833182
858.000000	74.281933
857.000000	73.203400
856.000000	74.681000
855.000000	74.961400
854.000000	74.818100
853.000000	75.565300
852.000000	76.160100
851.000000	76.397700
850.000000	76.549100
849.000000	76.959300
848.000000	77.633000
847.000000	78.168800
846.000000	78.602100
845.000000	79.080100
844.000000	79.337300
843.000000	80.238200
842.000000	80.861500
841.000000	81.078700
840.000000	81.717700
839.000000	82.015200
838.000000	82.400000
837.000000	82.761800
836.000000	83.343600
835.000000	83.658400
834.000000	83.987900
833.000000	84.256400
832.000000	84.615500
831.000000	84.908700
830.000000	85.378200
829.000000	85.466400
828.000000	85.865300
827.000000	85.787600
826.000000	85.849000
825.000000	86.040000
824.000000	86.198500
823.000000	86.170300
822.000000	86.390100
821.000000	86.449300
820.000000	86.427000
819.000000	86.284100
818.000000	86.585200
817.000000	86.596900
816.000000	86.481100
815.000000	86.574200
814.000000	86.535500
813.000000	86.448100
812.000000	86.569400
811.000000	86.761300
810.000000	87.077500
809.000000	87.190600
808.000000	87.204300
807.000000	87.379700
806.000000	87.727800
805.000000	87.912200
804.000000	88.092700
803.000000	88.332500
802.000000	88.759500
801.000000	89.088500
800.000000	89.508600
799.000000	89.682400
798.000000	89.795600
797.000000	90.034800
796.000000	90.156300
795.000000	90.415300
794.000000	90.857600
793.000000	90.711200
792.000000	90.867800
791.000000	91.048200
790.000000	91.041900
789.000000	91.038500
788.000000	90.894900
787.000000	90.780300
786.000000	90.870100
785.000000	90.799900
784.000000	90.745000
783.000000	90.401500
782.000000	90.426700
781.000000	90.128400
780.000000	89.818200
779.000000	89.457800
778.000000	89.303500
777.000000	88.981300
776.000000	88.750400
775.000000	88.532900
774.000000	88.081100
773.000000	88.129500
772.000000	87.738100
771.000000	87.428800
770.000000	87.364400
769.000000	87.111700
768.000000	87.014200
767.000000	86.936200
766.000000	86.818200
765.000000	86.608200
764.000000	86.694900
763.000000	86.709900
762.000000	86.653300
761.000000	86.661600
760.000000	86.624900
759.000000	86.549000
758.000000	86.615400
757.000000	86.483000
756.000000	86.460500
755.000000	86.436700
754.000000	86.222400
753.000000	86.144600
752.000000	85.966200
751.000000	85.846300
750.000000	85.592900
749.000000	85.385900
748.000000	85.206400
747.000000	84.836500
746.000000	84.463900
745.000000	84.004100
744.000000	83.674100
743.000000	83.341700
742.000000	82.833800
741.000000	82.369600
740.000000	81.885500
739.000000	81.443700
738.000000	81.058700
737.000000	80.553000
736.000000	80.083700
735.000000	79.747500
734.000000	79.252400
733.000000	78.907700
732.000000	78.506800
731.000000	78.109600
730.000000	77.705200
729.000000	77.351600
728.000000	77.060900
727.000000	76.783700
726.000000	76.480100
725.000000	76.209000
724.000000	75.953700
723.000000	75.713700
722.000000	75.520700
721.000000	75.375200
720.000000	75.188800
719.000000	75.030800
718.000000	74.910900
717.000000	74.778100
716.000000	74.602500
715.000000	74.480300
714.000000	74.416500
713.000000	74.303800
712.000000	74.242000
711.000000	74.152200
710.000000	74.124500
709.000000	74.159600
708.000000	74.086600
707.000000	74.131100
706.000000	74.182700
705.000000	74.159500
704.000000	74.245400
703.000000	74.287700
702.000000	74.366600
701.000000	74.390300
700.000000	74.423600
699.000000	74.443900
698.000000	74.442600
697.000000	74.431500
696.000000	74.279100
695.000000	74.158900
694.000000	74.033400
693.000000	73.872200
692.000000	73.657400
691.000000	73.380100
690.000000	73.118400
689.000000	72.830200
688.000000	72.500600
687.000000	72.140100
686.000000	71.814000
685.000000	71.402800
684.000000	71.008500
683.000000	70.609800
682.000000	70.093400
681.000000	69.586200
680.000000	69.004600
679.000000	68.448200
678.000000	67.830900
677.000000	67.208700
676.000000	66.628000
675.000000	65.997800
674.000000	65.270500
673.000000	64.628900
672.000000	64.005700
671.000000	63.342500
670.000000	62.611900
669.000000	61.911100
668.000000	61.263700
667.000000	60.637900
666.000000	60.022300
665.000000	59.432000
664.000000	58.846200
663.000000	58.306800
662.000000	57.759400
661.000000	57.222400
660.000000	56.770300
659.000000	56.388600
658.000000	56.024200
657.000000	55.694600
656.000000	55.441000
655.000000	55.312100
654.000000	55.244200
653.000000	55.284600
652.000000	55.520500
651.000000	55.844100
650.000000	56.228900
649.000000	56.740300
648.000000	57.386000
647.000000	58.082500
646.000000	58.858600
645.000000	59.677300
644.000000	60.537900
643.000000	61.434000
642.000000	62.338000
641.000000	63.259700
640.000000	64.178800
639.000000	65.153000
638.000000	66.176900
637.000000	67.241600
636.000000	68.257000
635.000000	69.259900
634.000000	70.316500
633.000000	71.414000
632.000000	72.514900
631.000000	73.550500
630.000000	74.592800
629.000000	75.667300
628.000000	76.684700
627.000000	77.632300
626.000000	78.530400
625.000000	79.385600
624.000000	80.242600
623.000000	81.045600
622.000000	81.811000
621.000000	82.550800
620.000000	83.255200
619.000000	83.927900
618.000000	84.587500
617.000000	85.193500
616.000000	85.794200
615.000000	86.379000
614.000000	86.896200
613.000000	87.401500
612.000000	87.881600
611.000000	88.375300
610.000000	88.727600
609.000000	89.058700
608.000000	89.442700
607.000000	89.771500
606.000000	90.018500
605.000000	90.294200
604.000000	90.489400
603.000000	90.690200
602.000000	90.867100
601.000000	91.016700
600.000000	91.164700
599.000000	91.285700
598.000000	91.455700
597.000000	91.598500
596.000000	91.667900
595.000000	91.738900
594.000000	91.796900
593.000000	91.879300
592.000000	91.924100
591.000000	91.927600
590.000000	91.979900
589.000000	91.985300
588.000000	92.022100
587.000000	91.959300
586.000000	91.923900
585.000000	91.872700
584.000000	91.782400
583.000000	91.723500
582.000000	91.696100
581.000000	91.573600
580.000000	91.429500
579.000000	91.287200
578.000000	91.124300
577.000000	90.970300
576.000000	90.818900
575.000000	90.665100
574.000000	90.451400
573.000000	90.253200
572.000000	90.052600
571.000000	89.867400
570.000000	89.670200
569.000000	89.447400
568.000000	89.210000
567.000000	88.944400
566.000000	88.658300
565.000000	88.385800
564.000000	88.105600
563.000000	87.778500
562.000000	87.390400
561.000000	87.039300
560.000000	86.616300
559.000000	86.149600
558.000000	85.649600
557.000000	85.158100
556.000000	84.615700
555.000000	84.139900
554.000000	83.581700
553.000000	82.989300
552.000000	82.393800
551.000000	81.741200
550.000000	81.069400
549.000000	80.272900
548.000000	79.525500
547.000000	78.722100
546.000000	77.819000
545.000000	76.910300
544.000000	75.876000
543.000000	74.860700
542.000000	73.774300
541.000000	72.608800
540.000000	71.413800
539.000000	70.178400
538.000000	68.892700
537.000000	67.575900
536.000000	66.227100
535.000000	64.858800
534.000000	63.471200
533.000000	62.061100
532.000000	60.688400
531.000000	59.282700
530.000000	57.889600
529.000000	56.528100
528.000000	55.184900
527.000000	53.882300
526.000000	52.594500
525.000000	51.348100
524.000000	50.139600
523.000000	48.925600
522.000000	47.763300
521.000000	46.620800
520.000000	45.545300
519.000000	44.547800
518.000000	43.584700
517.000000	42.653300
516.000000	41.775700
515.000000	40.945000
514.000000	40.137500
513.000000	39.381800
512.000000	38.668000
511.000000	37.972300
510.000000	37.307500
509.000000	36.648100
508.000000	36.014400
507.000000	35.392300
506.000000	34.784200
505.000000	34.214800
504.000000	33.610700
503.000000	33.060700
502.000000	32.565200
501.000000	32.032600
500.000000	31.599600
499.000000	31.185400
498.000000	30.819700
497.000000	30.547400
496.000000	30.282200
495.000000	30.050300
494.000000	29.889500
493.000000	29.825800
492.000000	29.755700
491.000000	29.731200
490.000000	29.774000
489.000000	29.861500
488.000000	29.937800
487.000000	30.076200
486.000000	30.215000
485.000000	30.335000
484.000000	30.496000
483.000000	30.578900
482.000000	30.641900
481.000000	30.660800
480.000000	30.699900
479.000000	30.692800
478.000000	30.683400
477.000000	30.662800
476.000000	30.624900
475.000000	30.577700
474.000000	30.529900
473.000000	30.452300
472.000000	30.411600
471.000000	30.328400
470.000000	30.226300
469.000000	30.164200
468.000000	30.054600
467.000000	29.937300
466.000000	29.860500
465.000000	29.740800
464.000000	29.647600
463.000000	29.505200
462.000000	29.379200
461.000000	29.284000
460.000000	29.127200
459.000000	28.982300
458.000000	28.838900
457.000000	28.669600
456.000000	28.486000
455.000000	28.348300
454.000000	28.124600
453.000000	27.905200
452.000000	27.727700
451.000000	27.497300
450.000000	27.243000
449.000000	27.007100
448.000000	26.747400
447.000000	26.437000
446.000000	26.120500
445.000000	25.774800
444.000000	25.480300
443.000000	25.108600
442.000000	24.698400
441.000000	24.320600
440.000000	23.890800
439.000000	23.465100
438.000000	23.007200
437.000000	22.518300
436.000000	22.059300
435.000000	21.499500
434.000000	20.968700
433.000000	20.451300
432.000000	19.931700
431.000000	19.341400
430.000000	18.789600
429.000000	18.237700
428.000000	17.669400
427.000000	17.109200
426.000000	16.558700
425.000000	15.983700
424.000000	15.441700
423.000000	14.900300
422.000000	14.404900
421.000000	13.895300
420.000000	13.423800
419.000000	12.953300
418.000000	12.532500
417.000000	12.090400
416.000000	11.690000
415.000000	11.337600
414.000000	10.995700
413.000000	10.672100
412.000000	10.368800
411.000000	10.083600
410.000000	9.836600
409.000000	9.599300
408.000000	9.380700
407.000000	9.179700
406.000000	9.008600
405.000000	8.844900
404.000000	8.699100
403.000000	8.554700
402.000000	8.428300
401.000000	8.321600
400.000000	8.209200
399.000000	8.107800
398.000000	8.002300
397.000000	7.931500
396.000000	7.838100
395.000000	7.767500
394.000000	7.721400
393.000000	7.632500
392.000000	7.569200
391.000000	7.527300
390.000000	7.476900
389.000000	7.420900
388.000000	7.382100
387.000000	7.333100
386.000000	7.295400
385.000000	7.242100
384.000000	7.198900
383.000000	7.168200
382.000000	7.144600
381.000000	7.102800
380.000000	7.073900
379.000000	7.028200
378.000000	6.971400
377.000000	6.943000
376.000000	6.961200
375.000000	6.960700
374.000000	6.757400
373.000000	6.653300
372.000000	6.705200
371.000000	6.628900
370.000000	6.614900
369.000000	6.665900
368.000000	6.618800
367.000000	6.740400
366.000000	6.630900
365.000000	6.572900
364.000000	6.528700
363.000000	6.649400
362.000000	6.629800
361.000000	6.468000
360.000000	6.479900
359.000000	6.567700
358.000000	6.460900
357.000000	6.414200
356.000000	6.451600
355.000000	6.457600
354.000000	6.345100
353.000000	6.307700
352.000000	6.182200
351.000000	6.115900
350.000000	6.267800
349.000000	6.199900
348.000000	6.193000
347.000000	6.231500
346.000000	6.142300
345.000000	6.086000
344.000000	6.184000
343.000000	6.079100
342.000000	6.158700
341.000000	6.111600
340.000000	6.109700
339.000000	6.146500
338.000000	5.982400
337.000000	6.001000
336.000000	6.133000
335.000000	6.199100
334.000000	6.168500
333.000000	5.851600
332.000000	5.605900
331.000000	5.730400
330.000000	5.876900
329.000000	6.068700
328.000000	6.108000
327.000000	5.765600
326.000000	5.702100
325.000000	5.958200
324.000000	6.215100
323.000000	6.158500
322.000000	6.188200
321.000000	6.122100
320.000000	6.128100
319.000000	6.164200
318.000000	6.238300
317.000000	6.698700
316.000000	6.316800
315.000000	5.836300
314.000000	5.806200
313.000000	5.807500
312.000000	5.831600
311.000000	5.817900
310.000000	5.798900
309.000000	5.814000
308.000000	5.839800
307.000000	5.843600
306.000000	5.851700
305.000000	5.853800
304.000000	5.871300
303.000000	5.864900
302.000000	5.863500
301.000000	5.873500
300.000000	5.869600
299.000000	5.887800
298.000000	5.876300
297.000000	5.912300
296.000000	5.932700
295.000000	5.909800
294.000000	5.932100
293.000000	5.906200
292.000000	5.902700
291.000000	5.901000
290.000000	5.930200
289.000000	5.960500
288.000000	5.999800
287.000000	6.007500
286.000000	6.029000
285.000000	6.028700
284.000000	6.051900
283.000000	6.046800
282.000000	6.052500
281.000000	6.055000
280.000000	6.065400
279.000000	6.087400
278.000000	6.130000
277.000000	6.146600
276.000000	6.132600
275.000000	6.127800
274.000000	6.175700
273.000000	6.212200
272.000000	6.203100
271.000000	6.196800
270.000000	6.195700
269.000000	6.235500
268.000000	6.261300
267.000000	6.273400
266.000000	6.294600
265.000000	6.352100
264.000000	6.366400
263.000000	6.399500
262.000000	6.446600
261.000000	6.493000
260.000000	6.479400
259.000000	6.453200
258.000000	6.501600
257.000000	6.555100
256.000000	6.558500
255.000000	6.577000
254.000000	6.606700
253.000000	6.594000
252.000000	6.582100
251.000000	6.630100
250.000000	6.644400
