PE UV       SUBTECH     SPECTRUM    ASCII       PEDS        4.00        
   -1
CICIMAUCR0254-2.Sample.ASC
24/06/26
13:36:17.00
24/06/26
13:36:17.00
Vinicio Soto Monge
C. resplendens. Sex F. Dorsal.
250,000000
1
Lambda 1050
1050L1511233
PerkinElmer UV WinLab 6.3.2.0749 / 2.02.05 Lambda 900 UV/VIS/NIR, Aug  7 2015 09:38:08

0
0
3350/servo 860,8/2
0
0
UV/VIS
1
1
1
DoubleDePol,CommonBeamDepol,RBeamAtt,SBeamAtt,60mm sphere, WB InGaAs Detector
0
0
0
0
Program
Program
3350/servo 860,8/2
3350/0,2 860,8/0,2
3350/0,2 860,8/0,2
0
15.00
 
 
 
0
 
860,8
319,2
860,8
Front
100
on
S:100 R:100
0
0
0
0
 
0
 
 
 
0
 
 
0
0
0
0
0
 
 
 
 
0
0


0
0
#HDR
-1
-1
#GR
nm
%R
1.0
0.0
2500,000000
-1,000000
2251
8
87,442900
5,981100
#DATA
2482.000000	8.099664
2481.000000	8.109624
2480.000000	8.162711
2479.000000	8.116915
2478.000000	8.150389
2477.000000	8.153675
2476.000000	8.124719
2475.000000	8.179654
2474.000000	8.168050
2473.000000	8.161171
2472.000000	8.202860
2471.000000	8.204811
2470.000000	8.218057
2469.000000	8.254919
2468.000000	8.232946
2467.000000	8.289934
2466.000000	8.307185
2465.000000	8.335833
2464.000000	8.369615
2463.000000	8.379370
2462.000000	8.358628
2461.000000	8.379370
2460.000000	8.457306
2459.000000	8.442930
2458.000000	8.518915
2457.000000	8.582270
2456.000000	8.620160
2455.000000	8.642750
2454.000000	8.681872
2453.000000	8.743070
2452.000000	8.803961
2451.000000	8.849551
2450.000000	8.916603
2449.000000	8.964658
2448.000000	9.033352
2447.000000	9.089417
2446.000000	9.143838
2445.000000	9.209555
2444.000000	9.286977
2443.000000	9.348381
2442.000000	9.416767
2441.000000	9.472318
2440.000000	9.527561
2439.000000	9.595947
2438.000000	9.647288
2437.000000	9.720809
2436.000000	9.773690
2435.000000	9.852961
2434.000000	9.879761
2433.000000	9.957285
2432.000000	10.024132
2431.000000	10.074548
2430.000000	10.120755
2429.000000	10.198588
2428.000000	10.225594
2427.000000	10.275086
2426.000000	10.335977
2425.000000	10.395225
2424.000000	10.436708
2423.000000	10.467410
2422.000000	10.512282
2421.000000	10.567833
2420.000000	10.622460
2419.000000	10.651930
2418.000000	10.699882
2417.000000	10.749170
2416.000000	10.793118
2415.000000	10.827413
2414.000000	10.852673
2413.000000	10.899291
2412.000000	10.916952
2411.000000	10.947859
2410.000000	11.004026
2409.000000	11.031032
2408.000000	11.062863
2407.000000	11.086686
2406.000000	11.110405
2405.000000	11.142647
2404.000000	11.169139
2403.000000	11.195837
2402.000000	11.230543
2401.000000	11.267303
2400.000000	11.307657
2399.000000	11.326243
2398.000000	11.347909
2397.000000	11.371423
2396.000000	11.380870
2395.000000	11.402946
2394.000000	11.423175
2393.000000	11.430979
2392.000000	11.468252
2391.000000	11.493307
2390.000000	11.496798
2389.000000	11.517231
2388.000000	11.530888
2387.000000	11.545058
2386.000000	11.567238
2385.000000	11.572269
2384.000000	11.572166
2383.000000	11.598658
2382.000000	11.615087
2381.000000	11.625664
2380.000000	11.621864
2379.000000	11.611288
2378.000000	11.627615
2377.000000	11.632543
2376.000000	11.623815
2375.000000	11.614882
2374.000000	11.606051
2373.000000	11.601533
2372.000000	11.604922
2371.000000	11.607284
2370.000000	11.591060
2369.000000	11.582435
2368.000000	11.562720
2367.000000	11.551733
2366.000000	11.541156
2365.000000	11.507887
2364.000000	11.493615
2363.000000	11.483038
2362.000000	11.467841
2361.000000	11.445457
2360.000000	11.408799
2359.000000	11.385798
2358.000000	11.361874
2357.000000	11.329015
2356.000000	11.295541
2355.000000	11.269562
2354.000000	11.250155
2353.000000	11.221815
2352.000000	11.214730
2351.000000	11.218221
2350.000000	11.207132
2349.000000	11.193372
2348.000000	11.189778
2347.000000	11.191627
2346.000000	11.211752
2345.000000	11.248615
2344.000000	11.264531
2343.000000	11.284759
2342.000000	11.311354
2341.000000	11.340002
2340.000000	11.363927
2339.000000	11.392165
2338.000000	11.421326
2337.000000	11.444430
2336.000000	11.454082
2335.000000	11.454595
2334.000000	11.475543
2333.000000	11.463631
2332.000000	11.467020
2331.000000	11.487248
2330.000000	11.462810
2329.000000	11.444430
2328.000000	11.433546
2327.000000	11.409723
2326.000000	11.381691
2325.000000	11.352837
2324.000000	11.334560
2323.000000	11.288353
2322.000000	11.245740
2321.000000	11.177559
2320.000000	11.111227
2319.000000	11.066457
2318.000000	10.990883
2317.000000	10.918390
2316.000000	10.837887
2315.000000	10.762313
2314.000000	10.671337
2313.000000	10.596584
2312.000000	10.520805
2311.000000	10.449646
2310.000000	10.368835
2309.000000	10.288641
2308.000000	10.254755
2307.000000	10.224978
2306.000000	10.188628
2305.000000	10.157824
2304.000000	10.136260
2303.000000	10.158234
2302.000000	10.168297
2301.000000	10.200847
2300.000000	10.231960
2299.000000	10.278680
2298.000000	10.322012
2297.000000	10.380028
2296.000000	10.427569
2295.000000	10.500679
2294.000000	10.552431
2293.000000	10.608187
2292.000000	10.670104
2291.000000	10.730276
2290.000000	10.795787
2289.000000	10.824025
2288.000000	10.834909
2287.000000	10.883786
2286.000000	10.926296
2285.000000	10.927528
2284.000000	10.917774
2283.000000	10.958333
2282.000000	10.935230
2281.000000	10.924961
2280.000000	10.904322
2279.000000	10.880089
2278.000000	10.854932
2277.000000	10.832753
2276.000000	10.805747
2275.000000	10.789216
2274.000000	10.755228
2273.000000	10.747629
2272.000000	10.724937
2271.000000	10.721548
2270.000000	10.724937
2269.000000	10.767036
2268.000000	10.788805
2267.000000	10.825462
2266.000000	10.879987
2265.000000	10.946216
2264.000000	11.026411
2263.000000	11.147063
2262.000000	11.265866
2261.000000	11.379946
2260.000000	11.513330
2259.000000	11.695898
2258.000000	11.856801
2257.000000	12.020682
2256.000000	12.198014
2255.000000	12.414775
2254.000000	12.600630
2253.000000	12.799012
2252.000000	12.957142
2251.000000	13.120612
2250.000000	13.311395
2249.000000	13.500638
2248.000000	13.655483
2247.000000	13.794104
2246.000000	13.951207
2245.000000	14.086748
2244.000000	14.217359
2243.000000	14.328975
2242.000000	14.437099
2241.000000	14.526638
2240.000000	14.637021
2239.000000	14.708693
2238.000000	14.784267
2237.000000	14.832014
2236.000000	14.893110
2235.000000	14.947429
2234.000000	14.993122
2233.000000	15.037275
2232.000000	15.061714
2231.000000	15.095496
2230.000000	15.125274
2229.000000	15.129176
2228.000000	15.139136
2227.000000	15.144784
2226.000000	15.136158
2225.000000	15.127841
2224.000000	15.118189
2223.000000	15.088411
2222.000000	15.053807
2221.000000	15.040356
2220.000000	15.020025
2219.000000	14.987475
2218.000000	14.964782
2217.000000	14.910771
2216.000000	14.878940
2215.000000	14.853269
2214.000000	14.798950
2213.000000	14.763320
2212.000000	14.718242
2211.000000	14.705818
2210.000000	14.663923
2209.000000	14.647700
2208.000000	14.612890
2207.000000	14.581778
2206.000000	14.535263
2205.000000	14.526740
2204.000000	14.512159
2203.000000	14.478890
2202.000000	14.455273
2201.000000	14.429808
2200.000000	14.421183
2199.000000	14.379391
2198.000000	14.379699
2197.000000	14.364913
2196.000000	14.304947
2195.000000	14.297451
2194.000000	14.279174
2193.000000	14.264696
2192.000000	14.227627
2191.000000	14.230502
2190.000000	14.216435
2189.000000	14.202778
2188.000000	14.180702
2187.000000	14.169201
2186.000000	14.137164
2185.000000	14.122994
2184.000000	14.135727
2183.000000	14.106360
2182.000000	14.079560
2181.000000	14.055635
2180.000000	14.033558
2179.000000	14.011995
2178.000000	14.009325
2177.000000	14.002138
2176.000000	13.989405
2175.000000	13.987146
2174.000000	13.981909
2173.000000	13.987043
2172.000000	13.984784
2171.000000	13.989302
2170.000000	13.983655
2169.000000	14.000289
2168.000000	14.010352
2167.000000	14.036947
2166.000000	14.045983
2165.000000	14.072064
2164.000000	14.069086
2163.000000	14.118887
2162.000000	14.132133
2161.000000	14.143941
2160.000000	14.174027
2159.000000	14.222801
2158.000000	14.247753
2157.000000	14.281330
2156.000000	14.312340
2155.000000	14.370047
2154.000000	14.416562
2153.000000	14.462975
2152.000000	14.501070
2151.000000	14.564630
2150.000000	14.618127
2149.000000	14.653655
2148.000000	14.708385
2147.000000	14.736930
2146.000000	14.785191
2145.000000	14.852242
2144.000000	14.885409
2143.000000	14.904302
2142.000000	14.956157
2141.000000	14.999386
2140.000000	15.049084
2139.000000	15.091389
2138.000000	15.109358
2137.000000	15.137493
2136.000000	15.172508
2135.000000	15.218509
2134.000000	15.238943
2133.000000	15.257118
2132.000000	15.282275
2131.000000	15.289565
2130.000000	15.312463
2129.000000	15.317392
2128.000000	15.328071
2127.000000	15.337929
2126.000000	15.347683
2125.000000	15.343679
2124.000000	15.348094
2123.000000	15.359594
2122.000000	15.347786
2121.000000	15.338853
2120.000000	15.340290
2119.000000	15.331254
2118.000000	15.316160
2117.000000	15.297780
2116.000000	15.287306
2115.000000	15.273547
2114.000000	15.246336
2113.000000	15.236068
2112.000000	15.218407
2111.000000	15.188321
2110.000000	15.161726
2109.000000	15.142114
2108.000000	15.115827
2107.000000	15.079375
2106.000000	15.046722
2105.000000	15.025672
2104.000000	15.002877
2103.000000	14.985421
2102.000000	14.956157
2101.000000	14.929767
2100.000000	14.909026
2099.000000	14.889619
2098.000000	14.874627
2097.000000	14.843617
2096.000000	14.826058
2095.000000	14.809116
2094.000000	14.790120
2093.000000	14.768146
2092.000000	14.744221
2091.000000	14.742270
2090.000000	14.727792
2089.000000	14.708487
2088.000000	14.705612
2087.000000	14.672857
2086.000000	14.652012
2085.000000	14.641333
2084.000000	14.607038
2083.000000	14.581983
2082.000000	14.558572
2081.000000	14.536290
2080.000000	14.507128
2079.000000	14.459586
2078.000000	14.424263
2077.000000	14.395718
2076.000000	14.338627
2075.000000	14.276401
2074.000000	14.238204
2073.000000	14.206372
2072.000000	14.138807
2071.000000	14.068675
2070.000000	14.021339
2069.000000	13.958600
2068.000000	13.886518
2067.000000	13.824703
2066.000000	13.770487
2065.000000	13.700355
2064.000000	13.630223
2063.000000	13.556703
2062.000000	13.479280
2061.000000	13.414180
2060.000000	13.360785
2059.000000	13.304926
2058.000000	13.254099
2057.000000	13.193208
2056.000000	13.135706
2055.000000	13.094633
2054.000000	13.062186
2053.000000	13.032921
2052.000000	13.014439
2051.000000	13.017211
2050.000000	13.028506
2049.000000	13.024604
2048.000000	13.048221
2047.000000	13.086522
2046.000000	13.128005
2045.000000	13.179654
2044.000000	13.240545
2043.000000	13.302770
2042.000000	13.365611
2041.000000	13.437386
2040.000000	13.500433
2039.000000	13.570359
2038.000000	13.623754
2037.000000	13.674068
2036.000000	13.751080
2035.000000	13.801907
2034.000000	13.849757
2033.000000	13.902741
2032.000000	13.930157
2031.000000	13.968560
2030.000000	14.001727
2029.000000	14.017951
2028.000000	14.050193
2027.000000	14.074118
2026.000000	14.087158
2025.000000	14.098145
2024.000000	14.108003
2023.000000	14.112623
2022.000000	14.113958
2021.000000	14.126383
2020.000000	14.129258
2019.000000	14.112521
2018.000000	14.107592
2017.000000	14.098351
2016.000000	14.071859
2015.000000	14.055840
2014.000000	14.043005
2013.000000	14.042389
2012.000000	14.015486
2011.000000	13.984374
2010.000000	13.948024
2009.000000	13.933649
2008.000000	13.890214
2007.000000	13.886723
2006.000000	13.846163
2005.000000	13.800162
2004.000000	13.766071
2003.000000	13.725717
2002.000000	13.688238
2001.000000	13.649527
2000.000000	13.589356
1999.000000	13.556292
1998.000000	13.496942
1997.000000	13.440569
1996.000000	13.379679
1995.000000	13.321150
1994.000000	13.253791
1993.000000	13.192695
1992.000000	13.140430
1991.000000	13.084776
1990.000000	13.012590
1989.000000	12.919663
1988.000000	12.856719
1987.000000	12.802195
1986.000000	12.724978
1985.000000	12.648274
1984.000000	12.562535
1983.000000	12.527212
1982.000000	12.452152
1981.000000	12.353269
1980.000000	12.298026
1979.000000	12.224095
1978.000000	12.143489
1977.000000	12.069558
1976.000000	12.001275
1975.000000	11.930938
1974.000000	11.846122
1973.000000	11.777120
1972.000000	11.706064
1971.000000	11.660370
1970.000000	11.574836
1969.000000	11.508606
1968.000000	11.447305
1967.000000	11.394218
1966.000000	11.336716
1965.000000	11.271513
1964.000000	11.230646
1963.000000	11.166572
1962.000000	11.096030
1961.000000	11.037706
1960.000000	10.982566
1959.000000	10.924037
1958.000000	10.870334
1957.000000	10.808623
1956.000000	10.751531
1955.000000	10.700396
1954.000000	10.658296
1953.000000	10.603361
1952.000000	10.539082
1951.000000	10.478192
1950.000000	10.436708
1949.000000	10.407957
1948.000000	10.389988
1947.000000	10.324579
1946.000000	10.318213
1945.000000	10.293467
1944.000000	10.227750
1943.000000	10.218817
1942.000000	10.181030
1941.000000	10.185137
1940.000000	10.177744
1939.000000	10.157516
1938.000000	10.136876
1937.000000	10.127224
1936.000000	10.131229
1935.000000	10.152073
1934.000000	10.161623
1933.000000	10.176409
1932.000000	10.189450
1931.000000	10.239456
1930.000000	10.271185
1929.000000	10.305378
1928.000000	10.349018
1927.000000	10.415761
1926.000000	10.466999
1925.000000	10.528711
1924.000000	10.580360
1923.000000	10.666819
1922.000000	10.728633
1921.000000	10.832034
1920.000000	10.934408
1919.000000	11.034934
1918.000000	11.154148
1917.000000	11.254365
1916.000000	11.403049
1915.000000	11.500905
1914.000000	11.632235
1913.000000	11.810697
1912.000000	11.961434
1911.000000	12.119975
1910.000000	12.300696
1909.000000	12.470429
1908.000000	12.645194
1907.000000	12.806405
1906.000000	13.015979
1905.000000	13.284903
1904.000000	13.544894
1903.000000	13.791947
1902.000000	14.032737
1901.000000	14.314702
1900.000000	14.588657
1899.000000	14.911593
1898.000000	15.226005
1897.000000	15.586727
1896.000000	15.929788
1895.000000	16.231365
1894.000000	16.551733
1893.000000	16.930938
1892.000000	17.318563
1891.000000	17.772726
1890.000000	18.259849
1889.000000	18.683413
1888.000000	19.149487
1887.000000	19.630860
1886.000000	20.083483
1885.000000	20.548530
1884.000000	21.070052
1883.000000	21.608517
1882.000000	22.124186
1881.000000	22.636467
1880.000000	23.138993
1879.000000	23.609277
1878.000000	24.039002
1877.000000	24.499120
1876.000000	24.936854
1875.000000	25.335363
1874.000000	25.748966
1873.000000	26.164418
1872.000000	26.581204
1871.000000	26.955172
1870.000000	27.305113
1869.000000	27.626405
1868.000000	27.949135
1867.000000	28.195264
1866.000000	28.412334
1865.000000	28.607943
1864.000000	28.809713
1863.000000	28.987353
1862.000000	29.158319
1861.000000	29.321173
1860.000000	29.501380
1859.000000	29.652425
1858.000000	29.801827
1857.000000	29.920117
1856.000000	30.015406
1855.000000	30.116959
1854.000000	30.198385
1853.000000	30.273651
1852.000000	30.328484
1851.000000	30.382084
1850.000000	30.436813
1849.000000	30.479837
1848.000000	30.506021
1847.000000	30.546888
1846.000000	30.553049
1845.000000	30.529638
1844.000000	30.517624
1843.000000	30.524196
1842.000000	30.551920
1841.000000	30.580568
1840.000000	30.592377
1839.000000	30.578104
1838.000000	30.544116
1837.000000	30.521013
1836.000000	30.502119
1835.000000	30.491543
1834.000000	30.458993
1833.000000	30.432809
1832.000000	30.393584
1831.000000	30.375615
1830.000000	30.350458
1829.000000	30.320372
1828.000000	30.295933
1827.000000	30.242539
1826.000000	30.199002
1825.000000	30.171688
1824.000000	30.119115
1823.000000	30.094985
1822.000000	30.086359
1821.000000	30.098578
1820.000000	30.102583
1819.000000	30.068493
1818.000000	30.019308
1817.000000	29.989222
1816.000000	29.970842
1815.000000	29.974949
1814.000000	29.978132
1813.000000	29.953489
1812.000000	29.937470
1811.000000	29.925354
1810.000000	29.898862
1809.000000	29.865798
1808.000000	29.838074
1807.000000	29.808091
1806.000000	29.779751
1805.000000	29.745866
1804.000000	29.697605
1803.000000	29.656429
1802.000000	29.631991
1801.000000	29.613406
1800.000000	29.572744
1799.000000	29.524996
1798.000000	29.491419
1797.000000	29.451887
1796.000000	29.411019
1795.000000	29.376416
1794.000000	29.350334
1793.000000	29.318400
1792.000000	29.279073
1791.000000	29.254018
1790.000000	29.214383
1789.000000	29.181628
1788.000000	29.158113
1787.000000	29.131313
1786.000000	29.105129
1785.000000	29.065186
1784.000000	29.018877
1783.000000	28.975955
1782.000000	28.923074
1781.000000	28.896274
1780.000000	28.856536
1779.000000	28.788971
1778.000000	28.743278
1777.000000	28.700254
1776.000000	28.638645
1775.000000	28.569129
1774.000000	28.510087
1773.000000	28.447759
1772.000000	28.359966
1771.000000	28.285316
1770.000000	28.198447
1769.000000	28.111989
1768.000000	28.032307
1767.000000	27.942358
1766.000000	27.850252
1765.000000	27.780633
1764.000000	27.731551
1763.000000	27.692532
1762.000000	27.685653
1761.000000	27.701671
1760.000000	27.722413
1759.000000	27.756811
1758.000000	27.797781
1757.000000	27.855283
1756.000000	27.929728
1755.000000	27.978194
1754.000000	28.037749
1753.000000	28.106341
1752.000000	28.152035
1751.000000	28.193723
1750.000000	28.207175
1749.000000	28.220626
1748.000000	28.223193
1747.000000	28.198241
1746.000000	28.168361
1745.000000	28.132833
1744.000000	28.083648
1743.000000	28.012798
1742.000000	27.918946
1741.000000	27.801478
1740.000000	27.659674
1739.000000	27.513249
1738.000000	27.350190
1737.000000	27.197297
1736.000000	27.045225
1735.000000	26.894590
1734.000000	26.759255
1733.000000	26.642095
1732.000000	26.566418
1731.000000	26.532738
1730.000000	26.522162
1729.000000	26.541364
1728.000000	26.572784
1727.000000	26.613036
1726.000000	26.679676
1725.000000	26.742929
1724.000000	26.802792
1723.000000	26.874567
1722.000000	26.936073
1721.000000	27.005179
1720.000000	27.098517
1719.000000	27.184769
1718.000000	27.299055
1717.000000	27.410054
1716.000000	27.523826
1715.000000	27.643040
1714.000000	27.775602
1713.000000	27.883521
1712.000000	28.010436
1711.000000	28.128520
1710.000000	28.217238
1709.000000	28.291682
1708.000000	28.348363
1707.000000	28.393029
1706.000000	28.432049
1705.000000	28.453612
1704.000000	28.471068
1703.000000	28.456898
1702.000000	28.454947
1701.000000	28.441701
1700.000000	28.383685
1699.000000	28.327621
1698.000000	28.262007
1697.000000	28.210050
1696.000000	28.130266
1695.000000	28.101720
1694.000000	28.085497
1693.000000	28.083238
1692.000000	28.102131
1691.000000	28.145771
1690.000000	28.232127
1689.000000	28.300205
1688.000000	28.389435
1687.000000	28.469117
1686.000000	28.552495
1685.000000	28.614515
1684.000000	28.723460
1683.000000	28.836000
1682.000000	28.969178
1681.000000	29.177931
1680.000000	29.425395
1679.000000	29.693292
1678.000000	30.009964
1677.000000	30.349842
1676.000000	30.652754
1675.000000	30.962443
1674.000000	31.230340
1673.000000	31.472054
1672.000000	31.701035
1671.000000	31.891921
1670.000000	32.066994
1669.000000	32.235803
1668.000000	32.381509
1667.000000	32.503187
1666.000000	32.603405
1665.000000	32.707833
1664.000000	32.810309
1663.000000	32.879414
1662.000000	32.975114
1661.000000	33.054693
1660.000000	33.097716
1659.000000	33.157991
1658.000000	33.193416
1657.000000	33.237569
1656.000000	33.263137
1655.000000	33.300616
1654.000000	33.296303
1653.000000	33.329162
1652.000000	33.309652
1651.000000	33.284084
1650.000000	33.294969
1649.000000	33.279156
1648.000000	33.257079
1647.000000	33.244244
1646.000000	33.200604
1645.000000	33.177808
1644.000000	33.147106
1643.000000	33.116815
1642.000000	33.072867
1641.000000	33.038674
1640.000000	32.983123
1639.000000	32.942564
1638.000000	32.902518
1637.000000	32.863807
1636.000000	32.806613
1635.000000	32.734838
1634.000000	32.695921
1633.000000	32.617780
1632.000000	32.571881
1631.000000	32.515612
1630.000000	32.446301
1629.000000	32.386540
1628.000000	32.316203
1627.000000	32.242375
1626.000000	32.159818
1625.000000	32.072949
1624.000000	32.003639
1623.000000	31.938128
1622.000000	31.871487
1621.000000	31.784002
1620.000000	31.716232
1619.000000	31.658627
1618.000000	31.600817
1617.000000	31.526578
1616.000000	31.458089
1615.000000	31.381694
1614.000000	31.317723
1613.000000	31.240506
1612.000000	31.168526
1611.000000	31.112359
1610.000000	31.031753
1609.000000	30.956384
1608.000000	30.881735
1607.000000	30.812013
1606.000000	30.754820
1605.000000	30.675446
1604.000000	30.586626
1603.000000	30.506021
1602.000000	30.423054
1601.000000	30.338136
1600.000000	30.270982
1599.000000	30.197461
1598.000000	30.109052
1597.000000	30.042925
1596.000000	29.958007
1595.000000	29.897938
1594.000000	29.827806
1593.000000	29.760138
1592.000000	29.698837
1591.000000	29.645443
1590.000000	29.569766
1589.000000	29.528693
1588.000000	29.461950
1587.000000	29.393666
1586.000000	29.326204
1585.000000	29.258639
1584.000000	29.195592
1583.000000	29.143841
1582.000000	29.089316
1581.000000	29.017439
1580.000000	28.963839
1579.000000	28.918864
1578.000000	28.858487
1577.000000	28.815053
1576.000000	28.782297
1575.000000	28.730340
1574.000000	28.670476
1573.000000	28.642649
1572.000000	28.615028
1571.000000	28.601577
1570.000000	28.572415
1569.000000	28.547258
1568.000000	28.528672
1567.000000	28.510908
1566.000000	28.497354
1565.000000	28.471068
1564.000000	28.458232
1563.000000	28.428147
1562.000000	28.420548
1561.000000	28.392721
1560.000000	28.373109
1559.000000	28.346720
1558.000000	28.317250
1557.000000	28.294968
1556.000000	28.258310
1555.000000	28.228533
1554.000000	28.184687
1553.000000	28.149570
1552.000000	28.106444
1551.000000	28.012387
1550.000000	27.954269
1549.000000	27.923772
1548.000000	27.858056
1547.000000	27.790491
1546.000000	27.724569
1545.000000	27.669018
1544.000000	27.616342
1543.000000	27.555246
1542.000000	27.511709
1541.000000	27.466940
1540.000000	27.424224
1539.000000	27.369392
1538.000000	27.334275
1537.000000	27.290019
1536.000000	27.237445
1535.000000	27.202944
1534.000000	27.152219
1533.000000	27.103548
1532.000000	27.056314
1531.000000	26.996348
1530.000000	26.946855
1529.000000	26.899519
1528.000000	26.844173
1527.000000	26.781126
1526.000000	26.730709
1525.000000	26.673926
1524.000000	26.614063
1523.000000	26.552864
1522.000000	26.489304
1521.000000	26.418556
1520.000000	26.357768
1519.000000	26.301601
1518.000000	26.224281
1517.000000	26.146346
1516.000000	26.069540
1515.000000	26.000948
1514.000000	25.941700
1513.000000	25.867461
1512.000000	25.786137
1511.000000	25.712925
1510.000000	25.622564
1509.000000	25.541240
1508.000000	25.471519
1507.000000	25.374279
1506.000000	25.282687
1505.000000	25.213376
1504.000000	25.118190
1503.000000	25.037379
1502.000000	24.960676
1501.000000	24.877811
1500.000000	24.800903
1499.000000	24.728101
1498.000000	24.655299
1497.000000	24.575515
1496.000000	24.505897
1495.000000	24.448600
1494.000000	24.393768
1493.000000	24.329489
1492.000000	24.263157
1491.000000	24.204012
1490.000000	24.140965
1489.000000	24.090035
1488.000000	24.049886
1487.000000	23.987044
1486.000000	23.916502
1485.000000	23.872451
1484.000000	23.815052
1483.000000	23.757653
1482.000000	23.712781
1481.000000	23.662877
1480.000000	23.622831
1479.000000	23.593053
1478.000000	23.567691
1477.000000	23.534627
1476.000000	23.510702
1475.000000	23.494068
1474.000000	23.474148
1473.000000	23.469938
1472.000000	23.471272
1471.000000	23.475893
1470.000000	23.463161
1469.000000	23.449196
1468.000000	23.430610
1467.000000	23.429686
1466.000000	23.447450
1465.000000	23.446937
1464.000000	23.445602
1463.000000	23.461928
1462.000000	23.473942
1461.000000	23.519122
1460.000000	23.548900
1459.000000	23.579089
1458.000000	23.604965
1457.000000	23.642546
1456.000000	23.689677
1455.000000	23.739683
1454.000000	23.801087
1453.000000	23.861772
1452.000000	23.910341
1451.000000	23.992589
1450.000000	24.070936
1449.000000	24.120634
1448.000000	24.156162
1447.000000	24.228553
1446.000000	24.321069
1445.000000	24.416974
1444.000000	24.481253
1443.000000	24.541836
1442.000000	24.630450
1441.000000	24.715060
1440.000000	24.813019
1439.000000	24.905741
1438.000000	25.006985
1437.000000	25.120963
1436.000000	25.216868
1435.000000	25.340805
1434.000000	25.441023
1433.000000	25.548941
1432.000000	25.721139
1431.000000	25.844460
1430.000000	25.958643
1429.000000	26.093567
1428.000000	26.262479
1427.000000	26.424101
1426.000000	26.572784
1425.000000	26.748371
1424.000000	26.943364
1423.000000	27.154376
1422.000000	27.317332
1421.000000	27.524236
1420.000000	27.757427
1419.000000	28.002119
1418.000000	28.241163
1417.000000	28.463572
1416.000000	28.654561
1415.000000	28.933753
1414.000000	29.223830
1413.000000	29.519144
1412.000000	29.802443
1411.000000	30.067979
1410.000000	30.400669
1409.000000	30.796919
1408.000000	31.139159
1407.000000	31.509225
1406.000000	31.870563
1405.000000	32.234674
1404.000000	32.604432
1403.000000	33.002427
1402.000000	33.397445
1401.000000	33.806941
1400.000000	34.299405
1399.000000	34.691034
1398.000000	35.029885
1397.000000	35.340909
1396.000000	35.731717
1395.000000	36.189679
1394.000000	36.634189
1393.000000	36.941311
1392.000000	37.310043
1391.000000	37.755478
1390.000000	38.187666
1389.000000	38.601372
1388.000000	39.093528
1387.000000	39.611764
1386.000000	40.121478
1385.000000	40.606651
1384.000000	41.140700
1383.000000	41.669718
1382.000000	42.176557
1381.000000	42.649613
1380.000000	43.061676
1379.000000	43.340663
1378.000000	43.659286
1377.000000	43.929545
1376.000000	44.148977
1375.000000	44.378471
1374.000000	44.611765
1373.000000	44.852862
1372.000000	45.142631
1371.000000	45.402314
1370.000000	45.698757
1369.000000	45.938006
1368.000000	46.183622
1367.000000	46.435501
1366.000000	46.655343
1365.000000	46.862761
1364.000000	47.035164
1363.000000	47.220916
1362.000000	47.411699
1361.000000	47.592214
1360.000000	47.708040
1359.000000	47.757841
1358.000000	47.870688
1357.000000	47.997500
1356.000000	48.129755
1355.000000	48.312426
1354.000000	48.544282
1353.000000	48.786201
1352.000000	49.004195
1351.000000	49.365431
1350.000000	49.691036
1349.000000	50.044365
1348.000000	50.381675
1347.000000	50.696499
1346.000000	50.981647
1345.000000	51.259812
1344.000000	51.542599
1343.000000	51.844690
1342.000000	52.132815
1341.000000	52.397940
1340.000000	52.693870
1339.000000	52.949959
1338.000000	53.218884
1337.000000	53.489348
1336.000000	53.761353
1335.000000	54.015902
1334.000000	54.285750
1333.000000	54.555291
1332.000000	54.804397
1331.000000	55.024959
1330.000000	55.285463
1329.000000	55.535391
1328.000000	55.759649
1327.000000	55.981853
1326.000000	56.207856
1325.000000	56.426774
1324.000000	56.634500
1323.000000	56.823230
1322.000000	57.001999
1321.000000	57.199662
1320.000000	57.390240
1319.000000	57.571063
1318.000000	57.738024
1317.000000	57.914124
1316.000000	58.050691
1315.000000	58.214161
1314.000000	58.371059
1313.000000	58.531962
1312.000000	58.654975
1311.000000	58.776037
1310.000000	58.921640
1309.000000	59.046707
1308.000000	59.169207
1307.000000	59.278974
1306.000000	59.381348
1305.000000	59.480231
1304.000000	59.566176
1303.000000	59.641134
1302.000000	59.717118
1301.000000	59.800599
1300.000000	59.860257
1299.000000	59.914165
1298.000000	59.983065
1297.000000	60.031942
1296.000000	60.066032
1295.000000	60.120659
1294.000000	60.150129
1293.000000	60.187505
1292.000000	60.229502
1291.000000	60.238024
1290.000000	60.258972
1289.000000	60.261025
1288.000000	60.266673
1287.000000	60.277968
1286.000000	60.266775
1285.000000	60.256302
1284.000000	60.237203
1283.000000	60.235252
1282.000000	60.216050
1281.000000	60.189148
1280.000000	60.162656
1279.000000	60.130927
1278.000000	60.104024
1277.000000	60.073938
1276.000000	60.057407
1275.000000	60.046933
1274.000000	60.023214
1273.000000	59.995592
1272.000000	59.979676
1271.000000	59.963350
1270.000000	59.963658
1269.000000	59.942916
1268.000000	59.918170
1267.000000	59.913549
1266.000000	59.886338
1265.000000	59.856458
1264.000000	59.834792
1263.000000	59.820622
1262.000000	59.803987
1261.000000	59.774107
1260.000000	59.754597
1259.000000	59.727797
1258.000000	59.694323
1257.000000	59.654790
1256.000000	59.616593
1255.000000	59.580962
1254.000000	59.545947
1253.000000	59.496044
1252.000000	59.437515
1251.000000	59.375598
1250.000000	59.310908
1249.000000	59.248067
1248.000000	59.169720
1247.000000	59.108214
1246.000000	59.018880
1245.000000	58.927699
1244.000000	58.826865
1243.000000	58.724183
1242.000000	58.633617
1241.000000	58.521796
1240.000000	58.413569
1239.000000	58.319513
1238.000000	58.232952
1237.000000	58.120309
1236.000000	58.009207
1235.000000	57.896155
1234.000000	57.778070
1233.000000	57.659986
1232.000000	57.539745
1231.000000	57.413241
1230.000000	57.279959
1229.000000	57.154174
1228.000000	57.022638
1227.000000	56.890794
1226.000000	56.752071
1225.000000	56.607905
1224.000000	56.475651
1223.000000	56.324297
1222.000000	56.177359
1221.000000	56.024671
1220.000000	55.866849
1219.000000	55.731308
1218.000000	55.594536
1217.000000	55.459406
1216.000000	55.331362
1215.000000	55.206808
1214.000000	55.106693
1213.000000	54.994975
1212.000000	54.876275
1211.000000	54.761784
1210.000000	54.651401
1209.000000	54.557858
1208.000000	54.466471
1207.000000	54.370771
1206.000000	54.292733
1205.000000	54.229583
1204.000000	54.147746
1203.000000	54.092400
1202.000000	54.045988
1201.000000	54.006044
1200.000000	53.972775
1199.000000	53.927082
1198.000000	53.875535
1197.000000	53.811462
1196.000000	53.732397
1195.000000	53.622116
1194.000000	53.503724
1193.000000	53.354835
1192.000000	53.165694
1191.000000	52.947084
1190.000000	52.694076
1189.000000	52.451951
1188.000000	52.244739
1187.000000	52.045330
1186.000000	51.914719
1185.000000	51.856909
1184.000000	51.867588
1183.000000	51.959591
1182.000000	52.121212
1181.000000	52.363131
1180.000000	52.647458
1179.000000	52.960741
1178.000000	53.292199
1177.000000	53.601580
1176.000000	53.878719
1175.000000	54.134397
1174.000000	54.361016
1173.000000	54.587122
1172.000000	54.809121
1171.000000	55.018592
1170.000000	55.249935
1169.000000	55.482818
1168.000000	55.710156
1167.000000	55.952999
1166.000000	56.217713
1165.000000	56.479861
1164.000000	56.763674
1163.000000	57.027362
1162.000000	57.323907
1161.000000	57.624458
1160.000000	57.918950
1159.000000	58.209746
1158.000000	58.509166
1157.000000	58.809614
1156.000000	59.082954
1155.000000	59.347052
1154.000000	59.599239
1153.000000	59.849886
1152.000000	60.048884
1151.000000	60.221698
1150.000000	60.391637
1149.000000	60.542374
1148.000000	60.692701
1147.000000	60.857813
1146.000000	61.037096
1145.000000	61.253755
1144.000000	61.491362
1143.000000	61.732562
1142.000000	62.036295
1141.000000	62.359949
1140.000000	62.700032
1139.000000	63.065272
1138.000000	63.441294
1137.000000	63.851098
1136.000000	64.283184
1135.000000	64.712396
1134.000000	65.162040
1133.000000	65.566608
1132.000000	65.923222
1131.000000	66.291440
1130.000000	66.619818
1129.000000	66.915542
1128.000000	67.172247
1127.000000	67.389522
1126.000000	67.566033
1125.000000	67.744392
1124.000000	67.878802
1123.000000	67.994628
1122.000000	68.094024
1121.000000	68.180174
1120.000000	68.246610
1119.000000	68.302571
1118.000000	68.342515
1117.000000	68.398066
1116.000000	68.418294
1115.000000	68.442938
1114.000000	68.458853
1113.000000	68.473640
1112.000000	68.482984
1111.000000	68.493457
1110.000000	68.503109
1109.000000	68.522003
1108.000000	68.525905
1107.000000	68.524981
1106.000000	68.533811
1105.000000	68.538740
1104.000000	68.547468
1103.000000	68.550651
1102.000000	68.551370
1101.000000	68.539459
1100.000000	68.562357
1099.000000	68.557736
1098.000000	68.545004
1097.000000	68.546031
1096.000000	68.548495
1095.000000	68.513480
1094.000000	68.513686
1093.000000	68.492225
1092.000000	68.468095
1091.000000	68.438933
1090.000000	68.436777
1089.000000	68.395293
1088.000000	68.373422
1087.000000	68.337689
1086.000000	68.286142
1085.000000	68.254105
1084.000000	68.239525
1083.000000	68.204510
1082.000000	68.138280
1081.000000	68.111069
1080.000000	68.073693
1079.000000	68.034058
1078.000000	68.000070
1077.000000	67.944622
1076.000000	67.903754
1075.000000	67.862065
1074.000000	67.821609
1073.000000	67.761642
1072.000000	67.732481
1071.000000	67.688327
1070.000000	67.628874
1069.000000	67.572091
1068.000000	67.528657
1067.000000	67.481320
1066.000000	67.446408
1065.000000	67.371142
1064.000000	67.334896
1063.000000	67.285916
1062.000000	67.221740
1061.000000	67.186725
1060.000000	67.099240
1059.000000	67.056627
1058.000000	66.996661
1057.000000	66.931663
1056.000000	66.871183
1055.000000	66.813168
1054.000000	66.753099
1053.000000	66.690771
1052.000000	66.631113
1051.000000	66.580182
1050.000000	66.517341
1049.000000	66.452343
1048.000000	66.388783
1047.000000	66.345554
1046.000000	66.285588
1045.000000	66.231885
1044.000000	66.178079
1043.000000	66.136596
1042.000000	66.078683
1041.000000	66.022824
1040.000000	65.965733
1039.000000	65.920142
1038.000000	65.875475
1037.000000	65.802879
1036.000000	65.743940
1035.000000	65.704818
1034.000000	65.645878
1033.000000	65.580059
1032.000000	65.517936
1031.000000	65.484051
1030.000000	65.415357
1029.000000	65.350257
1028.000000	65.300148
1027.000000	65.228373
1026.000000	65.138937
1025.000000	65.074863
1024.000000	65.020236
1023.000000	64.938399
1022.000000	64.857075
1021.000000	64.792180
1020.000000	64.726771
1019.000000	64.654894
1018.000000	64.587431
1017.000000	64.509290
1016.000000	64.465034
1015.000000	64.413591
1014.000000	64.345923
1013.000000	64.299922
1012.000000	64.247862
1011.000000	64.220959
1010.000000	64.178551
1009.000000	64.142510
1008.000000	64.109344
1007.000000	64.079669
1006.000000	64.038082
1005.000000	64.024836
1004.000000	64.014055
1003.000000	63.997215
1002.000000	63.958196
1001.000000	63.921846
1000.000000	63.901207
999.000000	63.877590
998.000000	63.860545
997.000000	63.839085
996.000000	63.802735
995.000000	63.785382
994.000000	63.770390
993.000000	63.764435
992.000000	63.738559
991.000000	63.725518
990.000000	63.723362
989.000000	63.716790
988.000000	63.700874
987.000000	63.701285
986.000000	63.714531
985.000000	63.729420
984.000000	63.731576
983.000000	63.741331
982.000000	63.767310
981.000000	63.795342
980.000000	63.811155
979.000000	63.824298
978.000000	63.859621
977.000000	63.882622
976.000000	63.899872
975.000000	63.931601
974.000000	63.955115
973.000000	63.994751
972.000000	64.022577
971.000000	64.048556
970.000000	64.077307
969.000000	64.119407
968.000000	64.164997
967.000000	64.186766
966.000000	64.212026
965.000000	64.260697
964.000000	64.305467
963.000000	64.358142
962.000000	64.401269
961.000000	64.452610
960.000000	64.512371
959.000000	64.570078
958.000000	64.627477
957.000000	64.680256
956.000000	64.736012
955.000000	64.792590
954.000000	64.848141
953.000000	64.886750
952.000000	64.927823
951.000000	65.000829
950.000000	65.062849
949.000000	65.111521
948.000000	65.177340
947.000000	65.236896
946.000000	65.273450
945.000000	65.320787
944.000000	65.394821
943.000000	65.453863
942.000000	65.483743
941.000000	65.534982
940.000000	65.579648
939.000000	65.622877
938.000000	65.667133
937.000000	65.724122
936.000000	65.803701
935.000000	65.844465
934.000000	65.893650
933.000000	65.955567
932.000000	66.002698
931.000000	66.067696
930.000000	66.112671
929.000000	66.154154
928.000000	66.221103
927.000000	66.288771
926.000000	66.335799
925.000000	66.389502
924.000000	66.456861
923.000000	66.526685
922.000000	66.619407
921.000000	66.693749
920.000000	66.759055
919.000000	66.827543
918.000000	66.920265
917.000000	67.005594
916.000000	67.059605
915.000000	67.124705
914.000000	67.199355
913.000000	67.272876
912.000000	67.356870
911.000000	67.438399
910.000000	67.524960
909.000000	67.604333
908.000000	67.689149
907.000000	67.780433
906.000000	67.871204
905.000000	67.973475
904.000000	68.082729
903.000000	68.192085
902.000000	68.314893
901.000000	68.417062
900.000000	68.522208
899.000000	68.633002
898.000000	68.740510
897.000000	68.838264
896.000000	68.944334
895.000000	69.053999
894.000000	69.152574
893.000000	69.235335
892.000000	69.341200
891.000000	69.445628
890.000000	69.534037
889.000000	69.610638
888.000000	69.697405
887.000000	69.803270
886.000000	69.901023
885.000000	69.995491
884.000000	70.097146
883.000000	70.185144
882.000000	70.289572
881.000000	70.389995
880.000000	70.519169
879.000000	70.628628
878.000000	70.701224
877.000000	70.792509
876.000000	70.879070
875.000000	70.944170
874.000000	71.013994
873.000000	71.042642
872.000000	71.079916
871.000000	71.190196
870.000000	71.374203
869.000000	71.582750
868.000000	71.786779
867.000000	72.001077
866.000000	72.216298
865.000000	72.424435
864.000000	72.624152
863.000000	72.826743
862.000000	73.043916
861.000000	73.253901
860.000000	73.483292
859.000000	73.687322
858.000000	73.889400
857.000000	73.309200
856.000000	74.100500
855.000000	74.258500
854.000000	73.684500
853.000000	74.500200
852.000000	75.190300
851.000000	74.842000
850.000000	75.134400
849.000000	75.562700
848.000000	75.964500
847.000000	76.387800
846.000000	76.813800
845.000000	76.421600
844.000000	76.788400
843.000000	76.985100
842.000000	77.244500
841.000000	77.455700
840.000000	77.952000
839.000000	78.017700
838.000000	78.450800
837.000000	78.385000
836.000000	78.451300
835.000000	78.768700
834.000000	78.989600
833.000000	79.369800
832.000000	79.385100
831.000000	79.881600
830.000000	79.860200
829.000000	79.899300
828.000000	80.192200
827.000000	80.318300
826.000000	80.375200
825.000000	80.230900
824.000000	80.636500
823.000000	80.602100
822.000000	80.605000
821.000000	80.666900
820.000000	80.691600
819.000000	80.922000
818.000000	80.836200
817.000000	80.970400
816.000000	80.876800
815.000000	81.211400
814.000000	81.123900
813.000000	81.514500
812.000000	81.441700
811.000000	81.647500
810.000000	81.787200
809.000000	81.971800
808.000000	82.364200
807.000000	82.395700
806.000000	82.564800
805.000000	83.059300
804.000000	83.114400
803.000000	83.330100
802.000000	83.680700
801.000000	83.405600
800.000000	83.859100
799.000000	83.931900
798.000000	84.205100
797.000000	84.208500
796.000000	84.404500
795.000000	84.522000
794.000000	84.536200
793.000000	85.006900
792.000000	84.663300
791.000000	84.944600
790.000000	84.816300
789.000000	84.969200
788.000000	84.697000
787.000000	84.954300
786.000000	84.928800
785.000000	84.674800
784.000000	84.908700
783.000000	84.842300
782.000000	84.656100
781.000000	84.687700
780.000000	84.475000
779.000000	84.243900
778.000000	84.343100
777.000000	84.262400
776.000000	84.113200
775.000000	84.196700
774.000000	84.072200
773.000000	83.965800
772.000000	84.014900
771.000000	83.923100
770.000000	83.940200
769.000000	83.847600
768.000000	83.795400
767.000000	83.802100
766.000000	83.746400
765.000000	83.575200
764.000000	83.660200
763.000000	83.646000
762.000000	83.619700
761.000000	83.789000
760.000000	83.480400
759.000000	83.460800
758.000000	83.566000
757.000000	83.402500
756.000000	83.466800
755.000000	83.414100
754.000000	83.204100
753.000000	83.113000
752.000000	82.922100
751.000000	82.731000
750.000000	82.581600
749.000000	82.237600
748.000000	82.124400
747.000000	81.874900
746.000000	81.597800
745.000000	81.233300
744.000000	80.988000
743.000000	80.769400
742.000000	80.438900
741.000000	80.102100
740.000000	79.972100
739.000000	79.768800
738.000000	79.423500
737.000000	79.190500
736.000000	79.068300
735.000000	78.925500
734.000000	78.828200
733.000000	78.536100
732.000000	78.350400
731.000000	78.256900
730.000000	78.037900
729.000000	77.995700
728.000000	77.953200
727.000000	77.813100
726.000000	77.671200
725.000000	77.577600
724.000000	77.512500
723.000000	77.427600
722.000000	77.350900
721.000000	77.256500
720.000000	77.132800
719.000000	76.991300
718.000000	76.999900
717.000000	76.853900
716.000000	76.726300
715.000000	76.587500
714.000000	76.573600
713.000000	76.518600
712.000000	76.465800
711.000000	76.356700
710.000000	76.315100
709.000000	76.290300
708.000000	76.149600
707.000000	76.118900
706.000000	76.068000
705.000000	76.011800
704.000000	75.954500
703.000000	76.019700
702.000000	75.998300
701.000000	75.952600
700.000000	75.851100
699.000000	75.791600
698.000000	75.703000
697.000000	75.656000
696.000000	75.603400
695.000000	75.452300
694.000000	75.351200
693.000000	75.201900
692.000000	74.975600
691.000000	74.830100
690.000000	74.701000
689.000000	74.414700
688.000000	74.157100
687.000000	73.917300
686.000000	73.573300
685.000000	73.239200
684.000000	72.876800
683.000000	72.467700
682.000000	72.024300
681.000000	71.547400
680.000000	71.017700
679.000000	70.434900
678.000000	69.901000
677.000000	69.345300
676.000000	68.772600
675.000000	68.149400
674.000000	67.493600
673.000000	66.819400
672.000000	66.126400
671.000000	65.427400
670.000000	64.756100
669.000000	64.065300
668.000000	63.380200
667.000000	62.726800
666.000000	62.128500
665.000000	61.536400
664.000000	60.913500
663.000000	60.302000
662.000000	59.773500
661.000000	59.356700
660.000000	58.977900
659.000000	58.590100
658.000000	58.288900
657.000000	58.057500
656.000000	57.896500
655.000000	57.829000
654.000000	57.875200
653.000000	57.989300
652.000000	58.199000
651.000000	58.491600
650.000000	58.888400
649.000000	59.361900
648.000000	59.849500
647.000000	60.399300
646.000000	60.981900
645.000000	61.631300
644.000000	62.342600
643.000000	63.025400
642.000000	63.710700
641.000000	64.425800
640.000000	65.100300
639.000000	65.779200
638.000000	66.504900
637.000000	67.221600
636.000000	67.873300
635.000000	68.549600
634.000000	69.314200
633.000000	70.049500
632.000000	70.757600
631.000000	71.490000
630.000000	72.203200
629.000000	72.952500
628.000000	73.707500
627.000000	74.422700
626.000000	75.063400
625.000000	75.729000
624.000000	76.436300
623.000000	77.094700
622.000000	77.740400
621.000000	78.355700
620.000000	78.903300
619.000000	79.449500
618.000000	79.985200
617.000000	80.512000
616.000000	80.989100
615.000000	81.486300
614.000000	81.977500
613.000000	82.463500
612.000000	82.891600
611.000000	83.279900
610.000000	83.688900
609.000000	84.097800
608.000000	84.447500
607.000000	84.770200
606.000000	85.101000
605.000000	85.432300
604.000000	85.720500
603.000000	85.963200
602.000000	86.158500
601.000000	86.333200
600.000000	86.516700
599.000000	86.679200
598.000000	86.844500
597.000000	86.954200
596.000000	87.018800
595.000000	87.107900
594.000000	87.198100
593.000000	87.277200
592.000000	87.282400
591.000000	87.321100
590.000000	87.363700
589.000000	87.393500
588.000000	87.442900
587.000000	87.426500
586.000000	87.434400
585.000000	87.421700
584.000000	87.347800
583.000000	87.325000
582.000000	87.291800
581.000000	87.251300
580.000000	87.155300
579.000000	87.021400
578.000000	86.894200
577.000000	86.807500
576.000000	86.641100
575.000000	86.461500
574.000000	86.291300
573.000000	86.119400
572.000000	85.900600
571.000000	85.713800
570.000000	85.521600
569.000000	85.250900
568.000000	84.996500
567.000000	84.699100
566.000000	84.403900
565.000000	84.089600
564.000000	83.736900
563.000000	83.367200
562.000000	82.946500
561.000000	82.501900
560.000000	82.026400
559.000000	81.520200
558.000000	81.054800
557.000000	80.552800
556.000000	80.022300
555.000000	79.488100
554.000000	78.950100
553.000000	78.350700
552.000000	77.763000
551.000000	77.183000
550.000000	76.570100
549.000000	75.903000
548.000000	75.257700
547.000000	74.484900
546.000000	73.760100
545.000000	72.925200
544.000000	72.032300
543.000000	71.117700
542.000000	70.102000
541.000000	69.051500
540.000000	67.920100
539.000000	66.736800
538.000000	65.498700
537.000000	64.257300
536.000000	62.930600
535.000000	61.553500
534.000000	60.162500
533.000000	58.756600
532.000000	57.329200
531.000000	55.877300
530.000000	54.479100
529.000000	53.053300
528.000000	51.734700
527.000000	50.445500
526.000000	49.172300
525.000000	47.970400
524.000000	46.851100
523.000000	45.704300
522.000000	44.701700
521.000000	43.746300
520.000000	42.859400
519.000000	42.088500
518.000000	41.380200
517.000000	40.744500
516.000000	40.178400
515.000000	39.666300
514.000000	39.204100
513.000000	38.763600
512.000000	38.384000
511.000000	38.049600
510.000000	37.658500
509.000000	37.347000
508.000000	37.024600
507.000000	36.727200
506.000000	36.406900
505.000000	36.071100
504.000000	35.739800
503.000000	35.383400
502.000000	35.047100
501.000000	34.609600
500.000000	34.228600
499.000000	33.759100
498.000000	33.316100
497.000000	32.881400
496.000000	32.397900
495.000000	31.884200
494.000000	31.436300
493.000000	30.898300
492.000000	30.498400
491.000000	30.007600
490.000000	29.614700
489.000000	29.256800
488.000000	28.930200
487.000000	28.641800
486.000000	28.407500
485.000000	28.203600
484.000000	28.030300
483.000000	27.906400
482.000000	27.784800
481.000000	27.721300
480.000000	27.685900
479.000000	27.669500
478.000000	27.680200
477.000000	27.674400
476.000000	27.699900
475.000000	27.728600
474.000000	27.793200
473.000000	27.823300
472.000000	27.901300
471.000000	27.922900
470.000000	27.964000
469.000000	28.016600
468.000000	28.043600
467.000000	28.072300
466.000000	28.076700
465.000000	28.115700
464.000000	28.128800
463.000000	28.133300
462.000000	28.145000
461.000000	28.127800
460.000000	28.083900
459.000000	28.078200
458.000000	28.010500
457.000000	27.921600
456.000000	27.855000
455.000000	27.754400
454.000000	27.669300
453.000000	27.578200
452.000000	27.420000
451.000000	27.338100
450.000000	27.190400
449.000000	27.018400
448.000000	26.851700
447.000000	26.670400
446.000000	26.440900
445.000000	26.241800
444.000000	26.002200
443.000000	25.747400
442.000000	25.413500
441.000000	25.152300
440.000000	24.862400
439.000000	24.558200
438.000000	24.252500
437.000000	23.892500
436.000000	23.567500
435.000000	23.177800
434.000000	22.784700
433.000000	22.379000
432.000000	21.978100
431.000000	21.563600
430.000000	21.137500
429.000000	20.680300
428.000000	20.212900
427.000000	19.770700
426.000000	19.334300
425.000000	18.854800
424.000000	18.345000
423.000000	17.840700
422.000000	17.362300
421.000000	16.913800
420.000000	16.411800
419.000000	15.939800
418.000000	15.447000
417.000000	14.987400
416.000000	14.559600
415.000000	14.100800
414.000000	13.681600
413.000000	13.250100
412.000000	12.841700
411.000000	12.460000
410.000000	12.117100
409.000000	11.766300
408.000000	11.445500
407.000000	11.151700
406.000000	10.849200
405.000000	10.548800
404.000000	10.291300
403.000000	10.043800
402.000000	9.826600
401.000000	9.594500
400.000000	9.393900
399.000000	9.212600
398.000000	9.021200
397.000000	8.832700
396.000000	8.665700
395.000000	8.526200
394.000000	8.395500
393.000000	8.259800
392.000000	8.133000
391.000000	8.014400
390.000000	7.920700
389.000000	7.806700
388.000000	7.678600
387.000000	7.614400
386.000000	7.547800
385.000000	7.453600
384.000000	7.345400
383.000000	7.286300
382.000000	7.223000
381.000000	7.174300
380.000000	7.125100
379.000000	7.068400
378.000000	7.031600
377.000000	6.959500
376.000000	6.935600
375.000000	6.738300
374.000000	6.391900
373.000000	6.564400
372.000000	6.702800
371.000000	6.410200
370.000000	6.480000
369.000000	6.474800
368.000000	6.490100
367.000000	6.543600
366.000000	6.565200
365.000000	6.587200
364.000000	6.612500
363.000000	6.479300
362.000000	6.510000
361.000000	6.564800
360.000000	6.454000
359.000000	6.304400
358.000000	6.247400
357.000000	6.361600
356.000000	6.519800
355.000000	6.413800
354.000000	6.356900
353.000000	6.180000
352.000000	6.169300
351.000000	6.396400
350.000000	6.270200
349.000000	6.079000
348.000000	6.163000
347.000000	6.282000
346.000000	6.155100
345.000000	6.043700
344.000000	6.280000
343.000000	6.406200
342.000000	6.242900
341.000000	6.190600
340.000000	6.176700
339.000000	6.054500
338.000000	6.010600
337.000000	6.139000
336.000000	6.198400
335.000000	6.379000
334.000000	6.439800
333.000000	6.322400
332.000000	6.197600
331.000000	6.266800
330.000000	6.554100
329.000000	6.324500
328.000000	6.103300
327.000000	6.290400
326.000000	6.544700
325.000000	7.112500
324.000000	6.929500
323.000000	6.537000
322.000000	6.886200
321.000000	7.211800
320.000000	7.303700
319.000000	7.337900
318.000000	7.424300
317.000000	7.245400
316.000000	6.475900
315.000000	6.045500
314.000000	6.029600
313.000000	5.981100
312.000000	6.003700
311.000000	6.027900
310.000000	6.022900
309.000000	6.032700
308.000000	6.041100
307.000000	6.045800
306.000000	6.061400
305.000000	6.084600
304.000000	6.083800
303.000000	6.099700
302.000000	6.097400
301.000000	6.081300
300.000000	6.078200
299.000000	6.074200
298.000000	6.096700
297.000000	6.127300
296.000000	6.109700
295.000000	6.096200
294.000000	6.107200
293.000000	6.088200
292.000000	6.095300
291.000000	6.128600
290.000000	6.112700
289.000000	6.110700
288.000000	6.133200
287.000000	6.117100
286.000000	6.133000
285.000000	6.098000
284.000000	6.120800
283.000000	6.160000
282.000000	6.138300
281.000000	6.149500
280.000000	6.167200
279.000000	6.171100
278.000000	6.150500
277.000000	6.198000
276.000000	6.216000
275.000000	6.218600
274.000000	6.211200
273.000000	6.205300
272.000000	6.254300
271.000000	6.292600
270.000000	6.290600
269.000000	6.264800
268.000000	6.310600
267.000000	6.384500
266.000000	6.377600
265.000000	6.391800
264.000000	6.418800
263.000000	6.441700
262.000000	6.456400
261.000000	6.471100
260.000000	6.474700
259.000000	6.530000
258.000000	6.566700
257.000000	6.633900
256.000000	6.614900
255.000000	6.609700
254.000000	6.652200
253.000000	6.647000
252.000000	6.675300
251.000000	6.713200
250.000000	6.664700
