PE UV       SUBTECH     SPECTRUM    ASCII       PEDS        4.00        
   -1
CICIMAUCR0213-2.ASC
24/06/12
16:21:19.00
24/06/12
16:21:19.00
Vinicio Soto Monge
C. resplendens. Sex M. Dorsal.
250,000000
1
Lambda 1050
1050L1511233
PerkinElmer UV WinLab 6.3.2.0749 / 2.02.05 Lambda 900 UV/VIS/NIR, Aug  7 2015 09:38:08

0
0
3350/servo 860,8/2
0
0
UV/VIS
1
1
1
DoubleDePol,CommonBeamDepol,RBeamAtt,SBeamAtt,60mm sphere, WB InGaAs Detector
0
0
0
0
Program
Program
3350/servo 860,8/2
3350/0,2 860,8/0,2
3350/0,2 860,8/0,2
0
15.00
 
 
 
0
 
860,8
319,2
860,8
Front
100
on
S:100 R:100
0
0
0
0
 
0
 
 
 
0
 
 
0
0
0
0
0
 
 
 
 
0
0


0
0
#HDR
-1
-1
#GR
nm
%R
1.0
0.0
2500,000000
-1,000000
2251
8
92,295300
4,944400
#DATA
2482.000000	8.671904
2481.000000	8.539209
2480.000000	8.573031
2479.000000	8.646382
2478.000000	8.571890
2477.000000	8.742039
2476.000000	8.728448
2475.000000	8.732390
2474.000000	8.786236
2473.000000	8.698568
2472.000000	8.766109
2471.000000	8.714442
2470.000000	8.662774
2469.000000	8.750339
2468.000000	8.741728
2467.000000	8.799412
2466.000000	8.796507
2465.000000	8.763619
2464.000000	8.841120
2463.000000	8.826491
2462.000000	8.890297
2461.000000	8.824416
2460.000000	8.875461
2459.000000	8.869236
2458.000000	8.907416
2457.000000	9.006496
2456.000000	9.032641
2455.000000	9.074452
2454.000000	9.083271
2453.000000	9.195217
2452.000000	9.285168
2451.000000	9.326149
2450.000000	9.386323
2449.000000	9.490695
2448.000000	9.591229
2447.000000	9.601292
2446.000000	9.697676
2445.000000	9.741458
2444.000000	9.833484
2443.000000	9.866580
2442.000000	9.968773
2441.000000	10.058205
2440.000000	10.109561
2439.000000	10.138093
2438.000000	10.216527
2437.000000	10.324012
2436.000000	10.413548
2435.000000	10.429006
2434.000000	10.502980
2433.000000	10.568653
2432.000000	10.646880
2431.000000	10.668979
2430.000000	10.716600
2429.000000	10.781236
2428.000000	10.825641
2427.000000	10.882184
2426.000000	10.911960
2425.000000	10.988112
2424.000000	11.027641
2423.000000	11.103171
2422.000000	11.124543
2421.000000	11.152555
2420.000000	11.211174
2419.000000	11.275499
2418.000000	11.303200
2417.000000	11.317828
2416.000000	11.366694
2415.000000	11.378729
2414.000000	11.434754
2413.000000	11.477603
2412.000000	11.526987
2411.000000	11.547737
2410.000000	11.574816
2409.000000	11.628558
2408.000000	11.655948
2407.000000	11.666427
2406.000000	11.688007
2405.000000	11.714048
2404.000000	11.735628
2403.000000	11.765508
2402.000000	11.812714
2401.000000	11.837095
2400.000000	11.870087
2399.000000	11.889385
2398.000000	11.921962
2397.000000	11.932544
2396.000000	11.972384
2395.000000	11.992408
2394.000000	12.039925
2393.000000	12.090244
2392.000000	12.107362
2391.000000	12.102382
2390.000000	12.124481
2389.000000	12.161935
2388.000000	12.190569
2387.000000	12.237983
2386.000000	12.242444
2385.000000	12.245453
2384.000000	12.265995
2383.000000	12.269834
2382.000000	12.286538
2381.000000	12.287783
2380.000000	12.265062
2379.000000	12.275229
2378.000000	12.288198
2377.000000	12.270353
2376.000000	12.251470
2375.000000	12.262157
2374.000000	12.273050
2373.000000	12.266618
2372.000000	12.251885
2371.000000	12.240577
2370.000000	12.235389
2369.000000	12.222628
2368.000000	12.223354
2367.000000	12.201463
2366.000000	12.169716
2365.000000	12.151248
2364.000000	12.131225
2363.000000	12.095016
2362.000000	12.049989
2361.000000	12.002679
2360.000000	11.959934
2359.000000	11.909097
2358.000000	11.861891
2357.000000	11.828069
2356.000000	11.787606
2355.000000	11.747351
2354.000000	11.725564
2353.000000	11.723593
2352.000000	11.720999
2351.000000	11.704814
2350.000000	11.692779
2349.000000	11.705540
2348.000000	11.713010
2347.000000	11.736769
2346.000000	11.790096
2345.000000	11.840000
2344.000000	11.865937
2343.000000	11.889696
2342.000000	11.925282
2341.000000	11.967923
2340.000000	11.999774
2339.000000	12.037850
2338.000000	12.086924
2337.000000	12.081425
2336.000000	12.094809
2335.000000	12.111616
2334.000000	12.112757
2333.000000	12.127075
2332.000000	12.112239
2331.000000	12.090451
2330.000000	12.072502
2329.000000	12.030795
2328.000000	12.027164
2327.000000	12.013573
2326.000000	11.953502
2325.000000	11.915633
2324.000000	11.854836
2323.000000	11.802546
2322.000000	11.733864
2321.000000	11.666427
2320.000000	11.600338
2319.000000	11.513604
2318.000000	11.412552
2317.000000	11.322082
2316.000000	11.246449
2315.000000	11.158469
2314.000000	11.066236
2313.000000	10.972965
2312.000000	10.878968
2311.000000	10.791818
2310.000000	10.694501
2309.000000	10.640966
2308.000000	10.587328
2307.000000	10.524871
2306.000000	10.480051
2305.000000	10.474449
2304.000000	10.455359
2303.000000	10.486691
2302.000000	10.517090
2301.000000	10.559212
2300.000000	10.606418
2299.000000	10.649266
2298.000000	10.714629
2297.000000	10.788498
2296.000000	10.878864
2295.000000	10.956988
2294.000000	11.025462
2293.000000	11.093418
2292.000000	11.149235
2291.000000	11.223209
2290.000000	11.282242
2289.000000	11.315546
2288.000000	11.337748
2287.000000	11.377899
2286.000000	11.381219
2285.000000	11.373957
2284.000000	11.347916
2283.000000	11.318347
2282.000000	11.298116
2281.000000	11.281516
2280.000000	11.243025
2279.000000	11.179219
2278.000000	11.145708
2277.000000	11.110641
2276.000000	11.063331
2275.000000	11.024010
2274.000000	10.972135
2273.000000	10.918808
2272.000000	10.904905
2271.000000	10.874403
2270.000000	10.894634
2269.000000	10.905943
2268.000000	10.929909
2267.000000	10.980124
2266.000000	11.050362
2265.000000	11.113546
2264.000000	11.206505
2263.000000	11.325298
2262.000000	11.444610
2261.000000	11.602621
2260.000000	11.777439
2259.000000	11.967612
2258.000000	12.176148
2257.000000	12.365595
2256.000000	12.565313
2255.000000	12.781008
2254.000000	12.994317
2253.000000	13.208145
2252.000000	13.419794
2251.000000	13.625010
2250.000000	13.822342
2249.000000	13.987407
2248.000000	14.179967
2247.000000	14.327913
2246.000000	14.494743
2245.000000	14.658667
2244.000000	14.793853
2243.000000	14.906421
2242.000000	15.024695
2241.000000	15.097009
2240.000000	15.214246
2239.000000	15.282409
2238.000000	15.387507
2237.000000	15.440420
2236.000000	15.517506
2235.000000	15.583075
2234.000000	15.624679
2233.000000	15.663689
2232.000000	15.718987
2231.000000	15.759346
2230.000000	15.786009
2229.000000	15.806655
2228.000000	15.797525
2227.000000	15.793687
2226.000000	15.817549
2225.000000	15.820765
2224.000000	15.809664
2223.000000	15.803335
2222.000000	15.787669
2221.000000	15.765052
2220.000000	15.731333
2219.000000	15.706641
2218.000000	15.665867
2217.000000	15.641590
2216.000000	15.599364
2215.000000	15.591479
2214.000000	15.558590
2213.000000	15.485654
2212.000000	15.482231
2211.000000	15.463660
2210.000000	15.429007
2209.000000	15.407531
2208.000000	15.361570
2207.000000	15.351195
2206.000000	15.319033
2205.000000	15.297557
2204.000000	15.292680
2203.000000	15.261452
2202.000000	15.248898
2201.000000	15.220263
2200.000000	15.206879
2199.000000	15.193911
2198.000000	15.173368
2197.000000	15.152826
2196.000000	15.153760
2195.000000	15.139338
2194.000000	15.118796
2193.000000	15.094104
2192.000000	15.084766
2191.000000	15.088294
2190.000000	15.054990
2189.000000	15.050633
2188.000000	15.030194
2187.000000	15.010585
2186.000000	15.008718
2185.000000	14.996372
2184.000000	14.969916
2183.000000	14.950411
2182.000000	14.941696
2181.000000	14.934226
2180.000000	14.923954
2179.000000	14.915966
2178.000000	14.891792
2177.000000	14.886397
2176.000000	14.852575
2175.000000	14.847076
2174.000000	14.848529
2173.000000	14.852990
2172.000000	14.853820
2171.000000	14.863261
2170.000000	14.850292
2169.000000	14.852264
2168.000000	14.868552
2167.000000	14.874881
2166.000000	14.884115
2165.000000	14.901960
2164.000000	14.918352
2163.000000	14.926963
2162.000000	14.985789
2161.000000	14.993052
2160.000000	15.021790
2159.000000	15.045341
2158.000000	15.084351
2157.000000	15.111845
2156.000000	15.151062
2155.000000	15.189761
2154.000000	15.233128
2153.000000	15.263008
2152.000000	15.308139
2151.000000	15.344866
2150.000000	15.396741
2149.000000	15.453285
2148.000000	15.481608
2147.000000	15.523004
2146.000000	15.546763
2145.000000	15.598845
2144.000000	15.653210
2143.000000	15.687551
2142.000000	15.731541
2141.000000	15.777191
2140.000000	15.817964
2139.000000	15.842034
2138.000000	15.869320
2137.000000	15.900964
2136.000000	15.933022
2135.000000	15.965703
2134.000000	16.009693
2133.000000	16.012183
2132.000000	16.021624
2131.000000	16.057418
2130.000000	16.072358
2129.000000	16.082422
2128.000000	16.089684
2127.000000	16.099125
2126.000000	16.111990
2125.000000	16.105558
2124.000000	16.102549
2123.000000	16.098607
2122.000000	16.103068
2121.000000	16.089892
2120.000000	16.079413
2119.000000	16.056796
2118.000000	16.040818
2117.000000	16.033867
2116.000000	16.024011
2115.000000	15.999422
2114.000000	15.963525
2113.000000	15.952112
2112.000000	15.923374
2111.000000	15.903246
2110.000000	15.880110
2109.000000	15.847533
2108.000000	15.818172
2107.000000	15.785698
2106.000000	15.763496
2105.000000	15.737662
2104.000000	15.708508
2103.000000	15.674686
2102.000000	15.643769
2101.000000	15.605070
2100.000000	15.581104
2099.000000	15.561184
2098.000000	15.528814
2097.000000	15.496237
2096.000000	15.475902
2095.000000	15.452766
2094.000000	15.422575
2093.000000	15.401099
2092.000000	15.388441
2091.000000	15.364890
2090.000000	15.336463
2089.000000	15.308035
2088.000000	15.294444
2087.000000	15.276703
2086.000000	15.253048
2085.000000	15.229082
2084.000000	15.197646
2083.000000	15.160918
2082.000000	15.131661
2081.000000	15.113609
2080.000000	15.071590
2079.000000	15.025525
2078.000000	14.998135
2077.000000	14.956636
2076.000000	14.912646
2075.000000	14.875296
2074.000000	14.825807
2073.000000	14.774140
2072.000000	14.726519
2071.000000	14.676927
2070.000000	14.631485
2069.000000	14.569546
2068.000000	14.507400
2067.000000	14.462165
2066.000000	14.415063
2065.000000	14.356860
2064.000000	14.303636
2063.000000	14.247611
2062.000000	14.210780
2061.000000	14.173327
2060.000000	14.125913
2059.000000	14.093958
2058.000000	14.057231
2057.000000	14.020296
2056.000000	13.997264
2055.000000	13.979004
2054.000000	13.972675
2053.000000	13.965205
2052.000000	13.975891
2051.000000	14.000791
2050.000000	14.006394
2049.000000	14.035132
2048.000000	14.072378
2047.000000	14.115331
2046.000000	14.157660
2045.000000	14.224164
2044.000000	14.284027
2043.000000	14.341608
2042.000000	14.394106
2041.000000	14.449300
2040.000000	14.517879
2039.000000	14.564359
2038.000000	14.598181
2037.000000	14.664269
2036.000000	14.720190
2035.000000	14.750900
2034.000000	14.797899
2033.000000	14.839295
2032.000000	14.863572
2031.000000	14.876852
2030.000000	14.917729
2029.000000	14.928208
2028.000000	14.945223
2027.000000	14.960993
2026.000000	14.977697
2025.000000	14.991599
2024.000000	15.012868
2023.000000	15.008718
2022.000000	14.997098
2021.000000	15.020442
2020.000000	15.001040
2019.000000	15.004464
2018.000000	14.984959
2017.000000	14.963379
2016.000000	14.948854
2015.000000	14.928623
2014.000000	14.907666
2013.000000	14.903931
2012.000000	14.875815
2011.000000	14.854442
2010.000000	14.804435
2009.000000	14.763039
2008.000000	14.754531
2007.000000	14.699233
2006.000000	14.649329
2005.000000	14.623288
2004.000000	14.572762
2003.000000	14.517568
2002.000000	14.451272
2001.000000	14.402509
2000.000000	14.341816
1999.000000	14.275001
1998.000000	14.209535
1997.000000	14.137741
1996.000000	14.067813
1995.000000	13.991246
1994.000000	13.927648
1993.000000	13.857098
1992.000000	13.777522
1991.000000	13.698569
1990.000000	13.631339
1989.000000	13.564732
1988.000000	13.481836
1987.000000	13.377360
1986.000000	13.292701
1985.000000	13.217793
1984.000000	13.131163
1983.000000	13.053662
1982.000000	12.947733
1981.000000	12.864838
1980.000000	12.789827
1979.000000	12.693028
1978.000000	12.618847
1977.000000	12.535122
1976.000000	12.451707
1975.000000	12.348787
1974.000000	12.281454
1973.000000	12.198662
1972.000000	12.120227
1971.000000	12.056214
1970.000000	11.961594
1969.000000	11.879217
1968.000000	11.798500
1967.000000	11.722140
1966.000000	11.644121
1965.000000	11.562262
1964.000000	11.483724
1963.000000	11.414834
1962.000000	11.355801
1961.000000	11.264812
1960.000000	11.215013
1959.000000	11.122572
1958.000000	11.050777
1957.000000	10.997346
1956.000000	10.909367
1955.000000	10.867037
1954.000000	10.788706
1953.000000	10.725419
1952.000000	10.688276
1951.000000	10.605899
1950.000000	10.532444
1949.000000	10.516571
1948.000000	10.457226
1947.000000	10.400164
1946.000000	10.339885
1945.000000	10.295169
1944.000000	10.275353
1943.000000	10.252321
1942.000000	10.220573
1941.000000	10.188100
1940.000000	10.160710
1939.000000	10.151165
1938.000000	10.145978
1937.000000	10.134773
1936.000000	10.138300
1935.000000	10.147637
1934.000000	10.118899
1933.000000	10.155004
1932.000000	10.181875
1931.000000	10.195777
1930.000000	10.263214
1929.000000	10.312495
1928.000000	10.377443
1927.000000	10.439900
1926.000000	10.490426
1925.000000	10.573633
1924.000000	10.659330
1923.000000	10.734445
1922.000000	10.831554
1921.000000	10.930013
1920.000000	11.089579
1919.000000	11.251636
1918.000000	11.368562
1917.000000	11.493061
1916.000000	11.612581
1915.000000	11.735732
1914.000000	11.902664
1913.000000	12.084952
1912.000000	12.286434
1911.000000	12.485426
1910.000000	12.668855
1909.000000	12.853010
1908.000000	13.036647
1907.000000	13.243316
1906.000000	13.455069
1905.000000	13.718800
1904.000000	14.017080
1903.000000	14.264730
1902.000000	14.515908
1901.000000	14.821865
1900.000000	15.100744
1899.000000	15.413652
1898.000000	15.767438
1897.000000	16.088854
1896.000000	16.428115
1895.000000	16.722971
1894.000000	17.019280
1893.000000	17.352523
1892.000000	17.727785
1891.000000	18.183453
1890.000000	18.622729
1889.000000	19.058062
1888.000000	19.472749
1887.000000	19.899263
1886.000000	20.338227
1885.000000	20.804063
1884.000000	21.279962
1883.000000	21.805246
1882.000000	22.327313
1881.000000	22.813069
1880.000000	23.289279
1879.000000	23.731874
1878.000000	24.176130
1877.000000	24.630864
1876.000000	25.056652
1875.000000	25.468641
1874.000000	25.898994
1873.000000	26.299571
1872.000000	26.719031
1871.000000	27.080079
1870.000000	27.439986
1869.000000	27.761921
1868.000000	28.076801
1867.000000	28.330883
1866.000000	28.517114
1865.000000	28.678341
1864.000000	28.812696
1863.000000	28.931178
1862.000000	29.073937
1861.000000	29.243775
1860.000000	29.406040
1859.000000	29.539669
1858.000000	29.676307
1857.000000	29.807135
1856.000000	29.883910
1855.000000	29.937237
1854.000000	30.009862
1853.000000	30.079374
1852.000000	30.120459
1851.000000	30.134465
1850.000000	30.135814
1849.000000	30.160506
1848.000000	30.208750
1847.000000	30.255333
1846.000000	30.282723
1845.000000	30.267057
1844.000000	30.208231
1843.000000	30.151065
1842.000000	30.139549
1841.000000	30.181256
1840.000000	30.220058
1839.000000	30.223482
1838.000000	30.212070
1837.000000	30.185302
1836.000000	30.171089
1835.000000	30.135399
1834.000000	30.098879
1833.000000	30.020756
1832.000000	29.946782
1831.000000	29.891484
1830.000000	29.861915
1829.000000	29.833177
1828.000000	29.784414
1827.000000	29.731606
1826.000000	29.674855
1825.000000	29.628375
1824.000000	29.569964
1823.000000	29.513628
1822.000000	29.490596
1821.000000	29.489766
1820.000000	29.492878
1819.000000	29.476797
1818.000000	29.415481
1817.000000	29.370142
1816.000000	29.344724
1815.000000	29.326568
1814.000000	29.309241
1813.000000	29.276145
1812.000000	29.260998
1811.000000	29.232674
1810.000000	29.202276
1809.000000	29.173433
1808.000000	29.135668
1807.000000	29.092509
1806.000000	29.052773
1805.000000	29.007538
1804.000000	28.957116
1803.000000	28.910739
1802.000000	28.886151
1801.000000	28.864363
1800.000000	28.815186
1799.000000	28.749201
1798.000000	28.690790
1797.000000	28.633209
1796.000000	28.590672
1795.000000	28.565565
1794.000000	28.522924
1793.000000	28.474784
1792.000000	28.433180
1791.000000	28.393237
1790.000000	28.353397
1789.000000	28.308473
1788.000000	28.259607
1787.000000	28.224333
1786.000000	28.193726
1785.000000	28.158244
1784.000000	28.103776
1783.000000	28.054910
1782.000000	28.012372
1781.000000	27.957696
1780.000000	27.912047
1779.000000	27.875630
1778.000000	27.818464
1777.000000	27.752895
1776.000000	27.715441
1775.000000	27.663463
1774.000000	27.605363
1773.000000	27.537407
1772.000000	27.457105
1771.000000	27.382094
1770.000000	27.312997
1769.000000	27.238608
1768.000000	27.176255
1767.000000	27.107676
1766.000000	27.047294
1765.000000	26.996664
1764.000000	26.959522
1763.000000	26.937631
1762.000000	26.918645
1761.000000	26.931095
1760.000000	26.960456
1759.000000	26.993033
1758.000000	27.035882
1757.000000	27.101763
1756.000000	27.166917
1755.000000	27.219311
1754.000000	27.277307
1753.000000	27.322334
1752.000000	27.343603
1751.000000	27.369436
1750.000000	27.395374
1749.000000	27.406579
1748.000000	27.388111
1747.000000	27.357402
1746.000000	27.330738
1745.000000	27.286644
1744.000000	27.231346
1743.000000	27.144196
1742.000000	27.048747
1741.000000	26.952260
1740.000000	26.848303
1739.000000	26.715296
1738.000000	26.566934
1737.000000	26.430503
1736.000000	26.295318
1735.000000	26.191983
1734.000000	26.123612
1733.000000	26.061674
1732.000000	26.042273
1731.000000	26.035010
1730.000000	26.062919
1729.000000	26.114275
1728.000000	26.189701
1727.000000	26.245829
1726.000000	26.320529
1725.000000	26.387966
1724.000000	26.436313
1723.000000	26.508938
1722.000000	26.572951
1721.000000	26.613517
1720.000000	26.670787
1719.000000	26.722973
1718.000000	26.796532
1717.000000	26.868949
1716.000000	26.929435
1715.000000	27.002786
1714.000000	27.084644
1713.000000	27.177085
1712.000000	27.249087
1711.000000	27.330323
1710.000000	27.372238
1709.000000	27.414879
1708.000000	27.463745
1707.000000	27.445900
1706.000000	27.424839
1705.000000	27.415813
1704.000000	27.375869
1703.000000	27.338727
1702.000000	27.281042
1701.000000	27.217755
1700.000000	27.125003
1699.000000	27.008907
1698.000000	26.903394
1697.000000	26.801304
1696.000000	26.696828
1695.000000	26.605321
1694.000000	26.590485
1693.000000	26.585090
1692.000000	26.618601
1691.000000	26.665911
1690.000000	26.763228
1689.000000	26.846331
1688.000000	26.932236
1687.000000	26.988572
1686.000000	27.042210
1685.000000	27.074373
1684.000000	27.160796
1683.000000	27.244211
1682.000000	27.348064
1681.000000	27.550583
1680.000000	27.786302
1679.000000	28.075971
1678.000000	28.409007
1677.000000	28.772960
1676.000000	29.090226
1675.000000	29.401890
1674.000000	29.702037
1673.000000	29.945537
1672.000000	30.169429
1671.000000	30.355763
1670.000000	30.537740
1669.000000	30.676971
1668.000000	30.810497
1667.000000	30.915595
1666.000000	31.018722
1665.000000	31.084707
1664.000000	31.172064
1663.000000	31.238153
1662.000000	31.295526
1661.000000	31.355805
1660.000000	31.377903
1659.000000	31.438908
1658.000000	31.476050
1657.000000	31.494206
1656.000000	31.504478
1655.000000	31.522945
1654.000000	31.509561
1653.000000	31.515060
1652.000000	31.532179
1651.000000	31.497941
1650.000000	31.493895
1649.000000	31.471174
1648.000000	31.438182
1647.000000	31.397927
1646.000000	31.379252
1645.000000	31.343458
1644.000000	31.296356
1643.000000	31.252263
1642.000000	31.200388
1641.000000	31.166047
1640.000000	31.146127
1639.000000	31.095290
1638.000000	31.053790
1637.000000	30.994652
1636.000000	30.935100
1635.000000	30.879283
1634.000000	30.834878
1633.000000	30.783315
1632.000000	30.730091
1631.000000	30.670850
1630.000000	30.603102
1629.000000	30.546766
1628.000000	30.479121
1627.000000	30.426935
1626.000000	30.359809
1625.000000	30.316338
1624.000000	30.235413
1623.000000	30.180841
1622.000000	30.099294
1621.000000	30.086118
1620.000000	29.997101
1619.000000	29.933917
1618.000000	29.897294
1617.000000	29.845523
1616.000000	29.784310
1615.000000	29.723721
1614.000000	29.672883
1613.000000	29.608040
1612.000000	29.564984
1611.000000	29.516429
1610.000000	29.467563
1609.000000	29.424403
1608.000000	29.366719
1607.000000	29.303328
1606.000000	29.257989
1605.000000	29.199993
1604.000000	29.145213
1603.000000	29.081200
1602.000000	29.034098
1601.000000	28.973404
1600.000000	28.904722
1599.000000	28.850668
1598.000000	28.787070
1597.000000	28.734988
1596.000000	28.699609
1595.000000	28.635284
1594.000000	28.579675
1593.000000	28.533714
1592.000000	28.495326
1591.000000	28.440235
1590.000000	28.380476
1589.000000	28.331610
1588.000000	28.295609
1587.000000	28.253694
1586.000000	28.211571
1585.000000	28.167685
1584.000000	28.132826
1583.000000	28.091014
1582.000000	28.037065
1581.000000	27.990066
1580.000000	27.951575
1579.000000	27.912150
1578.000000	27.877290
1577.000000	27.835064
1576.000000	27.806118
1575.000000	27.796988
1574.000000	27.762958
1573.000000	27.729862
1572.000000	27.714922
1571.000000	27.685458
1570.000000	27.667716
1569.000000	27.650701
1568.000000	27.631300
1567.000000	27.603807
1566.000000	27.584821
1565.000000	27.581604
1564.000000	27.563344
1563.000000	27.546226
1562.000000	27.527655
1561.000000	27.503896
1560.000000	27.477128
1559.000000	27.464056
1558.000000	27.439882
1557.000000	27.398590
1556.000000	27.359892
1555.000000	27.343084
1554.000000	27.303763
1553.000000	27.273053
1552.000000	27.246390
1551.000000	27.197939
1550.000000	27.143159
1549.000000	27.085059
1548.000000	27.042003
1547.000000	26.998324
1546.000000	26.939706
1545.000000	26.893330
1544.000000	26.847991
1543.000000	26.800163
1542.000000	26.756588
1541.000000	26.728057
1540.000000	26.691018
1539.000000	26.653772
1538.000000	26.610612
1537.000000	26.572329
1536.000000	26.546080
1535.000000	26.499393
1534.000000	26.455714
1533.000000	26.424486
1532.000000	26.376865
1531.000000	26.327065
1530.000000	26.274671
1529.000000	26.220514
1528.000000	26.182542
1527.000000	26.133053
1526.000000	26.065616
1525.000000	26.002744
1524.000000	25.955745
1523.000000	25.917047
1522.000000	25.868803
1521.000000	25.810807
1520.000000	25.759036
1519.000000	25.703012
1518.000000	25.638168
1517.000000	25.573428
1516.000000	25.519375
1515.000000	25.461794
1514.000000	25.396432
1513.000000	25.339577
1512.000000	25.289466
1511.000000	25.226698
1510.000000	25.153243
1509.000000	25.083108
1508.000000	25.030300
1507.000000	24.973652
1506.000000	24.915553
1505.000000	24.855170
1504.000000	24.781508
1503.000000	24.733472
1502.000000	24.672468
1501.000000	24.608350
1500.000000	24.565709
1499.000000	24.511967
1498.000000	24.462375
1497.000000	24.407387
1496.000000	24.351570
1495.000000	24.308307
1494.000000	24.269919
1493.000000	24.225307
1492.000000	24.186090
1491.000000	24.157870
1490.000000	24.127990
1489.000000	24.096450
1488.000000	24.055469
1487.000000	24.014903
1486.000000	23.990626
1485.000000	23.954002
1484.000000	23.916237
1483.000000	23.892997
1482.000000	23.862287
1481.000000	23.842471
1480.000000	23.824938
1479.000000	23.796822
1478.000000	23.768913
1477.000000	23.758123
1476.000000	23.737788
1475.000000	23.731874
1474.000000	23.739759
1473.000000	23.734364
1472.000000	23.728969
1471.000000	23.718594
1470.000000	23.711954
1469.000000	23.713199
1468.000000	23.706456
1467.000000	23.704173
1466.000000	23.713511
1465.000000	23.716623
1464.000000	23.724923
1463.000000	23.742768
1462.000000	23.747126
1461.000000	23.771922
1460.000000	23.785720
1459.000000	23.809168
1458.000000	23.835935
1457.000000	23.856166
1456.000000	23.900571
1455.000000	23.966037
1454.000000	24.011376
1453.000000	24.050385
1452.000000	24.095931
1451.000000	24.162227
1450.000000	24.244397
1449.000000	24.269193
1448.000000	24.312560
1447.000000	24.385808
1446.000000	24.463931
1445.000000	24.555646
1444.000000	24.599220
1443.000000	24.666035
1442.000000	24.749138
1441.000000	24.827573
1440.000000	24.899264
1439.000000	24.987970
1438.000000	25.076883
1437.000000	25.167145
1436.000000	25.247759
1435.000000	25.345491
1434.000000	25.448410
1433.000000	25.561705
1432.000000	25.676659
1431.000000	25.781861
1430.000000	25.891524
1429.000000	26.026399
1428.000000	26.167083
1427.000000	26.313266
1426.000000	26.454884
1425.000000	26.620987
1424.000000	26.798192
1423.000000	26.983384
1422.000000	27.145545
1421.000000	27.328352
1420.000000	27.551724
1419.000000	27.783086
1418.000000	28.007807
1417.000000	28.233774
1416.000000	28.405687
1415.000000	28.677511
1414.000000	28.948089
1413.000000	29.218253
1412.000000	29.467978
1411.000000	29.724343
1410.000000	30.027084
1409.000000	30.372570
1408.000000	30.726771
1407.000000	31.070390
1406.000000	31.386411
1405.000000	31.762606
1404.000000	32.135379
1403.000000	32.490513
1402.000000	32.856023
1401.000000	33.212506
1400.000000	33.679586
1399.000000	34.089190
1398.000000	34.419528
1397.000000	34.658878
1396.000000	35.012560
1395.000000	35.444366
1394.000000	35.830314
1393.000000	36.113965
1392.000000	36.418263
1391.000000	36.768314
1390.000000	37.171173
1389.000000	37.489062
1388.000000	37.900843
1387.000000	38.365849
1386.000000	38.788006
1385.000000	39.246060
1384.000000	39.698097
1383.000000	40.203460
1382.000000	40.734866
1381.000000	41.182441
1380.000000	41.582914
1379.000000	41.863245
1378.000000	42.114008
1377.000000	42.280734
1376.000000	42.458975
1375.000000	42.650808
1374.000000	42.843886
1373.000000	43.050555
1372.000000	43.305779
1371.000000	43.599079
1370.000000	43.902857
1369.000000	44.138161
1368.000000	44.383529
1367.000000	44.627340
1366.000000	44.861814
1365.000000	45.004470
1364.000000	45.208441
1363.000000	45.355766
1362.000000	45.527990
1361.000000	45.670853
1360.000000	45.817659
1359.000000	45.904393
1358.000000	45.954089
1357.000000	46.024328
1356.000000	46.124757
1355.000000	46.284220
1354.000000	46.513818
1353.000000	46.799855
1352.000000	47.042733
1351.000000	47.407516
1350.000000	47.749267
1349.000000	48.085312
1348.000000	48.412331
1347.000000	48.707602
1346.000000	48.983264
1345.000000	49.257578
1344.000000	49.530543
1343.000000	49.815335
1342.000000	50.047216
1341.000000	50.334394
1340.000000	50.605388
1339.000000	50.862376
1338.000000	51.113450
1337.000000	51.366702
1336.000000	51.616427
1335.000000	51.882648
1334.000000	52.099589
1333.000000	52.329083
1332.000000	52.568537
1331.000000	52.803322
1330.000000	53.019432
1329.000000	53.240315
1328.000000	53.458085
1327.000000	53.660915
1326.000000	53.861359
1325.000000	54.065539
1324.000000	54.238593
1323.000000	54.410506
1322.000000	54.594972
1321.000000	54.762113
1320.000000	54.923340
1319.000000	55.084048
1318.000000	55.245689
1317.000000	55.403492
1316.000000	55.518862
1315.000000	55.664838
1314.000000	55.814963
1313.000000	55.942679
1312.000000	56.061679
1311.000000	56.171861
1310.000000	56.297606
1309.000000	56.406128
1308.000000	56.497946
1307.000000	56.598583
1306.000000	56.674113
1305.000000	56.758254
1304.000000	56.827247
1303.000000	56.889393
1302.000000	56.950502
1301.000000	57.021051
1300.000000	57.067220
1299.000000	57.106748
1298.000000	57.150116
1297.000000	57.186221
1296.000000	57.216308
1295.000000	57.242038
1294.000000	57.247744
1293.000000	57.270569
1292.000000	57.286650
1291.000000	57.306881
1290.000000	57.306051
1289.000000	57.287688
1288.000000	57.286339
1287.000000	57.270154
1286.000000	57.240793
1285.000000	57.215582
1284.000000	57.193172
1283.000000	57.145862
1282.000000	57.109238
1281.000000	57.066286
1280.000000	57.026446
1279.000000	56.981212
1278.000000	56.938570
1277.000000	56.890431
1276.000000	56.861900
1275.000000	56.821126
1274.000000	56.775684
1273.000000	56.733561
1272.000000	56.713538
1271.000000	56.673283
1270.000000	56.634688
1269.000000	56.606364
1268.000000	56.559885
1267.000000	56.536645
1266.000000	56.491202
1265.000000	56.442959
1264.000000	56.413909
1263.000000	56.375211
1262.000000	56.335267
1261.000000	56.303312
1260.000000	56.264406
1259.000000	56.225085
1258.000000	56.188461
1257.000000	56.158270
1256.000000	56.108885
1255.000000	56.059293
1254.000000	56.013332
1253.000000	55.958552
1252.000000	55.911450
1251.000000	55.867460
1250.000000	55.802202
1249.000000	55.726257
1248.000000	55.662348
1247.000000	55.596467
1246.000000	55.526747
1245.000000	55.447171
1244.000000	55.365728
1243.000000	55.279719
1242.000000	55.189457
1241.000000	55.096290
1240.000000	55.001878
1239.000000	54.910993
1238.000000	54.809526
1237.000000	54.695402
1236.000000	54.592586
1235.000000	54.499523
1234.000000	54.390275
1233.000000	54.275320
1232.000000	54.158913
1231.000000	54.039705
1230.000000	53.917592
1229.000000	53.788527
1228.000000	53.659359
1227.000000	53.534445
1226.000000	53.401749
1225.000000	53.257641
1224.000000	53.120588
1223.000000	52.984053
1222.000000	52.838078
1221.000000	52.704967
1220.000000	52.565217
1219.000000	52.415817
1218.000000	52.284263
1217.000000	52.155302
1216.000000	52.026134
1215.000000	51.896758
1214.000000	51.775268
1213.000000	51.660106
1212.000000	51.535606
1211.000000	51.405297
1210.000000	51.296671
1209.000000	51.175388
1208.000000	51.049021
1207.000000	50.950874
1206.000000	50.861961
1205.000000	50.777094
1204.000000	50.698763
1203.000000	50.628732
1202.000000	50.564096
1201.000000	50.512740
1200.000000	50.456300
1199.000000	50.396852
1198.000000	50.328584
1197.000000	50.250565
1196.000000	50.138930
1195.000000	49.994718
1194.000000	49.829030
1193.000000	49.641036
1192.000000	49.398055
1191.000000	49.106000
1190.000000	48.804919
1189.000000	48.500206
1188.000000	48.218111
1187.000000	47.994324
1186.000000	47.832682
1185.000000	47.739722
1184.000000	47.751446
1183.000000	47.848244
1182.000000	48.033437
1181.000000	48.295820
1180.000000	48.622008
1179.000000	48.963759
1178.000000	49.304888
1177.000000	49.641659
1176.000000	49.924169
1175.000000	50.202321
1174.000000	50.438040
1173.000000	50.657574
1172.000000	50.909685
1171.000000	51.150177
1170.000000	51.386622
1169.000000	51.631990
1168.000000	51.882337
1167.000000	52.154887
1166.000000	52.414987
1165.000000	52.684217
1164.000000	52.965067
1163.000000	53.247266
1162.000000	53.552393
1161.000000	53.855861
1160.000000	54.147189
1159.000000	54.421814
1158.000000	54.703391
1157.000000	54.973451
1156.000000	55.242473
1155.000000	55.493340
1154.000000	55.714015
1153.000000	55.913110
1152.000000	56.073196
1151.000000	56.192819
1150.000000	56.294182
1149.000000	56.402393
1148.000000	56.484978
1147.000000	56.590387
1146.000000	56.696523
1145.000000	56.836585
1144.000000	57.017524
1143.000000	57.239963
1142.000000	57.487820
1141.000000	57.771160
1140.000000	58.067365
1139.000000	58.380378
1138.000000	58.698474
1137.000000	59.020823
1136.000000	59.384984
1135.000000	59.774564
1134.000000	60.157711
1133.000000	60.543244
1132.000000	60.827829
1131.000000	61.129948
1130.000000	61.416296
1129.000000	61.650459
1128.000000	61.863042
1127.000000	62.064005
1126.000000	62.197530
1125.000000	62.339252
1124.000000	62.428165
1123.000000	62.513759
1122.000000	62.583790
1121.000000	62.648011
1120.000000	62.681211
1119.000000	62.729662
1118.000000	62.760371
1117.000000	62.775830
1116.000000	62.796995
1115.000000	62.777490
1114.000000	62.799174
1113.000000	62.779358
1112.000000	62.778216
1111.000000	62.764625
1110.000000	62.757674
1109.000000	62.746573
1108.000000	62.745535
1107.000000	62.760060
1106.000000	62.738688
1105.000000	62.716589
1104.000000	62.705799
1103.000000	62.711402
1102.000000	62.704762
1101.000000	62.690444
1100.000000	62.653613
1099.000000	62.662432
1098.000000	62.647388
1097.000000	62.602568
1096.000000	62.578706
1095.000000	62.568435
1094.000000	62.533471
1093.000000	62.502761
1092.000000	62.449019
1091.000000	62.418102
1090.000000	62.393202
1089.000000	62.360313
1088.000000	62.303977
1087.000000	62.262374
1086.000000	62.198671
1085.000000	62.158105
1084.000000	62.103429
1083.000000	62.044396
1082.000000	62.000925
1081.000000	61.939505
1080.000000	61.873832
1079.000000	61.830464
1078.000000	61.765932
1077.000000	61.707002
1076.000000	61.662183
1075.000000	61.607403
1074.000000	61.542144
1073.000000	61.483526
1072.000000	61.417956
1071.000000	61.377183
1070.000000	61.309227
1069.000000	61.255070
1068.000000	61.173522
1067.000000	61.146236
1066.000000	61.082949
1065.000000	61.019454
1064.000000	60.982727
1063.000000	60.916535
1062.000000	60.854493
1061.000000	60.797638
1060.000000	60.744103
1059.000000	60.690672
1058.000000	60.637034
1057.000000	60.589413
1056.000000	60.529030
1055.000000	60.458273
1054.000000	60.420508
1053.000000	60.346120
1052.000000	60.291029
1051.000000	60.245068
1050.000000	60.186968
1049.000000	60.149826
1048.000000	60.105421
1047.000000	60.067967
1046.000000	60.012669
1045.000000	59.965774
1044.000000	59.916389
1043.000000	59.855488
1042.000000	59.803302
1041.000000	59.780166
1040.000000	59.725698
1039.000000	59.696648
1038.000000	59.638341
1037.000000	59.576091
1036.000000	59.526187
1035.000000	59.464560
1034.000000	59.423164
1033.000000	59.343484
1032.000000	59.287667
1031.000000	59.222098
1030.000000	59.150510
1029.000000	59.085771
1028.000000	58.991670
1027.000000	58.915206
1026.000000	58.844553
1025.000000	58.762902
1024.000000	58.678865
1023.000000	58.592857
1022.000000	58.495955
1021.000000	58.415341
1020.000000	58.327673
1019.000000	58.261792
1018.000000	58.181594
1017.000000	58.098283
1016.000000	58.011341
1015.000000	57.957287
1014.000000	57.885492
1013.000000	57.822620
1012.000000	57.754042
1011.000000	57.710882
1010.000000	57.673843
1009.000000	57.632862
1008.000000	57.583166
1007.000000	57.558474
1006.000000	57.544053
1005.000000	57.512720
1004.000000	57.475163
1003.000000	57.458044
1002.000000	57.458978
1001.000000	57.445594
1000.000000	57.437087
999.000000	57.433974
998.000000	57.438954
997.000000	57.450678
996.000000	57.463751
995.000000	57.480143
994.000000	57.481699
993.000000	57.490310
992.000000	57.511787
991.000000	57.547684
990.000000	57.584411
989.000000	57.613461
988.000000	57.656932
987.000000	57.692311
986.000000	57.733292
985.000000	57.784025
984.000000	57.829883
983.000000	57.890369
982.000000	57.944007
981.000000	57.995986
980.000000	58.054915
979.000000	58.117580
978.000000	58.178481
977.000000	58.237930
976.000000	58.298623
975.000000	58.349253
974.000000	58.403203
973.000000	58.463066
972.000000	58.522618
971.000000	58.580510
970.000000	58.618690
969.000000	58.665274
968.000000	58.738417
967.000000	58.791745
966.000000	58.831377
965.000000	58.890307
964.000000	58.952556
963.000000	58.997895
962.000000	59.050703
961.000000	59.123120
960.000000	59.204149
959.000000	59.284347
958.000000	59.344522
957.000000	59.411959
956.000000	59.490394
955.000000	59.571837
954.000000	59.657223
953.000000	59.741156
952.000000	59.845321
951.000000	59.938799
950.000000	60.023251
949.000000	60.129283
948.000000	60.238324
947.000000	60.353279
946.000000	60.478089
945.000000	60.598543
944.000000	60.712874
943.000000	60.833743
942.000000	60.965193
941.000000	61.081704
940.000000	61.227576
939.000000	61.386209
938.000000	61.530836
937.000000	61.663324
936.000000	61.799236
935.000000	61.955483
934.000000	62.102599
933.000000	62.262477
932.000000	62.411773
931.000000	62.548204
930.000000	62.699989
929.000000	62.852605
928.000000	62.987894
927.000000	63.127230
926.000000	63.267084
925.000000	63.417832
924.000000	63.581756
923.000000	63.734683
922.000000	63.879414
921.000000	64.024456
920.000000	64.181221
919.000000	64.326886
918.000000	64.486037
917.000000	64.619252
916.000000	64.746449
915.000000	64.886510
914.000000	65.018999
913.000000	65.161032
912.000000	65.286154
911.000000	65.408371
910.000000	65.540340
909.000000	65.684137
908.000000	65.831461
907.000000	65.969863
906.000000	66.133995
905.000000	66.303210
904.000000	66.464230
903.000000	66.645791
902.000000	66.832229
901.000000	67.032258
900.000000	67.242870
899.000000	67.450369
898.000000	67.682768
897.000000	67.912677
896.000000	68.129409
895.000000	68.383596
894.000000	68.649817
893.000000	68.901721
892.000000	69.164518
891.000000	69.445991
890.000000	69.723002
889.000000	69.981857
888.000000	70.283561
887.000000	70.572815
886.000000	70.866529
885.000000	71.186493
884.000000	71.488508
883.000000	71.827561
882.000000	72.151364
881.000000	72.459396
880.000000	72.809447
879.000000	73.141549
878.000000	73.475934
877.000000	73.831068
876.000000	74.164727
875.000000	74.524012
874.000000	74.860368
873.000000	75.155639
872.000000	75.522601
871.000000	75.853769
870.000000	76.177986
869.000000	76.478549
868.000000	76.794777
867.000000	77.092642
866.000000	77.422047
865.000000	77.726967
864.000000	78.024832
863.000000	78.346040
862.000000	78.667871
861.000000	78.925066
860.000000	79.210689
859.000000	79.476703
858.000000	79.797600
857.000000	79.071100
856.000000	80.245000
855.000000	80.076700
854.000000	79.759500
853.000000	81.325300
852.000000	81.245400
851.000000	80.934200
850.000000	81.323000
849.000000	81.554100
848.000000	81.817500
847.000000	82.013200
846.000000	81.824800
845.000000	82.315900
844.000000	82.603500
843.000000	82.996100
842.000000	83.786800
841.000000	84.006400
840.000000	84.077000
839.000000	84.613900
838.000000	84.306000
837.000000	84.681500
836.000000	84.666700
835.000000	85.180800
834.000000	85.368700
833.000000	85.796700
832.000000	85.449400
831.000000	85.632700
830.000000	86.005800
829.000000	86.316400
828.000000	86.298300
827.000000	85.989800
826.000000	86.062200
825.000000	86.343200
824.000000	86.418800
823.000000	86.052200
822.000000	86.312800
821.000000	86.430600
820.000000	85.753400
819.000000	86.211300
818.000000	85.896000
817.000000	85.925100
816.000000	86.142800
815.000000	86.422000
814.000000	85.935800
813.000000	85.709300
812.000000	85.694400
811.000000	85.474000
810.000000	85.930000
809.000000	85.800100
808.000000	85.587600
807.000000	86.022300
806.000000	86.144200
805.000000	86.388400
804.000000	86.205700
803.000000	86.159100
802.000000	86.286800
801.000000	86.677400
800.000000	86.383100
799.000000	87.212000
798.000000	87.276000
797.000000	87.511100
796.000000	87.082800
795.000000	87.629400
794.000000	87.671100
793.000000	88.264200
792.000000	87.848900
791.000000	87.984900
790.000000	88.233600
789.000000	88.374400
788.000000	88.358400
787.000000	88.227700
786.000000	88.416100
785.000000	88.394800
784.000000	88.386600
783.000000	88.364100
782.000000	88.230300
781.000000	88.046600
780.000000	87.925700
779.000000	87.937600
778.000000	87.661200
777.000000	87.324200
776.000000	87.007600
775.000000	86.817700
774.000000	86.709700
773.000000	86.379000
772.000000	86.135400
771.000000	85.741900
770.000000	85.589000
769.000000	85.358600
768.000000	85.066600
767.000000	84.627600
766.000000	84.229100
765.000000	83.927100
764.000000	83.498800
763.000000	83.483400
762.000000	82.844500
761.000000	82.803700
760.000000	82.233700
759.000000	81.971300
758.000000	81.608300
757.000000	81.207400
756.000000	80.823400
755.000000	80.417700
754.000000	79.832800
753.000000	79.404100
752.000000	78.803400
751.000000	78.359800
750.000000	77.661200
749.000000	77.234800
748.000000	76.605100
747.000000	76.037800
746.000000	75.528900
745.000000	74.921800
744.000000	74.480300
743.000000	74.035000
742.000000	73.306800
741.000000	72.763800
740.000000	72.221800
739.000000	71.627300
738.000000	71.172900
737.000000	70.754000
736.000000	70.218500
735.000000	69.743000
734.000000	69.510300
733.000000	69.146900
732.000000	68.810100
731.000000	68.515900
730.000000	68.381100
729.000000	68.246100
728.000000	68.049000
727.000000	67.942900
726.000000	67.887100
725.000000	67.874300
724.000000	67.954800
723.000000	67.856500
722.000000	67.795500
721.000000	67.938000
720.000000	67.971100
719.000000	68.176200
718.000000	68.158500
717.000000	68.374200
716.000000	68.513200
715.000000	68.621300
714.000000	68.644900
713.000000	68.867100
712.000000	69.202500
711.000000	69.304600
710.000000	69.446400
709.000000	69.547700
708.000000	69.751800
707.000000	69.779900
706.000000	69.964400
705.000000	70.117100
704.000000	70.195900
703.000000	70.153500
702.000000	70.078900
701.000000	70.230600
700.000000	70.258300
699.000000	70.164800
698.000000	70.131700
697.000000	70.095300
696.000000	70.021900
695.000000	70.014900
694.000000	69.904800
693.000000	69.708200
692.000000	69.567500
691.000000	69.600700
690.000000	69.452900
689.000000	69.185600
688.000000	68.893700
687.000000	68.544500
686.000000	68.194500
685.000000	67.777300
684.000000	67.337900
683.000000	66.905900
682.000000	66.491500
681.000000	65.989800
680.000000	65.465800
679.000000	64.942800
678.000000	64.382800
677.000000	63.863800
676.000000	63.374700
675.000000	62.741900
674.000000	62.086400
673.000000	61.461900
672.000000	60.767000
671.000000	60.073600
670.000000	59.302500
669.000000	58.532100
668.000000	57.777800
667.000000	57.065500
666.000000	56.413900
665.000000	55.845100
664.000000	55.260900
663.000000	54.736300
662.000000	54.326100
661.000000	53.956600
660.000000	53.723100
659.000000	53.607000
658.000000	53.449100
657.000000	53.425300
656.000000	53.501200
655.000000	53.629700
654.000000	53.825000
653.000000	54.097500
652.000000	54.514100
651.000000	55.071200
650.000000	55.707800
649.000000	56.481000
648.000000	57.360200
647.000000	58.333600
646.000000	59.362600
645.000000	60.375900
644.000000	61.455200
643.000000	62.621300
642.000000	63.820900
641.000000	64.938700
640.000000	66.043400
639.000000	67.126900
638.000000	68.135800
637.000000	69.141700
636.000000	70.187800
635.000000	71.215700
634.000000	72.240600
633.000000	73.241500
632.000000	74.196100
631.000000	75.110900
630.000000	76.045600
629.000000	76.964600
628.000000	77.869700
627.000000	78.725400
626.000000	79.538900
625.000000	80.261700
624.000000	81.033100
623.000000	81.688800
622.000000	82.192900
621.000000	82.822700
620.000000	83.457800
619.000000	84.044500
618.000000	84.632800
617.000000	85.160800
616.000000	85.646000
615.000000	86.222000
614.000000	86.836700
613.000000	87.379300
612.000000	87.865000
611.000000	88.282700
610.000000	88.649100
609.000000	89.064300
608.000000	89.482500
607.000000	89.834700
606.000000	90.156400
605.000000	90.378400
604.000000	90.631000
603.000000	90.893200
602.000000	91.062800
601.000000	91.287200
600.000000	91.441600
599.000000	91.507300
598.000000	91.619800
597.000000	91.743800
596.000000	91.899800
595.000000	91.927300
594.000000	92.019000
593.000000	92.103300
592.000000	92.202100
591.000000	92.199900
590.000000	92.216500
589.000000	92.256300
588.000000	92.295300
587.000000	92.261200
586.000000	92.247700
585.000000	92.235100
584.000000	92.214100
583.000000	92.120400
582.000000	92.059700
581.000000	91.988800
580.000000	91.881000
579.000000	91.740900
578.000000	91.638500
577.000000	91.547200
576.000000	91.413700
575.000000	91.255800
574.000000	91.117300
573.000000	90.947600
572.000000	90.692100
571.000000	90.532300
570.000000	90.359200
569.000000	90.156900
568.000000	89.923400
567.000000	89.668100
566.000000	89.434900
565.000000	89.148600
564.000000	88.861100
563.000000	88.544500
562.000000	88.155400
561.000000	87.747100
560.000000	87.337300
559.000000	86.938700
558.000000	86.379700
557.000000	85.939000
556.000000	85.487300
555.000000	84.854200
554.000000	84.284500
553.000000	83.712200
552.000000	83.068800
551.000000	82.337700
550.000000	81.616900
549.000000	80.842100
548.000000	80.187600
547.000000	79.382200
546.000000	78.598500
545.000000	77.710000
544.000000	76.831800
543.000000	75.949800
542.000000	74.949200
541.000000	73.874200
540.000000	72.814400
539.000000	71.655800
538.000000	70.486200
537.000000	69.208400
536.000000	67.924100
535.000000	66.637800
534.000000	65.225400
533.000000	63.829100
532.000000	62.408300
531.000000	60.996700
530.000000	59.540600
529.000000	58.220100
528.000000	56.908200
527.000000	55.646500
526.000000	54.373800
525.000000	53.157800
524.000000	52.021700
523.000000	50.833500
522.000000	49.800100
521.000000	48.793300
520.000000	47.783700
519.000000	46.861400
518.000000	46.000000
517.000000	45.103500
516.000000	44.307500
515.000000	43.505700
514.000000	42.714700
513.000000	42.070200
512.000000	41.453900
511.000000	40.750400
510.000000	40.194800
509.000000	39.664500
508.000000	39.213900
507.000000	38.673700
506.000000	38.228200
505.000000	37.821000
504.000000	37.450500
503.000000	37.191000
502.000000	36.865900
501.000000	36.639400
500.000000	36.412200
499.000000	36.300200
498.000000	36.108400
497.000000	35.975500
496.000000	35.954800
495.000000	35.779100
494.000000	35.668600
493.000000	35.614600
492.000000	35.450700
491.000000	35.367900
490.000000	35.290100
489.000000	35.066200
488.000000	34.921800
487.000000	34.773500
486.000000	34.558800
485.000000	34.375400
484.000000	34.159800
483.000000	33.822000
482.000000	33.458600
481.000000	33.060400
480.000000	32.719000
479.000000	32.288700
478.000000	31.859100
477.000000	31.386600
476.000000	30.881800
475.000000	30.371000
474.000000	29.827400
473.000000	29.353700
472.000000	28.858700
471.000000	28.312900
470.000000	27.825600
469.000000	27.403100
468.000000	26.983900
467.000000	26.602500
466.000000	26.302500
465.000000	26.013000
464.000000	25.766700
463.000000	25.621400
462.000000	25.449400
461.000000	25.372900
460.000000	25.357100
459.000000	25.357900
458.000000	25.404100
457.000000	25.434400
456.000000	25.549400
455.000000	25.633000
454.000000	25.678000
453.000000	25.843100
452.000000	25.889700
451.000000	25.962000
450.000000	26.116200
449.000000	26.233400
448.000000	26.304400
447.000000	26.273800
446.000000	26.317300
445.000000	26.372200
444.000000	26.342900
443.000000	26.330400
442.000000	26.199300
441.000000	26.097300
440.000000	26.056900
439.000000	25.912900
438.000000	25.781900
437.000000	25.661900
436.000000	25.495700
435.000000	25.274700
434.000000	25.098800
433.000000	24.861700
432.000000	24.619700
431.000000	24.463600
430.000000	24.191600
429.000000	23.942000
428.000000	23.576100
427.000000	23.286600
426.000000	22.997200
425.000000	22.667900
424.000000	22.289200
423.000000	21.939100
422.000000	21.546100
421.000000	21.190600
420.000000	20.767300
419.000000	20.348400
418.000000	19.856400
417.000000	19.411400
416.000000	18.961700
415.000000	18.472600
414.000000	18.008700
413.000000	17.462600
412.000000	16.981900
411.000000	16.471900
410.000000	16.001500
409.000000	15.490500
408.000000	14.950600
407.000000	14.502200
406.000000	14.016600
405.000000	13.585100
404.000000	13.116400
403.000000	12.604500
402.000000	12.200300
401.000000	11.783700
400.000000	11.410100
399.000000	11.022200
398.000000	10.695800
397.000000	10.395100
396.000000	10.077400
395.000000	9.743700
394.000000	9.464400
393.000000	9.201500
392.000000	8.941500
391.000000	8.744800
390.000000	8.575900
389.000000	8.365100
388.000000	8.162800
387.000000	7.987100
386.000000	7.876700
385.000000	7.754100
384.000000	7.606600
383.000000	7.470900
382.000000	7.381300
381.000000	7.277900
380.000000	7.174200
379.000000	7.035900
378.000000	6.957000
377.000000	6.894800
376.000000	6.926000
375.000000	6.697700
374.000000	6.218900
373.000000	6.270400
372.000000	6.140000
371.000000	5.968300
370.000000	6.395200
369.000000	6.467600
368.000000	6.352400
367.000000	6.372800
366.000000	6.325900
365.000000	6.349500
364.000000	6.293200
363.000000	6.077600
362.000000	6.102300
361.000000	5.904500
360.000000	5.770200
359.000000	5.977700
358.000000	6.118700
357.000000	6.282900
356.000000	6.057300
355.000000	5.883900
354.000000	6.098600
353.000000	5.902100
352.000000	5.876200
351.000000	6.154600
350.000000	6.169900
349.000000	5.911700
348.000000	5.643800
347.000000	5.447100
346.000000	6.010500
345.000000	6.356200
344.000000	6.144200
343.000000	6.040300
342.000000	5.567700
341.000000	5.816000
340.000000	5.997300
339.000000	5.729700
338.000000	5.806300
337.000000	5.976100
336.000000	5.983700
335.000000	6.135600
334.000000	6.564200
333.000000	6.157100
332.000000	5.860000
331.000000	6.287500
330.000000	5.850900
329.000000	6.227600
328.000000	6.652900
327.000000	5.743700
326.000000	5.975900
325.000000	7.418200
324.000000	7.317600
323.000000	6.142100
322.000000	6.568700
321.000000	6.343700
320.000000	5.278200
319.000000	4.944400
318.000000	5.837800
317.000000	6.805700
316.000000	6.207600
315.000000	5.579000
314.000000	5.587800
313.000000	5.615200
312.000000	5.568700
311.000000	5.543400
310.000000	5.603400
309.000000	5.568000
308.000000	5.525500
307.000000	5.547700
306.000000	5.532700
305.000000	5.624700
304.000000	5.551700
303.000000	5.600000
302.000000	5.704300
301.000000	5.640400
300.000000	5.607600
299.000000	5.601800
298.000000	5.681200
297.000000	5.679300
296.000000	5.614600
295.000000	5.639700
294.000000	5.593700
293.000000	5.646500
292.000000	5.673300
291.000000	5.598300
290.000000	5.638800
289.000000	5.672500
288.000000	5.633300
287.000000	5.632400
286.000000	5.653400
285.000000	5.614300
284.000000	5.668400
283.000000	5.705600
282.000000	5.658300
281.000000	5.750700
280.000000	5.761000
279.000000	5.704700
278.000000	5.821300
277.000000	5.777700
276.000000	5.793400
275.000000	5.832900
274.000000	5.800300
273.000000	5.853000
272.000000	5.800300
271.000000	5.845500
270.000000	5.797400
269.000000	5.851100
268.000000	5.907700
267.000000	5.939900
266.000000	5.982700
265.000000	5.967900
264.000000	5.933200
263.000000	5.995900
262.000000	6.063700
261.000000	6.094500
260.000000	6.043300
259.000000	6.003600
258.000000	6.061700
257.000000	6.130900
256.000000	6.122900
255.000000	6.110400
254.000000	6.229900
253.000000	6.234400
252.000000	6.230500
251.000000	6.233600
250.000000	6.227000
