PE UV       SUBTECH     SPECTRUM    ASCII       PEDS        4.00        
   -1
CICIMAUCR0238-2.Sample.ASC
24/06/20
11:29:16.00
24/06/20
11:29:16.00
Vinicio Soto Monge
C. cupreomarginata. Sex M. Dorsal.
250,000000
1
Lambda 1050
1050L1511233
PerkinElmer UV WinLab 6.3.2.0749 / 2.02.05 Lambda 900 UV/VIS/NIR, Aug  7 2015 09:38:08

0
0
3350/servo 860,8/2
0
0
UV/VIS
1
1
1
DoubleDePol,CommonBeamDepol,RBeamAtt,SBeamAtt,60mm sphere, WB InGaAs Detector
0
0
0
0
Program
Program
3350/servo 860,8/2
3350/0,2 860,8/0,2
3350/0,2 860,8/0,2
0
15.00
 
 
 
0
 
860,8
319,2
860,8
Front
100
on
S:100 R:100
0
0
0
0
 
0
 
 
 
0
 
 
0
0
0
0
0
 
 
 
 
0
0


0
0
#HDR
-1
-1
#GR
nm
%R
1.0
0.0
2500,000000
-1,000000
2251
8
74,180200
5,383200
#DATA
2500.000000	12.069747
2499.000000	12.055492
2498.000000	12.016316
2497.000000	12.030058
2496.000000	11.970474
2495.000000	11.970577
2494.000000	11.937862
2493.000000	11.974064
2492.000000	11.861869
2491.000000	11.786286
2490.000000	11.773057
2489.000000	11.814386
2488.000000	11.827923
2487.000000	11.766903
2486.000000	11.756545
2485.000000	11.744444
2484.000000	11.760340
2483.000000	11.760955
2482.000000	11.742598
2481.000000	11.833769
2480.000000	11.738701
2479.000000	11.739624
2478.000000	11.763827
2477.000000	11.821770
2476.000000	11.783107
2475.000000	11.836846
2474.000000	11.812130
2473.000000	11.771929
2472.000000	11.766288
2471.000000	11.821052
2470.000000	11.876432
2469.000000	11.888225
2468.000000	11.851614
2467.000000	11.901352
2466.000000	11.921043
2465.000000	11.944425
2464.000000	12.018367
2463.000000	12.040622
2462.000000	12.052620
2461.000000	12.115897
2460.000000	12.159585
2459.000000	12.179070
2458.000000	12.253320
2457.000000	12.299982
2456.000000	12.373206
2455.000000	12.451660
2454.000000	12.518013
2453.000000	12.596467
2452.000000	12.634002
2451.000000	12.713790
2450.000000	12.809063
2449.000000	12.893875
2448.000000	12.951203
2447.000000	13.046579
2446.000000	13.120008
2445.000000	13.223178
2444.000000	13.302453
2443.000000	13.365626
2442.000000	13.451567
2441.000000	13.511356
2440.000000	13.616270
2439.000000	13.695544
2438.000000	13.757590
2437.000000	13.855529
2436.000000	13.937676
2435.000000	14.002900
2434.000000	14.059305
2433.000000	14.137554
2432.000000	14.191601
2431.000000	14.236519
2430.000000	14.309846
2429.000000	14.369225
2428.000000	14.431681
2427.000000	14.486547
2426.000000	14.541619
2425.000000	14.584590
2424.000000	14.644584
2423.000000	14.680581
2422.000000	14.734832
2421.000000	14.797698
2420.000000	14.843335
2419.000000	14.869896
2418.000000	14.911636
2417.000000	14.945069
2416.000000	14.986193
2415.000000	15.025882
2414.000000	15.058802
2413.000000	15.090901
2412.000000	15.121052
2411.000000	15.151511
2410.000000	15.199814
2409.000000	15.222274
2408.000000	15.239503
2407.000000	15.263706
2406.000000	15.308932
2405.000000	15.336622
2404.000000	15.356620
2403.000000	15.379387
2402.000000	15.411589
2401.000000	15.422870
2400.000000	15.454560
2399.000000	15.471481
2398.000000	15.495069
2397.000000	15.527579
2396.000000	15.554550
2395.000000	15.565216
2394.000000	15.585522
2393.000000	15.604597
2392.000000	15.625108
2391.000000	15.640491
2390.000000	15.650644
2389.000000	15.669206
2388.000000	15.668078
2387.000000	15.666540
2386.000000	15.686641
2385.000000	15.683154
2384.000000	15.678026
2383.000000	15.681513
2382.000000	15.676078
2381.000000	15.673309
2380.000000	15.677001
2379.000000	15.657105
2378.000000	15.627364
2377.000000	15.623877
2376.000000	15.611878
2375.000000	15.589829
2374.000000	15.567780
2373.000000	15.558858
2372.000000	15.532911
2371.000000	15.501222
2370.000000	15.488916
2369.000000	15.455483
2368.000000	15.417025
2367.000000	15.386566
2366.000000	15.346262
2365.000000	15.305651
2364.000000	15.274679
2363.000000	15.227914
2362.000000	15.182380
2361.000000	15.138282
2360.000000	15.083825
2359.000000	15.035624
2358.000000	14.998602
2357.000000	14.961067
2356.000000	14.907329
2355.000000	14.876255
2354.000000	14.854205
2353.000000	14.846001
2352.000000	14.836566
2351.000000	14.811235
2350.000000	14.804364
2349.000000	14.805390
2348.000000	14.824875
2347.000000	14.850514
2346.000000	14.870512
2345.000000	14.894817
2344.000000	14.935121
2343.000000	14.965067
2342.000000	15.000038
2341.000000	15.039624
2340.000000	15.066288
2339.000000	15.081466
2338.000000	15.115309
2337.000000	15.137769
2336.000000	15.139512
2335.000000	15.140948
2334.000000	15.141051
2333.000000	15.133667
2332.000000	15.124949
2331.000000	15.115617
2330.000000	15.085569
2329.000000	15.044957
2328.000000	15.015114
2327.000000	14.975835
2326.000000	14.930609
2325.000000	14.893894
2324.000000	14.835848
2323.000000	14.776264
2322.000000	14.691041
2321.000000	14.612587
2320.000000	14.529313
2319.000000	14.445936
2318.000000	14.344612
2317.000000	14.252518
2316.000000	14.153963
2315.000000	14.048229
2314.000000	13.936240
2313.000000	13.838505
2312.000000	13.743027
2311.000000	13.655445
2310.000000	13.571248
2309.000000	13.510433
2308.000000	13.457310
2307.000000	13.422954
2306.000000	13.385009
2305.000000	13.376394
2304.000000	13.399469
2303.000000	13.418750
2302.000000	13.478949
2301.000000	13.517817
2300.000000	13.563044
2299.000000	13.635857
2298.000000	13.726105
2297.000000	13.817994
2296.000000	13.915934
2295.000000	13.990389
2294.000000	14.071099
2293.000000	14.118479
2292.000000	14.193857
2291.000000	14.257441
2290.000000	14.312615
2289.000000	14.351688
2288.000000	14.375481
2287.000000	14.395582
2286.000000	14.408401
2285.000000	14.407375
2284.000000	14.393941
2283.000000	14.381532
2282.000000	14.378558
2281.000000	14.358149
2280.000000	14.338254
2279.000000	14.302257
2278.000000	14.303385
2277.000000	14.282464
2276.000000	14.225341
2275.000000	14.223187
2274.000000	14.213240
2273.000000	14.219598
2272.000000	14.220213
2271.000000	14.247288
2270.000000	14.264312
2269.000000	14.311795
2268.000000	14.375994
2267.000000	14.453115
2266.000000	14.532287
2265.000000	14.644174
2264.000000	14.772264
2263.000000	14.922404
2262.000000	15.073159
2261.000000	15.259809
2260.000000	15.439689
2259.000000	15.648901
2258.000000	15.837806
2257.000000	16.050709
2256.000000	16.299917
2255.000000	16.509231
2254.000000	16.724595
2253.000000	16.949190
2252.000000	17.168964
2251.000000	17.369561
2250.000000	17.558774
2249.000000	17.742347
2248.000000	17.924894
2247.000000	18.112671
2246.000000	18.256863
2245.000000	18.394901
2244.000000	18.541247
2243.000000	18.669337
2242.000000	18.785839
2241.000000	18.903879
2240.000000	18.977924
2239.000000	19.071659
2238.000000	19.183751
2237.000000	19.236874
2236.000000	19.314610
2235.000000	19.383219
2234.000000	19.429779
2233.000000	19.463725
2232.000000	19.518796
2231.000000	19.530077
2230.000000	19.568228
2229.000000	19.579611
2228.000000	19.593661
2227.000000	19.609044
2226.000000	19.583201
2225.000000	19.591405
2224.000000	19.569561
2223.000000	19.556434
2222.000000	19.528539
2221.000000	19.502798
2220.000000	19.458802
2219.000000	19.431010
2218.000000	19.373169
2217.000000	19.347428
2216.000000	19.294202
2215.000000	19.251847
2214.000000	19.240566
2213.000000	19.216876
2212.000000	19.180264
2211.000000	19.120782
2210.000000	19.105399
2209.000000	19.054840
2208.000000	19.048892
2207.000000	19.005101
2206.000000	18.995461
2205.000000	18.979052
2204.000000	18.944081
2203.000000	18.922134
2202.000000	18.917519
2201.000000	18.913314
2200.000000	18.879779
2199.000000	18.867473
2198.000000	18.846346
2197.000000	18.835373
2196.000000	18.857320
2195.000000	18.852807
2194.000000	18.828092
2193.000000	18.813324
2192.000000	18.794761
2191.000000	18.779173
2190.000000	18.778763
2189.000000	18.753637
2188.000000	18.729024
2187.000000	18.724306
2186.000000	18.726973
2185.000000	18.708513
2184.000000	18.693950
2183.000000	18.695181
2182.000000	18.665748
2181.000000	18.642263
2180.000000	18.648621
2179.000000	18.644109
2178.000000	18.617752
2177.000000	18.601959
2176.000000	18.604215
2175.000000	18.586063
2174.000000	18.583396
2173.000000	18.602266
2172.000000	18.601651
2171.000000	18.609548
2170.000000	18.647288
2169.000000	18.654057
2168.000000	18.668619
2167.000000	18.684105
2166.000000	18.715487
2165.000000	18.718974
2164.000000	18.755688
2163.000000	18.781839
2162.000000	18.815580
2161.000000	18.858653
2160.000000	18.870959
2159.000000	18.901110
2158.000000	18.953516
2157.000000	19.016587
2156.000000	19.051866
2155.000000	19.119757
2154.000000	19.177290
2153.000000	19.239540
2152.000000	19.298202
2151.000000	19.328045
2150.000000	19.383014
2149.000000	19.460545
2148.000000	19.521258
2147.000000	19.561357
2146.000000	19.608429
2145.000000	19.672013
2144.000000	19.729854
2143.000000	19.772722
2142.000000	19.811282
2141.000000	19.874558
2140.000000	19.912401
2139.000000	19.969524
2138.000000	20.014443
2137.000000	20.052593
2136.000000	20.100076
2135.000000	20.137303
2134.000000	20.170838
2133.000000	20.220577
2132.000000	20.251651
2131.000000	20.273700
2130.000000	20.277290
2129.000000	20.299749
2128.000000	20.318722
2127.000000	20.339848
2126.000000	20.356359
2125.000000	20.365179
2124.000000	20.363641
2123.000000	20.370307
2122.000000	20.377075
2121.000000	20.368051
2120.000000	20.376152
2119.000000	20.370717
2118.000000	20.349078
2117.000000	20.338310
2116.000000	20.333285
2115.000000	20.308364
2114.000000	20.290930
2113.000000	20.286007
2112.000000	20.278008
2111.000000	20.248062
2110.000000	20.229705
2109.000000	20.205091
2108.000000	20.170120
2107.000000	20.150122
2106.000000	20.134944
2105.000000	20.117510
2104.000000	20.091461
2103.000000	20.063669
2102.000000	20.046132
2101.000000	20.025929
2100.000000	20.008187
2099.000000	19.987881
2098.000000	19.955269
2097.000000	19.935065
2096.000000	19.925220
2095.000000	19.903068
2094.000000	19.881327
2093.000000	19.868610
2092.000000	19.850971
2091.000000	19.837741
2090.000000	19.823486
2089.000000	19.802873
2088.000000	19.790874
2087.000000	19.771901
2086.000000	19.748826
2085.000000	19.734366
2084.000000	19.717137
2083.000000	19.695498
2082.000000	19.666578
2081.000000	19.626274
2080.000000	19.591815
2079.000000	19.561562
2078.000000	19.525975
2077.000000	19.478698
2076.000000	19.428651
2075.000000	19.384553
2074.000000	19.338608
2073.000000	19.288869
2072.000000	19.226516
2071.000000	19.160984
2070.000000	19.112168
2069.000000	19.055660
2068.000000	18.991564
2067.000000	18.943158
2066.000000	18.881728
2065.000000	18.808504
2064.000000	18.747894
2063.000000	18.684413
2062.000000	18.626777
2061.000000	18.570577
2060.000000	18.524838
2059.000000	18.482996
2058.000000	18.434795
2057.000000	18.411823
2056.000000	18.392542
2055.000000	18.380749
2054.000000	18.369878
2053.000000	18.363827
2052.000000	18.380749
2051.000000	18.417463
2050.000000	18.453767
2049.000000	18.503199
2048.000000	18.568834
2047.000000	18.644622
2046.000000	18.734357
2045.000000	18.806658
2044.000000	18.900700
2043.000000	19.016689
2042.000000	19.118629
2041.000000	19.224875
2040.000000	19.332557
2039.000000	19.429266
2038.000000	19.539307
2037.000000	19.637042
2036.000000	19.739289
2035.000000	19.824922
2034.000000	19.906760
2033.000000	19.983369
2032.000000	20.064284
2031.000000	20.123355
2030.000000	20.179555
2029.000000	20.242114
2028.000000	20.297698
2027.000000	20.346412
2026.000000	20.402509
2025.000000	20.420866
2024.000000	20.462503
2023.000000	20.505474
2022.000000	20.536753
2021.000000	20.573160
2020.000000	20.600132
2019.000000	20.630078
2018.000000	20.645563
2017.000000	20.648537
2016.000000	20.660844
2015.000000	20.674689
2014.000000	20.685457
2013.000000	20.685662
2012.000000	20.688226
2011.000000	20.682791
2010.000000	20.664946
2009.000000	20.652434
2008.000000	20.638590
2007.000000	20.633872
2006.000000	20.607003
2005.000000	20.588645
2004.000000	20.572852
2003.000000	20.542906
2002.000000	20.519421
2001.000000	20.484040
2000.000000	20.429994
1999.000000	20.390305
1998.000000	20.354821
1997.000000	20.301903
1996.000000	20.247959
1995.000000	20.175351
1994.000000	20.129509
1993.000000	20.073411
1992.000000	19.999675
1991.000000	19.948090
1990.000000	19.880814
1989.000000	19.809539
1988.000000	19.742365
1987.000000	19.675602
1986.000000	19.607814
1985.000000	19.523719
1984.000000	19.454085
1983.000000	19.366708
1982.000000	19.300560
1981.000000	19.216363
1980.000000	19.157907
1979.000000	19.079966
1978.000000	18.985513
1977.000000	18.904290
1976.000000	18.835065
1975.000000	18.756611
1974.000000	18.682874
1973.000000	18.603395
1972.000000	18.536016
1971.000000	18.454485
1970.000000	18.398491
1969.000000	18.332240
1968.000000	18.253478
1967.000000	18.182511
1966.000000	18.107441
1965.000000	18.034627
1964.000000	17.974838
1963.000000	17.900793
1962.000000	17.829826
1961.000000	17.776087
1960.000000	17.707786
1959.000000	17.619486
1958.000000	17.578054
1957.000000	17.489037
1956.000000	17.453348
1955.000000	17.368638
1954.000000	17.303208
1953.000000	17.248239
1952.000000	17.173169
1951.000000	17.134198
1950.000000	17.072563
1949.000000	17.036669
1948.000000	16.994929
1947.000000	16.959343
1946.000000	16.879453
1945.000000	16.863146
1944.000000	16.810228
1943.000000	16.794127
1942.000000	16.761207
1941.000000	16.765412
1940.000000	16.765617
1939.000000	16.750131
1938.000000	16.754951
1937.000000	16.736287
1936.000000	16.749721
1935.000000	16.767155
1934.000000	16.811664
1933.000000	16.850122
1932.000000	16.906322
1931.000000	16.927961
1930.000000	17.017799
1929.000000	17.093176
1928.000000	17.169579
1927.000000	17.241675
1926.000000	17.334795
1925.000000	17.451194
1924.000000	17.554056
1923.000000	17.680301
1922.000000	17.805520
1921.000000	17.941200
1920.000000	18.108671
1919.000000	18.266298
1918.000000	18.416335
1917.000000	18.604318
1916.000000	18.806350
1915.000000	18.962848
1914.000000	19.148575
1913.000000	19.392757
1912.000000	19.592226
1911.000000	19.804206
1910.000000	20.035774
1909.000000	20.262625
1908.000000	20.478194
1907.000000	20.732632
1906.000000	20.996710
1905.000000	21.286529
1904.000000	21.595731
1903.000000	21.862988
1902.000000	22.147885
1901.000000	22.444575
1900.000000	22.753059
1899.000000	23.097745
1898.000000	23.446533
1897.000000	23.763119
1896.000000	24.085345
1895.000000	24.392188
1894.000000	24.714415
1893.000000	25.047204
1892.000000	25.371584
1891.000000	25.781803
1890.000000	26.152230
1889.000000	26.508914
1888.000000	26.899339
1887.000000	27.288431
1886.000000	27.668806
1885.000000	28.042618
1884.000000	28.509241
1883.000000	28.958122
1882.000000	29.397773
1881.000000	29.851885
1880.000000	30.287229
1879.000000	30.660322
1878.000000	31.094231
1877.000000	31.503321
1876.000000	31.896617
1875.000000	32.266121
1874.000000	32.615935
1873.000000	32.967184
1872.000000	33.304794
1871.000000	33.599536
1870.000000	33.866793
1869.000000	34.089746
1868.000000	34.320186
1867.000000	34.474223
1866.000000	34.614210
1865.000000	34.707022
1864.000000	34.799424
1863.000000	34.922182
1862.000000	35.041452
1861.000000	35.151494
1860.000000	35.257945
1859.000000	35.366858
1858.000000	35.426442
1857.000000	35.499359
1856.000000	35.533407
1855.000000	35.552174
1854.000000	35.582633
1853.000000	35.608066
1852.000000	35.573916
1851.000000	35.573711
1850.000000	35.583761
1849.000000	35.608169
1848.000000	35.612476
1847.000000	35.596580
1846.000000	35.548174
1845.000000	35.469002
1844.000000	35.427365
1843.000000	35.385215
1842.000000	35.407367
1841.000000	35.444800
1840.000000	35.406342
1839.000000	35.377934
1838.000000	35.330144
1837.000000	35.299890
1836.000000	35.258560
1835.000000	35.193028
1834.000000	35.130675
1833.000000	35.063399
1832.000000	34.981868
1831.000000	34.926079
1830.000000	34.895722
1829.000000	34.844343
1828.000000	34.772144
1827.000000	34.698202
1826.000000	34.626619
1825.000000	34.563856
1824.000000	34.496990
1823.000000	34.457199
1822.000000	34.454943
1821.000000	34.469813
1820.000000	34.446534
1819.000000	34.404281
1818.000000	34.346543
1817.000000	34.311572
1816.000000	34.292189
1815.000000	34.274037
1814.000000	34.251270
1813.000000	34.231374
1812.000000	34.227169
1811.000000	34.196916
1810.000000	34.163483
1809.000000	34.120513
1808.000000	34.092618
1807.000000	34.066466
1806.000000	34.023701
1805.000000	33.973962
1804.000000	33.927300
1803.000000	33.890688
1802.000000	33.860639
1801.000000	33.830694
1800.000000	33.784236
1799.000000	33.716550
1798.000000	33.665888
1797.000000	33.628353
1796.000000	33.593177
1795.000000	33.561795
1794.000000	33.524876
1793.000000	33.483444
1792.000000	33.446114
1791.000000	33.406323
1790.000000	33.364788
1789.000000	33.327663
1788.000000	33.291359
1787.000000	33.246133
1786.000000	33.208598
1785.000000	33.182036
1784.000000	33.135271
1783.000000	33.074969
1782.000000	33.031896
1781.000000	32.973543
1780.000000	32.913958
1779.000000	32.863296
1778.000000	32.803507
1777.000000	32.739821
1776.000000	32.661982
1775.000000	32.581682
1774.000000	32.511740
1773.000000	32.423132
1772.000000	32.319552
1771.000000	32.232996
1770.000000	32.147568
1769.000000	32.040091
1768.000000	31.938049
1767.000000	31.851493
1766.000000	31.767809
1765.000000	31.691611
1764.000000	31.633770
1763.000000	31.601055
1762.000000	31.605773
1761.000000	31.612131
1760.000000	31.635719
1759.000000	31.688637
1758.000000	31.748323
1757.000000	31.801037
1756.000000	31.853852
1755.000000	31.911693
1754.000000	31.958560
1753.000000	31.991070
1752.000000	32.012401
1751.000000	32.031271
1750.000000	32.035989
1749.000000	32.031682
1748.000000	32.004710
1747.000000	31.963380
1746.000000	31.907078
1745.000000	31.843392
1744.000000	31.765758
1743.000000	31.654281
1742.000000	31.511628
1741.000000	31.367744
1740.000000	31.221501
1739.000000	31.056080
1738.000000	30.881943
1737.000000	30.727496
1736.000000	30.588124
1735.000000	30.449265
1734.000000	30.354094
1733.000000	30.285075
1732.000000	30.263231
1731.000000	30.266923
1730.000000	30.311227
1729.000000	30.360658
1728.000000	30.445573
1727.000000	30.512849
1726.000000	30.583099
1725.000000	30.652938
1724.000000	30.727906
1723.000000	30.764415
1722.000000	30.838049
1721.000000	30.907479
1720.000000	30.953526
1719.000000	31.012700
1718.000000	31.084283
1717.000000	31.164275
1716.000000	31.256267
1715.000000	31.341900
1714.000000	31.432353
1713.000000	31.535318
1712.000000	31.618489
1711.000000	31.708737
1710.000000	31.755297
1709.000000	31.800729
1708.000000	31.837443
1707.000000	31.867389
1706.000000	31.855698
1705.000000	31.869030
1704.000000	31.849852
1703.000000	31.827393
1702.000000	31.787397
1701.000000	31.734991
1700.000000	31.648948
1699.000000	31.568443
1698.000000	31.470503
1697.000000	31.392562
1696.000000	31.348156
1695.000000	31.325594
1694.000000	31.330516
1693.000000	31.366718
1692.000000	31.447326
1691.000000	31.545573
1690.000000	31.666177
1689.000000	31.748939
1688.000000	31.852929
1687.000000	31.923282
1686.000000	31.993839
1685.000000	32.055269
1684.000000	32.104393
1683.000000	32.242739
1682.000000	32.423235
1681.000000	32.669571
1680.000000	33.003489
1679.000000	33.362122
1678.000000	33.766905
1677.000000	34.188609
1676.000000	34.529295
1675.000000	34.854085
1674.000000	35.177645
1673.000000	35.455670
1672.000000	35.671035
1671.000000	35.863632
1670.000000	36.044231
1669.000000	36.208421
1668.000000	36.320000
1667.000000	36.437835
1666.000000	36.541005
1665.000000	36.632279
1664.000000	36.712579
1663.000000	36.791136
1662.000000	36.849592
1661.000000	36.890921
1660.000000	36.962709
1659.000000	36.996757
1658.000000	37.025370
1657.000000	37.049368
1656.000000	37.082801
1655.000000	37.058188
1654.000000	37.062803
1653.000000	37.065879
1652.000000	37.048035
1651.000000	37.031934
1650.000000	37.009269
1649.000000	36.971632
1648.000000	36.938814
1647.000000	36.897895
1646.000000	36.867129
1645.000000	36.819338
1644.000000	36.783547
1643.000000	36.714015
1642.000000	36.658840
1641.000000	36.612793
1640.000000	36.561311
1639.000000	36.517520
1638.000000	36.478139
1637.000000	36.407582
1636.000000	36.347792
1635.000000	36.267492
1634.000000	36.220214
1633.000000	36.149349
1632.000000	36.076125
1631.000000	36.013772
1630.000000	35.940958
1629.000000	35.875529
1628.000000	35.791536
1627.000000	35.712159
1626.000000	35.646627
1625.000000	35.552892
1624.000000	35.488898
1623.000000	35.416289
1622.000000	35.341630
1621.000000	35.285532
1620.000000	35.205232
1619.000000	35.139700
1618.000000	35.085346
1617.000000	34.999200
1616.000000	34.951204
1615.000000	34.861777
1614.000000	34.829267
1613.000000	34.739327
1612.000000	34.685281
1611.000000	34.626209
1610.000000	34.565702
1609.000000	34.499657
1608.000000	34.439047
1607.000000	34.382437
1606.000000	34.313623
1605.000000	34.246655
1604.000000	34.175174
1603.000000	34.109642
1602.000000	34.053647
1601.000000	33.982782
1600.000000	33.930889
1599.000000	33.863101
1598.000000	33.811618
1597.000000	33.752650
1596.000000	33.699936
1595.000000	33.642198
1594.000000	33.606202
1593.000000	33.537900
1592.000000	33.493904
1591.000000	33.450626
1590.000000	33.403656
1589.000000	33.357507
1588.000000	33.316588
1587.000000	33.288693
1586.000000	33.239672
1585.000000	33.206034
1584.000000	33.172396
1583.000000	33.126451
1582.000000	33.096608
1581.000000	33.075174
1580.000000	33.053022
1579.000000	33.028102
1578.000000	33.003078
1577.000000	32.992208
1576.000000	32.971799
1575.000000	32.960518
1574.000000	32.955390
1573.000000	32.958980
1572.000000	32.943392
1571.000000	32.942981
1570.000000	32.956826
1569.000000	32.951391
1568.000000	32.960723
1567.000000	32.981542
1566.000000	32.994771
1565.000000	33.007078
1564.000000	33.025025
1563.000000	33.042562
1562.000000	33.048202
1561.000000	33.073944
1560.000000	33.071790
1559.000000	33.055689
1558.000000	33.044100
1557.000000	33.066252
1556.000000	33.053843
1555.000000	33.031999
1554.000000	33.014975
1553.000000	33.015385
1552.000000	32.990977
1551.000000	32.954980
1550.000000	32.922060
1549.000000	32.902780
1548.000000	32.878987
1547.000000	32.847503
1546.000000	32.817352
1545.000000	32.777253
1544.000000	32.748435
1543.000000	32.724335
1542.000000	32.706798
1541.000000	32.693876
1540.000000	32.680647
1539.000000	32.669161
1538.000000	32.640753
1537.000000	32.619729
1536.000000	32.617781
1535.000000	32.600552
1534.000000	32.571426
1533.000000	32.556556
1532.000000	32.533994
1531.000000	32.509073
1530.000000	32.475333
1529.000000	32.457488
1528.000000	32.438618
1527.000000	32.408262
1526.000000	32.359856
1525.000000	32.323757
1524.000000	32.306425
1523.000000	32.275761
1522.000000	32.235868
1521.000000	32.195256
1520.000000	32.150953
1519.000000	32.100086
1518.000000	32.061012
1517.000000	32.022144
1516.000000	31.970046
1515.000000	31.936921
1514.000000	31.901130
1513.000000	31.841853
1512.000000	31.789858
1511.000000	31.745042
1510.000000	31.693354
1509.000000	31.640846
1508.000000	31.587723
1507.000000	31.534190
1506.000000	31.473067
1505.000000	31.409073
1504.000000	31.360462
1503.000000	31.317287
1502.000000	31.264779
1501.000000	31.204272
1500.000000	31.155353
1499.000000	31.106229
1498.000000	31.056388
1497.000000	31.005418
1496.000000	30.963576
1495.000000	30.924400
1494.000000	30.878969
1493.000000	30.849535
1492.000000	30.821846
1491.000000	30.793848
1490.000000	30.759287
1489.000000	30.711292
1488.000000	30.674988
1487.000000	30.651092
1486.000000	30.625351
1485.000000	30.587919
1484.000000	30.550076
1483.000000	30.521156
1482.000000	30.516746
1481.000000	30.503209
1480.000000	30.478391
1479.000000	30.457162
1478.000000	30.433472
1477.000000	30.415730
1476.000000	30.412653
1475.000000	30.410089
1474.000000	30.412038
1473.000000	30.409166
1472.000000	30.421473
1471.000000	30.425267
1470.000000	30.430087
1469.000000	30.428754
1468.000000	30.418088
1467.000000	30.428754
1466.000000	30.449983
1465.000000	30.459828
1464.000000	30.482595
1463.000000	30.501055
1462.000000	30.507413
1461.000000	30.534898
1460.000000	30.562280
1459.000000	30.596636
1458.000000	30.629761
1457.000000	30.686576
1456.000000	30.739905
1455.000000	30.795592
1454.000000	30.851074
1453.000000	30.916504
1452.000000	30.987369
1451.000000	31.066336
1450.000000	31.134124
1449.000000	31.202631
1448.000000	31.255446
1447.000000	31.348874
1446.000000	31.443429
1445.000000	31.524447
1444.000000	31.598799
1443.000000	31.666382
1442.000000	31.768834
1441.000000	31.855801
1440.000000	31.952920
1439.000000	32.071781
1438.000000	32.168387
1437.000000	32.264686
1436.000000	32.372573
1435.000000	32.482306
1434.000000	32.597680
1433.000000	32.733770
1432.000000	32.877244
1431.000000	32.989439
1430.000000	33.108299
1429.000000	33.230032
1428.000000	33.410117
1427.000000	33.572871
1426.000000	33.715320
1425.000000	33.893559
1424.000000	34.108104
1423.000000	34.304188
1422.000000	34.512681
1421.000000	34.708355
1420.000000	34.946590
1419.000000	35.191592
1418.000000	35.422443
1417.000000	35.638012
1416.000000	35.850916
1415.000000	36.105353
1414.000000	36.404608
1413.000000	36.659558
1412.000000	36.889896
1411.000000	37.162691
1410.000000	37.467688
1409.000000	37.833603
1408.000000	38.165674
1407.000000	38.524718
1406.000000	38.887556
1405.000000	39.242599
1404.000000	39.619282
1403.000000	39.973403
1402.000000	40.313166
1401.000000	40.748510
1400.000000	41.095350
1399.000000	41.446497
1398.000000	41.676834
1397.000000	41.953219
1396.000000	42.282009
1395.000000	42.631617
1394.000000	42.879081
1393.000000	43.085216
1392.000000	43.339654
1391.000000	43.611936
1390.000000	43.882885
1389.000000	44.160500
1388.000000	44.560360
1387.000000	44.925249
1386.000000	45.304188
1385.000000	45.697075
1384.000000	46.191901
1383.000000	46.642218
1382.000000	47.116327
1381.000000	47.508496
1380.000000	47.810314
1379.000000	47.988861
1378.000000	48.192740
1377.000000	48.316728
1376.000000	48.488610
1375.000000	48.650953
1374.000000	48.837603
1373.000000	49.101476
1372.000000	49.370066
1371.000000	49.695164
1370.000000	49.975445
1369.000000	50.250702
1368.000000	50.526471
1367.000000	50.767987
1366.000000	50.971968
1365.000000	51.128876
1364.000000	51.330704
1363.000000	51.472126
1362.000000	51.670672
1361.000000	51.823683
1360.000000	51.918341
1359.000000	51.899676
1358.000000	52.030228
1357.000000	52.112067
1356.000000	52.235030
1355.000000	52.458086
1354.000000	52.759391
1353.000000	53.091565
1352.000000	53.452147
1351.000000	53.820010
1350.000000	54.218332
1349.000000	54.564659
1348.000000	54.903191
1347.000000	55.211265
1346.000000	55.503135
1345.000000	55.783827
1344.000000	56.099388
1343.000000	56.382233
1342.000000	56.619852
1341.000000	56.884750
1340.000000	57.159289
1339.000000	57.395267
1338.000000	57.646218
1337.000000	57.886401
1336.000000	58.130275
1335.000000	58.349127
1334.000000	58.557312
1333.000000	58.785291
1332.000000	58.986093
1331.000000	59.198688
1330.000000	59.398055
1329.000000	59.606958
1328.000000	59.793197
1327.000000	59.959130
1326.000000	60.120551
1325.000000	60.284023
1324.000000	60.442265
1323.000000	60.584200
1322.000000	60.738442
1321.000000	60.872379
1320.000000	61.003341
1319.000000	61.141995
1318.000000	61.269572
1317.000000	61.397253
1316.000000	61.504320
1315.000000	61.625642
1314.000000	61.738554
1313.000000	61.854441
1312.000000	61.957919
1311.000000	62.054217
1310.000000	62.143235
1309.000000	62.218817
1308.000000	62.304861
1307.000000	62.393673
1306.000000	62.447616
1305.000000	62.506893
1304.000000	62.556837
1303.000000	62.612319
1302.000000	62.670468
1301.000000	62.720822
1300.000000	62.751998
1299.000000	62.771997
1298.000000	62.812095
1297.000000	62.851271
1296.000000	62.885832
1295.000000	62.894036
1294.000000	62.901420
1293.000000	62.925316
1292.000000	62.949108
1291.000000	62.953621
1290.000000	62.963774
1289.000000	62.940596
1288.000000	62.925726
1287.000000	62.926136
1286.000000	62.904292
1285.000000	62.882140
1284.000000	62.865013
1283.000000	62.824094
1282.000000	62.776406
1281.000000	62.750460
1280.000000	62.713848
1279.000000	62.679492
1278.000000	62.644008
1277.000000	62.614678
1276.000000	62.581143
1275.000000	62.558478
1274.000000	62.537967
1273.000000	62.503919
1272.000000	62.486895
1271.000000	62.475614
1270.000000	62.449975
1269.000000	62.430182
1268.000000	62.402185
1267.000000	62.383110
1266.000000	62.354292
1265.000000	62.326910
1264.000000	62.311321
1263.000000	62.290400
1262.000000	62.258403
1261.000000	62.225996
1260.000000	62.190205
1259.000000	62.165489
1258.000000	62.139850
1257.000000	62.097495
1256.000000	62.046936
1255.000000	62.004273
1254.000000	61.952586
1253.000000	61.898847
1252.000000	61.843980
1251.000000	61.782755
1250.000000	61.708711
1249.000000	61.648614
1248.000000	61.559494
1247.000000	61.468631
1246.000000	61.383305
1245.000000	61.284648
1244.000000	61.189682
1243.000000	61.082615
1242.000000	60.966216
1241.000000	60.851560
1240.000000	60.737314
1239.000000	60.604814
1238.000000	60.460314
1237.000000	60.339915
1236.000000	60.216542
1235.000000	60.076658
1234.000000	59.937697
1233.000000	59.778327
1232.000000	59.621623
1231.000000	59.474868
1230.000000	59.309345
1229.000000	59.140232
1228.000000	58.978812
1227.000000	58.809186
1226.000000	58.647048
1225.000000	58.483678
1224.000000	58.315079
1223.000000	58.147607
1222.000000	57.970290
1221.000000	57.795537
1220.000000	57.630527
1219.000000	57.472593
1218.000000	57.309736
1217.000000	57.159084
1216.000000	57.035403
1215.000000	56.907312
1214.000000	56.770094
1213.000000	56.654413
1212.000000	56.547346
1211.000000	56.427049
1210.000000	56.305420
1209.000000	56.201942
1208.000000	56.116001
1207.000000	56.037752
1206.000000	55.961452
1205.000000	55.897663
1204.000000	55.845052
1203.000000	55.810491
1202.000000	55.786083
1201.000000	55.769470
1200.000000	55.742088
1199.000000	55.691323
1198.000000	55.635328
1197.000000	55.554515
1196.000000	55.449602
1195.000000	55.316076
1194.000000	55.139785
1193.000000	54.923395
1192.000000	54.653266
1191.000000	54.326527
1190.000000	53.993840
1189.000000	53.680946
1188.000000	53.420150
1187.000000	53.218938
1186.000000	53.107154
1185.000000	53.088489
1184.000000	53.159662
1183.000000	53.343542
1182.000000	53.627926
1181.000000	53.978765
1180.000000	54.367959
1179.000000	54.770076
1178.000000	55.163988
1177.000000	55.547644
1176.000000	55.875101
1175.000000	56.167997
1174.000000	56.433510
1173.000000	56.690512
1172.000000	56.949360
1171.000000	57.219693
1170.000000	57.513512
1169.000000	57.796050
1168.000000	58.096740
1167.000000	58.390251
1166.000000	58.691454
1165.000000	59.002502
1164.000000	59.319088
1163.000000	59.631571
1162.000000	59.957695
1161.000000	60.283921
1160.000000	60.583072
1159.000000	60.899966
1158.000000	61.216654
1157.000000	61.491706
1156.000000	61.773218
1155.000000	61.998633
1154.000000	62.199845
1153.000000	62.368547
1152.000000	62.506688
1151.000000	62.614165
1150.000000	62.686876
1149.000000	62.740102
1148.000000	62.793020
1147.000000	62.862450
1146.000000	62.951467
1145.000000	63.093197
1144.000000	63.295640
1143.000000	63.524337
1142.000000	63.794158
1141.000000	64.080593
1140.000000	64.390000
1139.000000	64.715200
1138.000000	65.034965
1137.000000	65.378831
1136.000000	65.746796
1135.000000	66.122761
1134.000000	66.510315
1133.000000	66.848335
1132.000000	67.134154
1131.000000	67.427255
1130.000000	67.704152
1129.000000	67.948232
1128.000000	68.149649
1127.000000	68.312608
1126.000000	68.453313
1125.000000	68.574943
1124.000000	68.654115
1123.000000	68.735338
1122.000000	68.810613
1121.000000	68.863429
1120.000000	68.873377
1119.000000	68.929474
1118.000000	68.968034
1117.000000	68.968342
1116.000000	68.978085
1115.000000	68.965983
1114.000000	68.960651
1113.000000	68.967727
1112.000000	68.961266
1111.000000	68.944139
1110.000000	68.941268
1109.000000	68.910501
1108.000000	68.908861
1107.000000	68.927218
1106.000000	68.902092
1105.000000	68.906604
1104.000000	68.899836
1103.000000	68.904143
1102.000000	68.890503
1101.000000	68.879530
1100.000000	68.896964
1099.000000	68.877684
1098.000000	68.873172
1097.000000	68.841380
1096.000000	68.833380
1095.000000	68.825996
1094.000000	68.789897
1093.000000	68.774924
1092.000000	68.747337
1091.000000	68.715648
1090.000000	68.707341
1089.000000	68.666934
1088.000000	68.635142
1087.000000	68.593813
1086.000000	68.567354
1085.000000	68.534229
1084.000000	68.498437
1083.000000	68.445622
1082.000000	68.404292
1081.000000	68.355169
1080.000000	68.319172
1079.000000	68.271997
1078.000000	68.220412
1077.000000	68.177544
1076.000000	68.158879
1075.000000	68.095398
1074.000000	68.048428
1073.000000	67.988331
1072.000000	67.959718
1071.000000	67.898391
1070.000000	67.857984
1069.000000	67.799015
1068.000000	67.745584
1067.000000	67.679744
1066.000000	67.617391
1065.000000	67.596060
1064.000000	67.533194
1063.000000	67.475148
1062.000000	67.402334
1061.000000	67.333725
1060.000000	67.269834
1059.000000	67.197533
1058.000000	67.145025
1057.000000	67.086569
1056.000000	67.009550
1055.000000	66.931404
1054.000000	66.863615
1053.000000	66.784135
1052.000000	66.714398
1051.000000	66.633790
1050.000000	66.582206
1049.000000	66.520878
1048.000000	66.445808
1047.000000	66.400171
1046.000000	66.339049
1045.000000	66.283259
1044.000000	66.209727
1043.000000	66.173321
1042.000000	66.102866
1041.000000	66.056921
1040.000000	65.978672
1039.000000	65.917960
1038.000000	65.869144
1037.000000	65.819815
1036.000000	65.751001
1035.000000	65.677982
1034.000000	65.619526
1033.000000	65.548456
1032.000000	65.495435
1031.000000	65.438210
1030.000000	65.357294
1029.000000	65.278840
1028.000000	65.227357
1027.000000	65.153211
1026.000000	65.083473
1025.000000	65.010352
1024.000000	64.933539
1023.000000	64.878980
1022.000000	64.813652
1021.000000	64.737044
1020.000000	64.665564
1019.000000	64.601672
1018.000000	64.553574
1017.000000	64.505476
1016.000000	64.446302
1015.000000	64.389487
1014.000000	64.354105
1013.000000	64.328467
1012.000000	64.306623
1011.000000	64.283548
1010.000000	64.272677
1009.000000	64.274421
1008.000000	64.268062
1007.000000	64.274626
1006.000000	64.279138
1005.000000	64.295034
1004.000000	64.286830
1003.000000	64.288676
1002.000000	64.289804
1001.000000	64.282522
1000.000000	64.282933
999.000000	64.294521
998.000000	64.298726
997.000000	64.294111
996.000000	64.306110
995.000000	64.324980
994.000000	64.333595
993.000000	64.342414
992.000000	64.348465
991.000000	64.344568
990.000000	64.369181
989.000000	64.372258
988.000000	64.378308
987.000000	64.401281
986.000000	64.388256
985.000000	64.388256
984.000000	64.394615
983.000000	64.414408
982.000000	64.418100
981.000000	64.424253
980.000000	64.439841
979.000000	64.457275
978.000000	64.451122
977.000000	64.437687
976.000000	64.460557
975.000000	64.471838
974.000000	64.481478
973.000000	64.512450
972.000000	64.515937
971.000000	64.527730
970.000000	64.538704
969.000000	64.554395
968.000000	64.576341
967.000000	64.595416
966.000000	64.627003
965.000000	64.651206
964.000000	64.671204
963.000000	64.704945
962.000000	64.756324
961.000000	64.811806
960.000000	64.856315
959.000000	64.914053
958.000000	64.963279
957.000000	65.030863
956.000000	65.095575
955.000000	65.161210
954.000000	65.236587
953.000000	65.295966
952.000000	65.359858
951.000000	65.447439
950.000000	65.527227
949.000000	65.597579
948.000000	65.677982
947.000000	65.748335
946.000000	65.817354
945.000000	65.885245
944.000000	65.967904
943.000000	66.038666
942.000000	66.088200
941.000000	66.163065
940.000000	66.231879
939.000000	66.274542
938.000000	66.329716
937.000000	66.409606
936.000000	66.483343
935.000000	66.535338
934.000000	66.597589
933.000000	66.674094
932.000000	66.736448
931.000000	66.821363
930.000000	66.893356
929.000000	66.931301
928.000000	67.004115
927.000000	67.051495
926.000000	67.073339
925.000000	67.114464
924.000000	67.155485
923.000000	67.193841
922.000000	67.252502
921.000000	67.290037
920.000000	67.321008
919.000000	67.347468
918.000000	67.384080
917.000000	67.437510
916.000000	67.487147
915.000000	67.524374
914.000000	67.575446
913.000000	67.637492
912.000000	67.678103
911.000000	67.736457
910.000000	67.803117
909.000000	67.865983
908.000000	67.947719
907.000000	68.008534
906.000000	68.087194
905.000000	68.165443
904.000000	68.266664
903.000000	68.358450
902.000000	68.450134
901.000000	68.547048
900.000000	68.662935
899.000000	68.764976
898.000000	68.880043
897.000000	69.011415
896.000000	69.126071
895.000000	69.245034
894.000000	69.363690
893.000000	69.481320
892.000000	69.589720
891.000000	69.697813
890.000000	69.777498
889.000000	69.876052
888.000000	69.976043
887.000000	70.067727
886.000000	70.155514
885.000000	70.222379
884.000000	70.290065
883.000000	70.351188
882.000000	70.424514
881.000000	70.494969
880.000000	70.541324
879.000000	70.609830
878.000000	70.672901
877.000000	70.702437
876.000000	70.718025
875.000000	70.706231
874.000000	70.664799
873.000000	70.583166
872.000000	70.509532
871.000000	70.476612
870.000000	70.509532
869.000000	70.579679
868.000000	70.699668
867.000000	70.819964
866.000000	70.907854
865.000000	70.981283
864.000000	71.048456
863.000000	71.139422
862.000000	71.227003
861.000000	71.310380
860.000000	71.392527
859.000000	71.446983
858.000000	71.511900
857.000000	71.573900
856.000000	71.463800
855.000000	71.498000
854.000000	71.786600
853.000000	71.827900
852.000000	71.567700
851.000000	71.658900
850.000000	72.017800
849.000000	71.908400
848.000000	72.319300
847.000000	71.744200
846.000000	71.820700
845.000000	71.629200
844.000000	71.981500
843.000000	71.713500
842.000000	71.525700
841.000000	71.812000
840.000000	72.367500
839.000000	72.162000
838.000000	72.196000
837.000000	71.931100
836.000000	72.073900
835.000000	71.875700
834.000000	72.155000
833.000000	72.101200
832.000000	72.073900
831.000000	72.008700
830.000000	71.751200
829.000000	71.727200
828.000000	71.628100
827.000000	71.523500
826.000000	71.631200
825.000000	71.453800
824.000000	71.361600
823.000000	71.408600
822.000000	71.273400
821.000000	71.030400
820.000000	71.075000
819.000000	70.908300
818.000000	70.926600
817.000000	70.921300
816.000000	70.861800
815.000000	70.702600
814.000000	70.713900
813.000000	70.604400
812.000000	70.718400
811.000000	70.390600
810.000000	70.347500
809.000000	70.113100
808.000000	70.042500
807.000000	69.994100
806.000000	69.886900
805.000000	69.799200
804.000000	69.503200
803.000000	69.460500
802.000000	69.369400
801.000000	69.350000
800.000000	69.175800
799.000000	68.904000
798.000000	68.984200
797.000000	68.852700
796.000000	68.483200
795.000000	68.504500
794.000000	68.346200
793.000000	68.152000
792.000000	67.966200
791.000000	67.749200
790.000000	67.675400
789.000000	67.502400
788.000000	67.501200
787.000000	67.189700
786.000000	67.233600
785.000000	67.043300
784.000000	66.857800
783.000000	66.671400
782.000000	66.589200
781.000000	66.504400
780.000000	66.206300
779.000000	66.155900
778.000000	66.065800
777.000000	65.868400
776.000000	65.911700
775.000000	65.772200
774.000000	65.761400
773.000000	65.628100
772.000000	65.500700
771.000000	65.391500
770.000000	65.233300
769.000000	65.223200
768.000000	65.260400
767.000000	65.115600
766.000000	65.011700
765.000000	64.923100
764.000000	64.905000
763.000000	64.807600
762.000000	64.739600
761.000000	64.597200
760.000000	64.526100
759.000000	64.422400
758.000000	64.225800
757.000000	64.140600
756.000000	64.098300
755.000000	63.931900
754.000000	63.925500
753.000000	63.714100
752.000000	63.729900
751.000000	63.622100
750.000000	63.446700
749.000000	63.456000
748.000000	63.277000
747.000000	63.251900
746.000000	63.203700
745.000000	63.027900
744.000000	62.994500
743.000000	62.957600
742.000000	62.865300
741.000000	62.733600
740.000000	62.674600
739.000000	62.638900
738.000000	62.511000
737.000000	62.434900
736.000000	62.361500
735.000000	62.301600
734.000000	62.208500
733.000000	62.065900
732.000000	61.977000
731.000000	61.967100
730.000000	61.835400
729.000000	61.707900
728.000000	61.591600
727.000000	61.386200
726.000000	61.181300
725.000000	61.057400
724.000000	60.993200
723.000000	60.831100
722.000000	60.693000
721.000000	60.560300
720.000000	60.326700
719.000000	60.200900
718.000000	60.071000
717.000000	59.943600
716.000000	59.745500
715.000000	59.545700
714.000000	59.410900
713.000000	59.282400
712.000000	59.162300
711.000000	58.967700
710.000000	58.845300
709.000000	58.682700
708.000000	58.569200
707.000000	58.419700
706.000000	58.306700
705.000000	58.188600
704.000000	58.104300
703.000000	58.027300
702.000000	57.975700
701.000000	57.913300
700.000000	57.895100
699.000000	57.892900
698.000000	57.845000
697.000000	57.853200
696.000000	57.844900
695.000000	57.841400
694.000000	57.833100
693.000000	57.829400
692.000000	57.907000
691.000000	57.946700
690.000000	57.983000
689.000000	58.066400
688.000000	58.092800
687.000000	58.133400
686.000000	58.169700
685.000000	58.242300
684.000000	58.290500
683.000000	58.358400
682.000000	58.400000
681.000000	58.407000
680.000000	58.473600
679.000000	58.504300
678.000000	58.542600
677.000000	58.629300
676.000000	58.645400
675.000000	58.646100
674.000000	58.629400
673.000000	58.625100
672.000000	58.600100
671.000000	58.531700
670.000000	58.432300
669.000000	58.286200
668.000000	58.165800
667.000000	57.970500
666.000000	57.747400
665.000000	57.523000
664.000000	57.233700
663.000000	56.962400
662.000000	56.691600
661.000000	56.407100
660.000000	56.107500
659.000000	55.839800
658.000000	55.560800
657.000000	55.221000
656.000000	54.909100
655.000000	54.582700
654.000000	54.222800
653.000000	53.913400
652.000000	53.560000
651.000000	53.188200
650.000000	52.889100
649.000000	52.611700
648.000000	52.339100
647.000000	52.115600
646.000000	51.935500
645.000000	51.764300
644.000000	51.622300
643.000000	51.581400
642.000000	51.611300
641.000000	51.718700
640.000000	51.915200
639.000000	52.183600
638.000000	52.597800
637.000000	53.055700
636.000000	53.550300
635.000000	54.143900
634.000000	54.778100
633.000000	55.448000
632.000000	56.084100
631.000000	56.687400
630.000000	57.253900
629.000000	57.827900
628.000000	58.380500
627.000000	58.861800
626.000000	59.334600
625.000000	59.813700
624.000000	60.260800
623.000000	60.739300
622.000000	61.271100
621.000000	61.827700
620.000000	62.383500
619.000000	62.995500
618.000000	63.649500
617.000000	64.320300
616.000000	64.970700
615.000000	65.605600
614.000000	66.230100
613.000000	66.801300
612.000000	67.306200
611.000000	67.716500
610.000000	68.042100
609.000000	68.304300
608.000000	68.473700
607.000000	68.560700
606.000000	68.673500
605.000000	68.782400
604.000000	68.860400
603.000000	68.973500
602.000000	69.095500
601.000000	69.283800
600.000000	69.480400
599.000000	69.755300
598.000000	70.116600
597.000000	70.502000
596.000000	70.963000
595.000000	71.411200
594.000000	71.865100
593.000000	72.323400
592.000000	72.750600
591.000000	73.150300
590.000000	73.471000
589.000000	73.689400
588.000000	73.877300
587.000000	73.995800
586.000000	74.075200
585.000000	74.042200
584.000000	74.007700
583.000000	73.932700
582.000000	73.832100
581.000000	73.752900
580.000000	73.694500
579.000000	73.647800
578.000000	73.646800
577.000000	73.700100
576.000000	73.717900
575.000000	73.765900
574.000000	73.856100
573.000000	73.951400
572.000000	74.037900
571.000000	74.117300
570.000000	74.139200
569.000000	74.180200
568.000000	74.162400
567.000000	74.054600
566.000000	73.901500
565.000000	73.714700
564.000000	73.428000
563.000000	73.146600
562.000000	72.750000
561.000000	72.336500
560.000000	71.891400
559.000000	71.369900
558.000000	70.885100
557.000000	70.492700
556.000000	70.040300
555.000000	69.599000
554.000000	69.173100
553.000000	68.747300
552.000000	68.216300
551.000000	67.728900
550.000000	67.183600
549.000000	66.567900
548.000000	65.875400
547.000000	65.173200
546.000000	64.410400
545.000000	63.564100
544.000000	62.658500
543.000000	61.729600
542.000000	60.763800
541.000000	59.745900
540.000000	58.704900
539.000000	57.640000
538.000000	56.552200
537.000000	55.449000
536.000000	54.343400
535.000000	53.229700
534.000000	52.056900
533.000000	50.927500
532.000000	49.790800
531.000000	48.659000
530.000000	47.609900
529.000000	46.584300
528.000000	45.586700
527.000000	44.658700
526.000000	43.754100
525.000000	42.867000
524.000000	42.011500
523.000000	41.202800
522.000000	40.426500
521.000000	39.711700
520.000000	39.082500
519.000000	38.456600
518.000000	37.853400
517.000000	37.264300
516.000000	36.702000
515.000000	36.152800
514.000000	35.597000
513.000000	35.047500
512.000000	34.564900
511.000000	34.054500
510.000000	33.595400
509.000000	33.117300
508.000000	32.631800
507.000000	32.124300
506.000000	31.636300
505.000000	31.126600
504.000000	30.576900
503.000000	30.122700
502.000000	29.641800
501.000000	29.081300
500.000000	28.512600
499.000000	27.988500
498.000000	27.385800
497.000000	26.795200
496.000000	26.178100
495.000000	25.592300
494.000000	25.012400
493.000000	24.402500
492.000000	23.768400
491.000000	23.151400
490.000000	22.578500
489.000000	22.013800
488.000000	21.579700
487.000000	21.140700
486.000000	20.798300
485.000000	20.460100
484.000000	20.183600
483.000000	19.950500
482.000000	19.793200
481.000000	19.663400
480.000000	19.617600
479.000000	19.582100
478.000000	19.584700
477.000000	19.582500
476.000000	19.598600
475.000000	19.635800
474.000000	19.692100
473.000000	19.787100
472.000000	19.813700
471.000000	19.851400
470.000000	19.872500
469.000000	19.903100
468.000000	19.892800
467.000000	19.911100
466.000000	19.921600
465.000000	19.912900
464.000000	19.870600
463.000000	19.840600
462.000000	19.817700
461.000000	19.743200
460.000000	19.724700
459.000000	19.644100
458.000000	19.564800
457.000000	19.483800
456.000000	19.391500
455.000000	19.302000
454.000000	19.167000
453.000000	19.056000
452.000000	18.899000
451.000000	18.768500
450.000000	18.610400
449.000000	18.438000
448.000000	18.260200
447.000000	18.056700
446.000000	17.879100
445.000000	17.679800
444.000000	17.493700
443.000000	17.288700
442.000000	17.030900
441.000000	16.824300
440.000000	16.572600
439.000000	16.377700
438.000000	16.122500
437.000000	15.841200
436.000000	15.608800
435.000000	15.356700
434.000000	15.078000
433.000000	14.838200
432.000000	14.552200
431.000000	14.246500
430.000000	13.956500
429.000000	13.695500
428.000000	13.409500
427.000000	13.115100
426.000000	12.804100
425.000000	12.512400
424.000000	12.204800
423.000000	11.893200
422.000000	11.575800
421.000000	11.277300
420.000000	10.983300
419.000000	10.692700
418.000000	10.359700
417.000000	10.085600
416.000000	9.820400
415.000000	9.537700
414.000000	9.281600
413.000000	9.021800
412.000000	8.770900
411.000000	8.537500
410.000000	8.318400
409.000000	8.099500
408.000000	7.924400
407.000000	7.752300
406.000000	7.570900
405.000000	7.424500
404.000000	7.277500
403.000000	7.157300
402.000000	7.034300
401.000000	6.903800
400.000000	6.815900
399.000000	6.711900
398.000000	6.645900
397.000000	6.576700
396.000000	6.472800
395.000000	6.428700
394.000000	6.373200
393.000000	6.324300
392.000000	6.258500
391.000000	6.203000
390.000000	6.141700
389.000000	6.110400
388.000000	6.096900
387.000000	6.063900
386.000000	6.016400
385.000000	6.000100
384.000000	5.957100
383.000000	5.926900
382.000000	5.898200
381.000000	5.889600
380.000000	5.857100
379.000000	5.854400
378.000000	5.831900
377.000000	5.797700
376.000000	5.701900
375.000000	5.615000
374.000000	5.640300
373.000000	5.564500
372.000000	5.653100
371.000000	5.677900
370.000000	5.604900
369.000000	5.547600
368.000000	5.560600
367.000000	5.658800
366.000000	5.618500
365.000000	5.628200
364.000000	5.674700
363.000000	5.734000
362.000000	5.601500
361.000000	5.641900
360.000000	5.620800
359.000000	5.563700
358.000000	5.592000
357.000000	5.695900
356.000000	5.611800
355.000000	5.682400
354.000000	5.668200
353.000000	5.640900
352.000000	5.685300
351.000000	5.718000
350.000000	5.735500
349.000000	5.651100
348.000000	5.519200
347.000000	5.569500
346.000000	5.659700
345.000000	5.701800
344.000000	5.594500
343.000000	5.653800
342.000000	5.713400
341.000000	5.811900
340.000000	5.758900
339.000000	5.516400
338.000000	5.598500
337.000000	5.519600
336.000000	5.416100
335.000000	5.475100
334.000000	5.449300
333.000000	5.577000
332.000000	5.664400
331.000000	5.685900
330.000000	5.788400
329.000000	5.987900
328.000000	5.985300
327.000000	5.663400
326.000000	5.568700
325.000000	5.796400
324.000000	5.687400
323.000000	5.686000
322.000000	5.889900
321.000000	6.009100
320.000000	6.128200
319.000000	6.357600
318.000000	6.156900
317.000000	5.845400
316.000000	5.580600
315.000000	5.383200
314.000000	5.449900
313.000000	5.487100
312.000000	5.470500
311.000000	5.459400
310.000000	5.472100
309.000000	5.476800
308.000000	5.473400
307.000000	5.486900
306.000000	5.468700
305.000000	5.472100
304.000000	5.461300
303.000000	5.472800
302.000000	5.475700
301.000000	5.479900
300.000000	5.468900
299.000000	5.492000
298.000000	5.503800
297.000000	5.487800
296.000000	5.510400
295.000000	5.522100
294.000000	5.544400
293.000000	5.547800
292.000000	5.530000
291.000000	5.557700
290.000000	5.564000
289.000000	5.519100
288.000000	5.531000
287.000000	5.580300
286.000000	5.594100
285.000000	5.627500
284.000000	5.636000
283.000000	5.651400
282.000000	5.671100
281.000000	5.658100
280.000000	5.671500
279.000000	5.693600
278.000000	5.682800
277.000000	5.739300
276.000000	5.737200
275.000000	5.723500
274.000000	5.772200
273.000000	5.776800
272.000000	5.776600
271.000000	5.763200
270.000000	5.826100
269.000000	5.842400
268.000000	5.801000
267.000000	5.868100
266.000000	5.905600
265.000000	5.939000
264.000000	5.938700
263.000000	5.963100
262.000000	5.996200
261.000000	6.035200
260.000000	5.989400
259.000000	6.026100
258.000000	6.038000
257.000000	6.085800
256.000000	6.099400
255.000000	6.057000
254.000000	6.077600
253.000000	6.112600
252.000000	6.099200
251.000000	6.088600
250.000000	6.128700
