PE UV       SUBTECH     SPECTRUM    ASCII       PEDS        4.00        
   -1
CICIMAUCR0212-2.ASC
24/06/06
16:43:01.00
24/06/06
16:43:01.00
Vinicio Soto Monge
C. resplendens. Sex F. Dorsal
250,000000
1
Lambda 1050
1050L1511233
PerkinElmer UV WinLab 6.3.2.0749 / 2.02.05 Lambda 900 UV/VIS/NIR, Aug  7 2015 09:38:08

0
0
3350/servo 860,8/2
0
0
UV/VIS
1
1
1
DoubleDePol,CommonBeamDepol,RBeamAtt,SBeamAtt,60mm sphere, WB InGaAs Detector
0
0
0
0
Program
Program
3350/servo 860,8/2
3350/0,2 860,8/0,2
3350/0,2 860,8/0,2
0
15.00
 
 
 
0
 
860,8
319,2
860,8
Front
100
on
S:100 R:100
0
0
0
0
 
0
 
 
 
0
 
 
0
0
0
0
0
 
 
 
 
0
0


0
0
#HDR
-1
-1
#GR
nm
%R
1.0
0.0
2500,000000
-1,000000
2251
8
91,289900
5,239400
#DATA
2500.000000	7.396964
2499.000000	7.330869
2498.000000	7.086360
2497.000000	7.122231
2496.000000	7.111355
2495.000000	7.112505
2494.000000	7.145239
2493.000000	7.065026
2492.000000	7.165632
2491.000000	7.083641
2490.000000	7.036684
2489.000000	6.955530
2488.000000	7.067117
2487.000000	6.964106
2486.000000	6.918927
2485.000000	6.975400
2484.000000	7.043901
2483.000000	6.953229
2482.000000	6.945386
2481.000000	6.979793
2480.000000	6.930745
2479.000000	6.947478
2478.000000	6.986695
2477.000000	6.957517
2476.000000	6.918090
2475.000000	6.887867
2474.000000	6.925202
2473.000000	6.928339
2472.000000	6.906168
2471.000000	6.915581
2470.000000	6.918823
2469.000000	6.914744
2468.000000	6.911920
2467.000000	6.919450
2466.000000	6.883474
2465.000000	6.928130
2464.000000	6.933987
2463.000000	6.928130
2462.000000	6.936915
2461.000000	6.972995
2460.000000	7.002382
2459.000000	6.985858
2458.000000	7.035952
2457.000000	7.044005
2456.000000	7.044737
2455.000000	7.106126
2454.000000	7.147853
2453.000000	7.170652
2452.000000	7.205059
2451.000000	7.239152
2450.000000	7.295102
2449.000000	7.334634
2448.000000	7.360988
2447.000000	7.396022
2446.000000	7.433671
2445.000000	7.440051
2444.000000	7.484184
2443.000000	7.544108
2442.000000	7.589600
2441.000000	7.621811
2440.000000	7.665630
2439.000000	7.702233
2438.000000	7.730993
2437.000000	7.760903
2436.000000	7.800016
2435.000000	7.837665
2434.000000	7.852097
2433.000000	7.914322
2432.000000	7.942350
2431.000000	7.970064
2430.000000	7.985960
2429.000000	8.018798
2428.000000	8.031034
2427.000000	8.058538
2426.000000	8.102985
2425.000000	8.126097
2424.000000	8.124529
2423.000000	8.143144
2422.000000	8.177551
2421.000000	8.214991
2420.000000	8.227959
2419.000000	8.233292
2418.000000	8.242704
2417.000000	8.268327
2416.000000	8.299910
2415.000000	8.326473
2414.000000	8.328565
2413.000000	8.341010
2412.000000	8.365377
2411.000000	8.378031
2410.000000	8.401457
2409.000000	8.423419
2408.000000	8.430740
2407.000000	8.454479
2406.000000	8.492442
2405.000000	8.497985
2404.000000	8.503946
2403.000000	8.531137
2402.000000	8.563138
2401.000000	8.611141
2400.000000	8.622017
2399.000000	8.633416
2398.000000	8.648580
2397.000000	8.656842
2396.000000	8.670542
2395.000000	8.699302
2394.000000	8.727852
2393.000000	8.738729
2392.000000	8.766965
2391.000000	8.795307
2390.000000	8.805974
2389.000000	8.826367
2388.000000	8.844355
2387.000000	8.846237
2386.000000	8.844041
2385.000000	8.857427
2384.000000	8.881585
2383.000000	8.895704
2382.000000	8.888069
2381.000000	8.896959
2380.000000	8.918188
2379.000000	8.898527
2378.000000	8.887023
2377.000000	8.900410
2376.000000	8.888278
2375.000000	8.880017
2374.000000	8.887546
2373.000000	8.865480
2372.000000	8.840799
2371.000000	8.841740
2370.000000	8.817582
2369.000000	8.792797
2368.000000	8.770939
2367.000000	8.739252
2366.000000	8.719590
2365.000000	8.693341
2364.000000	8.648371
2363.000000	8.611350
2362.000000	8.576629
2361.000000	8.544732
2360.000000	8.495370
2359.000000	8.442662
2358.000000	8.404804
2357.000000	8.369769
2356.000000	8.338291
2355.000000	8.306707
2354.000000	8.290184
2353.000000	8.283491
2352.000000	8.277320
2351.000000	8.284118
2350.000000	8.293321
2349.000000	8.296249
2348.000000	8.320303
2347.000000	8.356069
2346.000000	8.387757
2345.000000	8.431785
2344.000000	8.476128
2343.000000	8.522666
2342.000000	8.561779
2341.000000	8.597127
2340.000000	8.636449
2339.000000	8.679013
2338.000000	8.701498
2337.000000	8.701916
2336.000000	8.715303
2335.000000	8.735382
2334.000000	8.732454
2333.000000	8.725552
2332.000000	8.723042
2331.000000	8.696583
2330.000000	8.665941
2329.000000	8.636135
2328.000000	8.602565
2327.000000	8.544941
2326.000000	8.504260
2325.000000	8.443603
2324.000000	8.376776
2323.000000	8.322185
2322.000000	8.240194
2321.000000	8.156949
2320.000000	8.092632
2319.000000	8.016811
2318.000000	7.929800
2317.000000	7.835469
2316.000000	7.755151
2315.000000	7.685919
2314.000000	7.600163
2313.000000	7.509178
2312.000000	7.436809
2311.000000	7.372073
2310.000000	7.322712
2309.000000	7.266761
2308.000000	7.217608
2307.000000	7.174208
2306.000000	7.156011
2305.000000	7.178077
2304.000000	7.171384
2303.000000	7.191568
2302.000000	7.210183
2301.000000	7.242498
2300.000000	7.297926
2299.000000	7.370923
2298.000000	7.432207
2297.000000	7.503531
2296.000000	7.538670
2295.000000	7.613863
2294.000000	7.701397
2293.000000	7.750445
2292.000000	7.812252
2291.000000	7.847182
2290.000000	7.892360
2289.000000	7.906583
2288.000000	7.934506
2287.000000	7.922166
2286.000000	7.916205
2285.000000	7.904492
2284.000000	7.895812
2283.000000	7.866947
2282.000000	7.825534
2281.000000	7.770420
2280.000000	7.739987
2279.000000	7.691985
2278.000000	7.623066
2277.000000	7.601418
2276.000000	7.564292
2275.000000	7.490668
2274.000000	7.472157
2273.000000	7.446221
2272.000000	7.420703
2271.000000	7.412023
2270.000000	7.414219
2269.000000	7.404912
2268.000000	7.431998
2267.000000	7.476549
2266.000000	7.526434
2265.000000	7.577469
2264.000000	7.645133
2263.000000	7.770315
2262.000000	7.874268
2261.000000	7.994535
2260.000000	8.154752
2259.000000	8.312146
2258.000000	8.501122
2257.000000	8.665836
2256.000000	8.849688
2255.000000	9.022769
2254.000000	9.227328
2253.000000	9.419965
2252.000000	9.605176
2251.000000	9.787041
2250.000000	9.961377
2249.000000	10.171060
2248.000000	10.319878
2247.000000	10.452172
2246.000000	10.603918
2245.000000	10.753677
2244.000000	10.886076
2243.000000	10.991702
2242.000000	11.104439
2241.000000	11.189149
2240.000000	11.297285
2239.000000	11.379485
2238.000000	11.454365
2237.000000	11.565115
2236.000000	11.631838
2235.000000	11.705567
2234.000000	11.743739
2233.000000	11.831272
2232.000000	11.874046
2231.000000	11.898622
2230.000000	11.948298
2229.000000	11.962834
2228.000000	12.009268
2227.000000	12.048590
2226.000000	12.063231
2225.000000	12.081428
2224.000000	12.104959
2223.000000	12.075049
2222.000000	12.086239
2221.000000	12.099102
2220.000000	12.101612
2219.000000	12.060512
2218.000000	12.069192
2217.000000	12.078605
2216.000000	12.038237
2215.000000	12.044407
2214.000000	12.029138
2213.000000	12.018576
2212.000000	11.981763
2211.000000	11.989711
2210.000000	11.976430
2209.000000	11.951644
2208.000000	11.960533
2207.000000	11.933970
2206.000000	11.937107
2205.000000	11.917028
2204.000000	11.914100
2203.000000	11.900609
2202.000000	11.883562
2201.000000	11.884817
2200.000000	11.863274
2199.000000	11.870072
2198.000000	11.869444
2197.000000	11.867352
2196.000000	11.858881
2195.000000	11.836083
2194.000000	11.826043
2193.000000	11.820500
2192.000000	11.808265
2191.000000	11.809938
2190.000000	11.769674
2189.000000	11.784629
2188.000000	11.767060
2187.000000	11.758798
2186.000000	11.741542
2185.000000	11.761099
2184.000000	11.733176
2183.000000	11.733176
2182.000000	11.713724
2181.000000	11.699501
2180.000000	11.684860
2179.000000	11.674611
2178.000000	11.674506
2177.000000	11.672310
2176.000000	11.668964
2175.000000	11.659029
2174.000000	11.651917
2173.000000	11.655682
2172.000000	11.645851
2171.000000	11.659865
2170.000000	11.648570
2169.000000	11.645224
2168.000000	11.658819
2167.000000	11.676284
2166.000000	11.680049
2165.000000	11.689148
2164.000000	11.695109
2163.000000	11.718744
2162.000000	11.712783
2161.000000	11.732548
2160.000000	11.760785
2159.000000	11.775113
2158.000000	11.798434
2157.000000	11.810565
2156.000000	11.828553
2155.000000	11.866725
2154.000000	11.878647
2153.000000	11.890778
2152.000000	11.909394
2151.000000	11.938049
2150.000000	11.955304
2149.000000	11.980927
2148.000000	11.993999
2147.000000	12.030602
2146.000000	12.048799
2145.000000	12.045557
2144.000000	12.057793
2143.000000	12.078291
2142.000000	12.093560
2141.000000	12.110083
2140.000000	12.133091
2139.000000	12.122737
2138.000000	12.133300
2137.000000	12.148151
2136.000000	12.158818
2135.000000	12.156203
2134.000000	12.163942
2133.000000	12.169799
2132.000000	12.159968
2131.000000	12.162269
2130.000000	12.182244
2129.000000	12.168753
2128.000000	12.146059
2127.000000	12.138843
2126.000000	12.132463
2125.000000	12.115626
2124.000000	12.089899
2123.000000	12.080592
2122.000000	12.075676
2121.000000	12.047231
2120.000000	12.026733
2119.000000	12.009582
2118.000000	11.984482
2117.000000	11.968586
2116.000000	11.935330
2115.000000	11.901341
2114.000000	11.879275
2113.000000	11.852293
2112.000000	11.810879
2111.000000	11.784211
2110.000000	11.771034
2109.000000	11.741752
2108.000000	11.707972
2107.000000	11.682036
2106.000000	11.651185
2105.000000	11.613222
2104.000000	11.587809
2103.000000	11.553821
2102.000000	11.530708
2101.000000	11.508224
2100.000000	11.475386
2099.000000	11.447567
2098.000000	11.428847
2097.000000	11.396741
2096.000000	11.361811
2095.000000	11.316005
2094.000000	11.294985
2093.000000	11.288919
2092.000000	11.256604
2091.000000	11.227426
2090.000000	11.216445
2089.000000	11.197934
2088.000000	11.172103
2087.000000	11.127029
2086.000000	11.098060
2085.000000	11.082268
2084.000000	11.058738
2083.000000	11.030083
2082.000000	10.995676
2081.000000	10.982080
2080.000000	10.958759
2079.000000	10.920064
2078.000000	10.892873
2077.000000	10.865996
2076.000000	10.842361
2075.000000	10.822386
2074.000000	10.787770
2073.000000	10.754618
2072.000000	10.740500
2071.000000	10.712368
2070.000000	10.677856
2069.000000	10.661123
2068.000000	10.641149
2067.000000	10.605487
2066.000000	10.591891
2065.000000	10.576309
2064.000000	10.536568
2063.000000	10.511992
2062.000000	10.497978
2061.000000	10.485951
2060.000000	10.472879
2059.000000	10.451545
2058.000000	10.437008
2057.000000	10.438054
2056.000000	10.445270
2055.000000	10.435544
2054.000000	10.446838
2053.000000	10.462525
2052.000000	10.478003
2051.000000	10.495887
2050.000000	10.524437
2049.000000	10.551628
2048.000000	10.587394
2047.000000	10.621697
2046.000000	10.666352
2045.000000	10.709230
2044.000000	10.746566
2043.000000	10.799797
2042.000000	10.849786
2041.000000	10.883775
2040.000000	10.925502
2039.000000	10.970263
2038.000000	11.009899
2037.000000	11.036148
2036.000000	11.089484
2035.000000	11.128284
2034.000000	11.141984
2033.000000	11.171266
2032.000000	11.197411
2031.000000	11.217595
2030.000000	11.228471
2029.000000	11.259218
2028.000000	11.270617
2027.000000	11.282539
2026.000000	11.301259
2025.000000	11.286932
2024.000000	11.276578
2023.000000	11.301991
2022.000000	11.308266
2021.000000	11.313182
2020.000000	11.304711
2019.000000	11.300527
2018.000000	11.299481
2017.000000	11.286618
2016.000000	11.266748
2015.000000	11.267166
2014.000000	11.251793
2013.000000	11.247610
2012.000000	11.221465
2011.000000	11.201176
2010.000000	11.160599
2009.000000	11.138742
2008.000000	11.116780
2007.000000	11.082477
2006.000000	11.045142
2005.000000	11.020357
2004.000000	10.974341
2003.000000	10.944118
2002.000000	10.903331
2001.000000	10.862545
2000.000000	10.807640
1999.000000	10.746356
1998.000000	10.704524
1997.000000	10.658091
1996.000000	10.625252
1995.000000	10.585198
1994.000000	10.522973
1993.000000	10.450394
1992.000000	10.388483
1991.000000	10.345500
1990.000000	10.283798
1989.000000	10.239665
1988.000000	10.165308
1987.000000	10.095553
1986.000000	10.049852
1985.000000	9.987313
1984.000000	9.938578
1983.000000	9.872379
1982.000000	9.804297
1981.000000	9.732973
1980.000000	9.669911
1979.000000	9.614379
1978.000000	9.541905
1977.000000	9.472673
1976.000000	9.426030
1975.000000	9.354916
1974.000000	9.304299
1973.000000	9.250963
1972.000000	9.186855
1971.000000	9.140631
1970.000000	9.085935
1969.000000	9.007814
1968.000000	8.965563
1967.000000	8.929065
1966.000000	8.859623
1965.000000	8.822602
1964.000000	8.755043
1963.000000	8.705995
1962.000000	8.685288
1961.000000	8.627978
1960.000000	8.548079
1959.000000	8.512626
1958.000000	8.468702
1957.000000	8.454584
1956.000000	8.393823
1955.000000	8.333166
1954.000000	8.306394
1953.000000	8.277007
1952.000000	8.234965
1951.000000	8.190833
1950.000000	8.155589
1949.000000	8.137392
1948.000000	8.100371
1947.000000	8.072448
1946.000000	8.016079
1945.000000	8.007190
1944.000000	7.983241
1943.000000	7.983241
1942.000000	7.954272
1941.000000	7.932101
1940.000000	7.929277
1939.000000	7.927290
1938.000000	7.924989
1937.000000	7.932728
1936.000000	7.927290
1935.000000	7.948311
1934.000000	7.942454
1933.000000	7.958873
1932.000000	7.989306
1931.000000	8.017125
1930.000000	8.040446
1929.000000	8.069310
1928.000000	8.141366
1927.000000	8.168661
1926.000000	8.233606
1925.000000	8.295099
1924.000000	8.340801
1923.000000	8.416308
1922.000000	8.453957
1921.000000	8.558432
1920.000000	8.639796
1919.000000	8.757762
1918.000000	8.846133
1917.000000	8.966191
1916.000000	9.046195
1915.000000	9.126512
1914.000000	9.222935
1913.000000	9.370080
1912.000000	9.494844
1911.000000	9.661127
1910.000000	9.803251
1909.000000	9.917976
1908.000000	10.038766
1907.000000	10.149935
1906.000000	10.304400
1905.000000	10.481977
1904.000000	10.700655
1903.000000	10.866310
1902.000000	11.037822
1901.000000	11.232236
1900.000000	11.428638
1899.000000	11.651603
1898.000000	11.869235
1897.000000	12.116672
1896.000000	12.338277
1895.000000	12.539281
1894.000000	12.723656
1893.000000	12.963563
1892.000000	13.208699
1891.000000	13.523695
1890.000000	13.835658
1889.000000	14.144797
1888.000000	14.483637
1887.000000	14.826870
1886.000000	15.176168
1885.000000	15.572004
1884.000000	16.009255
1883.000000	16.510926
1882.000000	17.044390
1881.000000	17.568860
1880.000000	18.111737
1879.000000	18.620938
1878.000000	19.120309
1877.000000	19.660989
1876.000000	20.163079
1875.000000	20.678241
1874.000000	21.180959
1873.000000	21.648851
1872.000000	22.130548
1871.000000	22.605342
1870.000000	23.024396
1869.000000	23.431422
1868.000000	23.816800
1867.000000	24.130646
1866.000000	24.385613
1865.000000	24.598433
1864.000000	24.805502
1863.000000	24.966242
1862.000000	25.123845
1861.000000	25.290023
1860.000000	25.464777
1859.000000	25.621229
1858.000000	25.759693
1857.000000	25.900249
1856.000000	25.992907
1855.000000	26.038922
1854.000000	26.078663
1853.000000	26.132417
1852.000000	26.150405
1851.000000	26.169125
1850.000000	26.171426
1849.000000	26.151869
1848.000000	26.163791
1847.000000	26.180419
1846.000000	26.201545
1845.000000	26.156993
1844.000000	26.104494
1843.000000	26.056387
1842.000000	26.018947
1841.000000	26.022189
1840.000000	26.032438
1839.000000	26.008908
1838.000000	26.013405
1837.000000	25.977743
1836.000000	25.939362
1835.000000	25.902863
1834.000000	25.855593
1833.000000	25.789080
1832.000000	25.706252
1831.000000	25.644864
1830.000000	25.589750
1829.000000	25.531917
1828.000000	25.457038
1827.000000	25.359150
1826.000000	25.280401
1825.000000	25.219327
1824.000000	25.139218
1823.000000	25.078666
1822.000000	25.024075
1821.000000	24.995734
1820.000000	24.980988
1819.000000	24.938215
1818.000000	24.893664
1817.000000	24.855283
1816.000000	24.833635
1815.000000	24.817634
1814.000000	24.811568
1813.000000	24.782599
1812.000000	24.763043
1811.000000	24.753735
1810.000000	24.724453
1809.000000	24.690150
1808.000000	24.652815
1807.000000	24.611611
1806.000000	24.567373
1805.000000	24.515397
1804.000000	24.436229
1803.000000	24.382580
1802.000000	24.352984
1801.000000	24.309896
1800.000000	24.256142
1799.000000	24.189315
1798.000000	24.121861
1797.000000	24.066747
1796.000000	24.004104
1795.000000	23.960494
1794.000000	23.914897
1793.000000	23.857064
1792.000000	23.811885
1791.000000	23.741712
1790.000000	23.683356
1789.000000	23.628242
1788.000000	23.561625
1787.000000	23.497621
1786.000000	23.423683
1785.000000	23.345352
1784.000000	23.274029
1783.000000	23.196430
1782.000000	23.126571
1781.000000	23.049599
1780.000000	22.983400
1779.000000	22.899004
1778.000000	22.808019
1777.000000	22.747362
1776.000000	22.665476
1775.000000	22.569262
1774.000000	22.466460
1773.000000	22.350585
1772.000000	22.250815
1771.000000	22.138391
1770.000000	22.017078
1769.000000	21.909883
1768.000000	21.808650
1767.000000	21.695912
1766.000000	21.584743
1765.000000	21.497105
1764.000000	21.440004
1763.000000	21.391270
1762.000000	21.367112
1761.000000	21.377884
1760.000000	21.418461
1759.000000	21.484137
1758.000000	21.549395
1757.000000	21.643936
1756.000000	21.730528
1755.000000	21.801643
1754.000000	21.870143
1753.000000	21.923165
1752.000000	21.955585
1751.000000	21.983717
1750.000000	21.998358
1749.000000	21.985809
1748.000000	21.945441
1747.000000	21.908001
1746.000000	21.870980
1745.000000	21.788466
1744.000000	21.692461
1743.000000	21.559540
1742.000000	21.416474
1741.000000	21.236700
1740.000000	21.042808
1739.000000	20.829778
1738.000000	20.615389
1737.000000	20.392319
1736.000000	20.203761
1735.000000	20.043021
1734.000000	19.903615
1733.000000	19.838671
1732.000000	19.795270
1731.000000	19.801963
1730.000000	19.882176
1729.000000	19.976089
1728.000000	20.099285
1727.000000	20.225095
1726.000000	20.340761
1725.000000	20.473787
1724.000000	20.581296
1723.000000	20.666528
1722.000000	20.722897
1721.000000	20.753330
1720.000000	20.757827
1719.000000	20.778429
1718.000000	20.784181
1717.000000	20.801751
1716.000000	20.828732
1715.000000	20.877258
1714.000000	20.916789
1713.000000	20.954438
1712.000000	21.006833
1711.000000	21.049292
1710.000000	21.083804
1709.000000	21.086314
1708.000000	21.081398
1707.000000	21.066966
1706.000000	21.011225
1705.000000	20.958935
1704.000000	20.883951
1703.000000	20.814196
1702.000000	20.715577
1701.000000	20.602630
1700.000000	20.466676
1699.000000	20.323610
1698.000000	20.145928
1697.000000	19.971592
1696.000000	19.824657
1695.000000	19.732731
1694.000000	19.688912
1693.000000	19.699056
1692.000000	19.783871
1691.000000	19.933630
1690.000000	20.089350
1689.000000	20.265149
1688.000000	20.426621
1687.000000	20.582237
1686.000000	20.645822
1685.000000	20.698112
1684.000000	20.720283
1683.000000	20.772991
1682.000000	20.942411
1681.000000	21.154395
1680.000000	21.513106
1679.000000	21.986227
1678.000000	22.513312
1677.000000	23.084216
1676.000000	23.648740
1675.000000	24.160660
1674.000000	24.602930
1673.000000	25.037148
1672.000000	25.373269
1671.000000	25.654799
1670.000000	25.900040
1669.000000	26.135450
1668.000000	26.303197
1667.000000	26.473349
1666.000000	26.580439
1665.000000	26.675398
1664.000000	26.766592
1663.000000	26.851616
1662.000000	26.926077
1661.000000	26.977844
1660.000000	27.005349
1659.000000	27.069875
1658.000000	27.079705
1657.000000	27.082111
1656.000000	27.096334
1655.000000	27.105641
1654.000000	27.062972
1653.000000	27.070084
1652.000000	27.051678
1651.000000	27.037037
1650.000000	27.003362
1649.000000	26.957137
1648.000000	26.914155
1647.000000	26.887173
1646.000000	26.816581
1645.000000	26.781756
1644.000000	26.723296
1643.000000	26.663580
1642.000000	26.592466
1641.000000	26.511521
1640.000000	26.455152
1639.000000	26.392404
1638.000000	26.310517
1637.000000	26.238880
1636.000000	26.179060
1635.000000	26.085565
1634.000000	26.016333
1633.000000	25.926812
1632.000000	25.845763
1631.000000	25.757601
1630.000000	25.683768
1629.000000	25.605437
1628.000000	25.501798
1627.000000	25.401924
1626.000000	25.312821
1625.000000	25.223824
1624.000000	25.110354
1623.000000	25.029095
1622.000000	24.922109
1621.000000	24.849740
1620.000000	24.783018
1619.000000	24.691824
1618.000000	24.604395
1617.000000	24.533175
1616.000000	24.439158
1615.000000	24.361873
1614.000000	24.278941
1613.000000	24.187747
1612.000000	24.109311
1611.000000	24.026275
1610.000000	23.950872
1609.000000	23.885405
1608.000000	23.803100
1607.000000	23.726129
1606.000000	23.669238
1605.000000	23.594149
1604.000000	23.495739
1603.000000	23.428912
1602.000000	23.355497
1601.000000	23.281245
1600.000000	23.206574
1599.000000	23.119041
1598.000000	23.060371
1597.000000	22.989884
1596.000000	22.910926
1595.000000	22.837197
1594.000000	22.761585
1593.000000	22.705321
1592.000000	22.641736
1591.000000	22.581080
1590.000000	22.515403
1589.000000	22.469179
1588.000000	22.388338
1587.000000	22.319734
1586.000000	22.272045
1585.000000	22.219127
1584.000000	22.162654
1583.000000	22.109527
1582.000000	22.073447
1581.000000	22.024922
1580.000000	21.971795
1579.000000	21.909047
1578.000000	21.891164
1577.000000	21.853619
1576.000000	21.813670
1575.000000	21.786688
1574.000000	21.760857
1573.000000	21.724881
1572.000000	21.705011
1571.000000	21.685140
1570.000000	21.680643
1569.000000	21.659518
1568.000000	21.635569
1567.000000	21.619987
1566.000000	21.628249
1565.000000	21.621137
1564.000000	21.603777
1563.000000	21.606810
1562.000000	21.605555
1561.000000	21.593319
1560.000000	21.584325
1559.000000	21.578050
1558.000000	21.567697
1557.000000	21.556925
1556.000000	21.552742
1555.000000	21.545421
1554.000000	21.518230
1553.000000	21.489471
1552.000000	21.463744
1551.000000	21.441155
1550.000000	21.417938
1549.000000	21.402669
1548.000000	21.384577
1547.000000	21.351948
1546.000000	21.335529
1545.000000	21.313253
1544.000000	21.295265
1543.000000	21.275081
1542.000000	21.248309
1541.000000	21.231576
1540.000000	21.215575
1539.000000	21.191835
1538.000000	21.161925
1537.000000	21.129192
1536.000000	21.109949
1535.000000	21.078261
1534.000000	21.074601
1533.000000	21.056404
1532.000000	21.024402
1531.000000	20.998257
1530.000000	20.961027
1529.000000	20.926829
1528.000000	20.893154
1527.000000	20.849649
1526.000000	20.812418
1525.000000	20.767971
1524.000000	20.729277
1523.000000	20.681065
1522.000000	20.621141
1521.000000	20.595100
1520.000000	20.560066
1519.000000	20.489683
1518.000000	20.446596
1517.000000	20.416268
1516.000000	20.359062
1515.000000	20.303217
1514.000000	20.258456
1513.000000	20.201878
1512.000000	20.134424
1511.000000	20.077951
1510.000000	20.036641
1509.000000	19.980168
1508.000000	19.919198
1507.000000	19.857495
1506.000000	19.794956
1505.000000	19.741830
1504.000000	19.676885
1503.000000	19.621562
1502.000000	19.578266
1501.000000	19.514995
1500.000000	19.445867
1499.000000	19.384583
1498.000000	19.331143
1497.000000	19.288892
1496.000000	19.239635
1495.000000	19.188495
1494.000000	19.131917
1493.000000	19.080359
1492.000000	19.032880
1491.000000	18.998682
1490.000000	18.961451
1489.000000	18.918574
1488.000000	18.885422
1487.000000	18.831772
1486.000000	18.786280
1485.000000	18.745702
1484.000000	18.720603
1483.000000	18.683895
1482.000000	18.622716
1481.000000	18.590610
1480.000000	18.564360
1479.000000	18.543130
1478.000000	18.519914
1477.000000	18.484461
1476.000000	18.463859
1475.000000	18.446498
1474.000000	18.423804
1473.000000	18.408536
1472.000000	18.398391
1471.000000	18.405503
1470.000000	18.377057
1469.000000	18.355932
1468.000000	18.349343
1467.000000	18.340663
1466.000000	18.328636
1465.000000	18.314204
1464.000000	18.310125
1463.000000	18.311380
1462.000000	18.323930
1461.000000	18.348506
1460.000000	18.395045
1459.000000	18.422340
1458.000000	18.439596
1457.000000	18.464277
1456.000000	18.500043
1455.000000	18.558085
1454.000000	18.598662
1453.000000	18.669986
1452.000000	18.730747
1451.000000	18.785652
1450.000000	18.861159
1449.000000	18.934784
1448.000000	18.984145
1447.000000	19.072725
1446.000000	19.144153
1445.000000	19.237857
1444.000000	19.337208
1443.000000	19.420141
1442.000000	19.500772
1441.000000	19.599496
1440.000000	19.714534
1439.000000	19.805624
1438.000000	19.900582
1437.000000	20.025347
1436.000000	20.116959
1435.000000	20.241305
1434.000000	20.348186
1433.000000	20.454963
1432.000000	20.597924
1431.000000	20.714740
1430.000000	20.861989
1429.000000	20.994388
1428.000000	21.129610
1427.000000	21.315763
1426.000000	21.477653
1425.000000	21.647387
1424.000000	21.826324
1423.000000	22.053995
1422.000000	22.230213
1421.000000	22.447740
1420.000000	22.678235
1419.000000	22.920234
1418.000000	23.169135
1417.000000	23.396492
1416.000000	23.636295
1415.000000	23.879653
1414.000000	24.174779
1413.000000	24.439053
1412.000000	24.738989
1411.000000	24.999499
1410.000000	25.300167
1409.000000	25.659087
1408.000000	26.071238
1407.000000	26.472826
1406.000000	26.866152
1405.000000	27.268368
1404.000000	27.723397
1403.000000	28.157823
1402.000000	28.620487
1401.000000	29.018833
1400.000000	29.539015
1399.000000	30.011509
1398.000000	30.415816
1397.000000	30.697347
1396.000000	31.064319
1395.000000	31.515269
1394.000000	31.960781
1393.000000	32.252769
1392.000000	32.579478
1391.000000	32.950006
1390.000000	33.352326
1389.000000	33.746489
1388.000000	34.154039
1387.000000	34.678300
1386.000000	35.195449
1385.000000	35.775138
1384.000000	36.355454
1383.000000	37.013159
1382.000000	37.727547
1381.000000	38.360885
1380.000000	38.939423
1379.000000	39.264773
1378.000000	39.658622
1377.000000	39.923524
1376.000000	40.160921
1375.000000	40.397273
1374.000000	40.637598
1373.000000	40.944123
1372.000000	41.319462
1371.000000	41.743639
1370.000000	42.197413
1369.000000	42.593981
1368.000000	42.968483
1367.000000	43.340685
1366.000000	43.663838
1365.000000	43.982808
1364.000000	44.217172
1363.000000	44.441288
1362.000000	44.687051
1361.000000	44.890146
1360.000000	45.107255
1359.000000	45.245824
1358.000000	45.321017
1357.000000	45.433964
1356.000000	45.586546
1355.000000	45.840886
1354.000000	46.172928
1353.000000	46.693947
1352.000000	47.208796
1351.000000	47.730024
1350.000000	48.298941
1349.000000	48.849556
1348.000000	49.350600
1347.000000	49.816191
1346.000000	50.271011
1345.000000	50.666847
1344.000000	51.064880
1343.000000	51.503803
1342.000000	51.883012
1341.000000	52.254167
1340.000000	52.624381
1339.000000	53.007459
1338.000000	53.356129
1337.000000	53.727285
1336.000000	54.082439
1335.000000	54.423162
1334.000000	54.760956
1333.000000	55.094881
1332.000000	55.424937
1331.000000	55.744220
1330.000000	56.049176
1329.000000	56.353610
1328.000000	56.652918
1327.000000	56.948567
1326.000000	57.216188
1325.000000	57.479103
1324.000000	57.709911
1323.000000	57.946681
1322.000000	58.176653
1321.000000	58.404847
1320.000000	58.626348
1319.000000	58.836868
1318.000000	59.042473
1317.000000	59.234587
1316.000000	59.420949
1315.000000	59.594134
1314.000000	59.761463
1313.000000	59.914464
1312.000000	60.083152
1311.000000	60.239290
1310.000000	60.367087
1309.000000	60.498126
1308.000000	60.616616
1307.000000	60.748596
1306.000000	60.847424
1305.000000	60.945625
1304.000000	61.029394
1303.000000	61.110758
1302.000000	61.187206
1301.000000	61.250686
1300.000000	61.302349
1299.000000	61.332782
1298.000000	61.394484
1297.000000	61.422825
1296.000000	61.453153
1295.000000	61.491221
1294.000000	61.504711
1293.000000	61.522490
1292.000000	61.544975
1291.000000	61.547485
1290.000000	61.540269
1289.000000	61.516843
1288.000000	61.490698
1287.000000	61.484214
1286.000000	61.447611
1285.000000	61.406406
1284.000000	61.358717
1283.000000	61.309251
1282.000000	61.274844
1281.000000	61.203207
1280.000000	61.128118
1279.000000	61.077501
1278.000000	61.025838
1277.000000	60.959221
1276.000000	60.891662
1275.000000	60.827659
1274.000000	60.772859
1273.000000	60.718477
1272.000000	60.677063
1271.000000	60.632930
1270.000000	60.579176
1269.000000	60.547070
1268.000000	60.498754
1267.000000	60.447509
1266.000000	60.399507
1265.000000	60.340838
1264.000000	60.281540
1263.000000	60.232283
1262.000000	60.164620
1261.000000	60.100721
1260.000000	60.049163
1259.000000	60.004403
1258.000000	59.943537
1257.000000	59.876606
1256.000000	59.803190
1255.000000	59.735527
1254.000000	59.675916
1253.000000	59.596958
1252.000000	59.506182
1251.000000	59.428479
1250.000000	59.334775
1249.000000	59.243686
1248.000000	59.158034
1247.000000	59.046447
1246.000000	58.919487
1245.000000	58.803403
1244.000000	58.681985
1243.000000	58.557534
1242.000000	58.422312
1241.000000	58.259062
1240.000000	58.094139
1239.000000	57.915412
1238.000000	57.746096
1237.000000	57.591526
1236.000000	57.421061
1235.000000	57.233653
1234.000000	57.041225
1233.000000	56.840222
1232.000000	56.641101
1231.000000	56.442712
1230.000000	56.228636
1229.000000	56.001488
1228.000000	55.769947
1227.000000	55.554093
1226.000000	55.337821
1225.000000	55.108058
1224.000000	54.874740
1223.000000	54.641317
1222.000000	54.417724
1221.000000	54.189007
1220.000000	53.948263
1219.000000	53.722788
1218.000000	53.511536
1217.000000	53.295473
1216.000000	53.089973
1215.000000	52.889074
1214.000000	52.706268
1213.000000	52.528899
1212.000000	52.342956
1211.000000	52.161927
1210.000000	52.008090
1209.000000	51.857076
1208.000000	51.710349
1207.000000	51.567597
1206.000000	51.452245
1205.000000	51.352685
1204.000000	51.262328
1203.000000	51.200521
1202.000000	51.156701
1201.000000	51.125850
1200.000000	51.071782
1199.000000	51.011962
1198.000000	50.943881
1197.000000	50.838254
1196.000000	50.710457
1195.000000	50.527860
1194.000000	50.279482
1193.000000	49.963963
1192.000000	49.571369
1191.000000	49.116549
1190.000000	48.607557
1189.000000	48.093231
1188.000000	47.623666
1187.000000	47.220300
1186.000000	46.945044
1185.000000	46.810659
1184.000000	46.832830
1183.000000	47.005701
1182.000000	47.330004
1181.000000	47.808145
1180.000000	48.379363
1179.000000	48.964908
1178.000000	49.595318
1177.000000	50.143946
1176.000000	50.631395
1175.000000	51.075338
1174.000000	51.487698
1173.000000	51.882802
1172.000000	52.249043
1171.000000	52.629192
1170.000000	53.027224
1169.000000	53.438120
1168.000000	53.830296
1167.000000	54.223832
1166.000000	54.631381
1165.000000	55.064344
1164.000000	55.484338
1163.000000	55.915941
1162.000000	56.359989
1161.000000	56.831228
1160.000000	57.262412
1159.000000	57.680315
1158.000000	58.114742
1157.000000	58.524905
1156.000000	58.923252
1155.000000	59.287923
1154.000000	59.604069
1153.000000	59.861232
1152.000000	60.062236
1151.000000	60.218688
1150.000000	60.337491
1149.000000	60.435274
1148.000000	60.515382
1147.000000	60.606994
1146.000000	60.735628
1145.000000	60.923663
1144.000000	61.166603
1143.000000	61.530125
1142.000000	61.927007
1141.000000	62.370009
1140.000000	62.841248
1139.000000	63.317088
1138.000000	63.804537
1137.000000	64.316771
1136.000000	64.846679
1135.000000	65.411831
1134.000000	65.988277
1133.000000	66.561273
1132.000000	67.025505
1131.000000	67.490573
1130.000000	67.932216
1129.000000	68.320836
1128.000000	68.675886
1127.000000	68.965469
1126.000000	69.193245
1125.000000	69.363920
1124.000000	69.524555
1123.000000	69.656954
1122.000000	69.797614
1121.000000	69.889750
1120.000000	69.962747
1119.000000	70.038044
1118.000000	70.105080
1117.000000	70.152874
1116.000000	70.179332
1115.000000	70.201085
1114.000000	70.210497
1113.000000	70.211961
1112.000000	70.227335
1111.000000	70.215413
1110.000000	70.213739
1109.000000	70.216877
1108.000000	70.218132
1107.000000	70.216458
1106.000000	70.225766
1105.000000	70.226707
1104.000000	70.219805
1103.000000	70.191464
1102.000000	70.194183
1101.000000	70.208719
1100.000000	70.196170
1099.000000	70.166992
1098.000000	70.154756
1097.000000	70.141370
1096.000000	70.136141
1095.000000	70.119931
1094.000000	70.074125
1093.000000	70.054045
1092.000000	70.016710
1091.000000	69.980734
1090.000000	69.928863
1089.000000	69.891318
1088.000000	69.851473
1087.000000	69.799811
1086.000000	69.778267
1085.000000	69.709558
1084.000000	69.655804
1083.000000	69.624429
1082.000000	69.573708
1081.000000	69.509077
1080.000000	69.453336
1079.000000	69.440159
1078.000000	69.375528
1077.000000	69.331918
1076.000000	69.290400
1075.000000	69.225351
1074.000000	69.198265
1073.000000	69.150785
1072.000000	69.095358
1071.000000	69.058859
1070.000000	68.998726
1069.000000	68.956057
1068.000000	68.889857
1067.000000	68.853464
1066.000000	68.802533
1065.000000	68.768649
1064.000000	68.701927
1063.000000	68.627570
1062.000000	68.588771
1061.000000	68.518702
1060.000000	68.463170
1059.000000	68.401886
1058.000000	68.315607
1057.000000	68.266768
1056.000000	68.203811
1055.000000	68.109689
1054.000000	68.030835
1053.000000	67.967878
1052.000000	67.897391
1051.000000	67.844578
1050.000000	67.763423
1049.000000	67.685511
1048.000000	67.632907
1047.000000	67.565453
1046.000000	67.493188
1045.000000	67.441630
1044.000000	67.397392
1043.000000	67.315401
1042.000000	67.256732
1041.000000	67.205592
1040.000000	67.151524
1039.000000	67.070370
1038.000000	67.011073
1037.000000	66.973424
1036.000000	66.917578
1035.000000	66.846777
1034.000000	66.757465
1033.000000	66.704234
1032.000000	66.637930
1031.000000	66.544958
1030.000000	66.486916
1029.000000	66.410677
1028.000000	66.328895
1027.000000	66.245545
1026.000000	66.179555
1025.000000	66.087106
1024.000000	66.015782
1023.000000	65.918104
1022.000000	65.831721
1021.000000	65.739899
1020.000000	65.649751
1019.000000	65.567969
1018.000000	65.494659
1017.000000	65.427100
1016.000000	65.341135
1015.000000	65.275981
1014.000000	65.228815
1013.000000	65.163557
1012.000000	65.144001
1011.000000	65.111999
1010.000000	65.071213
1009.000000	65.058454
1008.000000	65.041303
1007.000000	65.035551
1006.000000	65.028335
1005.000000	65.036701
1004.000000	65.033355
1003.000000	65.016727
1002.000000	65.007001
1001.000000	65.005641
1000.000000	65.007837
999.000000	65.001249
998.000000	64.990477
997.000000	64.993614
996.000000	64.999366
995.000000	65.015576
994.000000	65.023734
993.000000	65.028230
992.000000	65.039107
991.000000	65.065984
990.000000	65.103319
989.000000	65.127895
988.000000	65.139504
987.000000	65.171296
986.000000	65.212396
985.000000	65.254647
984.000000	65.298571
983.000000	65.343435
982.000000	65.384954
981.000000	65.433061
980.000000	65.471337
979.000000	65.534713
978.000000	65.593069
977.000000	65.644313
976.000000	65.689492
975.000000	65.751508
974.000000	65.812060
973.000000	65.870625
972.000000	65.914130
971.000000	65.976460
970.000000	66.042868
969.000000	66.097878
968.000000	66.165332
967.000000	66.225361
966.000000	66.294384
965.000000	66.355563
964.000000	66.417475
963.000000	66.499884
962.000000	66.604046
961.000000	66.684468
960.000000	66.772211
959.000000	66.873445
958.000000	66.951044
957.000000	67.047362
956.000000	67.148805
955.000000	67.229018
954.000000	67.315610
953.000000	67.407014
952.000000	67.505633
951.000000	67.595781
950.000000	67.668883
949.000000	67.756835
948.000000	67.849179
947.000000	67.938177
946.000000	68.029057
945.000000	68.115650
944.000000	68.222844
943.000000	68.319372
942.000000	68.404919
941.000000	68.492871
940.000000	68.602053
939.000000	68.695338
938.000000	68.776492
937.000000	68.884001
936.000000	68.989418
935.000000	69.085841
934.000000	69.184669
933.000000	69.275236
932.000000	69.390065
931.000000	69.518594
930.000000	69.623593
929.000000	69.711545
928.000000	69.812674
927.000000	69.936392
926.000000	70.040973
925.000000	70.128088
924.000000	70.235701
923.000000	70.342268
922.000000	70.462013
921.000000	70.578515
920.000000	70.669082
919.000000	70.773871
918.000000	70.875523
917.000000	70.958246
916.000000	71.049231
915.000000	71.145968
914.000000	71.246365
913.000000	71.333585
912.000000	71.413484
911.000000	71.489723
910.000000	71.585519
909.000000	71.689158
908.000000	71.803883
907.000000	71.912228
906.000000	72.031763
905.000000	72.164998
904.000000	72.302417
903.000000	72.442241
902.000000	72.598484
901.000000	72.739876
900.000000	72.883256
899.000000	73.050270
898.000000	73.226384
897.000000	73.380535
896.000000	73.524542
895.000000	73.665098
894.000000	73.819563
893.000000	73.963570
892.000000	74.126297
891.000000	74.261624
890.000000	74.358884
889.000000	74.482707
888.000000	74.588437
887.000000	74.716234
886.000000	74.833992
885.000000	74.942023
884.000000	75.041793
883.000000	75.144700
882.000000	75.202428
881.000000	75.295295
880.000000	75.360344
879.000000	75.420896
878.000000	75.502678
877.000000	75.555596
876.000000	75.606108
875.000000	75.614579
874.000000	75.596487
873.000000	75.558838
872.000000	75.497135
871.000000	75.465761
870.000000	75.542732
869.000000	75.693537
868.000000	75.857519
867.000000	76.053189
866.000000	76.217380
865.000000	76.386172
864.000000	76.526519
863.000000	76.722712
862.000000	76.865150
861.000000	77.041891
860.000000	77.201689
859.000000	77.355527
858.000000	77.538333
857.000000	77.032500
856.000000	77.928200
855.000000	77.654300
854.000000	78.244700
853.000000	78.580100
852.000000	78.453000
851.000000	78.477800
850.000000	78.788900
849.000000	78.833600
848.000000	78.910600
847.000000	79.025500
846.000000	78.896700
845.000000	79.471400
844.000000	79.313800
843.000000	79.504000
842.000000	79.869200
841.000000	79.956500
840.000000	80.023200
839.000000	80.174200
838.000000	80.589000
837.000000	80.744100
836.000000	80.598200
835.000000	80.956200
834.000000	80.998900
833.000000	81.051700
832.000000	81.531900
831.000000	81.633200
830.000000	81.727400
829.000000	81.963900
828.000000	82.298500
827.000000	82.384600
826.000000	82.583300
825.000000	82.827700
824.000000	83.114100
823.000000	83.437100
822.000000	83.456300
821.000000	83.701500
820.000000	83.742500
819.000000	84.080800
818.000000	84.226600
817.000000	84.586000
816.000000	84.641900
815.000000	84.875100
814.000000	85.258600
813.000000	85.396000
812.000000	85.679300
811.000000	85.939600
810.000000	86.278000
809.000000	86.316800
808.000000	86.643800
807.000000	86.763600
806.000000	87.011600
805.000000	87.230300
804.000000	87.277400
803.000000	87.618700
802.000000	87.856400
801.000000	88.005100
800.000000	88.084400
799.000000	88.318700
798.000000	88.195800
797.000000	88.511600
796.000000	88.855200
795.000000	88.798700
794.000000	89.050700
793.000000	89.196900
792.000000	89.421900
791.000000	89.211400
790.000000	89.653600
789.000000	89.789100
788.000000	89.698600
787.000000	89.865500
786.000000	89.796000
785.000000	89.921700
784.000000	89.969600
783.000000	90.114800
782.000000	90.192600
781.000000	90.171600
780.000000	90.062400
779.000000	90.387500
778.000000	90.379200
777.000000	90.485000
776.000000	90.441100
775.000000	90.488200
774.000000	90.719100
773.000000	90.673300
772.000000	90.729200
771.000000	90.771600
770.000000	90.790400
769.000000	90.710600
768.000000	90.793000
767.000000	90.987300
766.000000	91.021100
765.000000	91.078100
764.000000	91.075700
763.000000	91.136000
762.000000	91.115100
761.000000	91.289900
760.000000	91.110700
759.000000	91.230700
758.000000	91.068100
757.000000	91.207400
756.000000	91.145900
755.000000	91.096300
754.000000	91.188100
753.000000	91.169500
752.000000	91.068400
751.000000	90.929000
750.000000	90.893300
749.000000	90.883100
748.000000	90.944000
747.000000	90.773000
746.000000	90.768000
745.000000	90.780500
744.000000	90.667900
743.000000	90.598600
742.000000	90.575200
741.000000	90.507000
740.000000	90.358800
739.000000	90.277500
738.000000	90.178600
737.000000	90.014300
736.000000	90.045600
735.000000	89.943400
734.000000	89.870300
733.000000	89.795000
732.000000	89.775800
731.000000	89.593800
730.000000	89.479200
729.000000	89.395500
728.000000	89.261000
727.000000	89.086200
726.000000	88.868300
725.000000	88.649000
724.000000	88.390800
723.000000	88.297200
722.000000	87.948800
721.000000	87.709500
720.000000	87.440500
719.000000	87.117800
718.000000	86.787400
717.000000	86.431100
716.000000	86.209700
715.000000	85.783600
714.000000	85.402100
713.000000	85.075800
712.000000	84.630800
711.000000	84.364500
710.000000	83.924200
709.000000	83.497500
708.000000	83.072100
707.000000	82.673600
706.000000	82.240300
705.000000	81.872800
704.000000	81.489900
703.000000	81.087200
702.000000	80.674900
701.000000	80.277700
700.000000	79.984900
699.000000	79.636900
698.000000	79.206000
697.000000	78.969300
696.000000	78.775300
695.000000	78.504000
694.000000	78.153900
693.000000	77.900500
692.000000	77.712600
691.000000	77.506400
690.000000	77.382600
689.000000	77.261100
688.000000	77.006800
687.000000	76.795000
686.000000	76.738600
685.000000	76.672500
684.000000	76.554300
683.000000	76.443300
682.000000	76.389200
681.000000	76.336700
680.000000	76.357400
679.000000	76.326100
678.000000	76.273400
677.000000	76.259700
676.000000	76.188800
675.000000	76.124500
674.000000	76.103700
673.000000	76.064800
672.000000	75.983800
671.000000	75.943100
670.000000	75.924400
669.000000	75.862100
668.000000	75.772300
667.000000	75.668400
666.000000	75.513400
665.000000	75.347700
664.000000	75.226400
663.000000	75.072000
662.000000	74.860800
661.000000	74.601000
660.000000	74.329500
659.000000	73.989700
658.000000	73.603400
657.000000	73.205200
656.000000	72.804400
655.000000	72.375900
654.000000	71.911600
653.000000	71.386000
652.000000	70.854700
651.000000	70.326800
650.000000	69.762000
649.000000	69.179600
648.000000	68.576700
647.000000	68.005400
646.000000	67.359800
645.000000	66.673400
644.000000	66.032100
643.000000	65.366200
642.000000	64.726500
641.000000	64.069800
640.000000	63.412600
639.000000	62.820000
638.000000	62.243600
637.000000	61.719700
636.000000	61.263200
635.000000	60.894600
634.000000	60.543800
633.000000	60.228900
632.000000	60.003200
631.000000	59.842800
630.000000	59.764900
629.000000	59.767000
628.000000	59.832300
627.000000	59.954200
626.000000	60.185600
625.000000	60.518900
624.000000	60.880900
623.000000	61.329500
622.000000	61.864200
621.000000	62.475700
620.000000	63.193700
619.000000	63.941000
618.000000	64.783400
617.000000	65.699900
616.000000	66.672600
615.000000	67.659900
614.000000	68.690600
613.000000	69.800600
612.000000	70.898800
611.000000	71.992900
610.000000	73.119600
609.000000	74.204600
608.000000	75.281300
607.000000	76.348000
606.000000	77.390100
605.000000	78.396000
604.000000	79.372000
603.000000	80.271800
602.000000	81.163500
601.000000	82.038300
600.000000	82.848900
599.000000	83.606600
598.000000	84.275100
597.000000	84.932100
596.000000	85.517300
595.000000	86.089300
594.000000	86.640700
593.000000	87.112700
592.000000	87.545600
591.000000	87.929400
590.000000	88.332900
589.000000	88.685100
588.000000	88.987000
587.000000	89.282200
586.000000	89.526500
585.000000	89.744000
584.000000	89.983000
583.000000	90.183500
582.000000	90.386800
581.000000	90.525900
580.000000	90.689700
579.000000	90.838400
578.000000	90.934000
577.000000	91.049800
576.000000	91.092600
575.000000	91.126800
574.000000	91.152700
573.000000	91.148400
572.000000	91.114200
571.000000	91.076400
570.000000	91.003100
569.000000	90.907900
568.000000	90.842400
567.000000	90.724800
566.000000	90.597500
565.000000	90.476400
564.000000	90.309900
563.000000	90.171000
562.000000	89.941500
561.000000	89.759500
560.000000	89.617800
559.000000	89.385700
558.000000	89.183000
557.000000	88.993600
556.000000	88.719700
555.000000	88.463000
554.000000	88.196400
553.000000	87.896500
552.000000	87.602500
551.000000	87.234600
550.000000	86.885000
549.000000	86.519600
548.000000	86.114500
547.000000	85.686600
546.000000	85.255400
545.000000	84.840700
544.000000	84.353600
543.000000	83.849100
542.000000	83.349000
541.000000	82.749800
540.000000	82.246400
539.000000	81.640200
538.000000	80.974400
537.000000	80.340100
536.000000	79.630700
535.000000	78.949100
534.000000	78.169600
533.000000	77.391800
532.000000	76.549500
531.000000	75.669400
530.000000	74.723900
529.000000	73.781800
528.000000	72.753600
527.000000	71.737400
526.000000	70.612700
525.000000	69.522200
524.000000	68.344300
523.000000	67.090600
522.000000	65.805800
521.000000	64.517600
520.000000	63.140100
519.000000	61.741800
518.000000	60.326100
517.000000	58.888200
516.000000	57.415300
515.000000	55.938800
514.000000	54.395300
513.000000	52.860000
512.000000	51.375700
511.000000	49.856700
510.000000	48.340500
509.000000	46.909800
508.000000	45.515800
507.000000	44.133900
506.000000	42.808800
505.000000	41.589700
504.000000	40.363400
503.000000	39.264900
502.000000	38.244600
501.000000	37.247100
500.000000	36.359700
499.000000	35.566100
498.000000	34.808600
497.000000	34.157600
496.000000	33.535500
495.000000	33.013400
494.000000	32.558400
493.000000	32.149300
492.000000	31.798700
491.000000	31.498700
490.000000	31.193100
489.000000	30.987700
488.000000	30.771000
487.000000	30.664500
486.000000	30.474000
485.000000	30.354300
484.000000	30.211500
483.000000	30.104900
482.000000	29.985200
481.000000	29.812900
480.000000	29.624300
479.000000	29.447200
478.000000	29.246400
477.000000	29.038500
476.000000	28.789500
475.000000	28.534200
474.000000	28.262900
473.000000	27.962500
472.000000	27.650900
471.000000	27.341600
470.000000	27.028200
469.000000	26.661500
468.000000	26.305900
467.000000	25.992400
466.000000	25.616000
465.000000	25.298100
464.000000	24.928100
463.000000	24.592800
462.000000	24.288200
461.000000	23.990300
460.000000	23.754800
459.000000	23.457000
458.000000	23.249200
457.000000	23.064500
456.000000	22.913300
455.000000	22.783200
454.000000	22.691900
453.000000	22.602900
452.000000	22.581400
451.000000	22.558600
450.000000	22.571100
449.000000	22.603100
448.000000	22.661100
447.000000	22.712800
446.000000	22.800400
445.000000	22.876400
444.000000	22.981900
443.000000	23.064800
442.000000	23.153000
441.000000	23.234300
440.000000	23.322300
439.000000	23.349100
438.000000	23.405100
437.000000	23.418800
436.000000	23.431200
435.000000	23.413700
434.000000	23.452300
433.000000	23.416200
432.000000	23.337900
431.000000	23.260000
430.000000	23.214800
429.000000	23.169300
428.000000	23.031100
427.000000	22.916900
426.000000	22.773500
425.000000	22.640100
424.000000	22.440200
423.000000	22.265400
422.000000	22.087800
421.000000	21.910700
420.000000	21.676800
419.000000	21.468000
418.000000	21.239500
417.000000	20.978800
416.000000	20.724500
415.000000	20.432200
414.000000	20.164100
413.000000	19.886200
412.000000	19.560900
411.000000	19.217200
410.000000	18.862800
409.000000	18.525200
408.000000	18.182400
407.000000	17.793600
406.000000	17.430600
405.000000	17.025200
404.000000	16.594400
403.000000	16.199000
402.000000	15.792300
401.000000	15.385600
400.000000	14.935700
399.000000	14.484800
398.000000	14.066500
397.000000	13.653900
396.000000	13.221100
395.000000	12.793500
394.000000	12.381500
393.000000	12.001200
392.000000	11.621900
391.000000	11.222000
390.000000	10.856400
389.000000	10.472500
388.000000	10.159000
387.000000	9.862500
386.000000	9.552400
385.000000	9.263300
384.000000	8.991100
383.000000	8.729900
382.000000	8.504200
381.000000	8.291300
380.000000	8.110200
379.000000	7.924900
378.000000	7.731800
377.000000	7.549800
376.000000	7.368200
375.000000	7.224900
374.000000	7.207600
373.000000	7.107900
372.000000	7.046900
371.000000	6.935700
370.000000	6.870500
369.000000	6.774400
368.000000	6.696700
367.000000	6.658400
366.000000	6.607500
365.000000	6.522000
364.000000	6.408300
363.000000	6.358700
362.000000	6.309800
361.000000	6.322200
360.000000	6.317500
359.000000	6.155200
358.000000	6.088000
357.000000	6.099100
356.000000	6.060300
355.000000	6.001700
354.000000	6.004800
353.000000	5.924200
352.000000	5.815800
351.000000	5.883100
350.000000	5.804500
349.000000	5.699600
348.000000	5.679500
347.000000	5.690800
346.000000	5.744700
345.000000	5.765100
344.000000	5.667600
343.000000	5.617400
342.000000	5.609700
341.000000	5.506000
340.000000	5.501100
339.000000	5.523300
338.000000	5.534700
337.000000	5.530800
336.000000	5.519200
335.000000	5.566300
334.000000	5.504300
333.000000	5.437400
332.000000	5.476700
331.000000	5.509100
330.000000	5.497900
329.000000	5.530200
328.000000	5.463600
327.000000	5.363400
326.000000	5.342900
325.000000	5.378000
324.000000	5.367600
323.000000	5.340800
322.000000	5.268100
321.000000	5.239400
320.000000	5.424000
319.000000	5.564400
318.000000	5.493400
317.000000	5.495900
316.000000	5.447400
315.000000	5.368700
314.000000	5.347100
313.000000	5.351700
312.000000	5.374000
311.000000	5.365300
310.000000	5.336200
309.000000	5.370800
308.000000	5.365600
307.000000	5.366600
306.000000	5.390500
305.000000	5.380000
304.000000	5.386800
303.000000	5.400700
302.000000	5.397000
301.000000	5.424500
300.000000	5.420400
299.000000	5.407200
298.000000	5.421000
297.000000	5.444700
296.000000	5.432700
295.000000	5.449800
294.000000	5.471900
293.000000	5.451100
292.000000	5.449800
291.000000	5.475800
290.000000	5.506100
289.000000	5.510400
288.000000	5.513000
287.000000	5.536200
286.000000	5.553300
285.000000	5.566600
284.000000	5.575500
283.000000	5.565600
282.000000	5.571000
281.000000	5.585200
280.000000	5.604200
279.000000	5.626300
278.000000	5.644700
277.000000	5.678100
276.000000	5.674500
275.000000	5.689500
274.000000	5.723700
273.000000	5.715600
272.000000	5.710000
271.000000	5.746600
270.000000	5.732000
269.000000	5.750200
268.000000	5.792400
267.000000	5.831100
266.000000	5.804400
265.000000	5.812900
264.000000	5.851700
263.000000	5.888000
262.000000	5.945500
261.000000	5.947500
260.000000	5.929500
259.000000	5.985300
258.000000	6.020200
257.000000	6.013300
256.000000	6.037100
255.000000	6.046600
254.000000	6.086700
253.000000	6.060000
252.000000	6.099600
251.000000	6.088800
250.000000	6.132600
