PE UV       SUBTECH     SPECTRUM    ASCII       PEDS        4.00        
   -1
CICIMAUCR0214-1.ASC
24/06/12
15:11:13.00
24/06/12
15:11:13.00
Vinicio Soto Monge
C. cupreomarginata. Sex M. Dorsal.
250,000000
1
Lambda 1050
1050L1511233
PerkinElmer UV WinLab 6.3.2.0749 / 2.02.05 Lambda 900 UV/VIS/NIR, Aug  7 2015 09:38:08

0
0
3350/servo 860,8/2
0
0
UV/VIS
1
1
1
DoubleDePol,CommonBeamDepol,RBeamAtt,SBeamAtt,60mm sphere, WB InGaAs Detector
0
0
0
0
Program
Program
3350/servo 860,8/2
3350/0,2 860,8/0,2
3350/0,2 860,8/0,2
0
15.00
 
 
 
0
 
860,8
319,2
860,8
Front
100
on
S:100 R:100
0
0
0
0
 
0
 
 
 
0
 
 
0
0
0
0
0
 
 
 
 
0
0


0
0
#HDR
-1
-1
#GR
nm
%R
1.0
0.0
2500,000000
-1,000000
2251
8
72,818800
4,857700
#DATA
2482.000000	13.799063
2481.000000	13.881185
2480.000000	13.818534
2479.000000	13.769704
2478.000000	13.854147
2477.000000	13.813389
2476.000000	13.763954
2475.000000	13.778784
2474.000000	13.747307
2473.000000	13.924465
2472.000000	13.897327
2471.000000	13.859090
2470.000000	13.892383
2469.000000	13.875939
2468.000000	13.912460
2467.000000	13.961088
2466.000000	13.970167
2465.000000	14.071156
2464.000000	14.036652
2463.000000	14.047044
2462.000000	14.133403
2461.000000	14.200291
2460.000000	14.287357
2459.000000	14.324282
2458.000000	14.403277
2457.000000	14.414980
2456.000000	14.512437
2455.000000	14.559652
2454.000000	14.686366
2453.000000	14.721475
2452.000000	14.849703
2451.000000	15.010517
2450.000000	15.123007
2449.000000	15.184144
2448.000000	15.340923
2447.000000	15.433740
2446.000000	15.527464
2445.000000	15.625224
2444.000000	15.759706
2443.000000	15.890961
2442.000000	15.964911
2441.000000	16.049152
2440.000000	16.140556
2439.000000	16.239930
2438.000000	16.339506
2437.000000	16.490332
2436.000000	16.575784
2435.000000	16.653971
2434.000000	16.770900
2433.000000	16.872897
2432.000000	16.975903
2431.000000	17.059034
2430.000000	17.161233
2429.000000	17.235183
2428.000000	17.325578
2427.000000	17.409113
2426.000000	17.453302
2425.000000	17.522813
2424.000000	17.632376
2423.000000	17.706226
2422.000000	17.762420
2421.000000	17.807920
2420.000000	17.865830
2419.000000	17.950575
2418.000000	18.004045
2417.000000	18.041575
2416.000000	18.086067
2415.000000	18.155982
2414.000000	18.194722
2413.000000	18.248394
2412.000000	18.287640
2411.000000	18.352712
2410.000000	18.372587
2409.000000	18.401138
2408.000000	18.438062
2407.000000	18.491129
2406.000000	18.523413
2405.000000	18.550552
2404.000000	18.551762
2403.000000	18.625915
2402.000000	18.674441
2401.000000	18.690382
2400.000000	18.701479
2399.000000	18.715805
2398.000000	18.763525
2397.000000	18.789655
2396.000000	18.815179
2395.000000	18.847463
2394.000000	18.860074
2393.000000	18.890138
2392.000000	18.923028
2391.000000	18.954505
2390.000000	18.998895
2389.000000	19.032995
2388.000000	19.022805
2387.000000	19.017357
2386.000000	19.015441
2385.000000	19.037737
2384.000000	19.042781
2383.000000	19.021897
2382.000000	19.018669
2381.000000	19.015037
2380.000000	19.017660
2379.000000	19.000913
2378.000000	18.983964
2377.000000	18.968528
2376.000000	18.950469
2375.000000	18.936345
2374.000000	18.913544
2373.000000	18.892762
2372.000000	18.869356
2371.000000	18.859267
2370.000000	18.852608
2369.000000	18.823048
2368.000000	18.790361
2367.000000	18.764836
2366.000000	18.746374
2365.000000	18.710660
2364.000000	18.676560
2363.000000	18.638425
2362.000000	18.604022
2361.000000	18.562658
2360.000000	18.511004
2359.000000	18.477913
2358.000000	18.441190
2357.000000	18.387821
2356.000000	18.330920
2355.000000	18.303176
2354.000000	18.271498
2353.000000	18.241231
2352.000000	18.221861
2351.000000	18.201885
2350.000000	18.202894
2349.000000	18.204609
2348.000000	18.215202
2347.000000	18.228015
2346.000000	18.250311
2345.000000	18.279569
2344.000000	18.305799
2343.000000	18.309330
2342.000000	18.331021
2341.000000	18.369056
2340.000000	18.398918
2339.000000	18.408603
2338.000000	18.408402
2337.000000	18.408301
2336.000000	18.408704
2335.000000	18.413143
2334.000000	18.420105
2333.000000	18.397304
2332.000000	18.384794
2331.000000	18.365424
2330.000000	18.324867
2329.000000	18.319722
2328.000000	18.306203
2327.000000	18.259492
2326.000000	18.227107
2325.000000	18.193007
2324.000000	18.143976
2323.000000	18.094339
2322.000000	18.042282
2321.000000	17.967726
2320.000000	17.881165
2319.000000	17.808526
2318.000000	17.739721
2317.000000	17.649124
2316.000000	17.558224
2315.000000	17.471259
2314.000000	17.359678
2313.000000	17.263835
2312.000000	17.178585
2311.000000	17.093336
2310.000000	16.989018
2309.000000	16.911234
2308.000000	16.864927
2307.000000	16.801771
2306.000000	16.778971
2305.000000	16.756776
2304.000000	16.718136
2303.000000	16.732361
2302.000000	16.752437
2301.000000	16.780989
2300.000000	16.813272
2299.000000	16.844144
2298.000000	16.907804
2297.000000	16.976811
2296.000000	17.044002
2295.000000	17.091621
2294.000000	17.158408
2293.000000	17.235688
2292.000000	17.282096
2291.000000	17.335364
2290.000000	17.366438
2289.000000	17.412240
2288.000000	17.445331
2287.000000	17.463188
2286.000000	17.469141
2285.000000	17.488309
2284.000000	17.476506
2283.000000	17.458649
2282.000000	17.436453
2281.000000	17.404472
2280.000000	17.390852
2279.000000	17.355844
2278.000000	17.327092
2277.000000	17.302677
2276.000000	17.271200
2275.000000	17.252738
2274.000000	17.230643
2273.000000	17.220756
2272.000000	17.201890
2271.000000	17.197350
2270.000000	17.206632
2269.000000	17.249307
2268.000000	17.278060
2267.000000	17.327192
2266.000000	17.400638
2265.000000	17.496582
2264.000000	17.605339
2263.000000	17.726000
2262.000000	17.871580
2261.000000	18.042382
2260.000000	18.242139
2259.000000	18.426460
2258.000000	18.640846
2257.000000	18.845546
2256.000000	19.060134
2255.000000	19.310233
2254.000000	19.516951
2253.000000	19.742434
2252.000000	19.966909
2251.000000	20.189970
2250.000000	20.408089
2249.000000	20.599976
2248.000000	20.774915
2247.000000	20.953990
2246.000000	21.131148
2245.000000	21.292870
2244.000000	21.430380
2243.000000	21.560524
2242.000000	21.682699
2241.000000	21.798013
2240.000000	21.896479
2239.000000	21.984049
2238.000000	22.055478
2237.000000	22.131244
2236.000000	22.181789
2235.000000	22.258160
2234.000000	22.292159
2233.000000	22.332312
2232.000000	22.343006
2231.000000	22.393854
2230.000000	22.421497
2229.000000	22.397687
2228.000000	22.410399
2227.000000	22.382453
2226.000000	22.355920
2225.000000	22.317482
2224.000000	22.314758
2223.000000	22.260581
2222.000000	22.195509
2221.000000	22.160400
2220.000000	22.098859
2219.000000	22.056386
2218.000000	22.013206
2217.000000	21.951463
2216.000000	21.885583
2215.000000	21.836653
2214.000000	21.780661
2213.000000	21.720229
2212.000000	21.660201
2211.000000	21.612381
2210.000000	21.585343
2209.000000	21.517950
2208.000000	21.467809
2207.000000	21.447430
2206.000000	21.420089
2205.000000	21.379634
2204.000000	21.359254
2203.000000	21.315873
2202.000000	21.311333
2201.000000	21.283286
2200.000000	21.248985
2199.000000	21.241922
2198.000000	21.211959
2197.000000	21.191580
2196.000000	21.178565
2195.000000	21.171705
2194.000000	21.149510
2193.000000	21.139017
2192.000000	21.108448
2191.000000	21.104312
2190.000000	21.096140
2189.000000	21.076467
2188.000000	21.056693
2187.000000	21.059720
2186.000000	21.044688
2185.000000	21.033086
2184.000000	21.017045
2183.000000	21.027234
2182.000000	21.007158
2181.000000	20.996262
2180.000000	20.964482
2179.000000	20.972856
2178.000000	20.961254
2177.000000	20.935326
2176.000000	20.949955
2175.000000	20.952880
2174.000000	20.948542
2173.000000	20.955705
2172.000000	20.965390
2171.000000	20.967912
2170.000000	20.978607
2169.000000	20.995858
2168.000000	21.025822
2167.000000	21.054171
2166.000000	21.075156
2165.000000	21.111072
2164.000000	21.155361
2163.000000	21.179070
2162.000000	21.214279
2161.000000	21.287423
2160.000000	21.323238
2159.000000	21.392446
2158.000000	21.444706
2157.000000	21.504633
2156.000000	21.566275
2155.000000	21.637098
2154.000000	21.706307
2153.000000	21.780156
2152.000000	21.849567
2151.000000	21.933707
2150.000000	22.015425
2149.000000	22.101987
2148.000000	22.176643
2147.000000	22.263406
2146.000000	22.340989
2145.000000	22.406666
2144.000000	22.487073
2143.000000	22.563042
2142.000000	22.626399
2141.000000	22.712456
2140.000000	22.786406
2139.000000	22.854808
2138.000000	22.922604
2137.000000	22.972947
2136.000000	23.040945
2135.000000	23.108943
2134.000000	23.163725
2133.000000	23.212251
2132.000000	23.259668
2131.000000	23.311323
2130.000000	23.350568
2129.000000	23.391831
2128.000000	23.427242
2127.000000	23.461241
2126.000000	23.494332
2125.000000	23.506641
2124.000000	23.532367
2123.000000	23.546087
2122.000000	23.579481
2121.000000	23.592294
2120.000000	23.591890
2119.000000	23.593404
2118.000000	23.582710
2117.000000	23.573932
2116.000000	23.582205
2115.000000	23.578573
2114.000000	23.567476
2113.000000	23.553452
2112.000000	23.539126
2111.000000	23.524397
2110.000000	23.495039
2109.000000	23.467093
2108.000000	23.453069
2107.000000	23.435313
2106.000000	23.421088
2105.000000	23.383962
2104.000000	23.360253
2103.000000	23.333720
2102.000000	23.304563
2101.000000	23.286706
2100.000000	23.261283
2099.000000	23.238381
2098.000000	23.222945
2097.000000	23.195000
2096.000000	23.185920
2095.000000	23.176840
2094.000000	23.149500
2093.000000	23.133156
2092.000000	23.122462
2091.000000	23.100872
2090.000000	23.080997
2089.000000	23.072422
2088.000000	23.059508
2087.000000	23.045182
2086.000000	23.032874
2085.000000	23.011486
2084.000000	22.984549
2083.000000	22.949541
2082.000000	22.917358
2081.000000	22.889816
2080.000000	22.843912
2079.000000	22.795385
2078.000000	22.749481
2077.000000	22.680676
2076.000000	22.604708
2075.000000	22.553155
2074.000000	22.495649
2073.000000	22.410399
2072.000000	22.333119
2071.000000	22.265424
2070.000000	22.182898
2069.000000	22.105921
2068.000000	22.025111
2067.000000	21.942181
2066.000000	21.864901
2065.000000	21.778340
2064.000000	21.675334
2063.000000	21.587058
2062.000000	21.513713
2061.000000	21.439561
2060.000000	21.380945
2059.000000	21.317285
2058.000000	21.251204
2057.000000	21.201265
2056.000000	21.164945
2055.000000	21.139421
2054.000000	21.124490
2053.000000	21.133872
2052.000000	21.157480
2051.000000	21.188553
2050.000000	21.222754
2049.000000	21.269969
2048.000000	21.350174
2047.000000	21.427252
2046.000000	21.506146
2045.000000	21.598256
2044.000000	21.710544
2043.000000	21.818695
2042.000000	21.926745
2041.000000	22.024102
2040.000000	22.123375
2039.000000	22.226986
2038.000000	22.340888
2037.000000	22.422707
2036.000000	22.483845
2035.000000	22.570507
2034.000000	22.657775
2033.000000	22.730817
2032.000000	22.801640
2031.000000	22.852386
2030.000000	22.907572
2029.000000	22.974662
2028.000000	23.015521
2027.000000	23.053959
2026.000000	23.080795
2025.000000	23.122159
2024.000000	23.166650
2023.000000	23.191469
2022.000000	23.211848
2021.000000	23.228494
2020.000000	23.241509
2019.000000	23.273187
2018.000000	23.262695
2017.000000	23.274701
2016.000000	23.290136
2015.000000	23.279341
2014.000000	23.288825
2013.000000	23.272178
2012.000000	23.256137
2011.000000	23.234245
2010.000000	23.213563
2009.000000	23.196614
2008.000000	23.157772
2007.000000	23.119536
2006.000000	23.071816
2005.000000	23.017942
2004.000000	22.973048
2003.000000	22.935618
2002.000000	22.865401
2001.000000	22.800429
2000.000000	22.746959
1999.000000	22.686528
1998.000000	22.602791
1997.000000	22.542763
1996.000000	22.465282
1995.000000	22.394862
1994.000000	22.299221
1993.000000	22.208019
1992.000000	22.132051
1991.000000	22.034190
1990.000000	21.942988
1989.000000	21.843211
1988.000000	21.742929
1987.000000	21.653744
1986.000000	21.559818
1985.000000	21.467103
1984.000000	21.364500
1983.000000	21.255643
1982.000000	21.172411
1981.000000	21.071423
1980.000000	20.952880
1979.000000	20.878930
1978.000000	20.765129
1977.000000	20.679375
1976.000000	20.582422
1975.000000	20.469529
1974.000000	20.380647
1973.000000	20.286520
1972.000000	20.182303
1971.000000	20.097961
1970.000000	19.997276
1969.000000	19.923426
1968.000000	19.842414
1967.000000	19.724476
1966.000000	19.644170
1965.000000	19.563965
1964.000000	19.469635
1963.000000	19.380350
1962.000000	19.303373
1961.000000	19.244354
1960.000000	19.142559
1959.000000	19.068003
1958.000000	18.987697
1957.000000	18.902043
1956.000000	18.823755
1955.000000	18.724986
1954.000000	18.645588
1953.000000	18.569317
1952.000000	18.498797
1951.000000	18.412639
1950.000000	18.348777
1949.000000	18.285016
1948.000000	18.227511
1947.000000	18.175655
1946.000000	18.108464
1945.000000	18.051765
1944.000000	18.003339
1943.000000	17.975393
1942.000000	17.936552
1941.000000	17.889942
1940.000000	17.875212
1939.000000	17.858566
1938.000000	17.860281
1937.000000	17.846258
1936.000000	17.876322
1935.000000	17.873901
1934.000000	17.887520
1933.000000	17.930498
1932.000000	17.967423
1931.000000	18.009695
1930.000000	18.069118
1929.000000	18.133080
1928.000000	18.235683
1927.000000	18.315384
1926.000000	18.434935
1925.000000	18.539252
1924.000000	18.656584
1923.000000	18.770789
1922.000000	18.893670
1921.000000	19.047119
1920.000000	19.255149
1919.000000	19.454300
1918.000000	19.617132
1917.000000	19.806801
1916.000000	20.002724
1915.000000	20.179579
1914.000000	20.367229
1913.000000	20.643560
1912.000000	20.923219
1911.000000	21.210950
1910.000000	21.435525
1909.000000	21.683607
1908.000000	21.930983
1907.000000	22.201562
1906.000000	22.511690
1905.000000	22.870546
1904.000000	23.244939
1903.000000	23.594009
1902.000000	23.930569
1901.000000	24.290131
1900.000000	24.665836
1899.000000	25.081592
1898.000000	25.539116
1897.000000	25.942968
1896.000000	26.339758
1895.000000	26.704970
1894.000000	27.078051
1893.000000	27.458497
1892.000000	27.886663
1891.000000	28.383634
1890.000000	28.887767
1889.000000	29.365368
1888.000000	29.780418
1887.000000	30.241675
1886.000000	30.698795
1885.000000	31.145121
1884.000000	31.625748
1883.000000	32.170237
1882.000000	32.635327
1881.000000	33.084982
1880.000000	33.545633
1879.000000	33.958868
1878.000000	34.363325
1877.000000	34.779082
1876.000000	35.174257
1875.000000	35.551878
1874.000000	35.917191
1873.000000	36.299958
1872.000000	36.649633
1871.000000	36.955422
1870.000000	37.286938
1869.000000	37.539459
1868.000000	37.801262
1867.000000	38.019077
1866.000000	38.177773
1865.000000	38.299241
1864.000000	38.417986
1863.000000	38.531786
1862.000000	38.635700
1861.000000	38.786628
1860.000000	38.927971
1859.000000	39.041368
1858.000000	39.155068
1857.000000	39.250407
1856.000000	39.310838
1855.000000	39.351798
1854.000000	39.403150
1853.000000	39.459950
1852.000000	39.453392
1851.000000	39.474982
1850.000000	39.503634
1849.000000	39.522802
1848.000000	39.564872
1847.000000	39.607043
1846.000000	39.593625
1845.000000	39.549538
1844.000000	39.522702
1843.000000	39.482145
1842.000000	39.504239
1841.000000	39.557508
1840.000000	39.539651
1839.000000	39.536826
1838.000000	39.513723
1837.000000	39.492940
1836.000000	39.471047
1835.000000	39.443606
1834.000000	39.389530
1833.000000	39.308821
1832.000000	39.248288
1831.000000	39.213684
1830.000000	39.179685
1829.000000	39.141650
1828.000000	39.100589
1827.000000	39.047926
1826.000000	38.999399
1825.000000	38.974581
1824.000000	38.920505
1823.000000	38.885901
1822.000000	38.891652
1821.000000	38.901841
1820.000000	38.897503
1819.000000	38.882975
1818.000000	38.833843
1817.000000	38.795102
1816.000000	38.780877
1815.000000	38.772604
1814.000000	38.765038
1813.000000	38.759186
1812.000000	38.740522
1811.000000	38.718832
1810.000000	38.684429
1809.000000	38.642258
1808.000000	38.622383
1807.000000	38.594538
1806.000000	38.560237
1805.000000	38.522000
1804.000000	38.473978
1803.000000	38.430496
1802.000000	38.392764
1801.000000	38.371577
1800.000000	38.337679
1799.000000	38.277450
1798.000000	38.232757
1797.000000	38.199665
1796.000000	38.162943
1795.000000	38.110178
1794.000000	38.069319
1793.000000	38.041172
1792.000000	38.008081
1791.000000	37.979429
1790.000000	37.953500
1789.000000	37.914760
1788.000000	37.863509
1787.000000	37.824264
1786.000000	37.789861
1785.000000	37.755055
1784.000000	37.704511
1783.000000	37.656993
1782.000000	37.616133
1781.000000	37.572046
1780.000000	37.530076
1779.000000	37.469443
1778.000000	37.410626
1777.000000	37.356248
1776.000000	37.287644
1775.000000	37.229937
1774.000000	37.163654
1773.000000	37.079009
1772.000000	37.006673
1771.000000	36.933631
1770.000000	36.840108
1769.000000	36.760004
1768.000000	36.696546
1767.000000	36.608875
1766.000000	36.529779
1765.000000	36.484178
1764.000000	36.430808
1763.000000	36.401753
1762.000000	36.395397
1761.000000	36.391866
1760.000000	36.393480
1759.000000	36.423343
1758.000000	36.454820
1757.000000	36.484380
1756.000000	36.526248
1755.000000	36.563273
1754.000000	36.582341
1753.000000	36.612103
1752.000000	36.628346
1751.000000	36.622696
1750.000000	36.612406
1749.000000	36.591017
1748.000000	36.559742
1747.000000	36.507584
1746.000000	36.447959
1745.000000	36.378448
1744.000000	36.306818
1743.000000	36.217331
1742.000000	36.113518
1741.000000	35.974899
1740.000000	35.821449
1739.000000	35.685655
1738.000000	35.548145
1737.000000	35.415882
1736.000000	35.288361
1735.000000	35.200790
1734.000000	35.108579
1733.000000	35.044314
1732.000000	35.014351
1731.000000	35.019294
1730.000000	35.020606
1729.000000	35.047946
1728.000000	35.095767
1727.000000	35.141771
1726.000000	35.183539
1725.000000	35.216226
1724.000000	35.243970
1723.000000	35.277969
1722.000000	35.333457
1721.000000	35.387634
1720.000000	35.462189
1719.000000	35.539671
1718.000000	35.618464
1717.000000	35.729541
1716.000000	35.842938
1715.000000	35.949374
1714.000000	36.071952
1713.000000	36.191302
1712.000000	36.294611
1711.000000	36.389243
1710.000000	36.444832
1709.000000	36.507785
1708.000000	36.560348
1707.000000	36.577095
1706.000000	36.591724
1705.000000	36.601913
1704.000000	36.563374
1703.000000	36.531090
1702.000000	36.505263
1701.000000	36.455324
1700.000000	36.385712
1699.000000	36.291584
1698.000000	36.198667
1697.000000	36.118764
1696.000000	36.075382
1695.000000	36.035734
1694.000000	36.005266
1693.000000	35.989124
1692.000000	36.035128
1691.000000	36.086985
1690.000000	36.152460
1689.000000	36.215818
1688.000000	36.274736
1687.000000	36.332544
1686.000000	36.397213
1685.000000	36.461983
1684.000000	36.552579
1683.000000	36.709762
1682.000000	36.885306
1681.000000	37.124610
1680.000000	37.432518
1679.000000	37.766153
1678.000000	38.130659
1677.000000	38.472263
1676.000000	38.821535
1675.000000	39.154160
1674.000000	39.436746
1673.000000	39.696026
1672.000000	39.943301
1671.000000	40.140132
1670.000000	40.328892
1669.000000	40.520981
1668.000000	40.684621
1667.000000	40.801448
1666.000000	40.933510
1665.000000	41.068699
1664.000000	41.171402
1663.000000	41.263512
1662.000000	41.369343
1661.000000	41.470129
1660.000000	41.555682
1659.000000	41.626807
1658.000000	41.693292
1657.000000	41.751605
1656.000000	41.797508
1655.000000	41.830398
1654.000000	41.867726
1653.000000	41.870046
1652.000000	41.889417
1651.000000	41.899001
1650.000000	41.905256
1649.000000	41.888912
1648.000000	41.874687
1647.000000	41.886996
1646.000000	41.881447
1645.000000	41.855620
1644.000000	41.820006
1643.000000	41.797206
1642.000000	41.780055
1641.000000	41.762601
1640.000000	41.718715
1639.000000	41.691779
1638.000000	41.671198
1637.000000	41.643050
1636.000000	41.605923
1635.000000	41.569301
1634.000000	41.531368
1633.000000	41.497268
1632.000000	41.453483
1631.000000	41.398096
1630.000000	41.359658
1629.000000	41.304270
1628.000000	41.238996
1627.000000	41.201567
1626.000000	41.130946
1625.000000	41.085547
1624.000000	41.039845
1623.000000	40.970737
1622.000000	40.925035
1621.000000	40.863494
1620.000000	40.810326
1619.000000	40.778143
1618.000000	40.721142
1617.000000	40.674633
1616.000000	40.622272
1615.000000	40.571022
1614.000000	40.502620
1613.000000	40.481535
1612.000000	40.432402
1611.000000	40.369449
1610.000000	40.312952
1609.000000	40.272799
1608.000000	40.201976
1607.000000	40.154761
1606.000000	40.095237
1605.000000	40.022094
1604.000000	39.962469
1603.000000	39.890234
1602.000000	39.830004
1601.000000	39.755348
1600.000000	39.705106
1599.000000	39.629743
1598.000000	39.572843
1597.000000	39.497782
1596.000000	39.443909
1595.000000	39.377424
1594.000000	39.331318
1593.000000	39.277646
1592.000000	39.211262
1591.000000	39.167074
1590.000000	39.116428
1589.000000	39.064774
1588.000000	38.985578
1587.000000	38.933318
1586.000000	38.894476
1585.000000	38.852003
1584.000000	38.797019
1583.000000	38.742439
1582.000000	38.706725
1581.000000	38.669800
1580.000000	38.631261
1579.000000	38.578699
1578.000000	38.540866
1577.000000	38.504950
1576.000000	38.485378
1575.000000	38.446940
1574.000000	38.435439
1573.000000	38.417078
1572.000000	38.398313
1571.000000	38.379245
1570.000000	38.368349
1569.000000	38.367340
1568.000000	38.342017
1567.000000	38.336872
1566.000000	38.325270
1565.000000	38.317704
1564.000000	38.327994
1563.000000	38.308018
1562.000000	38.291574
1561.000000	38.280476
1560.000000	38.263426
1559.000000	38.247991
1558.000000	38.220650
1557.000000	38.186752
1556.000000	38.143673
1555.000000	38.103823
1554.000000	38.063165
1553.000000	38.012923
1552.000000	37.966212
1551.000000	37.917786
1550.000000	37.859272
1549.000000	37.800959
1548.000000	37.738611
1547.000000	37.676867
1546.000000	37.633082
1545.000000	37.585464
1544.000000	37.528361
1543.000000	37.472873
1542.000000	37.440892
1541.000000	37.407297
1540.000000	37.354734
1539.000000	37.333649
1538.000000	37.309638
1537.000000	37.270393
1536.000000	37.232459
1535.000000	37.200679
1534.000000	37.153061
1533.000000	37.118053
1532.000000	37.076285
1531.000000	37.023723
1530.000000	36.982359
1529.000000	36.934640
1528.000000	36.887122
1527.000000	36.842025
1526.000000	36.793095
1525.000000	36.740129
1524.000000	36.690391
1523.000000	36.646505
1522.000000	36.598080
1521.000000	36.538354
1520.000000	36.480647
1519.000000	36.430506
1518.000000	36.370579
1517.000000	36.324978
1516.000000	36.266261
1515.000000	36.200180
1514.000000	36.146710
1513.000000	36.091424
1512.000000	36.026351
1511.000000	35.953914
1510.000000	35.900444
1509.000000	35.841526
1508.000000	35.779480
1507.000000	35.723185
1506.000000	35.663258
1505.000000	35.607669
1504.000000	35.543505
1503.000000	35.485091
1502.000000	35.434546
1501.000000	35.384304
1500.000000	35.333155
1499.000000	35.285132
1498.000000	35.249015
1497.000000	35.208458
1496.000000	35.170322
1495.000000	35.147724
1494.000000	35.124520
1493.000000	35.092639
1492.000000	35.067317
1491.000000	35.053899
1490.000000	35.045121
1489.000000	35.030795
1488.000000	35.013644
1487.000000	34.997906
1486.000000	34.984185
1485.000000	34.977325
1484.000000	34.970465
1483.000000	34.958257
1482.000000	34.939291
1481.000000	34.942418
1480.000000	34.952305
1479.000000	34.963604
1478.000000	34.979040
1477.000000	34.987616
1476.000000	35.001639
1475.000000	35.008197
1474.000000	35.032410
1473.000000	35.073471
1472.000000	35.117861
1471.000000	35.152667
1470.000000	35.187473
1469.000000	35.193426
1468.000000	35.222380
1467.000000	35.256077
1466.000000	35.292699
1465.000000	35.341831
1464.000000	35.393485
1463.000000	35.427989
1462.000000	35.467032
1461.000000	35.524639
1460.000000	35.579320
1459.000000	35.633193
1458.000000	35.705429
1457.000000	35.773124
1456.000000	35.843644
1455.000000	35.921832
1454.000000	35.997195
1453.000000	36.080124
1452.000000	36.164264
1451.000000	36.252944
1450.000000	36.342532
1449.000000	36.417189
1448.000000	36.455223
1447.000000	36.544206
1446.000000	36.664262
1445.000000	36.780484
1444.000000	36.867146
1443.000000	36.937263
1442.000000	37.029171
1441.000000	37.132278
1440.000000	37.228222
1439.000000	37.333851
1438.000000	37.432619
1437.000000	37.551868
1436.000000	37.632174
1435.000000	37.732255
1434.000000	37.862904
1433.000000	37.988307
1432.000000	38.134694
1431.000000	38.246982
1430.000000	38.364717
1429.000000	38.495568
1428.000000	38.642359
1427.000000	38.802064
1426.000000	38.950469
1425.000000	39.120767
1424.000000	39.326274
1423.000000	39.510091
1422.000000	39.716506
1421.000000	39.885291
1420.000000	40.105326
1419.000000	40.348565
1418.000000	40.554173
1417.000000	40.759378
1416.000000	40.956915
1415.000000	41.217406
1414.000000	41.514520
1413.000000	41.784393
1412.000000	42.035603
1411.000000	42.239698
1410.000000	42.543974
1409.000000	42.913625
1408.000000	43.219818
1407.000000	43.561119
1406.000000	43.858031
1405.000000	44.201653
1404.000000	44.516018
1403.000000	44.875076
1402.000000	45.183892
1401.000000	45.539419
1400.000000	45.951341
1399.000000	46.269742
1398.000000	46.501782
1397.000000	46.734126
1396.000000	47.062514
1395.000000	47.432468
1394.000000	47.721813
1393.000000	47.912893
1392.000000	48.163598
1391.000000	48.438012
1390.000000	48.728063
1389.000000	49.004090
1388.000000	49.335606
1387.000000	49.717868
1386.000000	50.063810
1385.000000	50.414394
1384.000000	50.794537
1383.000000	51.217457
1382.000000	51.619997
1381.000000	51.937691
1380.000000	52.202621
1379.000000	52.371507
1378.000000	52.555323
1377.000000	52.672958
1376.000000	52.837202
1375.000000	52.970172
1374.000000	53.124529
1373.000000	53.301990
1372.000000	53.551384
1371.000000	53.776766
1370.000000	54.018694
1369.000000	54.207756
1368.000000	54.416593
1367.000000	54.640866
1366.000000	54.812677
1365.000000	54.937071
1364.000000	55.136121
1363.000000	55.261323
1362.000000	55.443828
1361.000000	55.526959
1360.000000	55.636018
1359.000000	55.622196
1358.000000	55.738923
1357.000000	55.832143
1356.000000	55.939083
1355.000000	56.119974
1354.000000	56.344852
1353.000000	56.573261
1352.000000	56.793700
1351.000000	57.128343
1350.000000	57.452696
1349.000000	57.767968
1348.000000	58.060441
1347.000000	58.312558
1346.000000	58.555696
1345.000000	58.765239
1344.000000	59.018265
1343.000000	59.281379
1342.000000	59.504239
1341.000000	59.718221
1340.000000	59.959543
1339.000000	60.155567
1338.000000	60.384884
1337.000000	60.588475
1336.000000	60.792065
1335.000000	60.981633
1334.000000	61.162019
1333.000000	61.350577
1332.000000	61.544281
1331.000000	61.715789
1330.000000	61.894158
1329.000000	62.049222
1328.000000	62.215686
1327.000000	62.356726
1326.000000	62.498877
1325.000000	62.634066
1324.000000	62.779646
1323.000000	62.917256
1322.000000	63.043164
1321.000000	63.149095
1320.000000	63.256137
1319.000000	63.386887
1318.000000	63.490195
1317.000000	63.597741
1316.000000	63.690053
1315.000000	63.787813
1314.000000	63.895056
1313.000000	63.973244
1312.000000	64.068481
1311.000000	64.144954
1310.000000	64.228186
1309.000000	64.312326
1308.000000	64.371244
1307.000000	64.440251
1306.000000	64.491199
1305.000000	64.548301
1304.000000	64.586739
1303.000000	64.630827
1302.000000	64.660286
1301.000000	64.699330
1300.000000	64.731210
1299.000000	64.764503
1298.000000	64.783571
1297.000000	64.803546
1296.000000	64.831492
1295.000000	64.838958
1294.000000	64.852577
1293.000000	64.857521
1292.000000	64.860144
1291.000000	64.859740
1290.000000	64.845818
1289.000000	64.833207
1288.000000	64.828264
1287.000000	64.805160
1286.000000	64.785891
1285.000000	64.754717
1284.000000	64.724451
1283.000000	64.683995
1282.000000	64.644447
1281.000000	64.605202
1280.000000	64.560307
1279.000000	64.522474
1278.000000	64.499472
1277.000000	64.454073
1276.000000	64.423706
1275.000000	64.396769
1274.000000	64.355001
1273.000000	64.337750
1272.000000	64.316160
1271.000000	64.293056
1270.000000	64.278226
1269.000000	64.257544
1268.000000	64.231112
1267.000000	64.207000
1266.000000	64.184199
1265.000000	64.169671
1264.000000	64.156253
1263.000000	64.135269
1262.000000	64.106819
1261.000000	64.082404
1260.000000	64.050927
1259.000000	64.019147
1258.000000	63.991504
1257.000000	63.973546
1256.000000	63.941162
1255.000000	63.905246
1254.000000	63.869935
1253.000000	63.828269
1252.000000	63.779742
1251.000000	63.741606
1250.000000	63.692273
1249.000000	63.635372
1248.000000	63.594311
1247.000000	63.530449
1246.000000	63.453977
1245.000000	63.368828
1244.000000	63.311322
1243.000000	63.232428
1242.000000	63.153131
1241.000000	63.073632
1240.000000	62.989088
1239.000000	62.911203
1238.000000	62.834428
1237.000000	62.744336
1236.000000	62.659792
1235.000000	62.580192
1234.000000	62.497162
1233.000000	62.408280
1232.000000	62.310016
1231.000000	62.212962
1230.000000	62.119238
1229.000000	62.031264
1228.000000	61.946922
1227.000000	61.846035
1226.000000	61.736875
1225.000000	61.644967
1224.000000	61.547509
1223.000000	61.457619
1222.000000	61.364298
1221.000000	61.257963
1220.000000	61.162624
1219.000000	61.068799
1218.000000	60.980825
1217.000000	60.899409
1216.000000	60.805584
1215.000000	60.730423
1214.000000	60.667671
1213.000000	60.590997
1212.000000	60.494044
1211.000000	60.417975
1210.000000	60.350885
1209.000000	60.278246
1208.000000	60.201875
1207.000000	60.133675
1206.000000	60.077783
1205.000000	60.014628
1204.000000	59.985875
1203.000000	59.956214
1202.000000	59.908898
1201.000000	59.881759
1200.000000	59.842918
1199.000000	59.799334
1198.000000	59.743544
1197.000000	59.670602
1196.000000	59.577382
1195.000000	59.463884
1194.000000	59.338481
1193.000000	59.164854
1192.000000	58.966510
1191.000000	58.737092
1190.000000	58.494861
1189.000000	58.255557
1188.000000	58.036329
1187.000000	57.886814
1186.000000	57.781891
1185.000000	57.732456
1184.000000	57.752734
1183.000000	57.862803
1182.000000	58.034008
1181.000000	58.251521
1180.000000	58.500410
1179.000000	58.789654
1178.000000	59.048430
1177.000000	59.305087
1176.000000	59.522903
1175.000000	59.714286
1174.000000	59.899818
1173.000000	60.077985
1172.000000	60.247375
1171.000000	60.445417
1170.000000	60.650016
1169.000000	60.836456
1168.000000	61.039744
1167.000000	61.245150
1166.000000	61.476384
1165.000000	61.694099
1164.000000	61.905458
1163.000000	62.128015
1162.000000	62.367925
1161.000000	62.602488
1160.000000	62.827366
1159.000000	63.054665
1158.000000	63.280047
1157.000000	63.483638
1156.000000	63.686118
1155.000000	63.861965
1154.000000	64.033373
1153.000000	64.168057
1152.000000	64.288113
1151.000000	64.356010
1150.000000	64.437628
1149.000000	64.503911
1148.000000	64.573422
1147.000000	64.640916
1146.000000	64.726771
1145.000000	64.836032
1144.000000	64.973440
1143.000000	65.131026
1142.000000	65.343495
1141.000000	65.550415
1140.000000	65.760765
1139.000000	66.007636
1138.000000	66.261570
1137.000000	66.524684
1136.000000	66.811103
1135.000000	67.104180
1134.000000	67.405632
1133.000000	67.653713
1132.000000	67.870218
1131.000000	68.109320
1130.000000	68.327439
1129.000000	68.516199
1128.000000	68.675702
1127.000000	68.825923
1126.000000	68.946181
1125.000000	69.063210
1124.000000	69.132318
1123.000000	69.217467
1122.000000	69.282438
1121.000000	69.321481
1120.000000	69.377272
1119.000000	69.410363
1118.000000	69.435787
1117.000000	69.470290
1116.000000	69.504289
1115.000000	69.491779
1114.000000	69.514277
1113.000000	69.499245
1112.000000	69.512259
1111.000000	69.518313
1110.000000	69.531932
1109.000000	69.548074
1108.000000	69.554935
1107.000000	69.554027
1106.000000	69.565931
1105.000000	69.569765
1104.000000	69.575314
1103.000000	69.577836
1102.000000	69.583082
1101.000000	69.589337
1100.000000	69.598316
1099.000000	69.596904
1098.000000	69.591557
1097.000000	69.586008
1096.000000	69.593978
1095.000000	69.575415
1094.000000	69.563107
1093.000000	69.533244
1092.000000	69.533849
1091.000000	69.513773
1090.000000	69.484112
1089.000000	69.461513
1088.000000	69.427514
1087.000000	69.419847
1086.000000	69.399770
1085.000000	69.371824
1084.000000	69.339439
1083.000000	69.269121
1082.000000	69.260848
1081.000000	69.224327
1080.000000	69.204654
1079.000000	69.151083
1078.000000	69.130199
1077.000000	69.089239
1076.000000	69.076023
1075.000000	69.025276
1074.000000	68.988856
1073.000000	68.933872
1072.000000	68.911072
1071.000000	68.880705
1070.000000	68.828143
1069.000000	68.778002
1068.000000	68.741178
1067.000000	68.701226
1066.000000	68.663696
1065.000000	68.613757
1064.000000	68.584701
1063.000000	68.547978
1062.000000	68.484520
1061.000000	68.463738
1060.000000	68.427822
1059.000000	68.382322
1058.000000	68.370820
1057.000000	68.307766
1056.000000	68.273363
1055.000000	68.255506
1054.000000	68.219893
1053.000000	68.189223
1052.000000	68.176814
1051.000000	68.127480
1050.000000	68.119611
1049.000000	68.075120
1048.000000	68.073102
1047.000000	68.065636
1046.000000	68.040112
1045.000000	68.029216
1044.000000	68.031839
1043.000000	68.032646
1042.000000	68.022658
1041.000000	68.007525
1040.000000	68.026593
1039.000000	68.030931
1038.000000	68.019934
1037.000000	68.024474
1036.000000	68.027703
1035.000000	68.042029
1034.000000	68.047275
1033.000000	68.048385
1032.000000	68.051613
1031.000000	68.042937
1030.000000	68.057162
1029.000000	68.058272
1028.000000	68.063921
1027.000000	68.070882
1026.000000	68.049192
1025.000000	68.067654
1024.000000	68.060087
1023.000000	68.073102
1022.000000	68.080467
1021.000000	68.088134
1020.000000	68.113558
1019.000000	68.110935
1018.000000	68.131314
1017.000000	68.124857
1016.000000	68.138073
1015.000000	68.145741
1014.000000	68.179437
1013.000000	68.182766
1012.000000	68.189929
1011.000000	68.228872
1010.000000	68.246729
1009.000000	68.266099
1008.000000	68.298585
1007.000000	68.311801
1006.000000	68.353770
1005.000000	68.367390
1004.000000	68.387366
1003.000000	68.426510
1002.000000	68.462123
1001.000000	68.490674
1000.000000	68.505303
999.000000	68.541017
998.000000	68.579455
997.000000	68.611336
996.000000	68.653507
995.000000	68.675601
994.000000	68.698704
993.000000	68.743095
992.000000	68.793639
991.000000	68.815834
990.000000	68.846706
989.000000	68.896948
988.000000	68.931855
987.000000	68.961213
986.000000	69.020938
985.000000	69.086818
984.000000	69.135748
983.000000	69.180542
982.000000	69.247430
981.000000	69.329250
980.000000	69.394019
979.000000	69.443252
978.000000	69.525375
977.000000	69.618998
976.000000	69.679228
975.000000	69.738449
974.000000	69.823396
973.000000	69.895429
972.000000	69.967463
971.000000	70.060380
970.000000	70.132514
969.000000	70.213930
968.000000	70.285460
967.000000	70.381403
966.000000	70.473715
965.000000	70.543328
964.000000	70.614453
963.000000	70.692338
962.000000	70.788887
961.000000	70.883620
960.000000	70.954141
959.000000	71.005694
958.000000	71.078535
957.000000	71.163381
956.000000	71.252969
955.000000	71.319050
954.000000	71.379986
953.000000	71.443242
952.000000	71.500143
951.000000	71.577523
950.000000	71.666708
949.000000	71.723608
948.000000	71.761037
947.000000	71.804621
946.000000	71.848507
945.000000	71.900060
944.000000	71.953530
943.000000	71.983090
942.000000	72.038175
941.000000	72.069853
940.000000	72.073990
939.000000	72.108998
938.000000	72.153993
937.000000	72.172153
936.000000	72.194853
935.000000	72.228045
934.000000	72.244388
933.000000	72.280002
932.000000	72.321971
931.000000	72.336801
930.000000	72.348403
929.000000	72.395518
928.000000	72.423968
927.000000	72.438294
926.000000	72.456958
925.000000	72.476126
924.000000	72.525158
923.000000	72.536962
922.000000	72.537264
921.000000	72.538273
920.000000	72.546041
919.000000	72.555424
918.000000	72.577720
917.000000	72.582361
916.000000	72.586295
915.000000	72.601529
914.000000	72.647332
913.000000	72.647534
912.000000	72.634419
911.000000	72.634015
910.000000	72.639867
909.000000	72.652578
908.000000	72.661154
907.000000	72.674572
906.000000	72.692328
905.000000	72.712203
904.000000	72.739745
903.000000	72.760225
902.000000	72.776771
901.000000	72.798764
900.000000	72.822674
899.000000	72.841036
898.000000	72.843457
897.000000	72.854353
896.000000	72.858086
895.000000	72.900358
894.000000	72.942024
893.000000	72.961495
892.000000	72.993376
891.000000	73.020514
890.000000	73.016882
889.000000	73.033932
888.000000	73.045534
887.000000	73.054614
886.000000	73.090934
885.000000	73.085990
884.000000	73.096886
883.000000	73.106470
882.000000	73.111515
881.000000	73.112725
880.000000	73.138048
879.000000	73.104352
878.000000	73.078827
877.000000	73.094263
876.000000	73.080038
875.000000	73.048662
874.000000	73.064098
873.000000	73.012645
872.000000	72.979251
871.000000	72.971281
870.000000	72.948481
869.000000	72.912363
868.000000	72.898844
867.000000	72.855866
866.000000	72.818740
865.000000	72.752053
864.000000	72.716944
863.000000	72.717449
862.000000	72.626045
861.000000	72.574290
860.000000	72.531312
859.000000	72.519004
858.000000	72.492067
857.000000	72.780900
856.000000	72.818800
855.000000	71.876500
854.000000	71.916100
853.000000	72.336100
852.000000	72.320500
851.000000	72.452600
850.000000	71.881600
849.000000	71.774400
848.000000	71.636500
847.000000	70.802700
846.000000	71.190100
845.000000	71.826900
844.000000	71.423500
843.000000	71.224800
842.000000	70.990300
841.000000	70.687300
840.000000	70.467200
839.000000	70.513600
838.000000	70.691500
837.000000	69.708300
836.000000	69.838900
835.000000	69.787500
834.000000	69.636600
833.000000	69.693000
832.000000	69.441800
831.000000	69.320900
830.000000	69.372000
829.000000	68.877100
828.000000	69.356700
827.000000	69.134700
826.000000	68.505500
825.000000	68.580700
824.000000	68.726000
823.000000	68.500600
822.000000	68.381400
821.000000	68.576700
820.000000	68.730800
819.000000	68.302400
818.000000	67.880300
817.000000	67.944700
816.000000	67.661200
815.000000	67.862800
814.000000	67.595100
813.000000	67.232900
812.000000	67.699700
811.000000	67.467500
810.000000	67.328100
809.000000	66.937900
808.000000	67.032200
807.000000	67.201900
806.000000	67.373600
805.000000	67.110300
804.000000	67.241200
803.000000	67.024300
802.000000	66.704600
801.000000	66.909400
800.000000	66.949700
799.000000	66.714200
798.000000	66.791300
797.000000	66.582200
796.000000	66.280400
795.000000	66.219900
794.000000	66.110800
793.000000	66.180000
792.000000	66.101200
791.000000	65.815200
790.000000	65.642000
789.000000	65.621300
788.000000	65.567200
787.000000	65.657100
786.000000	65.251900
785.000000	65.307700
784.000000	65.118300
783.000000	65.030000
782.000000	65.094000
781.000000	64.973000
780.000000	65.018100
779.000000	65.089100
778.000000	64.866300
777.000000	64.747500
776.000000	64.604100
775.000000	64.545400
774.000000	64.552900
773.000000	64.277100
772.000000	64.291200
771.000000	64.308500
770.000000	63.874600
769.000000	63.952400
768.000000	63.635600
767.000000	63.550200
766.000000	63.616600
765.000000	63.368000
764.000000	63.311200
763.000000	63.390400
762.000000	63.224300
761.000000	63.175300
760.000000	63.173000
759.000000	63.006600
758.000000	62.958900
757.000000	62.872400
756.000000	63.004600
755.000000	62.924200
754.000000	62.644900
753.000000	62.656600
752.000000	62.479300
751.000000	62.539000
750.000000	62.364700
749.000000	62.171800
748.000000	62.236900
747.000000	61.964700
746.000000	62.149500
745.000000	61.914200
744.000000	61.762000
743.000000	61.683900
742.000000	61.557800
741.000000	61.463100
740.000000	61.334400
739.000000	61.365000
738.000000	61.256000
737.000000	61.112200
736.000000	61.080800
735.000000	61.017900
734.000000	60.795800
733.000000	60.741200
732.000000	60.561200
731.000000	60.504400
730.000000	60.366700
729.000000	60.187100
728.000000	59.956000
727.000000	59.804300
726.000000	59.679700
725.000000	59.477700
724.000000	59.303200
723.000000	59.181700
722.000000	58.955300
721.000000	58.801800
720.000000	58.634400
719.000000	58.518600
718.000000	58.406100
717.000000	58.287400
716.000000	58.062500
715.000000	58.007300
714.000000	58.048400
713.000000	57.941500
712.000000	57.791500
711.000000	57.817500
710.000000	57.791000
709.000000	57.719800
708.000000	57.734100
707.000000	57.702600
706.000000	57.605700
705.000000	57.547500
704.000000	57.593400
703.000000	57.484200
702.000000	57.440300
701.000000	57.412100
700.000000	57.302200
699.000000	57.219600
698.000000	57.156700
697.000000	57.124000
696.000000	57.055200
695.000000	57.022900
694.000000	56.972100
693.000000	56.835400
692.000000	56.802700
691.000000	56.848800
690.000000	56.759300
689.000000	56.820400
688.000000	56.824500
687.000000	56.872900
686.000000	56.794700
685.000000	56.715800
684.000000	56.648000
683.000000	56.659800
682.000000	56.588800
681.000000	56.426300
680.000000	56.304500
679.000000	56.142500
678.000000	55.904500
677.000000	55.730000
676.000000	55.462700
675.000000	55.128600
674.000000	54.916500
673.000000	54.616300
672.000000	54.306300
671.000000	53.978000
670.000000	53.603200
669.000000	53.215800
668.000000	52.873800
667.000000	52.536000
666.000000	52.261000
665.000000	52.003200
664.000000	51.707800
663.000000	51.445500
662.000000	51.245900
661.000000	51.056200
660.000000	50.892100
659.000000	50.775500
658.000000	50.620600
657.000000	50.496800
656.000000	50.487900
655.000000	50.490100
654.000000	50.438900
653.000000	50.452200
652.000000	50.607400
651.000000	50.745700
650.000000	50.851600
649.000000	51.098200
648.000000	51.388200
647.000000	51.646400
646.000000	52.102100
645.000000	52.584800
644.000000	52.975600
643.000000	53.461400
642.000000	53.964600
641.000000	54.485700
640.000000	55.115500
639.000000	55.739600
638.000000	56.329100
637.000000	56.983800
636.000000	57.627400
635.000000	58.357600
634.000000	59.102300
633.000000	59.738000
632.000000	60.321800
631.000000	60.871400
630.000000	61.378500
629.000000	61.846100
628.000000	62.250200
627.000000	62.562500
626.000000	62.801800
625.000000	62.956300
624.000000	63.091400
623.000000	63.189700
622.000000	63.209600
621.000000	63.232800
620.000000	63.219900
619.000000	63.294600
618.000000	63.326500
617.000000	63.319300
616.000000	63.419000
615.000000	63.519100
614.000000	63.673000
613.000000	63.850800
612.000000	63.969400
611.000000	64.187200
610.000000	64.410500
609.000000	64.638000
608.000000	64.912600
607.000000	65.187900
606.000000	65.429200
605.000000	65.709300
604.000000	65.986300
603.000000	66.234200
602.000000	66.431500
601.000000	66.618200
600.000000	66.832900
599.000000	66.968700
598.000000	67.053200
597.000000	67.076300
596.000000	67.110300
595.000000	67.066500
594.000000	66.885700
593.000000	66.742000
592.000000	66.588100
591.000000	66.433900
590.000000	66.331500
589.000000	66.194600
588.000000	66.171400
587.000000	66.133500
586.000000	66.037700
585.000000	66.036100
584.000000	66.056400
583.000000	66.181700
582.000000	66.282700
581.000000	66.347400
580.000000	66.445100
579.000000	66.628700
578.000000	66.741500
577.000000	66.828800
576.000000	66.929800
575.000000	67.007100
574.000000	66.976800
573.000000	66.939700
572.000000	66.869500
571.000000	66.722700
570.000000	66.509900
569.000000	66.213700
568.000000	65.893800
567.000000	65.558200
566.000000	65.184600
565.000000	64.784800
564.000000	64.402400
563.000000	63.923700
562.000000	63.456600
561.000000	62.984700
560.000000	62.590200
559.000000	62.063200
558.000000	61.459900
557.000000	60.932200
556.000000	60.338900
555.000000	59.595700
554.000000	58.838400
553.000000	58.031100
552.000000	57.225800
551.000000	56.311300
550.000000	55.380800
549.000000	54.430000
548.000000	53.495400
547.000000	52.553300
546.000000	51.602300
545.000000	50.664200
544.000000	49.797000
543.000000	48.952800
542.000000	48.099000
541.000000	47.298500
540.000000	46.541700
539.000000	45.791500
538.000000	45.111100
537.000000	44.475600
536.000000	43.789200
535.000000	43.158600
534.000000	42.535700
533.000000	41.868900
532.000000	41.315100
531.000000	40.730400
530.000000	40.212300
529.000000	39.697000
528.000000	39.199800
527.000000	38.751800
526.000000	38.321200
525.000000	37.850600
524.000000	37.461600
523.000000	37.047500
522.000000	36.654900
521.000000	36.245700
520.000000	35.860200
519.000000	35.454600
518.000000	35.096300
517.000000	34.719800
516.000000	34.301500
515.000000	33.929200
514.000000	33.535900
513.000000	33.170900
512.000000	32.719000
511.000000	32.353300
510.000000	31.989700
509.000000	31.645600
508.000000	31.263900
507.000000	30.957700
506.000000	30.576600
505.000000	30.199100
504.000000	29.841000
503.000000	29.443500
502.000000	29.137600
501.000000	28.822300
500.000000	28.378100
499.000000	28.008700
498.000000	27.583500
497.000000	27.168200
496.000000	26.702200
495.000000	26.253500
494.000000	25.856400
493.000000	25.422700
492.000000	25.034700
491.000000	24.596900
490.000000	24.086600
489.000000	23.683800
488.000000	23.284200
487.000000	22.901000
486.000000	22.506400
485.000000	22.220800
484.000000	21.875800
483.000000	21.575100
482.000000	21.299600
481.000000	21.055800
480.000000	20.811400
479.000000	20.613000
478.000000	20.428000
477.000000	20.306100
476.000000	20.167800
475.000000	20.084100
474.000000	19.938300
473.000000	19.862100
472.000000	19.784400
471.000000	19.761400
470.000000	19.724900
469.000000	19.713100
468.000000	19.724900
467.000000	19.748000
466.000000	19.787500
465.000000	19.776900
464.000000	19.818500
463.000000	19.794400
462.000000	19.912700
461.000000	19.930000
460.000000	20.012600
459.000000	20.012900
458.000000	20.083500
457.000000	20.052800
456.000000	20.048300
455.000000	20.056800
454.000000	19.985000
453.000000	20.008300
452.000000	19.894600
451.000000	19.872900
450.000000	19.834900
449.000000	19.716400
448.000000	19.653700
447.000000	19.486300
446.000000	19.366300
445.000000	19.206700
444.000000	19.072200
443.000000	18.915400
442.000000	18.765500
441.000000	18.563200
440.000000	18.327500
439.000000	18.137200
438.000000	17.979800
437.000000	17.771200
436.000000	17.511000
435.000000	17.257000
434.000000	16.976100
433.000000	16.763600
432.000000	16.492300
431.000000	16.218500
430.000000	15.872300
429.000000	15.614200
428.000000	15.322500
427.000000	15.022300
426.000000	14.724500
425.000000	14.425000
424.000000	14.105700
423.000000	13.797900
422.000000	13.499100
421.000000	13.155300
420.000000	12.858100
419.000000	12.596100
418.000000	12.263800
417.000000	11.888200
416.000000	11.582700
415.000000	11.284800
414.000000	11.042200
413.000000	10.717600
412.000000	10.439600
411.000000	10.189500
410.000000	9.945600
409.000000	9.699800
408.000000	9.468100
407.000000	9.247800
406.000000	9.056100
405.000000	8.832600
404.000000	8.622000
403.000000	8.462200
402.000000	8.281700
401.000000	8.127900
400.000000	7.968900
399.000000	7.821100
398.000000	7.711800
397.000000	7.603500
396.000000	7.484700
395.000000	7.374800
394.000000	7.261400
393.000000	7.156500
392.000000	7.096600
391.000000	7.011900
390.000000	6.912000
389.000000	6.867900
388.000000	6.807700
387.000000	6.752800
386.000000	6.696600
385.000000	6.652000
384.000000	6.614100
383.000000	6.557000
382.000000	6.505400
381.000000	6.500900
380.000000	6.486200
379.000000	6.440900
378.000000	6.432300
377.000000	6.401400
376.000000	6.426200
375.000000	6.307400
374.000000	5.834700
373.000000	5.835800
372.000000	5.825100
371.000000	5.895600
370.000000	6.003200
369.000000	5.721700
368.000000	5.814000
367.000000	5.794500
366.000000	5.931300
365.000000	5.905300
364.000000	5.907100
363.000000	6.217200
362.000000	6.194200
361.000000	6.103100
360.000000	6.027900
359.000000	5.992300
358.000000	5.899700
357.000000	5.666400
356.000000	6.116900
355.000000	6.289200
354.000000	6.111100
353.000000	6.097800
352.000000	5.892600
351.000000	5.920100
350.000000	6.046000
349.000000	5.961800
348.000000	5.702300
347.000000	5.645200
346.000000	5.954800
345.000000	6.428600
344.000000	6.393400
343.000000	5.972200
342.000000	5.953700
341.000000	6.091700
340.000000	6.098900
339.000000	6.341500
338.000000	6.150100
337.000000	5.925300
336.000000	6.354300
335.000000	6.183500
334.000000	6.136300
333.000000	6.390400
332.000000	5.827800
331.000000	5.581500
330.000000	5.990100
329.000000	6.357100
328.000000	6.623600
327.000000	6.454100
326.000000	5.515500
325.000000	5.559200
324.000000	5.747900
323.000000	4.857700
322.000000	5.988800
321.000000	7.293700
320.000000	7.318000
319.000000	6.841300
318.000000	6.652300
317.000000	5.934900
316.000000	5.630600
315.000000	5.884500
314.000000	5.819200
313.000000	5.864800
312.000000	5.898500
311.000000	5.866000
310.000000	5.928500
309.000000	5.925100
308.000000	5.841600
307.000000	5.898200
306.000000	6.007600
305.000000	5.905500
304.000000	5.848200
303.000000	5.896500
302.000000	5.920000
301.000000	6.013600
300.000000	5.889400
299.000000	5.848600
298.000000	5.955300
297.000000	5.953700
296.000000	5.908000
295.000000	5.882700
294.000000	5.978900
293.000000	5.926300
292.000000	5.890200
291.000000	5.888700
290.000000	5.915200
289.000000	5.985100
288.000000	5.923600
287.000000	6.000500
286.000000	6.027600
285.000000	6.017900
284.000000	5.988800
283.000000	6.004400
282.000000	6.024900
281.000000	6.088200
280.000000	6.065100
279.000000	5.985400
278.000000	6.044000
277.000000	6.057800
276.000000	6.062300
275.000000	6.102500
274.000000	6.166800
273.000000	6.110300
272.000000	6.094000
271.000000	6.095000
270.000000	6.111300
269.000000	6.175300
268.000000	6.211600
267.000000	6.265700
266.000000	6.276400
265.000000	6.293000
264.000000	6.335100
263.000000	6.442900
262.000000	6.477500
261.000000	6.450100
260.000000	6.459900
259.000000	6.458100
258.000000	6.500800
257.000000	6.504100
256.000000	6.530300
255.000000	6.491700
254.000000	6.525800
253.000000	6.518900
252.000000	6.604800
251.000000	6.679000
250.000000	6.590400
