PE UV       SUBTECH     SPECTRUM    ASCII       PEDS        4.00        
   -1
CICIMAUCR0248-3.Sample.ASC
24/06/24
17:40:12.00
24/06/24
17:40:12.00
Vinicio Soto Monge
C. resplendens. Sex F.Dorsal.  
250,000000
1
Lambda 1050
1050L1511233
PerkinElmer UV WinLab 6.3.2.0749 / 2.02.05 Lambda 900 UV/VIS/NIR, Aug  7 2015 09:38:08

0
0
3350/servo 860,8/2
0
0
UV/VIS
1
1
1
DoubleDePol,CommonBeamDepol,RBeamAtt,SBeamAtt,60mm sphere, WB InGaAs Detector
0
0
0
0
Program
Program
3350/servo 860,8/2
3350/0,2 860,8/0,2
3350/0,2 860,8/0,2
0
15.00
 
 
 
0
 
860,8
319,2
860,8
Front
100
on
S:100 R:100
0
0
0
0
 
0
 
 
 
0
 
 
0
0
0
0
0
 
 
 
 
0
0


0
0
#HDR
-1
-1
#GR
nm
%R
1.0
0.0
2500,000000
-1,000000
2251
8
91,661300
5,768300
#DATA
2500.000000	8.679405
2499.000000	8.607508
2498.000000	8.617572
2497.000000	8.639359
2496.000000	8.591324
2495.000000	8.740200
2494.000000	8.571820
2493.000000	8.473157
2492.000000	8.524304
2491.000000	8.522333
2490.000000	8.410080
2489.000000	8.454379
2488.000000	8.471290
2487.000000	8.538414
2486.000000	8.421077
2485.000000	8.398045
2484.000000	8.490898
2483.000000	8.465065
2482.000000	8.424915
2481.000000	8.367440
2480.000000	8.434252
2479.000000	8.443382
2478.000000	8.434356
2477.000000	8.458944
2476.000000	8.427094
2475.000000	8.387152
2474.000000	8.448466
2473.000000	8.445457
2472.000000	8.519221
2471.000000	8.506148
2470.000000	8.531463
2469.000000	8.512684
2468.000000	8.512270
2467.000000	8.543393
2466.000000	8.609583
2465.000000	8.586863
2464.000000	8.632823
2463.000000	8.626287
2462.000000	8.643405
2461.000000	8.699843
2460.000000	8.731693
2459.000000	8.791347
2458.000000	8.856499
2457.000000	8.890424
2456.000000	8.885030
2455.000000	8.950078
2454.000000	9.012119
2453.000000	9.053306
2452.000000	9.108602
2451.000000	9.185167
2450.000000	9.252706
2449.000000	9.302089
2448.000000	9.364648
2447.000000	9.402308
2446.000000	9.472959
2445.000000	9.556060
2444.000000	9.625777
2443.000000	9.684912
2442.000000	9.757016
2441.000000	9.830468
2440.000000	9.895413
2439.000000	9.945730
2438.000000	10.011713
2437.000000	10.087551
2436.000000	10.145545
2435.000000	10.210283
2434.000000	10.286848
2433.000000	10.333845
2432.000000	10.404911
2431.000000	10.463735
2430.000000	10.515297
2429.000000	10.563435
2428.000000	10.626409
2427.000000	10.684507
2426.000000	10.725072
2425.000000	10.780991
2424.000000	10.833694
2423.000000	10.874362
2422.000000	10.909221
2421.000000	10.952794
2420.000000	10.992114
2419.000000	11.050627
2418.000000	11.101255
2417.000000	11.126984
2416.000000	11.163088
2415.000000	11.203445
2414.000000	11.234362
2413.000000	11.267975
2412.000000	11.311860
2411.000000	11.349831
2410.000000	11.384690
2409.000000	11.408551
2408.000000	11.431272
2407.000000	11.462084
2406.000000	11.504309
2405.000000	11.544459
2404.000000	11.562614
2403.000000	11.592597
2402.000000	11.596124
2401.000000	11.626730
2400.000000	11.665946
2399.000000	11.685865
2398.000000	11.723628
2397.000000	11.777680
2396.000000	11.831524
2395.000000	11.865034
2394.000000	11.906222
2393.000000	11.920746
2392.000000	11.935063
2391.000000	11.965876
2390.000000	11.990256
2389.000000	12.004366
2388.000000	12.035074
2387.000000	12.059351
2386.000000	12.089645
2385.000000	12.108630
2384.000000	12.108734
2383.000000	12.123155
2382.000000	12.130417
2381.000000	12.134048
2380.000000	12.150025
2379.000000	12.161126
2378.000000	12.165691
2377.000000	12.163616
2376.000000	12.175028
2375.000000	12.179593
2374.000000	12.166313
2373.000000	12.159051
2372.000000	12.167558
2371.000000	12.173783
2370.000000	12.161437
2369.000000	12.137887
2368.000000	12.120665
2367.000000	12.123674
2366.000000	12.120146
2365.000000	12.113092
2364.000000	12.102821
2363.000000	12.069414
2362.000000	12.032481
2361.000000	12.019409
2360.000000	11.998867
2359.000000	11.968781
2358.000000	11.937968
2357.000000	11.923236
2356.000000	11.907985
2355.000000	11.887340
2354.000000	11.873542
2353.000000	11.855282
2352.000000	11.841795
2351.000000	11.841173
2350.000000	11.863790
2349.000000	11.876862
2348.000000	11.886406
2347.000000	11.912032
2346.000000	11.937553
2345.000000	11.962141
2344.000000	12.005403
2343.000000	12.058625
2342.000000	12.093069
2341.000000	12.122014
2340.000000	12.161956
2339.000000	12.202210
2338.000000	12.230636
2337.000000	12.268192
2336.000000	12.283443
2335.000000	12.295374
2334.000000	12.325875
2333.000000	12.350255
2332.000000	12.360422
2331.000000	12.354301
2330.000000	12.363742
2329.000000	12.358555
2328.000000	12.348699
2327.000000	12.322659
2326.000000	12.317057
2325.000000	12.293714
2324.000000	12.248792
2323.000000	12.206567
2322.000000	12.185403
2321.000000	12.128031
2320.000000	12.083939
2319.000000	12.021069
2318.000000	11.942014
2317.000000	11.859847
2316.000000	11.789404
2315.000000	11.710556
2314.000000	11.626626
2313.000000	11.555560
2312.000000	11.460009
2311.000000	11.376390
2310.000000	11.309681
2309.000000	11.242869
2308.000000	11.193589
2307.000000	11.156344
2306.000000	11.123457
2305.000000	11.110074
2304.000000	11.097728
2303.000000	11.100114
2302.000000	11.137878
2301.000000	11.172321
2300.000000	11.209670
2299.000000	11.256459
2298.000000	11.371618
2297.000000	11.441439
2296.000000	11.515929
2295.000000	11.589485
2294.000000	11.652251
2293.000000	11.730061
2292.000000	11.809530
2291.000000	11.874268
2290.000000	11.938072
2289.000000	11.989219
2288.000000	12.028227
2287.000000	12.061426
2286.000000	12.090786
2285.000000	12.104584
2284.000000	12.114752
2283.000000	12.101680
2282.000000	12.092965
2281.000000	12.090060
2280.000000	12.067858
2279.000000	12.031340
2278.000000	12.016815
2277.000000	11.972516
2276.000000	11.938487
2275.000000	11.924170
2274.000000	11.896885
2273.000000	11.889830
2272.000000	11.855386
2271.000000	11.861403
2270.000000	11.852896
2269.000000	11.871674
2268.000000	11.915663
2267.000000	11.966291
2266.000000	12.033726
2265.000000	12.116723
2264.000000	12.208746
2263.000000	12.325253
2262.000000	12.454831
2261.000000	12.619684
2260.000000	12.780698
2259.000000	12.956859
2258.000000	13.139971
2257.000000	13.349123
2256.000000	13.581930
2255.000000	13.789215
2254.000000	13.986125
2253.000000	14.216130
2252.000000	14.398205
2251.000000	14.613582
2250.000000	14.810699
2249.000000	14.983229
2248.000000	15.158249
2247.000000	15.364600
2246.000000	15.496565
2245.000000	15.665257
2244.000000	15.767343
2243.000000	15.900968
2242.000000	16.015919
2241.000000	16.117486
2240.000000	16.211999
2239.000000	16.298627
2238.000000	16.373843
2237.000000	16.478834
2236.000000	16.511410
2235.000000	16.573347
2234.000000	16.630615
2233.000000	16.651883
2232.000000	16.695560
2231.000000	16.733531
2230.000000	16.755214
2229.000000	16.738200
2228.000000	16.762372
2227.000000	16.740586
2226.000000	16.764447
2225.000000	16.733427
2224.000000	16.715583
2223.000000	16.703652
2222.000000	16.687675
2221.000000	16.654580
2220.000000	16.592747
2219.000000	16.573762
2218.000000	16.534753
2217.000000	16.517324
2216.000000	16.455284
2215.000000	16.419906
2214.000000	16.355584
2213.000000	16.335561
2212.000000	16.289290
2211.000000	16.247791
2210.000000	16.215111
2209.000000	16.199861
2208.000000	16.168011
2207.000000	16.108564
2206.000000	16.071838
2205.000000	16.049014
2204.000000	16.042789
2203.000000	16.002950
2202.000000	15.983965
2201.000000	15.978778
2200.000000	15.934374
2199.000000	15.940910
2198.000000	15.926075
2197.000000	15.897026
2196.000000	15.877003
2195.000000	15.867873
2194.000000	15.852000
2193.000000	15.836230
2192.000000	15.822536
2191.000000	15.796496
2190.000000	15.791931
2189.000000	15.783839
2188.000000	15.766098
2187.000000	15.752611
2186.000000	15.722628
2185.000000	15.699493
2184.000000	15.696277
2183.000000	15.678640
2182.000000	15.661833
2181.000000	15.657372
2180.000000	15.644715
2179.000000	15.610582
2178.000000	15.601349
2177.000000	15.576554
2176.000000	15.556634
2175.000000	15.547090
2174.000000	15.558294
2173.000000	15.546467
2172.000000	15.536611
2171.000000	15.548750
2170.000000	15.550202
2169.000000	15.568462
2168.000000	15.572300
2167.000000	15.578214
2166.000000	15.593983
2165.000000	15.614940
2164.000000	15.633510
2163.000000	15.633510
2162.000000	15.690052
2161.000000	15.711527
2160.000000	15.733107
2159.000000	15.763401
2158.000000	15.803447
2157.000000	15.836230
2156.000000	15.875654
2155.000000	15.927423
2154.000000	15.969959
2153.000000	15.999112
2152.000000	16.064783
2151.000000	16.122466
2150.000000	16.178904
2149.000000	16.229428
2148.000000	16.268333
2147.000000	16.320310
2146.000000	16.372702
2145.000000	16.426027
2144.000000	16.471053
2143.000000	16.509751
2142.000000	16.570027
2141.000000	16.608102
2140.000000	16.641197
2139.000000	16.692448
2138.000000	16.746292
2137.000000	16.789139
2136.000000	16.818084
2135.000000	16.849208
2134.000000	16.895894
2133.000000	16.937288
2132.000000	16.971317
2131.000000	16.988124
2130.000000	16.995594
2129.000000	17.028274
2128.000000	17.070291
2127.000000	17.073922
2126.000000	17.081184
2125.000000	17.101311
2124.000000	17.102660
2123.000000	17.101622
2122.000000	17.122994
2121.000000	17.124550
2120.000000	17.116666
2119.000000	17.106291
2118.000000	17.091040
2117.000000	17.105980
2116.000000	17.097161
2115.000000	17.080977
2114.000000	17.067594
2113.000000	17.049749
2112.000000	17.037819
2111.000000	17.019559
2110.000000	17.010118
2109.000000	16.995594
2108.000000	16.977646
2107.000000	16.953784
2106.000000	16.925876
2105.000000	16.910003
2104.000000	16.894753
2103.000000	16.874730
2102.000000	16.856263
2101.000000	16.820678
2100.000000	16.802522
2099.000000	16.786753
2098.000000	16.761231
2097.000000	16.750857
2096.000000	16.738200
2095.000000	16.719422
2094.000000	16.705208
2093.000000	16.683733
2092.000000	16.667341
2091.000000	16.666822
2090.000000	16.653854
2089.000000	16.633623
2088.000000	16.630304
2087.000000	16.606961
2086.000000	16.585174
2085.000000	16.574903
2084.000000	16.560171
2083.000000	16.542638
2082.000000	16.522823
2081.000000	16.481532
2080.000000	16.433601
2079.000000	16.413474
2078.000000	16.390442
2077.000000	16.348010
2076.000000	16.298108
2075.000000	16.245509
2074.000000	16.202869
2073.000000	16.147676
2072.000000	16.093521
2071.000000	16.041959
2070.000000	15.983446
2069.000000	15.924830
2068.000000	15.872749
2067.000000	15.817141
2066.000000	15.747735
2065.000000	15.684450
2064.000000	15.626663
2063.000000	15.563067
2062.000000	15.503620
2061.000000	15.435459
2060.000000	15.365638
2059.000000	15.343436
2058.000000	15.294883
2057.000000	15.235540
2056.000000	15.208774
2055.000000	15.173811
2054.000000	15.162295
2053.000000	15.149327
2052.000000	15.127955
2051.000000	15.148912
2050.000000	15.171529
2049.000000	15.192797
2048.000000	15.249650
2047.000000	15.273822
2046.000000	15.315632
2045.000000	15.371344
2044.000000	15.439920
2043.000000	15.508496
2042.000000	15.578836
2041.000000	15.650006
2040.000000	15.719827
2039.000000	15.779896
2038.000000	15.857083
2037.000000	15.932299
2036.000000	15.975873
2035.000000	16.028576
2034.000000	16.071630
2033.000000	16.121429
2032.000000	16.148818
2031.000000	16.192287
2030.000000	16.228287
2029.000000	16.252668
2028.000000	16.274973
2027.000000	16.294788
2026.000000	16.299353
2025.000000	16.312218
2024.000000	16.323215
2023.000000	16.312944
2022.000000	16.315538
2021.000000	16.333382
2020.000000	16.335249
2019.000000	16.321659
2018.000000	16.317094
2017.000000	16.297278
2016.000000	16.283169
2015.000000	16.255676
2014.000000	16.239596
2013.000000	16.216668
2012.000000	16.191976
2011.000000	16.157014
2010.000000	16.124645
2009.000000	16.096115
2008.000000	16.054720
2007.000000	16.000876
2006.000000	15.963112
2005.000000	15.938524
2004.000000	15.892668
2003.000000	15.835400
2002.000000	15.769833
2001.000000	15.710801
2000.000000	15.666709
1999.000000	15.606018
1998.000000	15.549268
1997.000000	15.471355
1996.000000	15.400808
1995.000000	15.326007
1994.000000	15.247886
1993.000000	15.175264
1992.000000	15.087287
1991.000000	15.027425
1990.000000	14.929074
1989.000000	14.851264
1988.000000	14.787045
1987.000000	14.685374
1986.000000	14.622711
1985.000000	14.542204
1984.000000	14.446135
1983.000000	14.327761
1982.000000	14.268522
1981.000000	14.171831
1980.000000	14.099727
1979.000000	14.013306
1978.000000	13.906137
1977.000000	13.805710
1976.000000	13.725203
1975.000000	13.639301
1974.000000	13.553088
1973.000000	13.485238
1972.000000	13.382218
1971.000000	13.302541
1970.000000	13.213527
1969.000000	13.106669
1968.000000	13.036847
1967.000000	12.962669
1966.000000	12.906646
1965.000000	12.829563
1964.000000	12.748329
1963.000000	12.672491
1962.000000	12.577356
1961.000000	12.500791
1960.000000	12.455039
1959.000000	12.353160
1958.000000	12.290601
1957.000000	12.237068
1956.000000	12.148780
1955.000000	12.072423
1954.000000	12.022417
1953.000000	11.963386
1952.000000	11.864205
1951.000000	11.814406
1950.000000	11.741680
1949.000000	11.719686
1948.000000	11.673312
1947.000000	11.615006
1946.000000	11.557116
1945.000000	11.503064
1944.000000	11.474534
1943.000000	11.449220
1942.000000	11.411767
1941.000000	11.397554
1940.000000	11.379606
1939.000000	11.368609
1938.000000	11.342154
1937.000000	11.344955
1936.000000	11.363318
1935.000000	11.345059
1934.000000	11.360932
1933.000000	11.374211
1932.000000	11.404194
1931.000000	11.458453
1930.000000	11.508978
1929.000000	11.568217
1928.000000	11.621231
1927.000000	11.665427
1926.000000	11.762533
1925.000000	11.831213
1924.000000	11.940147
1923.000000	12.030510
1922.000000	12.163512
1921.000000	12.270267
1920.000000	12.394244
1919.000000	12.531085
1918.000000	12.651223
1917.000000	12.798439
1916.000000	12.947211
1915.000000	13.110300
1914.000000	13.314576
1913.000000	13.473100
1912.000000	13.693457
1911.000000	13.868892
1910.000000	14.073790
1909.000000	14.263438
1908.000000	14.485870
1907.000000	14.688901
1906.000000	14.957293
1905.000000	15.240520
1904.000000	15.526237
1903.000000	15.806766
1902.000000	16.075158
1901.000000	16.355791
1900.000000	16.687053
1899.000000	17.003790
1898.000000	17.350613
1897.000000	17.684261
1896.000000	18.014589
1895.000000	18.349689
1894.000000	18.694956
1893.000000	19.066471
1892.000000	19.439854
1891.000000	19.888971
1890.000000	20.329062
1889.000000	20.731701
1888.000000	21.160899
1887.000000	21.614788
1886.000000	22.048655
1885.000000	22.504308
1884.000000	22.945437
1883.000000	23.441758
1882.000000	23.935279
1881.000000	24.366655
1880.000000	24.818781
1879.000000	25.243933
1878.000000	25.644186
1877.000000	26.062802
1876.000000	26.485878
1875.000000	26.864656
1874.000000	27.264701
1873.000000	27.638810
1872.000000	28.004307
1871.000000	28.312952
1870.000000	28.611223
1869.000000	28.853781
1868.000000	29.115636
1867.000000	29.313480
1866.000000	29.492961
1865.000000	29.642978
1864.000000	29.781998
1863.000000	29.935646
1862.000000	30.077052
1861.000000	30.240556
1860.000000	30.413812
1859.000000	30.547126
1858.000000	30.663011
1857.000000	30.763437
1856.000000	30.839172
1855.000000	30.914076
1854.000000	30.978088
1853.000000	31.041477
1852.000000	31.066376
1851.000000	31.104451
1850.000000	31.146779
1849.000000	31.202491
1848.000000	31.259447
1847.000000	31.276877
1846.000000	31.258202
1845.000000	31.215978
1844.000000	31.195540
1843.000000	31.196785
1842.000000	31.232370
1841.000000	31.258514
1840.000000	31.264946
1839.000000	31.255609
1838.000000	31.229776
1837.000000	31.217534
1836.000000	31.186929
1835.000000	31.146571
1834.000000	31.089407
1833.000000	31.040232
1832.000000	31.004024
1831.000000	30.975909
1830.000000	30.956923
1829.000000	30.914699
1828.000000	30.878803
1827.000000	30.833362
1826.000000	30.778376
1825.000000	30.726607
1824.000000	30.676705
1823.000000	30.639979
1822.000000	30.652221
1821.000000	30.676913
1820.000000	30.644440
1819.000000	30.594746
1818.000000	30.546919
1817.000000	30.520982
1816.000000	30.513305
1815.000000	30.497328
1814.000000	30.471599
1813.000000	30.448775
1812.000000	30.431864
1811.000000	30.410596
1810.000000	30.367438
1809.000000	30.330608
1808.000000	30.296787
1807.000000	30.264314
1806.000000	30.234850
1805.000000	30.195842
1804.000000	30.158804
1803.000000	30.120937
1802.000000	30.091888
1801.000000	30.066470
1800.000000	30.019992
1799.000000	29.961894
1798.000000	29.927035
1797.000000	29.893733
1796.000000	29.851715
1795.000000	29.815612
1794.000000	29.778263
1793.000000	29.754194
1792.000000	29.732096
1791.000000	29.694851
1790.000000	29.645468
1789.000000	29.608327
1788.000000	29.581145
1787.000000	29.553653
1786.000000	29.527094
1785.000000	29.496592
1784.000000	29.460696
1783.000000	29.420650
1782.000000	29.385895
1781.000000	29.349584
1780.000000	29.315452
1779.000000	29.270218
1778.000000	29.208593
1777.000000	29.173631
1776.000000	29.138876
1775.000000	29.073412
1774.000000	29.021642
1773.000000	28.976928
1772.000000	28.918830
1771.000000	28.861666
1770.000000	28.799418
1769.000000	28.731879
1768.000000	28.650024
1767.000000	28.585286
1766.000000	28.541505
1765.000000	28.493159
1764.000000	28.446681
1763.000000	28.419396
1762.000000	28.404145
1761.000000	28.414105
1760.000000	28.450623
1759.000000	28.485793
1758.000000	28.524802
1757.000000	28.575949
1756.000000	28.625332
1755.000000	28.677101
1754.000000	28.726070
1753.000000	28.764767
1752.000000	28.807407
1751.000000	28.842058
1750.000000	28.855026
1749.000000	28.860006
1748.000000	28.841954
1747.000000	28.832098
1746.000000	28.817055
1745.000000	28.781885
1744.000000	28.727315
1743.000000	28.650231
1742.000000	28.577090
1741.000000	28.496583
1740.000000	28.393148
1739.000000	28.261287
1738.000000	28.138036
1737.000000	28.019351
1736.000000	27.895063
1735.000000	27.791732
1734.000000	27.691409
1733.000000	27.641507
1732.000000	27.603432
1731.000000	27.578637
1730.000000	27.594406
1729.000000	27.622418
1728.000000	27.645138
1727.000000	27.701887
1726.000000	27.773057
1725.000000	27.833541
1724.000000	27.885207
1723.000000	27.951916
1722.000000	28.005760
1721.000000	28.068526
1720.000000	28.146128
1719.000000	28.203293
1718.000000	28.267719
1717.000000	28.368560
1716.000000	28.444502
1715.000000	28.509759
1714.000000	28.622427
1713.000000	28.721401
1712.000000	28.805747
1711.000000	28.881378
1710.000000	28.953066
1709.000000	28.997366
1708.000000	29.024547
1707.000000	29.063556
1706.000000	29.064282
1705.000000	29.063867
1704.000000	29.056086
1703.000000	29.015210
1702.000000	28.979003
1701.000000	28.914473
1700.000000	28.863741
1699.000000	28.779499
1698.000000	28.704179
1697.000000	28.613297
1696.000000	28.538808
1695.000000	28.487868
1694.000000	28.453217
1693.000000	28.436721
1692.000000	28.461413
1691.000000	28.519303
1690.000000	28.585805
1689.000000	28.649609
1688.000000	28.723995
1687.000000	28.784582
1686.000000	28.869239
1685.000000	28.915199
1684.000000	28.973400
1683.000000	29.072997
1682.000000	29.197700
1681.000000	29.384754
1680.000000	29.605318
1679.000000	29.865306
1678.000000	30.158804
1677.000000	30.457074
1676.000000	30.726399
1675.000000	30.991990
1674.000000	31.233614
1673.000000	31.437683
1672.000000	31.630651
1671.000000	31.817913
1670.000000	31.980483
1669.000000	32.129048
1668.000000	32.241509
1667.000000	32.318281
1666.000000	32.409577
1665.000000	32.499422
1664.000000	32.570591
1663.000000	32.640205
1662.000000	32.719778
1661.000000	32.758268
1660.000000	32.833277
1659.000000	32.872389
1658.000000	32.907144
1657.000000	32.914199
1656.000000	32.947812
1655.000000	32.964516
1654.000000	32.964723
1653.000000	32.975513
1652.000000	32.984227
1651.000000	32.972919
1650.000000	32.971363
1649.000000	32.939513
1648.000000	32.921253
1647.000000	32.901957
1646.000000	32.877991
1645.000000	32.848320
1644.000000	32.837219
1643.000000	32.785657
1642.000000	32.752355
1641.000000	32.709300
1640.000000	32.702971
1639.000000	32.645081
1638.000000	32.617900
1637.000000	32.581796
1636.000000	32.538223
1635.000000	32.501600
1634.000000	32.444436
1633.000000	32.405635
1632.000000	32.343387
1631.000000	32.302926
1630.000000	32.255411
1629.000000	32.190362
1628.000000	32.147722
1627.000000	32.079457
1626.000000	32.017313
1625.000000	31.944691
1624.000000	31.897071
1623.000000	31.847688
1622.000000	31.774340
1621.000000	31.735538
1620.000000	31.662916
1619.000000	31.612288
1618.000000	31.588115
1617.000000	31.537383
1616.000000	31.450859
1615.000000	31.420358
1614.000000	31.364127
1613.000000	31.318271
1612.000000	31.267332
1611.000000	31.215148
1610.000000	31.151240
1609.000000	31.095217
1608.000000	31.039817
1607.000000	31.007448
1606.000000	30.937419
1605.000000	30.880255
1604.000000	30.825062
1603.000000	30.765408
1602.000000	30.700567
1601.000000	30.629086
1600.000000	30.575968
1599.000000	30.508947
1598.000000	30.465063
1597.000000	30.402815
1596.000000	30.330089
1595.000000	30.273755
1594.000000	30.235680
1593.000000	30.187334
1592.000000	30.111703
1591.000000	30.056822
1590.000000	30.011381
1589.000000	29.953076
1588.000000	29.905560
1587.000000	29.863646
1586.000000	29.817479
1585.000000	29.759900
1584.000000	29.713526
1583.000000	29.653042
1582.000000	29.604903
1581.000000	29.562264
1580.000000	29.507589
1579.000000	29.491094
1578.000000	29.439013
1577.000000	29.385480
1576.000000	29.355705
1575.000000	29.327071
1574.000000	29.302068
1573.000000	29.272397
1572.000000	29.242622
1571.000000	29.206207
1570.000000	29.195728
1569.000000	29.180582
1568.000000	29.153608
1567.000000	29.138668
1566.000000	29.118645
1565.000000	29.093331
1564.000000	29.083164
1563.000000	29.064905
1562.000000	29.053389
1561.000000	29.036271
1560.000000	29.006599
1559.000000	28.990830
1558.000000	28.945804
1557.000000	28.922046
1556.000000	28.902438
1555.000000	28.846623
1554.000000	28.803360
1553.000000	28.774623
1552.000000	28.747130
1551.000000	28.695568
1550.000000	28.639338
1549.000000	28.596179
1548.000000	28.546692
1547.000000	28.494819
1546.000000	28.446785
1545.000000	28.404768
1544.000000	28.363477
1543.000000	28.329863
1542.000000	28.282970
1541.000000	28.244687
1540.000000	28.201529
1539.000000	28.164180
1538.000000	28.126832
1537.000000	28.094463
1536.000000	28.052861
1535.000000	28.025057
1534.000000	27.984077
1533.000000	27.941230
1532.000000	27.910936
1531.000000	27.869749
1530.000000	27.828665
1529.000000	27.798268
1528.000000	27.757392
1527.000000	27.700227
1526.000000	27.652608
1525.000000	27.614118
1524.000000	27.569300
1523.000000	27.520228
1522.000000	27.465969
1521.000000	27.419594
1520.000000	27.362326
1519.000000	27.305473
1518.000000	27.257024
1517.000000	27.203180
1516.000000	27.142488
1515.000000	27.080863
1514.000000	27.012702
1513.000000	26.959169
1512.000000	26.901589
1511.000000	26.828656
1510.000000	26.776575
1509.000000	26.717440
1508.000000	26.657371
1507.000000	26.599377
1506.000000	26.535158
1505.000000	26.465129
1504.000000	26.401429
1503.000000	26.342605
1502.000000	26.284611
1501.000000	26.226928
1500.000000	26.171943
1499.000000	26.115090
1498.000000	26.055539
1497.000000	26.008127
1496.000000	25.956669
1495.000000	25.901580
1494.000000	25.860808
1493.000000	25.832070
1492.000000	25.797626
1491.000000	25.745442
1490.000000	25.699690
1489.000000	25.649477
1488.000000	25.609223
1487.000000	25.568140
1486.000000	25.526953
1485.000000	25.505788
1484.000000	25.455160
1483.000000	25.415529
1482.000000	25.402250
1481.000000	25.367080
1480.000000	25.329109
1479.000000	25.289996
1478.000000	25.275679
1477.000000	25.261259
1476.000000	25.257005
1475.000000	25.247460
1474.000000	25.218204
1473.000000	25.224844
1472.000000	25.232832
1471.000000	25.230550
1470.000000	25.223703
1469.000000	25.225881
1468.000000	25.210112
1467.000000	25.221109
1466.000000	25.233870
1465.000000	25.245801
1464.000000	25.249432
1463.000000	25.265720
1462.000000	25.267068
1461.000000	25.296636
1460.000000	25.323818
1459.000000	25.361789
1458.000000	25.407541
1457.000000	25.422688
1456.000000	25.462630
1455.000000	25.524152
1454.000000	25.585154
1453.000000	25.631425
1452.000000	25.693984
1451.000000	25.773869
1450.000000	25.831966
1449.000000	25.881142
1448.000000	25.929177
1447.000000	25.985614
1446.000000	26.086974
1445.000000	26.179620
1444.000000	26.240208
1443.000000	26.294986
1442.000000	26.377879
1441.000000	26.453095
1440.000000	26.535365
1439.000000	26.619192
1438.000000	26.730719
1437.000000	26.814443
1436.000000	26.916425
1435.000000	27.034177
1434.000000	27.140206
1433.000000	27.253496
1432.000000	27.365335
1431.000000	27.476343
1430.000000	27.617334
1429.000000	27.744320
1428.000000	27.875558
1427.000000	28.031800
1426.000000	28.162209
1425.000000	28.326958
1424.000000	28.495442
1423.000000	28.683015
1422.000000	28.844236
1421.000000	29.016248
1420.000000	29.247809
1419.000000	29.475636
1418.000000	29.654702
1417.000000	29.887819
1416.000000	30.075911
1415.000000	30.313282
1414.000000	30.602112
1413.000000	30.841246
1412.000000	31.094906
1411.000000	31.312773
1410.000000	31.635216
1409.000000	31.947803
1408.000000	32.258834
1407.000000	32.590199
1406.000000	32.918452
1405.000000	33.229276
1404.000000	33.571534
1403.000000	33.887960
1402.000000	34.242253
1401.000000	34.599659
1400.000000	35.006448
1399.000000	35.359288
1398.000000	35.618861
1397.000000	35.924809
1396.000000	36.264266
1395.000000	36.676554
1394.000000	36.989037
1393.000000	37.307953
1392.000000	37.620851
1391.000000	37.982095
1390.000000	38.318752
1389.000000	38.633310
1388.000000	39.078070
1387.000000	39.501354
1386.000000	39.915405
1385.000000	40.326136
1384.000000	40.820176
1383.000000	41.230284
1382.000000	41.702433
1381.000000	42.106317
1380.000000	42.433636
1379.000000	42.668621
1378.000000	42.899456
1377.000000	43.060367
1376.000000	43.238499
1375.000000	43.425968
1374.000000	43.614371
1373.000000	43.797172
1372.000000	44.024480
1371.000000	44.287891
1370.000000	44.535948
1369.000000	44.729020
1368.000000	44.959440
1367.000000	45.186644
1366.000000	45.362390
1365.000000	45.502136
1364.000000	45.669272
1363.000000	45.812960
1362.000000	45.969306
1361.000000	46.122539
1360.000000	46.247760
1359.000000	46.256994
1358.000000	46.343207
1357.000000	46.448405
1356.000000	46.551425
1355.000000	46.699160
1354.000000	46.897107
1353.000000	47.074721
1352.000000	47.280346
1351.000000	47.566582
1350.000000	47.852195
1349.000000	48.126915
1348.000000	48.372586
1347.000000	48.642637
1346.000000	48.891213
1345.000000	49.107420
1344.000000	49.355269
1343.000000	49.603326
1342.000000	49.834888
1341.000000	50.051821
1340.000000	50.295106
1339.000000	50.522725
1338.000000	50.748684
1337.000000	50.971220
1336.000000	51.198839
1335.000000	51.393674
1334.000000	51.603449
1333.000000	51.824221
1332.000000	52.021650
1331.000000	52.235263
1330.000000	52.407067
1329.000000	52.602939
1328.000000	52.792795
1327.000000	52.964391
1326.000000	53.135780
1325.000000	53.306235
1324.000000	53.475445
1323.000000	53.632309
1322.000000	53.775997
1321.000000	53.936493
1320.000000	54.062959
1319.000000	54.202498
1318.000000	54.323466
1317.000000	54.442981
1316.000000	54.584180
1315.000000	54.704214
1314.000000	54.834934
1313.000000	54.939511
1312.000000	55.029874
1311.000000	55.140986
1310.000000	55.233424
1309.000000	55.332916
1308.000000	55.411867
1307.000000	55.515302
1306.000000	55.582218
1305.000000	55.640938
1304.000000	55.708788
1303.000000	55.746967
1302.000000	55.808904
1301.000000	55.861918
1300.000000	55.916488
1299.000000	55.954771
1298.000000	55.990667
1297.000000	56.032788
1296.000000	56.060177
1295.000000	56.090056
1294.000000	56.114332
1293.000000	56.139024
1292.000000	56.155623
1291.000000	56.162367
1290.000000	56.172223
1289.000000	56.156453
1288.000000	56.161744
1287.000000	56.165998
1286.000000	56.159773
1285.000000	56.142966
1284.000000	56.125329
1283.000000	56.102298
1282.000000	56.085180
1281.000000	56.048350
1280.000000	56.018782
1279.000000	55.991186
1278.000000	55.958402
1277.000000	55.931117
1276.000000	55.902898
1275.000000	55.894598
1274.000000	55.884119
1273.000000	55.865445
1272.000000	55.827785
1271.000000	55.807140
1270.000000	55.797803
1269.000000	55.782448
1268.000000	55.759832
1267.000000	55.754852
1266.000000	55.742921
1265.000000	55.700800
1264.000000	55.683371
1263.000000	55.672062
1262.000000	55.641561
1261.000000	55.625065
1260.000000	55.591970
1259.000000	55.568005
1258.000000	55.541135
1257.000000	55.518207
1256.000000	55.492478
1255.000000	55.459486
1254.000000	55.431475
1253.000000	55.376489
1252.000000	55.338311
1251.000000	55.310611
1250.000000	55.252202
1249.000000	55.206138
1248.000000	55.156963
1247.000000	55.083822
1246.000000	55.018565
1245.000000	54.959222
1244.000000	54.887015
1243.000000	54.806093
1242.000000	54.734301
1241.000000	54.645909
1240.000000	54.562601
1239.000000	54.485829
1238.000000	54.403143
1237.000000	54.318901
1236.000000	54.228953
1235.000000	54.140769
1234.000000	54.048331
1233.000000	53.946867
1232.000000	53.847063
1231.000000	53.761369
1230.000000	53.669761
1229.000000	53.563214
1228.000000	53.455007
1227.000000	53.352402
1226.000000	53.242638
1225.000000	53.130592
1224.000000	53.014397
1223.000000	52.899550
1222.000000	52.784910
1221.000000	52.673798
1220.000000	52.562375
1219.000000	52.452196
1218.000000	52.338075
1217.000000	52.228519
1216.000000	52.116681
1215.000000	52.018122
1214.000000	51.937823
1213.000000	51.841546
1212.000000	51.742987
1211.000000	51.640279
1210.000000	51.537881
1209.000000	51.458827
1208.000000	51.382988
1207.000000	51.294181
1206.000000	51.215438
1205.000000	51.149456
1204.000000	51.086793
1203.000000	51.039485
1202.000000	50.975162
1201.000000	50.929825
1200.000000	50.890298
1199.000000	50.841537
1198.000000	50.780223
1197.000000	50.718909
1196.000000	50.640477
1195.000000	50.539739
1194.000000	50.419912
1193.000000	50.269481
1192.000000	50.104835
1191.000000	49.912801
1190.000000	49.699292
1189.000000	49.470116
1188.000000	49.261171
1187.000000	49.106382
1186.000000	48.993195
1185.000000	48.934267
1184.000000	48.935616
1183.000000	49.007927
1182.000000	49.156595
1181.000000	49.355580
1180.000000	49.586623
1179.000000	49.843914
1178.000000	50.116144
1177.000000	50.361400
1176.000000	50.582068
1175.000000	50.799312
1174.000000	50.994770
1173.000000	51.185248
1172.000000	51.352487
1171.000000	51.529685
1170.000000	51.717881
1169.000000	51.906491
1168.000000	52.093131
1167.000000	52.297407
1166.000000	52.512991
1165.000000	52.742997
1164.000000	52.962835
1163.000000	53.193670
1162.000000	53.423157
1161.000000	53.650361
1160.000000	53.883997
1159.000000	54.132780
1158.000000	54.364342
1157.000000	54.598186
1156.000000	54.821862
1155.000000	55.036825
1154.000000	55.229377
1153.000000	55.426080
1152.000000	55.582529
1151.000000	55.708892
1150.000000	55.835359
1149.000000	55.958713
1148.000000	56.064742
1147.000000	56.167450
1146.000000	56.312487
1145.000000	56.474435
1144.000000	56.644164
1143.000000	56.823541
1142.000000	57.048463
1141.000000	57.280543
1140.000000	57.564185
1139.000000	57.839631
1138.000000	58.116530
1137.000000	58.423722
1136.000000	58.741497
1135.000000	59.055640
1134.000000	59.408792
1133.000000	59.714013
1132.000000	59.941217
1131.000000	60.195603
1130.000000	60.427372
1129.000000	60.648351
1128.000000	60.831774
1127.000000	60.985007
1126.000000	61.106805
1125.000000	61.224972
1124.000000	61.314920
1123.000000	61.414932
1122.000000	61.458920
1121.000000	61.524384
1120.000000	61.546689
1119.000000	61.589329
1118.000000	61.635392
1117.000000	61.645352
1116.000000	61.658009
1115.000000	61.680937
1114.000000	61.675957
1113.000000	61.682493
1112.000000	61.689963
1111.000000	61.699092
1110.000000	61.701478
1109.000000	61.708533
1108.000000	61.727208
1107.000000	61.722643
1106.000000	61.715692
1105.000000	61.746401
1104.000000	61.757709
1103.000000	61.757709
1102.000000	61.761340
1101.000000	61.766839
1100.000000	61.789870
1099.000000	61.798689
1098.000000	61.796717
1097.000000	61.808233
1096.000000	61.801801
1095.000000	61.808545
1094.000000	61.802527
1093.000000	61.807300
1092.000000	61.798066
1091.000000	61.801490
1090.000000	61.787277
1089.000000	61.776383
1088.000000	61.788418
1087.000000	61.770573
1086.000000	61.736960
1085.000000	61.743807
1084.000000	61.728867
1083.000000	61.702827
1082.000000	61.692660
1081.000000	61.677306
1080.000000	61.650332
1079.000000	61.660291
1078.000000	61.628130
1077.000000	61.626263
1076.000000	61.595139
1075.000000	61.574078
1074.000000	61.575219
1073.000000	61.559242
1072.000000	61.540568
1071.000000	61.524384
1070.000000	61.510793
1069.000000	61.522101
1068.000000	61.501975
1067.000000	61.480707
1066.000000	61.498447
1065.000000	61.474897
1064.000000	61.485479
1063.000000	61.481433
1062.000000	61.486309
1061.000000	61.499692
1060.000000	61.496269
1059.000000	61.515565
1058.000000	61.510274
1057.000000	61.529882
1056.000000	61.549802
1055.000000	61.549802
1054.000000	61.544096
1053.000000	61.582170
1052.000000	61.614954
1051.000000	61.613398
1050.000000	61.650643
1049.000000	61.672326
1048.000000	61.685917
1047.000000	61.720775
1046.000000	61.746089
1045.000000	61.784683
1044.000000	61.800867
1043.000000	61.834792
1042.000000	61.844026
1041.000000	61.864464
1040.000000	61.871518
1039.000000	61.896729
1038.000000	61.916544
1037.000000	61.910112
1036.000000	61.927645
1035.000000	61.927023
1034.000000	61.920279
1033.000000	61.914884
1032.000000	61.913328
1031.000000	61.901294
1030.000000	61.882412
1029.000000	61.886147
1028.000000	61.849939
1027.000000	61.842988
1026.000000	61.831057
1025.000000	61.802631
1024.000000	61.791219
1023.000000	61.786343
1022.000000	61.764971
1021.000000	61.755530
1020.000000	61.763622
1019.000000	61.760718
1018.000000	61.778562
1017.000000	61.793709
1016.000000	61.821305
1015.000000	61.853882
1014.000000	61.903161
1013.000000	61.939783
1012.000000	62.012924
1011.000000	62.079841
1010.000000	62.164705
1009.000000	62.252059
1008.000000	62.338376
1007.000000	62.443367
1006.000000	62.555413
1005.000000	62.672439
1004.000000	62.783862
1003.000000	62.917799
1002.000000	63.047689
1001.000000	63.180173
1000.000000	63.315043
999.000000	63.447008
998.000000	63.568391
997.000000	63.709693
996.000000	63.855560
995.000000	63.983687
994.000000	64.103514
993.000000	64.216597
992.000000	64.335801
991.000000	64.454798
990.000000	64.569541
989.000000	64.684388
988.000000	64.800169
987.000000	64.910244
986.000000	64.999777
985.000000	65.111096
984.000000	65.214635
983.000000	65.318174
982.000000	65.396606
981.000000	65.492364
980.000000	65.619868
979.000000	65.714173
978.000000	65.802046
977.000000	65.927786
976.000000	66.037031
975.000000	66.144616
974.000000	66.252512
973.000000	66.363935
972.000000	66.489053
971.000000	66.597779
970.000000	66.715012
969.000000	66.841271
968.000000	66.980602
967.000000	67.109248
966.000000	67.238930
965.000000	67.390192
964.000000	67.543425
963.000000	67.696762
962.000000	67.853523
961.000000	68.029580
960.000000	68.206986
959.000000	68.389579
958.000000	68.574351
957.000000	68.760264
956.000000	68.952402
955.000000	69.136759
954.000000	69.328793
953.000000	69.526637
952.000000	69.698856
951.000000	69.874291
950.000000	70.064354
949.000000	70.236780
948.000000	70.413356
947.000000	70.581321
946.000000	70.748248
945.000000	70.920363
944.000000	71.087083
943.000000	71.258264
942.000000	71.427786
941.000000	71.602598
940.000000	71.769318
939.000000	71.941537
938.000000	72.117698
937.000000	72.289605
936.000000	72.467219
935.000000	72.653650
934.000000	72.845788
933.000000	73.010122
932.000000	73.178191
931.000000	73.357879
930.000000	73.535493
929.000000	73.682086
928.000000	73.825048
927.000000	73.987619
926.000000	74.152471
925.000000	74.304771
924.000000	74.440989
923.000000	74.564032
922.000000	74.713323
921.000000	74.871847
920.000000	75.032135
919.000000	75.143870
918.000000	75.244607
917.000000	75.362670
916.000000	75.479904
915.000000	75.596203
914.000000	75.686358
913.000000	75.782842
912.000000	75.883269
911.000000	75.965021
910.000000	76.062957
909.000000	76.155084
908.000000	76.243060
907.000000	76.332386
906.000000	76.417561
905.000000	76.495164
904.000000	76.584800
903.000000	76.676927
902.000000	76.785964
901.000000	76.896661
900.000000	77.010782
899.000000	77.138182
898.000000	77.258943
897.000000	77.378873
896.000000	77.504614
895.000000	77.632118
894.000000	77.776636
893.000000	77.906112
892.000000	78.045650
891.000000	78.190272
890.000000	78.336969
889.000000	78.501096
888.000000	78.665533
887.000000	78.819804
886.000000	79.004161
885.000000	79.177002
884.000000	79.346316
883.000000	79.542292
882.000000	79.711502
881.000000	79.885900
880.000000	80.092147
879.000000	80.282936
878.000000	80.449449
877.000000	80.621875
876.000000	80.809656
875.000000	80.962785
874.000000	81.089563
873.000000	81.196006
872.000000	81.299856
871.000000	81.402357
870.000000	81.538161
869.000000	81.738495
868.000000	81.958956
867.000000	82.157111
866.000000	82.400499
865.000000	82.596268
864.000000	82.803242
863.000000	83.023703
862.000000	83.257754
861.000000	83.475828
860.000000	83.727517
859.000000	83.922041
858.000000	84.166467
857.000000	83.509500
856.000000	84.091500
855.000000	84.898400
854.000000	84.340100
853.000000	84.786700
852.000000	85.130600
851.000000	85.173300
850.000000	85.817300
849.000000	85.311900
848.000000	86.338300
847.000000	86.207100
846.000000	86.171900
845.000000	86.006500
844.000000	86.499200
843.000000	86.670500
842.000000	86.185100
841.000000	86.175000
840.000000	86.223600
839.000000	86.365300
838.000000	86.047700
837.000000	85.966000
836.000000	86.111500
835.000000	85.917600
834.000000	85.804800
833.000000	86.009600
832.000000	85.821600
831.000000	85.890000
830.000000	85.596500
829.000000	85.617400
828.000000	85.701100
827.000000	85.863900
826.000000	85.838000
825.000000	85.880500
824.000000	86.058100
823.000000	86.196800
822.000000	86.482200
821.000000	86.604100
820.000000	86.732000
819.000000	86.925700
818.000000	86.985000
817.000000	86.989200
816.000000	87.538800
815.000000	87.579700
814.000000	87.720000
813.000000	87.843100
812.000000	87.943800
811.000000	88.115700
810.000000	88.378200
809.000000	88.203500
808.000000	88.323500
807.000000	88.393100
806.000000	88.455500
805.000000	88.471500
804.000000	88.350300
803.000000	88.515700
802.000000	88.205100
801.000000	88.399900
800.000000	88.140100
799.000000	87.898300
798.000000	87.976200
797.000000	87.775100
796.000000	87.514700
795.000000	87.383800
794.000000	87.320600
793.000000	87.069500
792.000000	87.026500
791.000000	86.711500
790.000000	86.744700
789.000000	86.534800
788.000000	86.343200
787.000000	86.223300
786.000000	86.180500
785.000000	86.202200
784.000000	85.938800
783.000000	85.990500
782.000000	85.821400
781.000000	85.752100
780.000000	85.621600
779.000000	85.575900
778.000000	85.662600
777.000000	85.584000
776.000000	85.493600
775.000000	85.449000
774.000000	85.324200
773.000000	85.121900
772.000000	85.084100
771.000000	85.023100
770.000000	84.937300
769.000000	84.620100
768.000000	84.224700
767.000000	84.111500
766.000000	83.950900
765.000000	83.808900
764.000000	83.484800
763.000000	83.281400
762.000000	82.991600
761.000000	82.582400
760.000000	82.237600
759.000000	81.998400
758.000000	81.630000
757.000000	81.364900
756.000000	81.141100
755.000000	80.821600
754.000000	80.474600
753.000000	80.059000
752.000000	79.813800
751.000000	79.686700
750.000000	79.490900
749.000000	79.196500
748.000000	78.815600
747.000000	78.547300
746.000000	78.188200
745.000000	78.038100
744.000000	77.804900
743.000000	77.511300
742.000000	77.328100
741.000000	77.179800
740.000000	76.895700
739.000000	76.711800
738.000000	76.590400
737.000000	76.405400
736.000000	76.325000
735.000000	76.193000
734.000000	75.948900
733.000000	75.945300
732.000000	75.787800
731.000000	75.735600
730.000000	75.669100
729.000000	75.660000
728.000000	75.591200
727.000000	75.553600
726.000000	75.572900
725.000000	75.508000
724.000000	75.538300
723.000000	75.575300
722.000000	75.596500
721.000000	75.627800
720.000000	75.628700
719.000000	75.711900
718.000000	75.832900
717.000000	75.806200
716.000000	75.802200
715.000000	75.892100
714.000000	75.814100
713.000000	75.774500
712.000000	75.756300
711.000000	75.648500
710.000000	75.467400
709.000000	75.344300
708.000000	75.263500
707.000000	75.111900
706.000000	74.870100
705.000000	74.670600
704.000000	74.444200
703.000000	74.109200
702.000000	73.758800
701.000000	73.429900
700.000000	73.100500
699.000000	72.729300
698.000000	72.184700
697.000000	71.772700
696.000000	71.303200
695.000000	70.849300
694.000000	70.304000
693.000000	69.759700
692.000000	69.226600
691.000000	68.607100
690.000000	67.971200
689.000000	67.399300
688.000000	66.789300
687.000000	66.229800
686.000000	65.632200
685.000000	64.998500
684.000000	64.356300
683.000000	63.705100
682.000000	63.091000
681.000000	62.428800
680.000000	61.803200
679.000000	61.174600
678.000000	60.547000
677.000000	59.909700
676.000000	59.245800
675.000000	58.630200
674.000000	58.022100
673.000000	57.441700
672.000000	56.883400
671.000000	56.384400
670.000000	55.894200
669.000000	55.543200
668.000000	55.298200
667.000000	55.114200
666.000000	54.966100
665.000000	54.927200
664.000000	55.008500
663.000000	55.188200
662.000000	55.471100
661.000000	55.795300
660.000000	56.218700
659.000000	56.773500
658.000000	57.383000
657.000000	58.011700
656.000000	58.750400
655.000000	59.535300
654.000000	60.342900
653.000000	61.202600
652.000000	62.096600
651.000000	63.060300
650.000000	64.021700
649.000000	64.993000
648.000000	66.026900
647.000000	67.103100
646.000000	68.135000
645.000000	69.164900
644.000000	70.258400
643.000000	71.310300
642.000000	72.381300
641.000000	73.392700
640.000000	74.354500
639.000000	75.355100
638.000000	76.311200
637.000000	77.179500
636.000000	78.018800
635.000000	78.850900
634.000000	79.620900
633.000000	80.388400
632.000000	81.128700
631.000000	81.860400
630.000000	82.557500
629.000000	83.168500
628.000000	83.787300
627.000000	84.418400
626.000000	84.985900
625.000000	85.486200
624.000000	85.997100
623.000000	86.453700
622.000000	86.891100
621.000000	87.307400
620.000000	87.666800
619.000000	88.068700
618.000000	88.422800
617.000000	88.736400
616.000000	89.016300
615.000000	89.286500
614.000000	89.515600
613.000000	89.787300
612.000000	89.966800
611.000000	90.139400
610.000000	90.333700
609.000000	90.467800
608.000000	90.623400
607.000000	90.779100
606.000000	90.897600
605.000000	91.023100
604.000000	91.142700
603.000000	91.263000
602.000000	91.338600
601.000000	91.426400
600.000000	91.515700
599.000000	91.585000
598.000000	91.605700
597.000000	91.625800
596.000000	91.661300
595.000000	91.648100
594.000000	91.639200
593.000000	91.635200
592.000000	91.575300
591.000000	91.505500
590.000000	91.433300
589.000000	91.329700
588.000000	91.263600
587.000000	91.100600
586.000000	90.965300
585.000000	90.803300
584.000000	90.655300
583.000000	90.447200
582.000000	90.227100
581.000000	89.985800
580.000000	89.752000
579.000000	89.483300
578.000000	89.242100
577.000000	89.012300
576.000000	88.707300
575.000000	88.400700
574.000000	88.114900
573.000000	87.825400
572.000000	87.473200
571.000000	87.134400
570.000000	86.823600
569.000000	86.428200
568.000000	86.063800
567.000000	85.691300
566.000000	85.249500
565.000000	84.807900
564.000000	84.345200
563.000000	83.842300
562.000000	83.313300
561.000000	82.755400
560.000000	82.140300
559.000000	81.423600
558.000000	80.741900
557.000000	80.015000
556.000000	79.247500
555.000000	78.450500
554.000000	77.565700
553.000000	76.669200
552.000000	75.681500
551.000000	74.642300
550.000000	73.519900
549.000000	72.419700
548.000000	71.248300
547.000000	70.080600
546.000000	68.815600
545.000000	67.513400
544.000000	66.236800
543.000000	64.944900
542.000000	63.606800
541.000000	62.274200
540.000000	60.961700
539.000000	59.706200
538.000000	58.428200
537.000000	57.208400
536.000000	56.017200
535.000000	54.852000
534.000000	53.673800
533.000000	52.552600
532.000000	51.460600
531.000000	50.396000
530.000000	49.351400
529.000000	48.345300
528.000000	47.359400
527.000000	46.403300
526.000000	45.535000
525.000000	44.668700
524.000000	43.810000
523.000000	42.940100
522.000000	42.140800
521.000000	41.389700
520.000000	40.634000
519.000000	39.854800
518.000000	39.170500
517.000000	38.489200
516.000000	37.831400
515.000000	37.175000
514.000000	36.524800
513.000000	35.898400
512.000000	35.259200
511.000000	34.629900
510.000000	34.071200
509.000000	33.521100
508.000000	33.046900
507.000000	32.586300
506.000000	32.156800
505.000000	31.814700
504.000000	31.491100
503.000000	31.264400
502.000000	31.130300
501.000000	31.053800
500.000000	31.008400
499.000000	31.030800
498.000000	31.104900
497.000000	31.264400
496.000000	31.414800
495.000000	31.596000
494.000000	31.774800
493.000000	31.967000
492.000000	32.224400
491.000000	32.399600
490.000000	32.588500
489.000000	32.740300
488.000000	32.879800
487.000000	32.992600
486.000000	33.083700
485.000000	33.154500
484.000000	33.225800
483.000000	33.236400
482.000000	33.195300
481.000000	33.160900
480.000000	33.066900
479.000000	33.025500
478.000000	32.927900
477.000000	32.803200
476.000000	32.683800
475.000000	32.575300
474.000000	32.426900
473.000000	32.281200
472.000000	32.122200
471.000000	31.980600
470.000000	31.851900
469.000000	31.687500
468.000000	31.528700
467.000000	31.363600
466.000000	31.210400
465.000000	31.044200
464.000000	30.877400
463.000000	30.674300
462.000000	30.519200
461.000000	30.318300
460.000000	30.101400
459.000000	29.889600
458.000000	29.659900
457.000000	29.459500
456.000000	29.201100
455.000000	28.931600
454.000000	28.663200
453.000000	28.375500
452.000000	28.081600
451.000000	27.734700
450.000000	27.386200
449.000000	27.022100
448.000000	26.634300
447.000000	26.186800
446.000000	25.737400
445.000000	25.294000
444.000000	24.819200
443.000000	24.297300
442.000000	23.749000
441.000000	23.203800
440.000000	22.600500
439.000000	21.963300
438.000000	21.384300
437.000000	20.737200
436.000000	20.088700
435.000000	19.444900
434.000000	18.781200
433.000000	18.128600
432.000000	17.418300
431.000000	16.802400
430.000000	16.163400
429.000000	15.511600
428.000000	14.880300
427.000000	14.308700
426.000000	13.740100
425.000000	13.175500
424.000000	12.644100
423.000000	12.158400
422.000000	11.703300
421.000000	11.272400
420.000000	10.850600
419.000000	10.496800
418.000000	10.164000
417.000000	9.847000
416.000000	9.571400
415.000000	9.330400
414.000000	9.061800
413.000000	8.867800
412.000000	8.679300
411.000000	8.491100
410.000000	8.331100
409.000000	8.205800
408.000000	8.094000
407.000000	7.980500
406.000000	7.893600
405.000000	7.810800
404.000000	7.722300
403.000000	7.651500
402.000000	7.568400
401.000000	7.512000
400.000000	7.450700
399.000000	7.408500
398.000000	7.360000
397.000000	7.320300
396.000000	7.268300
395.000000	7.228300
394.000000	7.197800
393.000000	7.177600
392.000000	7.135400
391.000000	7.089500
390.000000	7.047000
389.000000	7.013000
388.000000	6.976100
387.000000	6.941300
386.000000	6.913500
385.000000	6.882700
384.000000	6.847000
383.000000	6.813700
382.000000	6.772500
381.000000	6.734900
380.000000	6.706700
379.000000	6.692400
378.000000	6.660900
377.000000	6.637100
376.000000	6.576900
375.000000	6.472000
374.000000	6.314400
373.000000	6.302000
372.000000	6.399600
371.000000	6.376500
370.000000	6.444800
369.000000	6.269000
368.000000	6.253500
367.000000	6.304600
366.000000	6.338300
365.000000	6.368600
364.000000	6.360900
363.000000	6.279700
362.000000	6.175400
361.000000	6.192600
360.000000	6.191700
359.000000	6.078800
358.000000	6.236200
357.000000	6.274900
356.000000	6.090800
355.000000	6.040700
354.000000	6.069700
353.000000	6.032000
352.000000	5.954900
351.000000	5.920300
350.000000	5.941400
349.000000	5.890500
348.000000	5.858700
347.000000	5.885000
346.000000	5.928400
345.000000	6.054100
344.000000	5.985400
343.000000	5.775400
342.000000	5.792900
341.000000	5.891800
340.000000	5.815500
339.000000	5.934500
338.000000	5.918600
337.000000	5.862800
336.000000	5.899400
335.000000	5.868700
334.000000	5.848000
333.000000	5.852200
332.000000	6.019800
331.000000	6.152200
330.000000	6.133700
329.000000	5.866700
328.000000	5.860100
327.000000	6.162400
326.000000	6.273000
325.000000	6.061900
324.000000	5.808700
323.000000	5.768300
322.000000	6.041600
321.000000	6.303300
320.000000	6.317500
319.000000	6.008800
318.000000	6.216900
317.000000	6.676300
316.000000	6.282200
315.000000	5.895400
314.000000	5.879100
313.000000	5.931900
312.000000	5.919500
311.000000	5.848700
310.000000	5.854000
309.000000	5.872000
308.000000	5.914700
307.000000	5.907700
306.000000	5.926400
305.000000	5.923100
304.000000	5.934100
303.000000	5.940700
302.000000	5.940800
301.000000	5.943600
300.000000	5.960700
299.000000	5.965900
298.000000	5.959700
297.000000	5.952200
296.000000	5.964300
295.000000	5.987900
294.000000	5.960200
293.000000	5.975600
292.000000	5.993300
291.000000	5.987300
290.000000	5.999400
289.000000	6.053400
288.000000	6.055000
287.000000	6.041200
286.000000	6.053300
285.000000	6.076600
284.000000	6.088900
283.000000	6.073600
282.000000	6.069600
281.000000	6.113400
280.000000	6.101200
279.000000	6.097500
278.000000	6.133300
277.000000	6.142800
276.000000	6.160700
275.000000	6.147400
274.000000	6.160300
273.000000	6.177100
272.000000	6.208200
271.000000	6.196800
270.000000	6.255700
269.000000	6.267700
268.000000	6.278400
267.000000	6.324200
266.000000	6.346900
265.000000	6.362800
264.000000	6.415800
263.000000	6.386300
262.000000	6.436000
261.000000	6.478300
260.000000	6.508100
259.000000	6.513700
258.000000	6.539600
257.000000	6.576800
256.000000	6.523100
255.000000	6.555600
254.000000	6.597700
253.000000	6.619500
252.000000	6.653800
251.000000	6.650900
250.000000	6.626500
