PE UV       SUBTECH     SPECTRUM    ASCII       PEDS        4.00        
   -1
CICIMAUCR0250-1.Sample.ASC
24/05/27
14:48:34.00
24/05/27
14:48:34.00
Vinicio Soto Monge
C. resplendens, M
250,000000
1
Lambda 1050
1050L1511233
PerkinElmer UV WinLab 6.3.2.0749 / 2.02.05 Lambda 900 UV/VIS/NIR, Aug  7 2015 09:38:08

0
0
3350/servo 860,8/2
0
0
UV/VIS
1
1
1
DoubleDePol,CommonBeamDepol,RBeamAtt,SBeamAtt,60mm sphere, WB InGaAs Detector
0
0
0
0
Program
Program
3350/servo 860,8/2
3350/0,2 860,8/0,2
3350/0,2 860,8/0,2
0
15.00
 
 
 
0
 
860,8
319,2
860,8
Front
100
on
S:100 R:100
0
0
0
0
 
0
 
 
 
0
 
 
0
0
0
0
0
 
 
 
 
0
0


0
0
#HDR
-1
-1
#GR
nm
%R
1.0
0.0
2500,000000
-1,000000
2251
8
95,471000
5,548600
#DATA
2500.000000	7.165653
2499.000000	7.211763
2498.000000	7.034060
2497.000000	7.113327
2496.000000	7.180056
2495.000000	7.069186
2494.000000	6.926194
2493.000000	7.012714
2492.000000	6.971475
2491.000000	7.051156
2490.000000	7.006497
2489.000000	6.980489
2488.000000	6.897803
2487.000000	6.909926
2486.000000	6.908061
2485.000000	6.875836
2484.000000	6.867650
2483.000000	6.900082
2482.000000	6.899772
2481.000000	6.974583
2480.000000	6.928992
2479.000000	6.874282
2478.000000	6.953031
2477.000000	6.883296
2476.000000	6.887545
2475.000000	6.870862
2474.000000	6.896041
2473.000000	6.880084
2472.000000	6.905574
2471.000000	6.878323
2470.000000	6.931789
2469.000000	6.930960
2468.000000	6.883814
2467.000000	6.931997
2466.000000	6.913138
2465.000000	6.928784
2464.000000	6.927126
2463.000000	6.960284
2462.000000	6.964740
2461.000000	6.958212
2460.000000	6.954067
2459.000000	6.988261
2458.000000	7.025563
2457.000000	7.062347
2456.000000	7.078097
2455.000000	7.108457
2454.000000	7.177569
2453.000000	7.181507
2452.000000	7.264297
2451.000000	7.282534
2450.000000	7.291652
2449.000000	7.368225
2448.000000	7.419619
2447.000000	7.444384
2446.000000	7.475055
2445.000000	7.523858
2444.000000	7.553286
2443.000000	7.595769
2442.000000	7.656385
2441.000000	7.684880
2440.000000	7.730575
2439.000000	7.783109
2438.000000	7.817406
2437.000000	7.850978
2436.000000	7.915843
2435.000000	7.932732
2434.000000	7.968687
2433.000000	8.000394
2432.000000	8.028785
2431.000000	8.075413
2430.000000	8.099556
2429.000000	8.134061
2428.000000	8.169601
2427.000000	8.200168
2426.000000	8.234466
2425.000000	8.240994
2424.000000	8.298398
2423.000000	8.319536
2422.000000	8.335907
2421.000000	8.349792
2420.000000	8.373831
2419.000000	8.405952
2418.000000	8.414656
2417.000000	8.434136
2416.000000	8.460455
2415.000000	8.478174
2414.000000	8.498794
2413.000000	8.521693
2412.000000	8.535267
2411.000000	8.558270
2410.000000	8.581169
2409.000000	8.585107
2408.000000	8.612047
2407.000000	8.644894
2406.000000	8.643547
2405.000000	8.655463
2404.000000	8.691833
2403.000000	8.713074
2402.000000	8.730171
2401.000000	8.740533
2400.000000	8.770789
2399.000000	8.795553
2398.000000	8.804775
2397.000000	8.812547
2396.000000	8.827571
2395.000000	8.853683
2394.000000	8.877100
2393.000000	8.895648
2392.000000	8.913781
2391.000000	8.946627
2390.000000	8.960719
2389.000000	8.971496
2388.000000	8.990665
2387.000000	9.008694
2386.000000	9.015429
2385.000000	9.020921
2384.000000	9.032526
2383.000000	9.043510
2382.000000	9.040816
2381.000000	9.031697
2380.000000	9.036982
2379.000000	9.041541
2378.000000	9.031697
2377.000000	9.025998
2376.000000	9.014393
2375.000000	8.998436
2374.000000	8.980821
2373.000000	8.973153
2372.000000	8.959787
2371.000000	8.961030
2370.000000	8.946524
2369.000000	8.911605
2368.000000	8.901243
2367.000000	8.870987
2366.000000	8.828815
2365.000000	8.796693
2364.000000	8.767370
2363.000000	8.739082
2362.000000	8.695770
2361.000000	8.652251
2360.000000	8.612151
2359.000000	8.579719
2358.000000	8.550395
2357.000000	8.515994
2356.000000	8.489986
2355.000000	8.458797
2354.000000	8.440250
2353.000000	8.430095
2352.000000	8.429163
2351.000000	8.440768
2350.000000	8.447088
2349.000000	8.458279
2348.000000	8.472786
2347.000000	8.500555
2346.000000	8.527185
2345.000000	8.543453
2344.000000	8.578268
2343.000000	8.619508
2342.000000	8.651733
2341.000000	8.697946
2340.000000	8.718255
2339.000000	8.730585
2338.000000	8.749029
2337.000000	8.749444
2336.000000	8.765608
2335.000000	8.758562
2334.000000	8.751102
2333.000000	8.744366
2332.000000	8.731829
2331.000000	8.687688
2330.000000	8.645516
2329.000000	8.611322
2328.000000	8.584796
2327.000000	8.542934
2326.000000	8.498068
2325.000000	8.468434
2324.000000	8.408646
2323.000000	8.337151
2322.000000	8.274980
2321.000000	8.216644
2320.000000	8.146391
2319.000000	8.074999
2318.000000	8.018009
2317.000000	7.936048
2316.000000	7.845694
2315.000000	7.778757
2314.000000	7.718970
2313.000000	7.642604
2312.000000	7.576289
2311.000000	7.516812
2310.000000	7.463139
2309.000000	7.429670
2308.000000	7.388223
2307.000000	7.362941
2306.000000	7.363563
2305.000000	7.361179
2304.000000	7.371437
2303.000000	7.395062
2302.000000	7.431121
2301.000000	7.455989
2300.000000	7.488007
2299.000000	7.557120
2298.000000	7.628201
2297.000000	7.680631
2296.000000	7.738450
2295.000000	7.788601
2294.000000	7.840098
2293.000000	7.897502
2292.000000	7.952212
2291.000000	7.980293
2290.000000	8.007440
2289.000000	8.022568
2288.000000	8.031376
2287.000000	8.032930
2286.000000	8.038111
2285.000000	8.016662
2284.000000	7.997286
2283.000000	7.966926
2282.000000	7.934805
2281.000000	7.904134
2280.000000	7.860718
2279.000000	7.815748
2278.000000	7.783523
2277.000000	7.752231
2276.000000	7.718348
2275.000000	7.683222
2274.000000	7.667265
2273.000000	7.648199
2272.000000	7.640324
2271.000000	7.647474
2270.000000	7.637319
2269.000000	7.654831
2268.000000	7.696899
2267.000000	7.746428
2266.000000	7.780311
2265.000000	7.848699
2264.000000	7.937291
2263.000000	8.028164
2262.000000	8.140692
2261.000000	8.276224
2260.000000	8.405849
2259.000000	8.566663
2258.000000	8.734523
2257.000000	8.883006
2256.000000	9.071175
2255.000000	9.252402
2254.000000	9.431349
2253.000000	9.598795
2252.000000	9.788829
2251.000000	9.954202
2250.000000	10.113254
2249.000000	10.259977
2248.000000	10.411361
2247.000000	10.560778
2246.000000	10.701490
2245.000000	10.818059
2244.000000	10.934836
2243.000000	11.050058
2242.000000	11.126217
2241.000000	11.254495
2240.000000	11.333244
2239.000000	11.403808
2238.000000	11.505767
2237.000000	11.575294
2236.000000	11.634356
2235.000000	11.697770
2234.000000	11.736523
2233.000000	11.817241
2232.000000	11.826463
2231.000000	11.908320
2230.000000	11.908735
2229.000000	11.954326
2228.000000	11.994841
2227.000000	12.018466
2226.000000	12.029138
2225.000000	12.038671
2224.000000	12.052245
2223.000000	12.036391
2222.000000	12.047686
2221.000000	12.049551
2220.000000	12.026962
2219.000000	12.015564
2218.000000	12.005203
2217.000000	12.005928
2216.000000	11.989556
2215.000000	11.961372
2214.000000	11.941685
2213.000000	11.943550
2212.000000	11.940960
2211.000000	11.897130
2210.000000	11.900445
2209.000000	11.882623
2208.000000	11.879204
2207.000000	11.867184
2206.000000	11.838793
2205.000000	11.832680
2204.000000	11.830400
2203.000000	11.837239
2202.000000	11.808641
2201.000000	11.795896
2200.000000	11.806672
2199.000000	11.779317
2198.000000	11.776726
2197.000000	11.756417
2196.000000	11.766157
2195.000000	11.757764
2194.000000	11.750097
2193.000000	11.745227
2192.000000	11.744398
2191.000000	11.733414
2190.000000	11.726472
2189.000000	11.721291
2188.000000	11.705127
2187.000000	11.688030
2186.000000	11.683056
2185.000000	11.677875
2184.000000	11.663162
2183.000000	11.658706
2182.000000	11.642542
2181.000000	11.620990
2180.000000	11.637879
2179.000000	11.614151
2178.000000	11.614254
2177.000000	11.605240
2176.000000	11.581719
2175.000000	11.589075
2174.000000	11.587936
2173.000000	11.590008
2172.000000	11.588247
2171.000000	11.597572
2170.000000	11.590941
2169.000000	11.613426
2168.000000	11.625238
2167.000000	11.621715
2166.000000	11.642024
2165.000000	11.652696
2164.000000	11.669586
2163.000000	11.671866
2162.000000	11.669586
2161.000000	11.700257
2160.000000	11.719840
2159.000000	11.739113
2158.000000	11.759733
2157.000000	11.772478
2156.000000	11.796310
2155.000000	11.822318
2154.000000	11.854439
2153.000000	11.876406
2152.000000	11.911325
2151.000000	11.932670
2150.000000	11.984479
2149.000000	11.991732
2148.000000	12.023646
2147.000000	12.041779
2146.000000	12.053385
2145.000000	12.085506
2144.000000	12.118560
2143.000000	12.141045
2142.000000	12.158245
2141.000000	12.188294
2140.000000	12.198449
2139.000000	12.224664
2138.000000	12.232021
2137.000000	12.262691
2136.000000	12.288389
2135.000000	12.287663
2134.000000	12.302999
2133.000000	12.310252
2132.000000	12.318230
2131.000000	12.322997
2130.000000	12.327763
2129.000000	12.325794
2128.000000	12.330146
2127.000000	12.326105
2126.000000	12.314500
2125.000000	12.297403
2124.000000	12.292430
2123.000000	12.297921
2122.000000	12.278545
2121.000000	12.270359
2120.000000	12.256993
2119.000000	12.240310
2118.000000	12.224664
2117.000000	12.211608
2116.000000	12.185704
2115.000000	12.164773
2114.000000	12.141252
2113.000000	12.129129
2112.000000	12.096697
2111.000000	12.066544
2110.000000	12.060016
2109.000000	12.033594
2108.000000	12.014424
2107.000000	11.988831
2106.000000	11.961787
2105.000000	11.937126
2104.000000	11.902725
2103.000000	11.872054
2102.000000	11.870396
2101.000000	11.850606
2100.000000	11.818795
2099.000000	11.800248
2098.000000	11.774965
2097.000000	11.746263
2096.000000	11.722327
2095.000000	11.697356
2094.000000	11.664923
2093.000000	11.656530
2092.000000	11.650728
2091.000000	11.632802
2090.000000	11.620161
2089.000000	11.598919
2088.000000	11.598712
2087.000000	11.582858
2086.000000	11.553224
2085.000000	11.550633
2084.000000	11.534158
2083.000000	11.494680
2082.000000	11.478827
2081.000000	11.466911
2080.000000	11.450436
2079.000000	11.439867
2078.000000	11.421837
2077.000000	11.387747
2076.000000	11.355315
2075.000000	11.334281
2074.000000	11.306926
2073.000000	11.291590
2072.000000	11.281539
2071.000000	11.252630
2070.000000	11.221545
2069.000000	11.193672
2068.000000	11.180616
2067.000000	11.161965
2066.000000	11.147769
2065.000000	11.127564
2064.000000	11.095132
2063.000000	11.071300
2062.000000	11.052752
2061.000000	11.023532
2060.000000	11.029749
2059.000000	11.033480
2058.000000	11.007886
2057.000000	10.994519
2056.000000	11.005296
2055.000000	11.025294
2054.000000	11.040422
2053.000000	11.056172
2052.000000	11.068399
2051.000000	11.101038
2050.000000	11.160204
2049.000000	11.198956
2048.000000	11.233668
2047.000000	11.279260
2046.000000	11.345057
2045.000000	11.404844
2044.000000	11.464424
2043.000000	11.520999
2042.000000	11.583066
2041.000000	11.624823
2040.000000	11.685025
2039.000000	11.748646
2038.000000	11.805118
2037.000000	11.870811
2036.000000	11.913087
2035.000000	11.957746
2034.000000	11.991214
2033.000000	12.039914
2032.000000	12.084366
2031.000000	12.117109
2030.000000	12.161561
2029.000000	12.187880
2028.000000	12.193268
2027.000000	12.222177
2026.000000	12.256474
2025.000000	12.286213
2024.000000	12.311702
2023.000000	12.312221
2022.000000	12.323618
2021.000000	12.337918
2020.000000	12.340715
2019.000000	12.340923
2018.000000	12.359884
2017.000000	12.362889
2016.000000	12.372215
2015.000000	12.374080
2014.000000	12.357398
2013.000000	12.362060
2012.000000	12.356361
2011.000000	12.331493
2010.000000	12.327141
2009.000000	12.302791
2008.000000	12.287767
2007.000000	12.258961
2006.000000	12.223731
2005.000000	12.200314
2004.000000	12.175031
2003.000000	12.135346
2002.000000	12.097940
2001.000000	12.057218
2000.000000	12.037946
1999.000000	11.984790
1998.000000	11.944483
1997.000000	11.905523
1996.000000	11.853714
1995.000000	11.798486
1994.000000	11.756417
1993.000000	11.711033
1992.000000	11.666063
1991.000000	11.609384
1990.000000	11.563793
1989.000000	11.506182
1988.000000	11.436551
1987.000000	11.395933
1986.000000	11.316562
1985.000000	11.263303
1984.000000	11.184864
1983.000000	11.150774
1982.000000	11.071611
1981.000000	11.046328
1980.000000	10.983329
1979.000000	10.911108
1978.000000	10.849559
1977.000000	10.793398
1976.000000	10.736409
1975.000000	10.693097
1974.000000	10.622015
1973.000000	10.572590
1972.000000	10.511248
1971.000000	10.460787
1970.000000	10.403072
1969.000000	10.339451
1968.000000	10.280389
1967.000000	10.253759
1966.000000	10.189102
1965.000000	10.137915
1964.000000	10.076470
1963.000000	10.012953
1962.000000	9.975340
1961.000000	9.948814
1960.000000	9.881877
1959.000000	9.848616
1958.000000	9.801159
1957.000000	9.752252
1956.000000	9.704484
1955.000000	9.653194
1954.000000	9.605841
1953.000000	9.569264
1952.000000	9.531236
1951.000000	9.466579
1950.000000	9.441504
1949.000000	9.428033
1948.000000	9.364101
1947.000000	9.344518
1946.000000	9.320686
1945.000000	9.292087
1944.000000	9.246599
1943.000000	9.225254
1942.000000	9.231160
1941.000000	9.203080
1940.000000	9.198625
1939.000000	9.199246
1938.000000	9.177798
1937.000000	9.187227
1936.000000	9.200283
1935.000000	9.193340
1934.000000	9.167332
1933.000000	9.235720
1932.000000	9.254164
1931.000000	9.257272
1930.000000	9.315401
1929.000000	9.341617
1928.000000	9.411144
1927.000000	9.458497
1926.000000	9.531133
1925.000000	9.570818
1924.000000	9.635475
1923.000000	9.709147
1922.000000	9.790901
1921.000000	9.894622
1920.000000	9.975651
1919.000000	10.081548
1918.000000	10.165270
1917.000000	10.287746
1916.000000	10.379965
1915.000000	10.501716
1914.000000	10.628129
1913.000000	10.761899
1912.000000	10.915563
1911.000000	11.056586
1910.000000	11.203101
1909.000000	11.322986
1908.000000	11.475407
1907.000000	11.623476
1906.000000	11.790300
1905.000000	12.010694
1904.000000	12.192543
1903.000000	12.379986
1902.000000	12.583491
1901.000000	12.765028
1900.000000	12.950089
1899.000000	13.193071
1898.000000	13.424138
1897.000000	13.649402
1896.000000	13.871557
1895.000000	14.078895
1894.000000	14.286337
1893.000000	14.491188
1892.000000	14.739559
1891.000000	15.071134
1890.000000	15.367273
1889.000000	15.632533
1888.000000	15.946700
1887.000000	16.228540
1886.000000	16.558768
1885.000000	16.916558
1884.000000	17.326261
1883.000000	17.762386
1882.000000	18.213432
1881.000000	18.667069
1880.000000	19.116146
1879.000000	19.527299
1878.000000	19.957933
1877.000000	20.389913
1876.000000	20.791845
1875.000000	21.175747
1874.000000	21.577471
1873.000000	21.965829
1872.000000	22.335846
1871.000000	22.666178
1870.000000	22.963974
1869.000000	23.255760
1868.000000	23.519155
1867.000000	23.718308
1866.000000	23.883370
1865.000000	24.003463
1864.000000	24.135575
1863.000000	24.242300
1862.000000	24.359077
1861.000000	24.479170
1860.000000	24.613147
1859.000000	24.704330
1858.000000	24.799243
1857.000000	24.874366
1856.000000	24.888976
1855.000000	24.904519
1854.000000	24.950939
1853.000000	24.972388
1852.000000	24.963580
1851.000000	24.946587
1850.000000	24.935189
1849.000000	24.931874
1848.000000	24.923999
1847.000000	24.939334
1846.000000	24.891463
1845.000000	24.826184
1844.000000	24.773028
1843.000000	24.750751
1842.000000	24.753963
1841.000000	24.768676
1840.000000	24.754377
1839.000000	24.732825
1838.000000	24.696559
1837.000000	24.651796
1836.000000	24.609002
1835.000000	24.565483
1834.000000	24.510566
1833.000000	24.433785
1832.000000	24.374620
1831.000000	24.327578
1830.000000	24.277323
1829.000000	24.226033
1828.000000	24.158163
1827.000000	24.087807
1826.000000	24.024186
1825.000000	23.960565
1824.000000	23.892696
1823.000000	23.848658
1822.000000	23.830629
1821.000000	23.818609
1820.000000	23.799544
1819.000000	23.772707
1818.000000	23.724836
1817.000000	23.685876
1816.000000	23.682767
1815.000000	23.667535
1814.000000	23.659246
1813.000000	23.656656
1812.000000	23.632720
1811.000000	23.612307
1810.000000	23.588683
1809.000000	23.545889
1808.000000	23.518845
1807.000000	23.481024
1806.000000	23.445691
1805.000000	23.408596
1804.000000	23.355647
1803.000000	23.320003
1802.000000	23.284151
1801.000000	23.239803
1800.000000	23.190378
1799.000000	23.141989
1798.000000	23.095257
1797.000000	23.052463
1796.000000	22.996613
1795.000000	22.944390
1794.000000	22.916103
1793.000000	22.880666
1792.000000	22.835592
1791.000000	22.783162
1790.000000	22.731560
1789.000000	22.683896
1788.000000	22.645351
1787.000000	22.594268
1786.000000	22.541941
1785.000000	22.487853
1784.000000	22.417186
1783.000000	22.347037
1782.000000	22.284763
1781.000000	22.220313
1780.000000	22.159904
1779.000000	22.085403
1778.000000	22.021368
1777.000000	21.959508
1776.000000	21.890292
1775.000000	21.814962
1774.000000	21.721914
1773.000000	21.643683
1772.000000	21.545039
1771.000000	21.436552
1770.000000	21.339151
1769.000000	21.239990
1768.000000	21.142693
1767.000000	21.048919
1766.000000	20.955560
1765.000000	20.887691
1764.000000	20.839923
1763.000000	20.812879
1762.000000	20.810081
1761.000000	20.828007
1760.000000	20.861786
1759.000000	20.896602
1758.000000	20.948929
1757.000000	21.014933
1756.000000	21.093475
1755.000000	21.154816
1754.000000	21.195123
1753.000000	21.228177
1752.000000	21.237192
1751.000000	21.240508
1750.000000	21.241647
1749.000000	21.227763
1748.000000	21.182482
1747.000000	21.137408
1746.000000	21.064773
1745.000000	20.979289
1744.000000	20.897638
1743.000000	20.770707
1742.000000	20.631031
1741.000000	20.449390
1740.000000	20.269096
1739.000000	20.089112
1738.000000	19.895244
1737.000000	19.699615
1736.000000	19.553929
1735.000000	19.430417
1734.000000	19.342135
1733.000000	19.285457
1732.000000	19.268360
1731.000000	19.293642
1730.000000	19.352601
1729.000000	19.434251
1728.000000	19.524191
1727.000000	19.627394
1726.000000	19.726037
1725.000000	19.805305
1724.000000	19.869962
1723.000000	19.916693
1722.000000	19.955964
1721.000000	19.980625
1720.000000	19.994717
1719.000000	20.014404
1718.000000	20.030569
1717.000000	20.070979
1716.000000	20.097609
1715.000000	20.141543
1714.000000	20.205475
1713.000000	20.254796
1712.000000	20.312511
1711.000000	20.337794
1710.000000	20.374889
1709.000000	20.397167
1708.000000	20.380070
1707.000000	20.344322
1706.000000	20.328261
1705.000000	20.282669
1704.000000	20.240497
1703.000000	20.165686
1702.000000	20.095848
1701.000000	20.007047
1700.000000	19.872449
1699.000000	19.740337
1698.000000	19.616721
1697.000000	19.466891
1696.000000	19.366485
1695.000000	19.284939
1694.000000	19.276856
1693.000000	19.337991
1692.000000	19.427412
1691.000000	19.545432
1690.000000	19.679099
1689.000000	19.827168
1688.000000	19.936691
1687.000000	20.018342
1686.000000	20.055333
1685.000000	20.057198
1684.000000	20.095433
1683.000000	20.182575
1682.000000	20.345772
1681.000000	20.618286
1680.000000	20.969030
1679.000000	21.392929
1678.000000	21.859932
1677.000000	22.309527
1676.000000	22.761299
1675.000000	23.154215
1674.000000	23.476362
1673.000000	23.797679
1672.000000	24.085942
1671.000000	24.302606
1670.000000	24.496992
1669.000000	24.670344
1668.000000	24.808983
1667.000000	24.930837
1666.000000	25.037252
1665.000000	25.113307
1664.000000	25.215370
1663.000000	25.308522
1662.000000	25.363232
1661.000000	25.402400
1660.000000	25.464052
1659.000000	25.490474
1658.000000	25.518762
1657.000000	25.545495
1656.000000	25.575648
1655.000000	25.588496
1654.000000	25.581968
1653.000000	25.568602
1652.000000	25.596993
1651.000000	25.552127
1650.000000	25.535548
1649.000000	25.518037
1648.000000	25.506949
1647.000000	25.434107
1646.000000	25.398255
1645.000000	25.369242
1644.000000	25.313185
1643.000000	25.290493
1642.000000	25.247699
1641.000000	25.182109
1640.000000	25.136725
1639.000000	25.102428
1638.000000	25.050930
1637.000000	24.963373
1636.000000	24.899856
1635.000000	24.840794
1634.000000	24.800694
1633.000000	24.703501
1632.000000	24.652107
1631.000000	24.590662
1630.000000	24.503831
1629.000000	24.449017
1628.000000	24.376899
1627.000000	24.298357
1626.000000	24.215360
1625.000000	24.148320
1624.000000	24.063043
1623.000000	23.992065
1622.000000	23.929169
1621.000000	23.853010
1620.000000	23.776023
1619.000000	23.723074
1618.000000	23.631684
1617.000000	23.560084
1616.000000	23.501748
1615.000000	23.436158
1614.000000	23.378754
1613.000000	23.298347
1612.000000	23.243015
1611.000000	23.163437
1610.000000	23.107173
1609.000000	23.030704
1608.000000	22.984283
1607.000000	22.919419
1606.000000	22.847923
1605.000000	22.780986
1604.000000	22.726069
1603.000000	22.654262
1602.000000	22.606702
1601.000000	22.540905
1600.000000	22.479149
1599.000000	22.420605
1598.000000	22.344861
1597.000000	22.298233
1596.000000	22.244974
1595.000000	22.175343
1594.000000	22.120529
1593.000000	22.085714
1592.000000	22.036392
1591.000000	21.982822
1590.000000	21.950079
1589.000000	21.909046
1588.000000	21.855787
1587.000000	21.811750
1586.000000	21.766987
1585.000000	21.722328
1584.000000	21.695595
1583.000000	21.670519
1582.000000	21.632595
1581.000000	21.603168
1580.000000	21.568353
1579.000000	21.557887
1578.000000	21.531569
1577.000000	21.505146
1576.000000	21.493645
1575.000000	21.478620
1574.000000	21.460798
1573.000000	21.471471
1572.000000	21.475097
1571.000000	21.479553
1570.000000	21.465254
1569.000000	21.453130
1568.000000	21.470331
1567.000000	21.495199
1566.000000	21.501416
1565.000000	21.515922
1564.000000	21.522347
1563.000000	21.521103
1562.000000	21.540583
1561.000000	21.526595
1560.000000	21.526802
1559.000000	21.543692
1558.000000	21.561929
1557.000000	21.562965
1556.000000	21.563172
1555.000000	21.561307
1554.000000	21.548665
1553.000000	21.545764
1552.000000	21.540065
1551.000000	21.529807
1550.000000	21.514783
1549.000000	21.507633
1548.000000	21.501416
1547.000000	21.481211
1546.000000	21.462041
1545.000000	21.447742
1544.000000	21.437277
1543.000000	21.434479
1542.000000	21.421631
1541.000000	21.417382
1540.000000	21.414170
1539.000000	21.403705
1538.000000	21.391374
1537.000000	21.383914
1536.000000	21.369615
1535.000000	21.352829
1534.000000	21.335110
1533.000000	21.322573
1532.000000	21.305372
1531.000000	21.283302
1530.000000	21.267241
1529.000000	21.242269
1528.000000	21.197610
1527.000000	21.158546
1526.000000	21.150879
1525.000000	21.118757
1524.000000	21.085185
1523.000000	21.049023
1522.000000	21.003431
1521.000000	20.957114
1520.000000	20.922817
1519.000000	20.887173
1518.000000	20.836607
1517.000000	20.813708
1516.000000	20.783452
1515.000000	20.728638
1514.000000	20.683565
1513.000000	20.642947
1512.000000	20.592278
1511.000000	20.536117
1510.000000	20.494463
1509.000000	20.445970
1508.000000	20.397063
1507.000000	20.343907
1506.000000	20.293549
1505.000000	20.245160
1504.000000	20.190865
1503.000000	20.143926
1502.000000	20.089838
1501.000000	20.036682
1500.000000	20.005493
1499.000000	19.967258
1498.000000	19.921356
1497.000000	19.886230
1496.000000	19.847684
1495.000000	19.808102
1494.000000	19.779815
1493.000000	19.743860
1492.000000	19.712153
1491.000000	19.685834
1490.000000	19.663038
1489.000000	19.633714
1488.000000	19.617343
1487.000000	19.596930
1486.000000	19.571544
1485.000000	19.554654
1484.000000	19.526885
1483.000000	19.501913
1482.000000	19.497250
1481.000000	19.490412
1480.000000	19.473626
1479.000000	19.467201
1478.000000	19.466165
1477.000000	19.466269
1476.000000	19.470206
1475.000000	19.475491
1474.000000	19.473729
1473.000000	19.482226
1472.000000	19.501913
1471.000000	19.512171
1470.000000	19.525020
1469.000000	19.517767
1468.000000	19.527921
1467.000000	19.544396
1466.000000	19.548645
1465.000000	19.584082
1464.000000	19.612991
1463.000000	19.633404
1462.000000	19.663245
1461.000000	19.681586
1460.000000	19.713500
1459.000000	19.789140
1458.000000	19.848928
1457.000000	19.906021
1456.000000	19.939178
1455.000000	20.002177
1454.000000	20.058649
1453.000000	20.122477
1452.000000	20.185787
1451.000000	20.270443
1450.000000	20.368154
1449.000000	20.451566
1448.000000	20.510420
1447.000000	20.584714
1446.000000	20.687813
1445.000000	20.798994
1444.000000	20.871216
1443.000000	20.946235
1442.000000	21.037211
1441.000000	21.162173
1440.000000	21.252735
1439.000000	21.345679
1438.000000	21.450954
1437.000000	21.572601
1436.000000	21.663992
1435.000000	21.758594
1434.000000	21.866149
1433.000000	21.988417
1432.000000	22.126539
1431.000000	22.240933
1430.000000	22.370869
1429.000000	22.477698
1428.000000	22.642139
1427.000000	22.784716
1426.000000	22.927604
1425.000000	23.092667
1424.000000	23.273064
1423.000000	23.461441
1422.000000	23.659246
1421.000000	23.828349
1420.000000	24.047811
1419.000000	24.281053
1418.000000	24.490878
1417.000000	24.707957
1416.000000	24.902550
1415.000000	25.124602
1414.000000	25.401363
1413.000000	25.640098
1412.000000	25.869506
1411.000000	26.106997
1410.000000	26.400130
1409.000000	26.732120
1408.000000	27.054266
1407.000000	27.408327
1406.000000	27.722909
1405.000000	28.086605
1404.000000	28.451546
1403.000000	28.796073
1402.000000	29.171582
1401.000000	29.525435
1400.000000	29.944567
1399.000000	30.299456
1398.000000	30.580777
1397.000000	30.834640
1396.000000	31.148082
1395.000000	31.501417
1394.000000	31.763879
1393.000000	31.980958
1392.000000	32.217101
1391.000000	32.508680
1390.000000	32.787100
1389.000000	33.063862
1388.000000	33.420720
1387.000000	33.818714
1386.000000	34.234530
1385.000000	34.647445
1384.000000	35.092170
1383.000000	35.615852
1382.000000	36.152382
1381.000000	36.593481
1380.000000	36.908270
1379.000000	37.192182
1378.000000	37.400971
1377.000000	37.539092
1376.000000	37.714931
1375.000000	37.899681
1374.000000	38.110438
1373.000000	38.385335
1372.000000	38.684063
1371.000000	39.001029
1370.000000	39.358094
1369.000000	39.647290
1368.000000	39.983113
1367.000000	40.256352
1366.000000	40.471773
1365.000000	40.682116
1364.000000	40.891630
1363.000000	41.072546
1362.000000	41.256052
1361.000000	41.413446
1360.000000	41.552397
1359.000000	41.554055
1358.000000	41.675495
1357.000000	41.783464
1356.000000	41.923865
1355.000000	42.179696
1354.000000	42.507127
1353.000000	42.888749
1352.000000	43.264777
1351.000000	43.754886
1350.000000	44.222200
1349.000000	44.651072
1348.000000	45.037772
1347.000000	45.403334
1346.000000	45.732629
1345.000000	46.046279
1344.000000	46.389667
1343.000000	46.702176
1342.000000	46.983912
1341.000000	47.295696
1340.000000	47.568521
1339.000000	47.856991
1338.000000	48.131991
1337.000000	48.404298
1336.000000	48.664481
1335.000000	48.933471
1334.000000	49.179562
1333.000000	49.425550
1332.000000	49.671744
1331.000000	49.891827
1330.000000	50.136157
1329.000000	50.343391
1328.000000	50.536534
1327.000000	50.728122
1326.000000	50.915463
1325.000000	51.108294
1324.000000	51.300608
1323.000000	51.467121
1322.000000	51.627106
1321.000000	51.777766
1320.000000	51.918996
1319.000000	52.070381
1318.000000	52.190473
1317.000000	52.344345
1316.000000	52.467235
1315.000000	52.590850
1314.000000	52.700478
1313.000000	52.826891
1312.000000	52.929679
1311.000000	53.029981
1310.000000	53.141369
1309.000000	53.231309
1308.000000	53.307053
1307.000000	53.390051
1306.000000	53.466209
1305.000000	53.523510
1304.000000	53.587649
1303.000000	53.625884
1302.000000	53.664844
1301.000000	53.705876
1300.000000	53.738308
1299.000000	53.767736
1298.000000	53.802344
1297.000000	53.824518
1296.000000	53.841615
1295.000000	53.859955
1294.000000	53.874669
1293.000000	53.860162
1292.000000	53.859644
1291.000000	53.877052
1290.000000	53.871560
1289.000000	53.853531
1288.000000	53.844102
1287.000000	53.810011
1286.000000	53.772088
1285.000000	53.729915
1284.000000	53.681940
1283.000000	53.637800
1282.000000	53.596456
1281.000000	53.543611
1280.000000	53.482581
1279.000000	53.443828
1278.000000	53.386113
1277.000000	53.325083
1276.000000	53.269855
1275.000000	53.219289
1274.000000	53.175045
1273.000000	53.123858
1272.000000	53.084690
1271.000000	53.063449
1270.000000	53.028219
1269.000000	52.977965
1268.000000	52.934549
1267.000000	52.902531
1266.000000	52.857250
1265.000000	52.801608
1264.000000	52.757882
1263.000000	52.722444
1262.000000	52.676231
1261.000000	52.631261
1260.000000	52.575930
1259.000000	52.527955
1258.000000	52.488477
1257.000000	52.433145
1256.000000	52.376984
1255.000000	52.331289
1254.000000	52.276372
1253.000000	52.211508
1252.000000	52.155243
1251.000000	52.095974
1250.000000	52.012459
1249.000000	51.935367
1248.000000	51.854857
1247.000000	51.767715
1246.000000	51.681609
1245.000000	51.576644
1244.000000	51.478104
1243.000000	51.351484
1242.000000	51.231081
1241.000000	51.122801
1240.000000	51.004677
1239.000000	50.880440
1238.000000	50.740660
1237.000000	50.587410
1236.000000	50.436958
1235.000000	50.298940
1234.000000	50.151596
1233.000000	49.992647
1232.000000	49.836081
1231.000000	49.682002
1230.000000	49.511552
1229.000000	49.342759
1228.000000	49.181220
1227.000000	49.011806
1226.000000	48.834620
1225.000000	48.662512
1224.000000	48.483254
1223.000000	48.309281
1222.000000	48.140799
1221.000000	47.960090
1220.000000	47.779589
1219.000000	47.615356
1218.000000	47.464696
1217.000000	47.325434
1216.000000	47.172392
1215.000000	47.031679
1214.000000	46.902365
1213.000000	46.766834
1212.000000	46.648606
1211.000000	46.536492
1210.000000	46.404795
1209.000000	46.302214
1208.000000	46.205332
1207.000000	46.105341
1206.000000	46.011049
1205.000000	45.954474
1204.000000	45.908572
1203.000000	45.868679
1202.000000	45.831998
1201.000000	45.809099
1200.000000	45.772211
1199.000000	45.732111
1198.000000	45.674189
1197.000000	45.579172
1196.000000	45.443434
1195.000000	45.293914
1194.000000	45.074867
1193.000000	44.802043
1192.000000	44.473472
1191.000000	44.090192
1190.000000	43.683908
1189.000000	43.301561
1188.000000	42.970193
1187.000000	42.694778
1186.000000	42.528472
1185.000000	42.510235
1184.000000	42.583700
1183.000000	42.751042
1182.000000	43.051532
1181.000000	43.462789
1180.000000	43.916322
1179.000000	44.392547
1178.000000	44.841728
1177.000000	45.250809
1176.000000	45.624764
1175.000000	45.947635
1174.000000	46.242737
1173.000000	46.530379
1172.000000	46.820922
1171.000000	47.136436
1170.000000	47.437859
1169.000000	47.764357
1168.000000	48.074898
1167.000000	48.401293
1166.000000	48.721677
1165.000000	49.062578
1164.000000	49.409178
1163.000000	49.767072
1162.000000	50.108387
1161.000000	50.466800
1160.000000	50.801380
1159.000000	51.163937
1158.000000	51.488881
1157.000000	51.794241
1156.000000	52.091001
1155.000000	52.366415
1154.000000	52.591369
1153.000000	52.770834
1152.000000	52.893206
1151.000000	52.978172
1150.000000	53.054641
1149.000000	53.116086
1148.000000	53.164372
1147.000000	53.228822
1146.000000	53.329331
1145.000000	53.490145
1144.000000	53.698105
1143.000000	53.934767
1142.000000	54.232356
1141.000000	54.568904
1140.000000	54.924830
1139.000000	55.281170
1138.000000	55.638131
1137.000000	56.021722
1136.000000	56.413499
1135.000000	56.832217
1134.000000	57.248551
1133.000000	57.644058
1132.000000	57.971800
1131.000000	58.308038
1130.000000	58.597337
1129.000000	58.869229
1128.000000	59.124853
1127.000000	59.290951
1126.000000	59.460469
1125.000000	59.575381
1124.000000	59.680552
1123.000000	59.766555
1122.000000	59.860639
1121.000000	59.921359
1120.000000	59.963531
1119.000000	60.017620
1118.000000	60.036271
1117.000000	60.065905
1116.000000	60.075231
1115.000000	60.077718
1114.000000	60.074402
1113.000000	60.059377
1112.000000	60.053782
1111.000000	60.055233
1110.000000	60.043006
1109.000000	60.039276
1108.000000	60.034509
1107.000000	60.017723
1106.000000	60.013475
1105.000000	59.998554
1104.000000	59.997829
1103.000000	59.981768
1102.000000	59.985498
1101.000000	59.955760
1100.000000	59.943222
1099.000000	59.926540
1098.000000	59.917940
1097.000000	59.879083
1096.000000	59.864991
1095.000000	59.849760
1094.000000	59.808520
1093.000000	59.783341
1092.000000	59.730185
1091.000000	59.719927
1090.000000	59.687080
1089.000000	59.621905
1088.000000	59.600560
1087.000000	59.562532
1086.000000	59.512382
1085.000000	59.475701
1084.000000	59.424100
1083.000000	59.389181
1082.000000	59.332398
1081.000000	59.306701
1080.000000	59.260902
1079.000000	59.201633
1078.000000	59.160601
1077.000000	59.112315
1076.000000	59.082784
1075.000000	59.015848
1074.000000	58.973675
1073.000000	58.930467
1072.000000	58.901972
1071.000000	58.846744
1070.000000	58.786957
1069.000000	58.744474
1068.000000	58.701680
1067.000000	58.641478
1066.000000	58.595265
1065.000000	58.552471
1064.000000	58.502631
1063.000000	58.446678
1062.000000	58.403366
1061.000000	58.356842
1060.000000	58.295397
1059.000000	58.239443
1058.000000	58.193437
1057.000000	58.130956
1056.000000	58.065573
1055.000000	58.023298
1054.000000	57.958951
1053.000000	57.902376
1052.000000	57.863002
1051.000000	57.811918
1050.000000	57.758037
1049.000000	57.716901
1048.000000	57.681775
1047.000000	57.634215
1046.000000	57.588209
1045.000000	57.559817
1044.000000	57.548730
1043.000000	57.499201
1042.000000	57.459827
1041.000000	57.445735
1040.000000	57.418587
1039.000000	57.383875
1038.000000	57.357557
1037.000000	57.345951
1036.000000	57.312794
1035.000000	57.286890
1034.000000	57.231247
1033.000000	57.208866
1032.000000	57.183790
1031.000000	57.162549
1030.000000	57.112916
1029.000000	57.105974
1028.000000	57.066496
1027.000000	57.027121
1026.000000	56.999455
1025.000000	56.954071
1024.000000	56.915318
1023.000000	56.886409
1022.000000	56.848692
1021.000000	56.808281
1020.000000	56.781859
1019.000000	56.746318
1018.000000	56.711192
1017.000000	56.690676
1016.000000	56.683422
1015.000000	56.661145
1014.000000	56.635862
1013.000000	56.633272
1012.000000	56.620112
1011.000000	56.628505
1010.000000	56.635758
1009.000000	56.667362
1008.000000	56.669952
1007.000000	56.692748
1006.000000	56.725387
1005.000000	56.760721
1004.000000	56.782481
1003.000000	56.817192
1002.000000	56.871073
1001.000000	56.908686
1000.000000	56.942569
999.000000	56.974276
998.000000	57.025567
997.000000	57.078412
996.000000	57.139028
995.000000	57.193945
994.000000	57.245650
993.000000	57.316110
992.000000	57.397346
991.000000	57.482933
990.000000	57.546347
989.000000	57.639085
988.000000	57.747468
987.000000	57.839999
986.000000	57.943823
985.000000	58.049927
984.000000	58.153441
983.000000	58.268560
982.000000	58.390724
981.000000	58.508952
980.000000	58.623863
979.000000	58.735148
978.000000	58.859075
977.000000	58.985280
976.000000	59.118532
975.000000	59.246914
974.000000	59.366592
973.000000	59.496528
972.000000	59.626153
971.000000	59.758680
970.000000	59.880948
969.000000	60.013060
968.000000	60.157917
967.000000	60.288164
966.000000	60.436233
965.000000	60.569589
964.000000	60.721699
963.000000	60.880130
962.000000	61.025298
961.000000	61.181552
960.000000	61.356251
959.000000	61.525769
958.000000	61.693629
957.000000	61.862940
956.000000	62.032665
955.000000	62.200732
954.000000	62.372012
953.000000	62.547954
952.000000	62.728766
951.000000	62.904915
950.000000	63.069459
949.000000	63.236801
948.000000	63.418961
947.000000	63.605368
946.000000	63.781517
945.000000	63.945854
944.000000	64.120760
943.000000	64.303023
942.000000	64.468707
941.000000	64.633355
940.000000	64.817483
939.000000	64.989073
938.000000	65.149058
937.000000	65.324690
936.000000	65.506538
935.000000	65.666212
934.000000	65.847128
933.000000	66.028873
932.000000	66.189480
931.000000	66.366562
930.000000	66.545198
929.000000	66.712643
928.000000	66.878535
927.000000	67.044633
926.000000	67.215187
925.000000	67.373411
924.000000	67.534018
923.000000	67.709649
922.000000	67.881135
921.000000	68.050550
920.000000	68.215819
919.000000	68.364614
918.000000	68.509160
917.000000	68.665933
916.000000	68.820530
915.000000	68.958030
914.000000	69.107135
913.000000	69.269607
912.000000	69.412806
911.000000	69.551032
910.000000	69.703349
909.000000	69.845408
908.000000	69.992649
907.000000	70.149836
906.000000	70.314587
905.000000	70.451673
904.000000	70.611036
903.000000	70.768742
902.000000	70.938053
901.000000	71.094411
900.000000	71.258334
899.000000	71.415832
898.000000	71.572087
897.000000	71.712074
896.000000	71.832581
895.000000	71.952984
894.000000	72.069968
893.000000	72.200422
892.000000	72.270364
891.000000	72.369215
890.000000	72.464439
889.000000	72.525469
888.000000	72.605669
887.000000	72.710219
886.000000	72.798915
885.000000	72.887094
884.000000	72.967397
883.000000	73.045317
882.000000	73.123030
881.000000	73.223746
880.000000	73.285295
879.000000	73.366013
878.000000	73.415853
877.000000	73.494084
876.000000	73.502891
875.000000	73.506311
874.000000	73.497192
873.000000	73.427043
872.000000	73.403315
871.000000	73.394093
870.000000	73.462791
869.000000	73.585682
868.000000	73.746910
867.000000	73.866692
866.000000	74.021703
865.000000	74.132988
864.000000	74.263028
863.000000	74.378768
862.000000	74.518341
861.000000	74.662472
860.000000	74.771892
859.000000	74.930219
858.000000	75.055700
857.000000	74.936600
856.000000	74.865300
855.000000	75.365200
854.000000	75.153600
853.000000	75.246400
852.000000	75.683200
851.000000	75.898400
850.000000	75.502400
849.000000	75.575300
848.000000	75.887500
847.000000	76.112400
846.000000	76.386900
845.000000	75.957700
844.000000	76.176400
843.000000	76.448200
842.000000	76.502300
841.000000	76.601100
840.000000	77.300500
839.000000	77.287200
838.000000	77.546700
837.000000	77.601800
836.000000	77.746500
835.000000	78.179800
834.000000	78.092900
833.000000	78.800900
832.000000	78.957700
831.000000	79.108300
830.000000	79.372700
829.000000	79.828200
828.000000	79.940700
827.000000	80.458200
826.000000	80.793800
825.000000	81.164000
824.000000	81.419700
823.000000	81.957800
822.000000	82.465600
821.000000	82.810600
820.000000	83.256300
819.000000	83.618800
818.000000	84.138600
817.000000	84.673100
816.000000	84.983300
815.000000	85.247700
814.000000	85.767200
813.000000	86.204900
812.000000	86.792200
811.000000	87.073000
810.000000	87.526600
809.000000	87.872600
808.000000	88.210500
807.000000	88.691600
806.000000	88.880600
805.000000	89.293500
804.000000	89.790900
803.000000	90.053100
802.000000	90.185200
801.000000	90.333400
800.000000	90.836200
799.000000	91.049100
798.000000	91.433000
797.000000	91.501800
796.000000	91.766600
795.000000	91.893200
794.000000	92.081800
793.000000	92.059600
792.000000	92.185000
791.000000	92.364300
790.000000	92.486500
789.000000	92.802100
788.000000	92.916500
787.000000	92.915700
786.000000	92.902300
785.000000	93.050600
784.000000	92.949300
783.000000	93.203500
782.000000	93.458300
781.000000	93.465300
780.000000	93.631100
779.000000	93.880700
778.000000	93.859900
777.000000	93.911700
776.000000	94.097300
775.000000	94.476700
774.000000	94.393200
773.000000	94.532200
772.000000	94.635800
771.000000	94.719700
770.000000	94.977100
769.000000	94.990200
768.000000	95.189200
767.000000	95.162700
766.000000	95.220200
765.000000	95.333600
764.000000	95.471000
763.000000	95.454000
762.000000	95.375800
761.000000	95.348600
760.000000	95.283500
759.000000	95.224100
758.000000	95.125900
757.000000	95.113500
756.000000	95.142700
755.000000	95.189500
754.000000	94.921000
753.000000	94.764000
752.000000	94.749100
751.000000	94.764600
750.000000	94.586400
749.000000	94.472400
748.000000	94.412900
747.000000	94.254300
746.000000	94.100100
745.000000	94.044700
744.000000	93.827000
743.000000	93.694900
742.000000	93.613900
741.000000	93.341100
740.000000	93.128900
739.000000	92.946600
738.000000	92.615800
737.000000	92.341600
736.000000	92.101500
735.000000	91.906100
734.000000	91.587600
733.000000	91.214300
732.000000	90.870100
731.000000	90.606900
730.000000	90.272400
729.000000	89.951800
728.000000	89.564100
727.000000	89.103300
726.000000	88.744600
725.000000	88.318000
724.000000	87.943000
723.000000	87.597600
722.000000	87.201500
721.000000	86.690400
720.000000	86.255300
719.000000	85.784300
718.000000	85.370400
717.000000	85.053600
716.000000	84.752200
715.000000	84.278000
714.000000	83.978300
713.000000	83.727400
712.000000	83.369900
711.000000	83.012700
710.000000	82.748600
709.000000	82.500600
708.000000	82.360700
707.000000	82.027700
706.000000	81.882100
705.000000	81.760800
704.000000	81.603900
703.000000	81.456000
702.000000	81.312700
701.000000	81.224200
700.000000	81.200700
699.000000	81.157000
698.000000	81.061100
697.000000	80.971200
696.000000	80.935700
695.000000	80.853900
694.000000	80.754400
693.000000	80.725900
692.000000	80.647000
691.000000	80.488800
690.000000	80.302300
689.000000	80.149300
688.000000	79.999100
687.000000	79.801100
686.000000	79.536100
685.000000	79.301300
684.000000	79.027700
683.000000	78.707300
682.000000	78.356100
681.000000	77.958000
680.000000	77.607000
679.000000	77.201200
678.000000	76.675900
677.000000	76.161300
676.000000	75.617200
675.000000	75.002400
674.000000	74.350400
673.000000	73.658500
672.000000	72.961400
671.000000	72.192900
670.000000	71.384400
669.000000	70.628900
668.000000	69.873700
667.000000	69.027500
666.000000	68.097200
665.000000	67.148500
664.000000	66.224700
663.000000	65.283400
662.000000	64.300200
661.000000	63.338900
660.000000	62.351200
659.000000	61.362200
658.000000	60.421200
657.000000	59.445700
656.000000	58.452700
655.000000	57.522800
654.000000	56.641600
653.000000	55.765700
652.000000	54.892400
651.000000	54.167300
650.000000	53.559900
649.000000	53.025800
648.000000	52.625300
647.000000	52.339300
646.000000	52.181600
645.000000	52.232200
644.000000	52.431400
643.000000	52.740600
642.000000	53.193500
641.000000	53.785700
640.000000	54.532400
639.000000	55.386300
638.000000	56.363400
637.000000	57.455300
636.000000	58.619300
635.000000	59.846300
634.000000	61.098500
633.000000	62.427600
632.000000	63.796700
631.000000	65.126200
630.000000	66.445200
629.000000	67.726200
628.000000	69.000500
627.000000	70.241900
626.000000	71.387100
625.000000	72.489400
624.000000	73.593600
623.000000	74.633800
622.000000	75.658800
621.000000	76.680600
620.000000	77.644800
619.000000	78.561000
618.000000	79.461000
617.000000	80.349200
616.000000	81.191900
615.000000	82.014800
614.000000	82.793700
613.000000	83.498800
612.000000	84.186500
611.000000	84.842600
610.000000	85.439100
609.000000	85.947100
608.000000	86.379100
607.000000	86.845300
606.000000	87.172100
605.000000	87.471400
604.000000	87.824000
603.000000	88.143300
602.000000	88.394400
601.000000	88.630400
600.000000	88.907100
599.000000	89.130300
598.000000	89.306000
597.000000	89.536100
596.000000	89.711600
595.000000	89.922600
594.000000	90.089100
593.000000	90.275000
592.000000	90.435500
591.000000	90.511400
590.000000	90.650100
589.000000	90.731800
588.000000	90.750000
587.000000	90.875000
586.000000	90.859000
585.000000	90.836400
584.000000	90.808600
583.000000	90.763300
582.000000	90.767600
581.000000	90.632700
580.000000	90.558100
579.000000	90.462000
578.000000	90.270000
577.000000	90.102500
576.000000	89.913800
575.000000	89.722500
574.000000	89.491000
573.000000	89.270700
572.000000	89.023900
571.000000	88.783900
570.000000	88.516700
569.000000	88.255800
568.000000	87.979800
567.000000	87.696200
566.000000	87.374900
565.000000	87.111900
564.000000	86.768600
563.000000	86.443200
562.000000	86.094100
561.000000	85.776900
560.000000	85.450400
559.000000	85.075200
558.000000	84.663100
557.000000	84.240800
556.000000	83.800100
555.000000	83.364000
554.000000	82.884000
553.000000	82.309600
552.000000	81.743200
551.000000	81.234600
550.000000	80.641800
549.000000	80.020700
548.000000	79.356300
547.000000	78.711900
546.000000	77.995200
545.000000	77.284000
544.000000	76.502100
543.000000	75.680800
542.000000	74.841800
541.000000	73.924400
540.000000	72.978300
539.000000	72.003100
538.000000	70.953800
537.000000	69.922900
536.000000	68.833300
535.000000	67.669800
534.000000	66.456700
533.000000	65.231000
532.000000	63.959700
531.000000	62.657300
530.000000	61.358700
529.000000	60.022400
528.000000	58.699900
527.000000	57.419600
526.000000	56.109300
525.000000	54.845300
524.000000	53.565900
523.000000	52.295900
522.000000	51.067800
521.000000	49.859900
520.000000	48.726000
519.000000	47.617300
518.000000	46.536600
517.000000	45.510700
516.000000	44.531200
515.000000	43.620400
514.000000	42.736500
513.000000	41.895600
512.000000	41.076800
511.000000	40.274000
510.000000	39.585800
509.000000	38.877300
508.000000	38.246600
507.000000	37.632000
506.000000	37.012700
505.000000	36.408500
504.000000	35.810900
503.000000	35.237900
502.000000	34.633500
501.000000	34.021200
500.000000	33.427400
499.000000	32.825000
498.000000	32.248500
497.000000	31.703000
496.000000	31.117500
495.000000	30.566300
494.000000	30.051700
493.000000	29.594600
492.000000	29.113900
491.000000	28.680800
490.000000	28.261200
489.000000	27.873400
488.000000	27.572800
487.000000	27.292900
486.000000	27.037200
485.000000	26.843200
484.000000	26.666600
483.000000	26.519400
482.000000	26.447000
481.000000	26.382200
480.000000	26.321500
479.000000	26.348600
478.000000	26.362500
477.000000	26.400900
476.000000	26.459700
475.000000	26.559100
474.000000	26.654800
473.000000	26.771500
472.000000	26.871900
471.000000	27.010800
470.000000	27.108100
469.000000	27.242800
468.000000	27.328000
467.000000	27.446200
466.000000	27.538300
465.000000	27.614000
464.000000	27.686600
463.000000	27.707500
462.000000	27.774900
461.000000	27.830200
460.000000	27.814700
459.000000	27.815300
458.000000	27.803900
457.000000	27.735600
456.000000	27.698900
455.000000	27.632500
454.000000	27.561800
453.000000	27.487900
452.000000	27.363600
451.000000	27.221100
450.000000	27.084000
449.000000	26.870000
448.000000	26.709300
447.000000	26.535000
446.000000	26.324900
445.000000	26.127000
444.000000	25.901900
443.000000	25.695500
442.000000	25.395300
441.000000	25.095700
440.000000	24.805200
439.000000	24.533100
438.000000	24.225200
437.000000	23.884700
436.000000	23.524000
435.000000	23.230500
434.000000	22.872000
433.000000	22.486900
432.000000	22.106300
431.000000	21.697000
430.000000	21.333500
429.000000	20.905100
428.000000	20.483200
427.000000	20.094600
426.000000	19.664800
425.000000	19.195700
424.000000	18.761800
423.000000	18.283200
422.000000	17.844900
421.000000	17.404200
420.000000	16.936500
419.000000	16.448200
418.000000	16.003500
417.000000	15.551100
416.000000	15.105600
415.000000	14.637800
414.000000	14.193700
413.000000	13.761000
412.000000	13.345600
411.000000	12.940100
410.000000	12.543200
409.000000	12.154000
408.000000	11.780900
407.000000	11.443400
406.000000	11.125900
405.000000	10.800800
404.000000	10.489700
403.000000	10.218500
402.000000	9.938800
401.000000	9.703900
400.000000	9.484200
399.000000	9.262900
398.000000	9.079800
397.000000	8.884200
396.000000	8.701900
395.000000	8.535500
394.000000	8.417000
393.000000	8.289900
392.000000	8.154700
391.000000	8.012200
390.000000	7.896800
389.000000	7.809000
388.000000	7.703000
387.000000	7.619600
386.000000	7.560400
385.000000	7.464700
384.000000	7.379400
383.000000	7.299400
382.000000	7.253000
381.000000	7.157600
380.000000	7.081300
379.000000	7.029500
378.000000	6.978600
377.000000	6.929900
376.000000	6.877200
375.000000	6.822900
374.000000	6.847500
373.000000	6.800500
372.000000	6.667400
371.000000	6.663400
370.000000	6.648600
369.000000	6.603500
368.000000	6.593000
367.000000	6.596100
366.000000	6.517700
365.000000	6.480000
364.000000	6.516800
363.000000	6.459300
362.000000	6.366300
361.000000	6.337700
360.000000	6.332600
359.000000	6.310900
358.000000	6.161100
357.000000	6.132700
356.000000	6.177600
355.000000	6.123400
354.000000	6.042700
353.000000	5.973500
352.000000	5.929800
351.000000	5.884700
350.000000	5.857900
349.000000	5.850800
348.000000	5.947700
347.000000	5.918700
346.000000	5.857700
345.000000	5.835600
344.000000	5.835900
343.000000	5.866000
342.000000	5.795400
341.000000	5.764800
340.000000	5.812500
339.000000	5.775400
338.000000	5.835200
337.000000	5.701100
336.000000	5.662600
335.000000	5.675100
334.000000	5.548600
333.000000	5.655800
332.000000	5.752000
331.000000	5.789100
330.000000	5.709900
329.000000	5.649200
328.000000	5.690200
327.000000	5.677700
326.000000	5.736100
325.000000	5.826100
324.000000	5.688400
323.000000	5.590100
322.000000	5.594900
321.000000	5.598800
320.000000	5.668100
319.000000	5.669600
318.000000	5.611000
317.000000	5.827100
316.000000	5.806600
315.000000	5.616600
314.000000	5.586000
313.000000	5.590000
312.000000	5.631100
311.000000	5.646600
310.000000	5.597300
309.000000	5.581900
308.000000	5.595000
307.000000	5.594100
306.000000	5.615900
305.000000	5.623500
304.000000	5.622200
303.000000	5.653400
302.000000	5.657200
301.000000	5.657200
300.000000	5.644000
299.000000	5.638300
298.000000	5.675900
297.000000	5.672000
296.000000	5.661300
295.000000	5.675200
294.000000	5.670000
293.000000	5.670000
292.000000	5.700600
291.000000	5.717700
290.000000	5.691000
289.000000	5.717100
288.000000	5.710100
287.000000	5.702400
286.000000	5.743500
285.000000	5.757100
284.000000	5.736400
283.000000	5.722400
282.000000	5.741800
281.000000	5.755100
280.000000	5.779100
279.000000	5.778900
278.000000	5.767000
277.000000	5.770800
276.000000	5.805800
275.000000	5.798700
274.000000	5.785500
273.000000	5.798700
272.000000	5.814300
271.000000	5.828100
270.000000	5.846700
269.000000	5.854600
268.000000	5.889000
267.000000	5.897400
266.000000	5.905100
265.000000	5.924200
264.000000	5.991500
263.000000	5.981000
262.000000	6.018800
261.000000	6.042200
260.000000	6.065700
259.000000	6.061300
258.000000	6.099800
257.000000	6.100500
256.000000	6.140900
255.000000	6.166000
254.000000	6.174600
253.000000	6.184900
252.000000	6.197100
251.000000	6.205400
250.000000	6.210100
