PE UV       SUBTECH     SPECTRUM    ASCII       PEDS        4.00        
   -1
CICIMAUCR0248-2.Sample.ASC
24/06/24
16:58:41.00
24/06/24
16:58:41.00
Vinicio Soto Monge
C. resplendens. Sex F.Dorsal.  
250,000000
1
Lambda 1050
1050L1511233
PerkinElmer UV WinLab 6.3.2.0749 / 2.02.05 Lambda 900 UV/VIS/NIR, Aug  7 2015 09:38:08

0
0
3350/servo 860,8/2
0
0
UV/VIS
1
1
1
DoubleDePol,CommonBeamDepol,RBeamAtt,SBeamAtt,60mm sphere, WB InGaAs Detector
0
0
0
0
Program
Program
3350/servo 860,8/2
3350/0,2 860,8/0,2
3350/0,2 860,8/0,2
0
15.00
 
 
 
0
 
860,8
319,2
860,8
Front
100
on
S:100 R:100
0
0
0
0
 
0
 
 
 
0
 
 
0
0
0
0
0
 
 
 
 
0
0


0
0
#HDR
-1
-1
#GR
nm
%R
1.0
0.0
2500,000000
-1,000000
2251
8
90,889700
5,727700
#DATA
2500.000000	8.714254
2499.000000	8.494532
2498.000000	8.357750
2497.000000	8.496965
2496.000000	8.472225
2495.000000	8.345076
2494.000000	8.363428
2493.000000	8.482161
2492.000000	8.406724
2491.000000	8.386546
2490.000000	8.330678
2489.000000	8.359170
2488.000000	8.282110
2487.000000	8.251996
2486.000000	8.382389
2485.000000	8.335038
2484.000000	8.335646
2483.000000	8.301882
2482.000000	8.277547
2481.000000	8.326926
2480.000000	8.367586
2479.000000	8.303910
2478.000000	8.358359
2477.000000	8.319525
2476.000000	8.345279
2475.000000	8.346090
2474.000000	8.328853
2473.000000	8.335748
2472.000000	8.381274
2471.000000	8.356331
2470.000000	8.341933
2469.000000	8.413315
2468.000000	8.418486
2467.000000	8.393948
2466.000000	8.411388
2465.000000	8.451135
2464.000000	8.505685
2463.000000	8.493822
2462.000000	8.531946
2461.000000	8.560235
2460.000000	8.598867
2459.000000	8.631110
2458.000000	8.675419
2457.000000	8.732809
2456.000000	8.784621
2455.000000	8.840997
2454.000000	8.879324
2453.000000	8.928298
2452.000000	8.961656
2451.000000	9.033139
2450.000000	9.109490
2449.000000	9.168197
2448.000000	9.229034
2447.000000	9.291898
2446.000000	9.376563
2445.000000	9.419858
2444.000000	9.479276
2443.000000	9.582698
2442.000000	9.650531
2441.000000	9.714410
2440.000000	9.777882
2439.000000	9.849467
2438.000000	9.918821
2437.000000	9.976616
2436.000000	10.040190
2435.000000	10.094031
2434.000000	10.179506
2433.000000	10.244906
2432.000000	10.306756
2431.000000	10.341028
2430.000000	10.403487
2429.000000	10.462397
2428.000000	10.531143
2427.000000	10.585186
2426.000000	10.649369
2425.000000	10.688507
2424.000000	10.751473
2423.000000	10.792842
2422.000000	10.859864
2421.000000	10.912792
2420.000000	10.944630
2419.000000	10.983362
2418.000000	11.000397
2417.000000	11.065796
2416.000000	11.119028
2415.000000	11.155936
2414.000000	11.191018
2413.000000	11.217989
2412.000000	11.261285
2411.000000	11.305696
2410.000000	11.334593
2409.000000	11.365620
2408.000000	11.411856
2407.000000	11.436292
2406.000000	11.479385
2405.000000	11.514670
2404.000000	11.546710
2403.000000	11.570944
2402.000000	11.608054
2401.000000	11.641819
2400.000000	11.658143
2399.000000	11.689474
2398.000000	11.718574
2397.000000	11.738346
2396.000000	11.756597
2395.000000	11.780628
2394.000000	11.817434
2393.000000	11.843695
2392.000000	11.870666
2391.000000	11.889323
2390.000000	11.905039
2389.000000	11.919842
2388.000000	11.949855
2387.000000	11.963949
2386.000000	11.974900
2385.000000	11.987878
2384.000000	11.999437
2383.000000	12.002580
2382.000000	12.010692
2381.000000	12.012112
2380.000000	12.017283
2379.000000	12.030667
2378.000000	12.022961
2377.000000	12.010591
2376.000000	12.006738
2375.000000	12.012618
2374.000000	12.007447
2373.000000	11.990007
2372.000000	11.984127
2371.000000	11.968613
2370.000000	11.955128
2369.000000	11.955128
2368.000000	11.933328
2367.000000	11.910007
2366.000000	11.895711
2365.000000	11.882225
2364.000000	11.861743
2363.000000	11.830818
2362.000000	11.800400
2361.000000	11.762681
2360.000000	11.730235
2359.000000	11.708638
2358.000000	11.672237
2357.000000	11.635431
2356.000000	11.603897
2355.000000	11.571349
2354.000000	11.551070
2353.000000	11.537585
2352.000000	11.524404
2351.000000	11.517205
2350.000000	11.517509
2349.000000	11.510208
2348.000000	11.517205
2347.000000	11.526634
2346.000000	11.546102
2345.000000	11.580678
2344.000000	11.618194
2343.000000	11.658650
2342.000000	11.677915
2341.000000	11.697788
2340.000000	11.724252
2339.000000	11.742909
2338.000000	11.771908
2337.000000	11.785799
2336.000000	11.798879
2335.000000	11.807092
2334.000000	11.809018
2333.000000	11.805774
2332.000000	11.802225
2331.000000	11.781236
2330.000000	11.770285
2329.000000	11.748587
2328.000000	11.716749
2327.000000	11.697788
2326.000000	11.648105
2325.000000	11.606026
2324.000000	11.579664
2323.000000	11.537484
2322.000000	11.470462
2321.000000	11.389448
2320.000000	11.328002
2319.000000	11.256215
2318.000000	11.162324
2317.000000	11.088711
2316.000000	11.011550
2315.000000	10.916341
2314.000000	10.833197
2313.000000	10.741942
2312.000000	10.648558
2311.000000	10.579812
2310.000000	10.490483
2309.000000	10.425287
2308.000000	10.368303
2307.000000	10.326326
2306.000000	10.311725
2305.000000	10.272789
2304.000000	10.258695
2303.000000	10.275223
2302.000000	10.314868
2301.000000	10.332916
2300.000000	10.362929
2299.000000	10.436643
2298.000000	10.491497
2297.000000	10.543107
2296.000000	10.615402
2295.000000	10.683234
2294.000000	10.735554
2293.000000	10.803894
2292.000000	10.873552
2291.000000	10.941081
2290.000000	11.001411
2289.000000	11.021791
2288.000000	11.062653
2287.000000	11.097634
2286.000000	11.090536
2285.000000	11.102602
2284.000000	11.101994
2283.000000	11.096721
2282.000000	11.083946
2281.000000	11.071474
2280.000000	11.042678
2279.000000	11.001106
2278.000000	10.981537
2277.000000	10.947164
2276.000000	10.903261
2275.000000	10.892918
2274.000000	10.872234
2273.000000	10.860878
2272.000000	10.819103
2271.000000	10.826404
2270.000000	10.839281
2269.000000	10.842525
2268.000000	10.870612
2267.000000	10.937532
2266.000000	10.993806
2265.000000	11.064275
2264.000000	11.162527
2263.000000	11.275379
2262.000000	11.409219
2261.000000	11.545899
2260.000000	11.695051
2259.000000	11.874114
2258.000000	12.067067
2257.000000	12.257486
2256.000000	12.441010
2255.000000	12.667425
2254.000000	12.853281
2253.000000	13.057185
2252.000000	13.250139
2251.000000	13.468036
2250.000000	13.650445
2249.000000	13.825959
2248.000000	13.999039
2247.000000	14.177494
2246.000000	14.334452
2245.000000	14.466367
2244.000000	14.582768
2243.000000	14.692882
2242.000000	14.832300
2241.000000	14.927408
2240.000000	14.990577
2239.000000	15.073821
2238.000000	15.172073
2237.000000	15.248626
2236.000000	15.303784
2235.000000	15.361174
2234.000000	15.395648
2233.000000	15.415318
2232.000000	15.487511
2231.000000	15.469970
2230.000000	15.519349
2229.000000	15.519653
2228.000000	15.539527
2227.000000	15.506573
2226.000000	15.520059
2225.000000	15.502416
2224.000000	15.496840
2223.000000	15.451009
2222.000000	15.410654
2221.000000	15.379323
2220.000000	15.338461
2219.000000	15.315952
2218.000000	15.283100
2217.000000	15.223176
2216.000000	15.182009
2215.000000	15.122288
2214.000000	15.088422
2213.000000	15.080716
2212.000000	15.038739
2211.000000	14.961882
2210.000000	14.939879
2209.000000	14.923352
2208.000000	14.877826
2207.000000	14.838181
2206.000000	14.777344
2205.000000	14.778966
2204.000000	14.761628
2203.000000	14.725835
2202.000000	14.714175
2201.000000	14.692172
2200.000000	14.651615
2199.000000	14.632147
2198.000000	14.616228
2197.000000	14.606088
2196.000000	14.587939
2195.000000	14.582463
2194.000000	14.546773
2193.000000	14.531462
2192.000000	14.511386
2191.000000	14.471741
2190.000000	14.466063
2189.000000	14.472653
2188.000000	14.445479
2187.000000	14.423274
2186.000000	14.422361
2185.000000	14.411208
2184.000000	14.383122
2183.000000	14.349864
2182.000000	14.345809
2181.000000	14.349560
2180.000000	14.315289
2179.000000	14.285377
2178.000000	14.274934
2177.000000	14.291360
2176.000000	14.270777
2175.000000	14.255466
2174.000000	14.283755
2173.000000	14.276252
2172.000000	14.289636
2171.000000	14.296328
2170.000000	14.310929
2169.000000	14.312754
2168.000000	14.336379
2167.000000	14.336683
2166.000000	14.371461
2165.000000	14.396404
2164.000000	14.428344
2163.000000	14.453185
2162.000000	14.462615
2161.000000	14.515746
2160.000000	14.558129
2159.000000	14.592400
2158.000000	14.633262
2157.000000	14.665404
2156.000000	14.726849
2155.000000	14.790525
2154.000000	14.833415
2153.000000	14.881882
2152.000000	14.932883
2151.000000	14.992706
2150.000000	15.054962
2149.000000	15.118232
2148.000000	15.173999
2147.000000	15.230172
2146.000000	15.274380
2145.000000	15.318689
2144.000000	15.388145
2143.000000	15.442695
2142.000000	15.491770
2141.000000	15.554736
2140.000000	15.605028
2139.000000	15.646904
2138.000000	15.686650
2137.000000	15.732886
2136.000000	15.767360
2135.000000	15.805485
2134.000000	15.853748
2133.000000	15.885383
2132.000000	15.908197
2131.000000	15.928578
2130.000000	15.962950
2129.000000	15.980492
2128.000000	15.999554
2127.000000	16.009085
2126.000000	16.037070
2125.000000	16.044167
2124.000000	16.057450
2123.000000	16.060999
2122.000000	16.068299
2121.000000	16.073977
2120.000000	16.075194
2119.000000	16.072761
2118.000000	16.048223
2117.000000	16.038489
2116.000000	16.026423
2115.000000	16.015270
2114.000000	15.993065
2113.000000	15.965384
2112.000000	15.958996
2111.000000	15.936993
2110.000000	15.901201
2109.000000	15.873318
2108.000000	15.867437
2107.000000	15.854458
2106.000000	15.812582
2105.000000	15.788856
2104.000000	15.778919
2103.000000	15.757221
2102.000000	15.733596
2101.000000	15.703786
2100.000000	15.680364
2099.000000	15.656840
2098.000000	15.639299
2097.000000	15.621453
2096.000000	15.594787
2095.000000	15.577043
2094.000000	15.554127
2093.000000	15.535572
2092.000000	15.528677
2091.000000	15.517727
2090.000000	15.510021
2089.000000	15.511136
2088.000000	15.503633
2087.000000	15.481326
2086.000000	15.452327
2085.000000	15.425154
2084.000000	15.416129
2083.000000	15.398487
2082.000000	15.350324
2081.000000	15.314329
2080.000000	15.284519
2079.000000	15.246598
2078.000000	15.217193
2077.000000	15.178359
2076.000000	15.133137
2075.000000	15.083657
2074.000000	15.019880
2073.000000	14.950931
2072.000000	14.905912
2071.000000	14.843554
2070.000000	14.760107
2069.000000	14.701095
2068.000000	14.641881
2067.000000	14.579422
2066.000000	14.502463
2065.000000	14.432400
2064.000000	14.351284
2063.000000	14.263780
2062.000000	14.195136
2061.000000	14.133286
2060.000000	14.068089
2059.000000	14.003298
2058.000000	13.939014
2057.000000	13.879799
2056.000000	13.839748
2055.000000	13.788747
2054.000000	13.747175
2053.000000	13.732372
2052.000000	13.734906
2051.000000	13.733690
2050.000000	13.733081
2049.000000	13.740787
2048.000000	13.788747
2047.000000	13.852118
2046.000000	13.898456
2045.000000	13.958786
2044.000000	14.026112
2043.000000	14.093742
2042.000000	14.159243
2041.000000	14.239344
2040.000000	14.320054
2039.000000	14.390017
2038.000000	14.475695
2037.000000	14.534707
2036.000000	14.599701
2035.000000	14.674428
2034.000000	14.726849
2033.000000	14.762844
2032.000000	14.809486
2031.000000	14.851058
2030.000000	14.881882
2029.000000	14.908346
2028.000000	14.934303
2027.000000	14.945862
2026.000000	14.979423
2025.000000	14.993720
2024.000000	15.009740
2023.000000	15.005684
2022.000000	15.010450
2021.000000	15.007611
2020.000000	15.011058
2019.000000	14.996052
2018.000000	14.987433
2017.000000	14.965735
2016.000000	14.956204
2015.000000	14.942516
2014.000000	14.921932
2013.000000	14.905709
2012.000000	14.869309
2011.000000	14.822971
2010.000000	14.825912
2009.000000	14.804416
2008.000000	14.761323
2007.000000	14.740639
2006.000000	14.696330
2005.000000	14.672096
2004.000000	14.618256
2003.000000	14.573744
2002.000000	14.520917
2001.000000	14.490093
2000.000000	14.418103
1999.000000	14.366594
1998.000000	14.301398
1997.000000	14.242792
1996.000000	14.170802
1995.000000	14.121220
1994.000000	14.033108
1993.000000	13.949761
1992.000000	13.893589
1991.000000	13.796047
1990.000000	13.717467
1989.000000	13.656123
1988.000000	13.571661
1987.000000	13.486794
1986.000000	13.394221
1985.000000	13.322231
1984.000000	13.239087
1983.000000	13.143675
1982.000000	13.079695
1981.000000	12.977895
1980.000000	12.898807
1979.000000	12.822457
1978.000000	12.743876
1977.000000	12.660428
1976.000000	12.565422
1975.000000	12.491911
1974.000000	12.396194
1973.000000	12.319743
1972.000000	12.247955
1971.000000	12.172923
1970.000000	12.077004
1969.000000	12.010692
1968.000000	11.953404
1967.000000	11.873708
1966.000000	11.811857
1965.000000	11.733074
1964.000000	11.670108
1963.000000	11.610893
1962.000000	11.551577
1961.000000	11.476140
1960.000000	11.437914
1959.000000	11.359536
1958.000000	11.274973
1957.000000	11.232489
1956.000000	11.168002
1955.000000	11.097431
1954.000000	11.056366
1953.000000	10.988939
1952.000000	10.964402
1951.000000	10.885314
1950.000000	10.870105
1949.000000	10.824477
1948.000000	10.753602
1947.000000	10.702094
1946.000000	10.687696
1945.000000	10.655148
1944.000000	10.622499
1943.000000	10.586707
1942.000000	10.545135
1941.000000	10.543513
1940.000000	10.526377
1939.000000	10.516542
1938.000000	10.533272
1937.000000	10.536314
1936.000000	10.572005
1935.000000	10.564197
1934.000000	10.560851
1933.000000	10.573728
1932.000000	10.613779
1931.000000	10.656264
1930.000000	10.665490
1929.000000	10.736872
1928.000000	10.813324
1927.000000	10.907418
1926.000000	10.972919
1925.000000	11.059408
1924.000000	11.123490
1923.000000	11.176012
1922.000000	11.293123
1921.000000	11.425544
1920.000000	11.563035
1919.000000	11.721211
1918.000000	11.820476
1917.000000	11.983011
1916.000000	12.091199
1915.000000	12.218855
1914.000000	12.352392
1913.000000	12.574851
1912.000000	12.831988
1911.000000	13.035385
1910.000000	13.202686
1909.000000	13.364106
1908.000000	13.506870
1907.000000	13.716453
1906.000000	13.964159
1905.000000	14.264490
1904.000000	14.603047
1903.000000	14.871844
1902.000000	15.135571
1901.000000	15.425965
1900.000000	15.728323
1899.000000	16.109668
1898.000000	16.519302
1897.000000	16.875704
1896.000000	17.203209
1895.000000	17.520776
1894.000000	17.838243
1893.000000	18.208941
1892.000000	18.620299
1891.000000	19.129502
1890.000000	19.666792
1889.000000	20.135640
1888.000000	20.631663
1887.000000	21.076379
1886.000000	21.545532
1885.000000	22.028677
1884.000000	22.574078
1883.000000	23.147768
1882.000000	23.682625
1881.000000	24.206023
1880.000000	24.695962
1879.000000	25.155583
1878.000000	25.611859
1877.000000	26.076145
1876.000000	26.507274
1875.000000	26.946921
1874.000000	27.368215
1873.000000	27.767913
1872.000000	28.181298
1871.000000	28.556053
1870.000000	28.910122
1869.000000	29.212988
1868.000000	29.536031
1867.000000	29.778060
1866.000000	29.969290
1865.000000	30.130507
1864.000000	30.305818
1863.000000	30.448886
1862.000000	30.605946
1861.000000	30.779432
1860.000000	30.930713
1859.000000	31.086658
1858.000000	31.208534
1857.000000	31.316418
1856.000000	31.402908
1855.000000	31.457255
1854.000000	31.548105
1853.000000	31.611578
1852.000000	31.658625
1851.000000	31.696850
1850.000000	31.730716
1849.000000	31.779386
1848.000000	31.813353
1847.000000	31.832313
1846.000000	31.818220
1845.000000	31.770057
1844.000000	31.766306
1843.000000	31.756775
1842.000000	31.800780
1841.000000	31.823898
1840.000000	31.816090
1839.000000	31.783948
1838.000000	31.767320
1837.000000	31.752922
1836.000000	31.718143
1835.000000	31.688232
1834.000000	31.648789
1833.000000	31.594746
1832.000000	31.544961
1831.000000	31.534011
1830.000000	31.505924
1829.000000	31.458877
1828.000000	31.422375
1827.000000	31.370259
1826.000000	31.306684
1825.000000	31.267140
1824.000000	31.231449
1823.000000	31.209041
1822.000000	31.199713
1821.000000	31.211170
1820.000000	31.202755
1819.000000	31.183895
1818.000000	31.131474
1817.000000	31.089801
1816.000000	31.079459
1815.000000	31.081284
1814.000000	31.059890
1813.000000	31.038800
1812.000000	31.029066
1811.000000	31.022272
1810.000000	30.996822
1809.000000	30.937304
1808.000000	30.909927
1807.000000	30.891676
1806.000000	30.864502
1805.000000	30.829420
1804.000000	30.786327
1803.000000	30.761587
1802.000000	30.726403
1801.000000	30.687468
1800.000000	30.644578
1799.000000	30.590737
1798.000000	30.559001
1797.000000	30.526250
1796.000000	30.498468
1795.000000	30.487011
1794.000000	30.447162
1793.000000	30.405793
1792.000000	30.372333
1791.000000	30.332891
1790.000000	30.294259
1789.000000	30.266579
1788.000000	30.233423
1787.000000	30.201686
1786.000000	30.180596
1785.000000	30.140850
1784.000000	30.100292
1783.000000	30.061863
1782.000000	30.019582
1781.000000	29.966248
1780.000000	29.914233
1779.000000	29.879556
1778.000000	29.830684
1777.000000	29.764879
1776.000000	29.706982
1775.000000	29.645740
1774.000000	29.588959
1773.000000	29.515042
1772.000000	29.439503
1771.000000	29.348552
1770.000000	29.262570
1769.000000	29.173039
1768.000000	29.073165
1767.000000	28.994280
1766.000000	28.913874
1765.000000	28.848677
1764.000000	28.800819
1763.000000	28.764621
1762.000000	28.761478
1761.000000	28.773848
1760.000000	28.794330
1759.000000	28.851516
1758.000000	28.893595
1757.000000	28.932531
1756.000000	28.999958
1755.000000	29.051264
1754.000000	29.101555
1753.000000	29.151340
1752.000000	29.201125
1751.000000	29.229008
1750.000000	29.240466
1749.000000	29.256283
1748.000000	29.231746
1747.000000	29.213394
1746.000000	29.175168
1745.000000	29.115751
1744.000000	29.043760
1743.000000	28.943887
1742.000000	28.846751
1741.000000	28.727612
1740.000000	28.592453
1739.000000	28.415824
1738.000000	28.252984
1737.000000	28.089334
1736.000000	27.912907
1735.000000	27.754630
1734.000000	27.623020
1733.000000	27.519192
1732.000000	27.465960
1731.000000	27.414958
1730.000000	27.411916
1729.000000	27.425402
1728.000000	27.469306
1727.000000	27.532982
1726.000000	27.574959
1725.000000	27.629712
1724.000000	27.694604
1723.000000	27.746012
1722.000000	27.799852
1721.000000	27.885125
1720.000000	27.962286
1719.000000	28.054251
1718.000000	28.154632
1717.000000	28.255722
1716.000000	28.384392
1715.000000	28.509006
1714.000000	28.634228
1713.000000	28.771009
1712.000000	28.872404
1711.000000	28.967005
1710.000000	29.040110
1709.000000	29.112912
1708.000000	29.187538
1707.000000	29.207006
1706.000000	29.231239
1705.000000	29.243406
1704.000000	29.245738
1703.000000	29.237830
1702.000000	29.199705
1701.000000	29.149211
1700.000000	29.090706
1699.000000	28.996815
1698.000000	28.919755
1697.000000	28.828297
1696.000000	28.768576
1695.000000	28.696890
1694.000000	28.659982
1693.000000	28.663632
1692.000000	28.678030
1691.000000	28.724570
1690.000000	28.799907
1689.000000	28.867233
1688.000000	28.955851
1687.000000	29.008374
1686.000000	29.062417
1685.000000	29.145561
1684.000000	29.210859
1683.000000	29.347133
1682.000000	29.501658
1681.000000	29.693193
1680.000000	29.963409
1679.000000	30.269621
1678.000000	30.598443
1677.000000	30.950992
1676.000000	31.230537
1675.000000	31.545063
1674.000000	31.815279
1673.000000	32.050109
1672.000000	32.282404
1671.000000	32.458628
1670.000000	32.652190
1669.000000	32.805803
1668.000000	32.966209
1667.000000	33.062939
1666.000000	33.182788
1665.000000	33.296045
1664.000000	33.372294
1663.000000	33.478353
1662.000000	33.571433
1661.000000	33.612700
1660.000000	33.711155
1659.000000	33.753943
1658.000000	33.822891
1657.000000	33.833538
1656.000000	33.872068
1655.000000	33.900357
1654.000000	33.901878
1653.000000	33.916986
1652.000000	33.937163
1651.000000	33.926415
1650.000000	33.910192
1649.000000	33.910395
1648.000000	33.875008
1647.000000	33.843474
1646.000000	33.828468
1645.000000	33.797137
1644.000000	33.759621
1643.000000	33.729304
1642.000000	33.693309
1641.000000	33.666135
1640.000000	33.600229
1639.000000	33.569405
1638.000000	33.536655
1637.000000	33.474196
1636.000000	33.435260
1635.000000	33.365501
1634.000000	33.318960
1633.000000	33.267655
1632.000000	33.210671
1631.000000	33.134220
1630.000000	33.093053
1629.000000	33.017616
1628.000000	32.941975
1627.000000	32.871810
1626.000000	32.799820
1625.000000	32.726918
1624.000000	32.637183
1623.000000	32.581619
1622.000000	32.517842
1621.000000	32.447778
1620.000000	32.377005
1619.000000	32.305420
1618.000000	32.244584
1617.000000	32.170262
1616.000000	32.101820
1615.000000	32.033176
1614.000000	31.962301
1613.000000	31.882200
1612.000000	31.830387
1611.000000	31.767320
1610.000000	31.684176
1609.000000	31.604784
1608.000000	31.541615
1607.000000	31.453402
1606.000000	31.386989
1605.000000	31.314289
1604.000000	31.231044
1603.000000	31.143337
1602.000000	31.076620
1601.000000	30.981208
1600.000000	30.910029
1599.000000	30.826378
1598.000000	30.744046
1597.000000	30.677531
1596.000000	30.597125
1595.000000	30.541054
1594.000000	30.466833
1593.000000	30.383284
1592.000000	30.338974
1591.000000	30.272257
1590.000000	30.197124
1589.000000	30.132028
1588.000000	30.061255
1587.000000	30.005589
1586.000000	29.935323
1585.000000	29.859074
1584.000000	29.810405
1583.000000	29.760823
1582.000000	29.671089
1581.000000	29.626069
1580.000000	29.572026
1579.000000	29.504903
1578.000000	29.459478
1577.000000	29.409693
1576.000000	29.361227
1575.000000	29.315396
1574.000000	29.284573
1573.000000	29.241987
1572.000000	29.228806
1571.000000	29.207614
1570.000000	29.170199
1569.000000	29.148298
1568.000000	29.136536
1567.000000	29.126600
1566.000000	29.110377
1565.000000	29.089591
1564.000000	29.074179
1563.000000	29.054305
1562.000000	29.030072
1561.000000	29.017499
1560.000000	29.004521
1559.000000	28.984343
1558.000000	28.945408
1557.000000	28.918335
1556.000000	28.892683
1555.000000	28.853240
1554.000000	28.803050
1553.000000	28.761275
1552.000000	28.706421
1551.000000	28.648829
1550.000000	28.603505
1549.000000	28.551490
1548.000000	28.491059
1547.000000	28.435393
1546.000000	28.384594
1545.000000	28.318181
1544.000000	28.257648
1543.000000	28.205633
1542.000000	28.160208
1541.000000	28.112451
1540.000000	28.071387
1539.000000	28.037521
1538.000000	27.997166
1537.000000	27.965024
1536.000000	27.918686
1535.000000	27.866265
1534.000000	27.820131
1533.000000	27.798737
1532.000000	27.769028
1531.000000	27.704744
1530.000000	27.651410
1529.000000	27.609230
1528.000000	27.559040
1527.000000	27.515643
1526.000000	27.459369
1525.000000	27.396809
1524.000000	27.336986
1523.000000	27.279394
1522.000000	27.223424
1521.000000	27.157720
1520.000000	27.090293
1519.000000	27.034019
1518.000000	26.965375
1517.000000	26.886693
1516.000000	26.826464
1515.000000	26.757212
1514.000000	26.682991
1513.000000	26.608770
1512.000000	26.529378
1511.000000	26.454650
1510.000000	26.382356
1509.000000	26.306817
1508.000000	26.236145
1507.000000	26.154624
1506.000000	26.078781
1505.000000	26.003952
1504.000000	25.913609
1503.000000	25.839997
1502.000000	25.768311
1501.000000	25.693989
1500.000000	25.621897
1499.000000	25.555889
1498.000000	25.488056
1497.000000	25.410692
1496.000000	25.350464
1495.000000	25.298753
1494.000000	25.233150
1493.000000	25.166534
1492.000000	25.108536
1491.000000	25.057940
1490.000000	24.998422
1489.000000	24.955431
1488.000000	24.918624
1487.000000	24.865392
1486.000000	24.817027
1485.000000	24.765316
1484.000000	24.720094
1483.000000	24.671120
1482.000000	24.641614
1481.000000	24.602071
1480.000000	24.565771
1479.000000	24.543059
1478.000000	24.525619
1477.000000	24.493274
1476.000000	24.466202
1475.000000	24.454542
1474.000000	24.453629
1473.000000	24.447647
1472.000000	24.450993
1471.000000	24.455150
1470.000000	24.471779
1469.000000	24.473502
1468.000000	24.468940
1467.000000	24.463160
1466.000000	24.478268
1465.000000	24.496924
1464.000000	24.497634
1463.000000	24.520651
1462.000000	24.542045
1461.000000	24.577432
1460.000000	24.611297
1459.000000	24.641817
1458.000000	24.684403
1457.000000	24.746761
1456.000000	24.799689
1455.000000	24.854137
1454.000000	24.919436
1453.000000	24.988384
1452.000000	25.062503
1451.000000	25.127599
1450.000000	25.213378
1449.000000	25.287092
1448.000000	25.342859
1447.000000	25.402885
1446.000000	25.514520
1445.000000	25.614901
1444.000000	25.690034
1443.000000	25.763545
1442.000000	25.863013
1441.000000	25.966638
1440.000000	26.049174
1439.000000	26.164459
1438.000000	26.263623
1437.000000	26.379112
1436.000000	26.497439
1435.000000	26.612319
1434.000000	26.736223
1433.000000	26.876452
1432.000000	27.009380
1431.000000	27.149507
1430.000000	27.282841
1429.000000	27.411916
1428.000000	27.606493
1427.000000	27.766392
1426.000000	27.914428
1425.000000	28.089942
1424.000000	28.299727
1423.000000	28.518030
1422.000000	28.701351
1421.000000	28.919147
1420.000000	29.143026
1419.000000	29.406956
1418.000000	29.632559
1417.000000	29.879454
1416.000000	30.085589
1415.000000	30.366250
1414.000000	30.691523
1413.000000	30.982222
1412.000000	31.261969
1411.000000	31.550741
1410.000000	31.868511
1409.000000	32.238196
1408.000000	32.616499
1407.000000	32.976652
1406.000000	33.316020
1405.000000	33.721497
1404.000000	34.095541
1403.000000	34.458027
1402.000000	34.833085
1401.000000	35.260463
1400.000000	35.712278
1399.000000	36.098084
1398.000000	36.420924
1397.000000	36.728859
1396.000000	37.117302
1395.000000	37.539509
1394.000000	37.922476
1393.000000	38.218954
1392.000000	38.569475
1391.000000	38.974952
1390.000000	39.369681
1389.000000	39.747781
1388.000000	40.230013
1387.000000	40.686999
1386.000000	41.140435
1385.000000	41.590018
1384.000000	42.119095
1383.000000	42.583685
1382.000000	43.052128
1381.000000	43.456794
1380.000000	43.812384
1379.000000	44.072157
1378.000000	44.314794
1377.000000	44.535632
1376.000000	44.745417
1375.000000	44.942325
1374.000000	45.140653
1373.000000	45.372441
1372.000000	45.605040
1371.000000	45.862278
1370.000000	46.115460
1369.000000	46.343395
1368.000000	46.588162
1367.000000	46.796426
1366.000000	46.999519
1365.000000	47.170065
1364.000000	47.349635
1363.000000	47.485605
1362.000000	47.679268
1361.000000	47.798103
1360.000000	47.898483
1359.000000	47.912273
1358.000000	48.054327
1357.000000	48.149739
1356.000000	48.286723
1355.000000	48.462846
1354.000000	48.655698
1353.000000	48.871263
1352.000000	49.080845
1351.000000	49.408755
1350.000000	49.719732
1349.000000	50.034867
1348.000000	50.316034
1347.000000	50.608760
1346.000000	50.854236
1345.000000	51.114516
1344.000000	51.382907
1343.000000	51.646939
1342.000000	51.857130
1341.000000	52.109095
1340.000000	52.353760
1339.000000	52.601670
1338.000000	52.826259
1337.000000	53.068288
1336.000000	53.316400
1335.000000	53.532066
1334.000000	53.751180
1333.000000	53.970496
1332.000000	54.187278
1331.000000	54.391487
1330.000000	54.585556
1329.000000	54.799904
1328.000000	54.984848
1327.000000	55.173239
1326.000000	55.337396
1325.000000	55.515952
1324.000000	55.679907
1323.000000	55.857449
1322.000000	56.006296
1321.000000	56.153116
1320.000000	56.314434
1319.000000	56.465309
1318.000000	56.592864
1317.000000	56.726806
1316.000000	56.849899
1315.000000	56.971775
1314.000000	57.110686
1313.000000	57.238341
1312.000000	57.331726
1311.000000	57.432208
1310.000000	57.532284
1309.000000	57.634186
1308.000000	57.742272
1307.000000	57.835048
1306.000000	57.900144
1305.000000	57.962704
1304.000000	58.032666
1303.000000	58.116723
1302.000000	58.172185
1301.000000	58.230893
1300.000000	58.272465
1299.000000	58.310285
1298.000000	58.342832
1297.000000	58.387547
1296.000000	58.424151
1295.000000	58.441286
1294.000000	58.461464
1293.000000	58.476876
1292.000000	58.495837
1291.000000	58.503239
1290.000000	58.511046
1289.000000	58.521490
1288.000000	58.522808
1287.000000	58.508714
1286.000000	58.492491
1285.000000	58.480425
1284.000000	58.449094
1283.000000	58.430843
1282.000000	58.397484
1281.000000	58.376597
1280.000000	58.348004
1279.000000	58.324379
1278.000000	58.292135
1277.000000	58.266482
1276.000000	58.244784
1275.000000	58.220551
1274.000000	58.196013
1273.000000	58.173301
1272.000000	58.151501
1271.000000	58.134467
1270.000000	58.115506
1269.000000	58.098674
1268.000000	58.089245
1267.000000	58.071906
1266.000000	58.068560
1265.000000	58.046963
1264.000000	58.020803
1263.000000	58.002248
1262.000000	57.976190
1261.000000	57.942527
1260.000000	57.908762
1259.000000	57.883819
1258.000000	57.865264
1257.000000	57.844275
1256.000000	57.814060
1255.000000	57.777254
1254.000000	57.758800
1253.000000	57.720270
1252.000000	57.661664
1251.000000	57.601638
1250.000000	57.557430
1249.000000	57.504198
1248.000000	57.436365
1247.000000	57.378469
1246.000000	57.292790
1245.000000	57.215528
1244.000000	57.145464
1243.000000	57.041535
1242.000000	56.943182
1241.000000	56.861052
1240.000000	56.776996
1239.000000	56.687769
1238.000000	56.593472
1237.000000	56.492787
1236.000000	56.396767
1235.000000	56.302470
1234.000000	56.207666
1233.000000	56.107691
1232.000000	56.000517
1231.000000	55.894052
1230.000000	55.778361
1229.000000	55.660541
1228.000000	55.554584
1227.000000	55.437878
1226.000000	55.310527
1225.000000	55.193112
1224.000000	55.080361
1223.000000	54.961932
1222.000000	54.849384
1221.000000	54.732781
1220.000000	54.611513
1219.000000	54.490752
1218.000000	54.378914
1217.000000	54.280054
1216.000000	54.176733
1215.000000	54.060940
1214.000000	53.960661
1213.000000	53.866871
1212.000000	53.762840
1211.000000	53.686896
1210.000000	53.603955
1209.000000	53.508340
1208.000000	53.424791
1207.000000	53.339417
1206.000000	53.253130
1205.000000	53.190367
1204.000000	53.141393
1203.000000	53.088668
1202.000000	53.034219
1201.000000	52.983218
1200.000000	52.951278
1199.000000	52.910315
1198.000000	52.854041
1197.000000	52.789047
1196.000000	52.704788
1195.000000	52.606233
1194.000000	52.489122
1193.000000	52.333380
1192.000000	52.150363
1191.000000	51.955077
1190.000000	51.735558
1189.000000	51.511273
1188.000000	51.304124
1187.000000	51.136519
1186.000000	51.018090
1185.000000	50.952285
1184.000000	50.964249
1183.000000	51.044351
1182.000000	51.193908
1181.000000	51.408966
1180.000000	51.653631
1179.000000	51.927193
1178.000000	52.208462
1177.000000	52.461948
1176.000000	52.703166
1175.000000	52.916906
1174.000000	53.110468
1173.000000	53.304436
1172.000000	53.480355
1171.000000	53.666718
1170.000000	53.865452
1169.000000	54.063577
1168.000000	54.268394
1167.000000	54.472298
1166.000000	54.703680
1165.000000	54.931717
1164.000000	55.159855
1163.000000	55.391338
1162.000000	55.643709
1161.000000	55.903888
1160.000000	56.151392
1159.000000	56.403459
1158.000000	56.653802
1157.000000	56.890558
1156.000000	57.120318
1155.000000	57.345110
1154.000000	57.546885
1153.000000	57.728179
1152.000000	57.888585
1151.000000	58.027191
1150.000000	58.159815
1149.000000	58.284531
1148.000000	58.402047
1147.000000	58.533860
1146.000000	58.667092
1145.000000	58.829121
1144.000000	59.001593
1143.000000	59.199008
1142.000000	59.430188
1141.000000	59.686817
1140.000000	59.974778
1139.000000	60.240127
1138.000000	60.537619
1137.000000	60.869787
1136.000000	61.194554
1135.000000	61.564239
1134.000000	61.887789
1133.000000	62.185686
1132.000000	62.442214
1131.000000	62.733419
1130.000000	63.008401
1129.000000	63.228935
1128.000000	63.433650
1127.000000	63.615349
1126.000000	63.732663
1125.000000	63.865895
1124.000000	63.962727
1123.000000	64.060573
1122.000000	64.138241
1121.000000	64.208710
1120.000000	64.270966
1119.000000	64.297532
1118.000000	64.338191
1117.000000	64.369522
1116.000000	64.373274
1115.000000	64.412006
1114.000000	64.412716
1113.000000	64.437558
1112.000000	64.444452
1111.000000	64.460676
1110.000000	64.473350
1109.000000	64.468382
1108.000000	64.482881
1107.000000	64.475378
1106.000000	64.508534
1105.000000	64.509041
1104.000000	64.515733
1103.000000	64.545340
1102.000000	64.558521
1101.000000	64.563591
1100.000000	64.568357
1099.000000	64.570892
1098.000000	64.592894
1097.000000	64.586608
1096.000000	64.580930
1095.000000	64.598167
1094.000000	64.594719
1093.000000	64.593097
1092.000000	64.593705
1091.000000	64.611551
1090.000000	64.569878
1089.000000	64.574440
1088.000000	64.578800
1087.000000	64.565619
1086.000000	64.559028
1085.000000	64.537026
1084.000000	64.525163
1083.000000	64.529928
1082.000000	64.501639
1081.000000	64.481056
1080.000000	64.454186
1079.000000	64.448103
1078.000000	64.433096
1077.000000	64.423058
1076.000000	64.396696
1075.000000	64.391626
1074.000000	64.366987
1073.000000	64.355834
1072.000000	64.336873
1071.000000	64.315377
1070.000000	64.279281
1069.000000	64.273400
1068.000000	64.276340
1067.000000	64.281207
1066.000000	64.241055
1065.000000	64.231220
1064.000000	64.215098
1063.000000	64.208913
1062.000000	64.213881
1061.000000	64.201004
1060.000000	64.175960
1059.000000	64.188026
1058.000000	64.183362
1057.000000	64.184578
1056.000000	64.170282
1055.000000	64.186403
1054.000000	64.170383
1053.000000	64.182652
1052.000000	64.191980
1051.000000	64.202626
1050.000000	64.195123
1049.000000	64.230814
1048.000000	64.240447
1047.000000	64.256670
1046.000000	64.283844
1045.000000	64.307874
1044.000000	64.329674
1043.000000	64.356239
1042.000000	64.365568
1041.000000	64.400650
1040.000000	64.413527
1039.000000	64.441208
1038.000000	64.453375
1037.000000	64.493527
1036.000000	64.506912
1035.000000	64.529523
1034.000000	64.540169
1033.000000	64.553857
1032.000000	64.566734
1031.000000	64.566633
1030.000000	64.577279
1029.000000	64.573122
1028.000000	64.572818
1027.000000	64.577584
1026.000000	64.572412
1025.000000	64.572514
1024.000000	64.567241
1023.000000	64.564402
1022.000000	64.570790
1021.000000	64.577279
1020.000000	64.575454
1019.000000	64.577381
1018.000000	64.572818
1017.000000	64.573224
1016.000000	64.595226
1015.000000	64.611247
1014.000000	64.612767
1013.000000	64.619662
1012.000000	64.656975
1011.000000	64.685467
1010.000000	64.713756
1009.000000	64.748839
1008.000000	64.786051
1007.000000	64.843440
1006.000000	64.889980
1005.000000	64.958117
1004.000000	65.018041
1003.000000	65.087193
1002.000000	65.159892
1001.000000	65.249018
1000.000000	65.321414
999.000000	65.392694
998.000000	65.488208
997.000000	65.582911
996.000000	65.665243
995.000000	65.755079
994.000000	65.856676
993.000000	65.962329
992.000000	66.045777
991.000000	66.143622
990.000000	66.245220
989.000000	66.336982
988.000000	66.450037
987.000000	66.571609
986.000000	66.661140
985.000000	66.763245
984.000000	66.875387
983.000000	66.992498
982.000000	67.109000
981.000000	67.212422
980.000000	67.315541
979.000000	67.448368
978.000000	67.571663
977.000000	67.681879
976.000000	67.790473
975.000000	67.890651
974.000000	68.004213
973.000000	68.081678
972.000000	68.188244
971.000000	68.300893
970.000000	68.403099
969.000000	68.507738
968.000000	68.625863
967.000000	68.727967
966.000000	68.828347
965.000000	68.943126
964.000000	69.047765
963.000000	69.162645
962.000000	69.287158
961.000000	69.403153
960.000000	69.538515
959.000000	69.672660
958.000000	69.790683
957.000000	69.925944
956.000000	70.069620
955.000000	70.206908
954.000000	70.339228
953.000000	70.451269
952.000000	70.584197
951.000000	70.723006
950.000000	70.849040
949.000000	70.978013
948.000000	71.099383
947.000000	71.237685
946.000000	71.366253
945.000000	71.488839
944.000000	71.621463
943.000000	71.733606
942.000000	71.861566
941.000000	71.991756
940.000000	72.109374
939.000000	72.236218
938.000000	72.373608
937.000000	72.488691
936.000000	72.601036
935.000000	72.718958
934.000000	72.837995
933.000000	72.948312
932.000000	73.074549
931.000000	73.187401
930.000000	73.280380
929.000000	73.388872
928.000000	73.485197
927.000000	73.577466
926.000000	73.683727
925.000000	73.776605
924.000000	73.891079
923.000000	73.991155
922.000000	74.072372
921.000000	74.171739
920.000000	74.279522
919.000000	74.369053
918.000000	74.450473
917.000000	74.532805
916.000000	74.611183
915.000000	74.688446
914.000000	74.764593
913.000000	74.848041
912.000000	74.915570
911.000000	74.971844
910.000000	75.040995
909.000000	75.106800
908.000000	75.178993
907.000000	75.251794
906.000000	75.340007
905.000000	75.432073
904.000000	75.531643
903.000000	75.629489
902.000000	75.730782
901.000000	75.841099
900.000000	75.965003
899.000000	76.077754
898.000000	76.202773
897.000000	76.321202
896.000000	76.459707
895.000000	76.595982
894.000000	76.722421
893.000000	76.872484
892.000000	77.018087
891.000000	77.157606
890.000000	77.299863
889.000000	77.451042
888.000000	77.598976
887.000000	77.761309
886.000000	77.905695
885.000000	78.054238
884.000000	78.200348
883.000000	78.346254
882.000000	78.494493
881.000000	78.636851
880.000000	78.770793
879.000000	78.908589
878.000000	79.034825
877.000000	79.134191
876.000000	79.214293
875.000000	79.290035
874.000000	79.381594
873.000000	79.415156
872.000000	79.446284
871.000000	79.507323
870.000000	79.623015
869.000000	79.797008
868.000000	79.987731
867.000000	80.170038
866.000000	80.352447
865.000000	80.528975
864.000000	80.673868
863.000000	80.865808
862.000000	81.048825
861.000000	81.234174
860.000000	81.435037
859.000000	81.608320
858.000000	81.798333
857.000000	81.378600
856.000000	81.856500
855.000000	82.159900
854.000000	81.980000
853.000000	81.580500
852.000000	82.681300
851.000000	82.896500
850.000000	83.091900
849.000000	83.218400
848.000000	83.613000
847.000000	84.115800
846.000000	84.318400
845.000000	84.393100
844.000000	84.024000
843.000000	84.437500
842.000000	84.227800
841.000000	84.201300
840.000000	84.406900
839.000000	84.462500
838.000000	84.168200
837.000000	84.451200
836.000000	84.836700
835.000000	84.650800
834.000000	84.858000
833.000000	84.528400
832.000000	84.467100
831.000000	84.396400
830.000000	84.438300
829.000000	84.581500
828.000000	84.368800
827.000000	84.416000
826.000000	84.359500
825.000000	84.362100
824.000000	84.492300
823.000000	84.532100
822.000000	84.509200
821.000000	84.678200
820.000000	84.603600
819.000000	84.757800
818.000000	84.901900
817.000000	85.066400
816.000000	85.085000
815.000000	85.149400
814.000000	85.231800
813.000000	85.409400
812.000000	85.490500
811.000000	85.652300
810.000000	85.531200
809.000000	85.442300
808.000000	85.519100
807.000000	85.612300
806.000000	85.782900
805.000000	85.700800
804.000000	85.637100
803.000000	85.656400
802.000000	85.790500
801.000000	85.709700
800.000000	85.494400
799.000000	85.708500
798.000000	85.346300
797.000000	85.373500
796.000000	85.389400
795.000000	85.245400
794.000000	85.133700
793.000000	85.299800
792.000000	85.020400
791.000000	84.945500
790.000000	84.899200
789.000000	84.883000
788.000000	84.706600
787.000000	84.845600
786.000000	84.717300
785.000000	84.784600
784.000000	84.810000
783.000000	84.782500
782.000000	84.820700
781.000000	84.821600
780.000000	84.802200
779.000000	84.685500
778.000000	84.806200
777.000000	84.725500
776.000000	84.934600
775.000000	84.690100
774.000000	84.792800
773.000000	84.673400
772.000000	84.652100
771.000000	84.639200
770.000000	84.430800
769.000000	84.142800
768.000000	84.265600
767.000000	84.104900
766.000000	84.110000
765.000000	83.876400
764.000000	83.707400
763.000000	83.519500
762.000000	83.336600
761.000000	83.111500
760.000000	82.895200
759.000000	82.553900
758.000000	82.339400
757.000000	82.198500
756.000000	81.917100
755.000000	81.683600
754.000000	81.332200
753.000000	80.949700
752.000000	80.808100
751.000000	80.535300
750.000000	80.401600
749.000000	79.961000
748.000000	79.724900
747.000000	79.442300
746.000000	79.262800
745.000000	78.965900
744.000000	78.739300
743.000000	78.360400
742.000000	78.155400
741.000000	77.713000
740.000000	77.618900
739.000000	77.413600
738.000000	77.228600
737.000000	76.986700
736.000000	76.818000
735.000000	76.570500
734.000000	76.330400
733.000000	76.163500
732.000000	75.980800
731.000000	75.865400
730.000000	75.734700
729.000000	75.674100
728.000000	75.520700
727.000000	75.600000
726.000000	75.461000
725.000000	75.487300
724.000000	75.476200
723.000000	75.450600
722.000000	75.424400
721.000000	75.503100
720.000000	75.594100
719.000000	75.638300
718.000000	75.746200
717.000000	75.744300
716.000000	75.779500
715.000000	75.838400
714.000000	75.874600
713.000000	75.872400
712.000000	75.903500
711.000000	75.957800
710.000000	75.912700
709.000000	75.952900
708.000000	75.857700
707.000000	75.835300
706.000000	75.861500
705.000000	75.702100
704.000000	75.669600
703.000000	75.553000
702.000000	75.359900
701.000000	75.190800
700.000000	75.088000
699.000000	74.844600
698.000000	74.556000
697.000000	74.292800
696.000000	74.015600
695.000000	73.738800
694.000000	73.417400
693.000000	72.995500
692.000000	72.614000
691.000000	72.238200
690.000000	71.812500
689.000000	71.410900
688.000000	70.950100
687.000000	70.463800
686.000000	70.045900
685.000000	69.569700
684.000000	69.060000
683.000000	68.505100
682.000000	67.947700
681.000000	67.350300
680.000000	66.778600
679.000000	66.117400
678.000000	65.482900
677.000000	64.821400
676.000000	64.113900
675.000000	63.385000
674.000000	62.691500
673.000000	62.009900
672.000000	61.337900
671.000000	60.687600
670.000000	60.064300
669.000000	59.541700
668.000000	59.042800
667.000000	58.590900
666.000000	58.233900
665.000000	57.971700
664.000000	57.824400
663.000000	57.754800
662.000000	57.735100
661.000000	57.832000
660.000000	57.977300
659.000000	58.211500
658.000000	58.541300
657.000000	58.946700
656.000000	59.334300
655.000000	59.789700
654.000000	60.327700
653.000000	60.924900
652.000000	61.635600
651.000000	62.358700
650.000000	63.111100
649.000000	63.926500
648.000000	64.773000
647.000000	65.685400
646.000000	66.622300
645.000000	67.560000
644.000000	68.533100
643.000000	69.553400
642.000000	70.567900
641.000000	71.565700
640.000000	72.524900
639.000000	73.484800
638.000000	74.431100
637.000000	75.302000
636.000000	76.179200
635.000000	77.030000
634.000000	77.843300
633.000000	78.646000
632.000000	79.397500
631.000000	80.102000
630.000000	80.780200
629.000000	81.453300
628.000000	82.114000
627.000000	82.745100
626.000000	83.319000
625.000000	83.880400
624.000000	84.401900
623.000000	84.943900
622.000000	85.437900
621.000000	85.899700
620.000000	86.328700
619.000000	86.709600
618.000000	87.125600
617.000000	87.464300
616.000000	87.781100
615.000000	88.119100
614.000000	88.426500
613.000000	88.692800
612.000000	88.908200
611.000000	89.132800
610.000000	89.354400
609.000000	89.549900
608.000000	89.742200
607.000000	89.885300
606.000000	90.020300
605.000000	90.163100
604.000000	90.327100
603.000000	90.421200
602.000000	90.531300
601.000000	90.622500
600.000000	90.694500
599.000000	90.718600
598.000000	90.738600
597.000000	90.791100
596.000000	90.823800
595.000000	90.889700
594.000000	90.884500
593.000000	90.839400
592.000000	90.795500
591.000000	90.753000
590.000000	90.705600
589.000000	90.654600
588.000000	90.553100
587.000000	90.430600
586.000000	90.299600
585.000000	90.142600
584.000000	90.004600
583.000000	89.831900
582.000000	89.634400
581.000000	89.392300
580.000000	89.197300
579.000000	88.987200
578.000000	88.725200
577.000000	88.477000
576.000000	88.192100
575.000000	87.903700
574.000000	87.601400
573.000000	87.293900
572.000000	87.018600
571.000000	86.684200
570.000000	86.336400
569.000000	85.956600
568.000000	85.584800
567.000000	85.191900
566.000000	84.807800
565.000000	84.367500
564.000000	83.933500
563.000000	83.412900
562.000000	82.903800
561.000000	82.335600
560.000000	81.739400
559.000000	80.966300
558.000000	80.286900
557.000000	79.562300
556.000000	78.831900
555.000000	78.017800
554.000000	77.197200
553.000000	76.296600
552.000000	75.318100
551.000000	74.291800
550.000000	73.216400
549.000000	72.080500
548.000000	70.949000
547.000000	69.757600
546.000000	68.526500
545.000000	67.291900
544.000000	66.004100
543.000000	64.711100
542.000000	63.422200
541.000000	62.127800
540.000000	60.839000
539.000000	59.608700
538.000000	58.365100
537.000000	57.159800
536.000000	55.993500
535.000000	54.850900
534.000000	53.749600
533.000000	52.692300
532.000000	51.595900
531.000000	50.583700
530.000000	49.544500
529.000000	48.571300
528.000000	47.641500
527.000000	46.733200
526.000000	45.874500
525.000000	45.084600
524.000000	44.251000
523.000000	43.480100
522.000000	42.696400
521.000000	41.979100
520.000000	41.228800
519.000000	40.538000
518.000000	39.894800
517.000000	39.256400
516.000000	38.615400
515.000000	37.995800
514.000000	37.345300
513.000000	36.710700
512.000000	36.114600
511.000000	35.568800
510.000000	35.069600
509.000000	34.577100
508.000000	34.104500
507.000000	33.723900
506.000000	33.387300
505.000000	33.065300
504.000000	32.799700
503.000000	32.601400
502.000000	32.479800
501.000000	32.356400
500.000000	32.305500
499.000000	32.321400
498.000000	32.383900
497.000000	32.420900
496.000000	32.521500
495.000000	32.567400
494.000000	32.674400
493.000000	32.814500
492.000000	32.913400
491.000000	32.998200
490.000000	33.038800
489.000000	33.109000
488.000000	33.129900
487.000000	33.162000
486.000000	33.192100
485.000000	33.185600
484.000000	33.145200
483.000000	33.104400
482.000000	33.000400
481.000000	32.898500
480.000000	32.795700
479.000000	32.673100
478.000000	32.557000
477.000000	32.395000
476.000000	32.234400
475.000000	32.083000
474.000000	31.928700
473.000000	31.773200
472.000000	31.638300
471.000000	31.435700
470.000000	31.271000
469.000000	31.060900
468.000000	30.905300
467.000000	30.722700
466.000000	30.538700
465.000000	30.339500
464.000000	30.163200
463.000000	29.922500
462.000000	29.714900
461.000000	29.520600
460.000000	29.260000
459.000000	29.037500
458.000000	28.787700
457.000000	28.569300
456.000000	28.250500
455.000000	27.966600
454.000000	27.677000
453.000000	27.348400
452.000000	26.979500
451.000000	26.602600
450.000000	26.238200
449.000000	25.818900
448.000000	25.415600
447.000000	24.992700
446.000000	24.528000
445.000000	24.039700
444.000000	23.563600
443.000000	23.010000
442.000000	22.406600
441.000000	21.822200
440.000000	21.232000
439.000000	20.649800
438.000000	20.072900
437.000000	19.415500
436.000000	18.775700
435.000000	18.148200
434.000000	17.523200
433.000000	16.871400
432.000000	16.240800
431.000000	15.647200
430.000000	15.052900
429.000000	14.471400
428.000000	13.937800
427.000000	13.379300
426.000000	12.894800
425.000000	12.396000
424.000000	11.899500
423.000000	11.488600
422.000000	11.096400
421.000000	10.730300
420.000000	10.359800
419.000000	10.044600
418.000000	9.712800
417.000000	9.454200
416.000000	9.209400
415.000000	8.985100
414.000000	8.783400
413.000000	8.586900
412.000000	8.429000
411.000000	8.273200
410.000000	8.116600
409.000000	8.004100
408.000000	7.898600
407.000000	7.799000
406.000000	7.717200
405.000000	7.627900
404.000000	7.563800
403.000000	7.502900
402.000000	7.424500
401.000000	7.360300
400.000000	7.328500
399.000000	7.284400
398.000000	7.228400
397.000000	7.203900
396.000000	7.152000
395.000000	7.105000
394.000000	7.076500
393.000000	7.030300
392.000000	6.996900
391.000000	6.953600
390.000000	6.915400
389.000000	6.885000
388.000000	6.868800
387.000000	6.837600
386.000000	6.804500
385.000000	6.772300
384.000000	6.731600
383.000000	6.696700
382.000000	6.679900
381.000000	6.651400
380.000000	6.604800
379.000000	6.584400
378.000000	6.559000
377.000000	6.537300
376.000000	6.566000
375.000000	6.624900
374.000000	6.534900
373.000000	6.439900
372.000000	6.470300
371.000000	6.443800
370.000000	6.402600
369.000000	6.361800
368.000000	6.357100
367.000000	6.290200
366.000000	6.240200
365.000000	6.271400
364.000000	6.233300
363.000000	6.165900
362.000000	6.177200
361.000000	6.165900
360.000000	6.084200
359.000000	6.071100
358.000000	6.079200
357.000000	6.079100
356.000000	6.108300
355.000000	6.077400
354.000000	6.045800
353.000000	5.975900
352.000000	5.923600
351.000000	5.929400
350.000000	5.940100
349.000000	5.983100
348.000000	5.993800
347.000000	5.927500
346.000000	5.897300
345.000000	5.854700
344.000000	5.901800
343.000000	5.907500
342.000000	5.878600
341.000000	5.905900
340.000000	5.918300
339.000000	5.883600
338.000000	5.827000
337.000000	5.766800
336.000000	5.727700
335.000000	5.755500
334.000000	5.750700
333.000000	5.738400
332.000000	5.739400
331.000000	5.817900
330.000000	5.830000
329.000000	5.873500
328.000000	5.934800
327.000000	5.834000
326.000000	5.834100
325.000000	5.867900
324.000000	5.837800
323.000000	5.755000
322.000000	5.746000
321.000000	5.954700
320.000000	5.986300
319.000000	5.956400
318.000000	5.988200
317.000000	5.883500
316.000000	5.867800
315.000000	5.934100
314.000000	5.937400
313.000000	5.943700
312.000000	5.972400
311.000000	5.963500
310.000000	5.968200
309.000000	5.937000
308.000000	5.948600
307.000000	5.962900
306.000000	5.992100
305.000000	6.002800
304.000000	6.015200
303.000000	6.019500
302.000000	6.030600
301.000000	6.000600
300.000000	5.999200
299.000000	6.023300
298.000000	6.042900
297.000000	6.052000
296.000000	6.048800
295.000000	6.072900
294.000000	6.057200
293.000000	6.040600
292.000000	6.062100
291.000000	6.073300
290.000000	6.096600
289.000000	6.121900
288.000000	6.125200
287.000000	6.130500
286.000000	6.142000
285.000000	6.112400
284.000000	6.089800
283.000000	6.147800
282.000000	6.183200
281.000000	6.160200
280.000000	6.181100
279.000000	6.199100
278.000000	6.214800
277.000000	6.222900
276.000000	6.231900
275.000000	6.235200
274.000000	6.243500
273.000000	6.274100
272.000000	6.279900
271.000000	6.301300
270.000000	6.304900
269.000000	6.351000
268.000000	6.344200
267.000000	6.374600
266.000000	6.407700
265.000000	6.444200
264.000000	6.458900
263.000000	6.504400
262.000000	6.523300
261.000000	6.531800
260.000000	6.578000
259.000000	6.598500
258.000000	6.631300
257.000000	6.657800
256.000000	6.657500
255.000000	6.664200
254.000000	6.683500
253.000000	6.732100
252.000000	6.725800
251.000000	6.737100
250.000000	6.754500
