PE UV       SUBTECH     SPECTRUM    ASCII       PEDS        4.00        
   -1
CICIMAUCR0245-1.Sample.ASC
24/06/20
16:50:04.00
24/06/20
16:50:04.00
Vinicio Soto Monge
C. resplendens. Sex M
250,000000
1
Lambda 1050
1050L1511233
PerkinElmer UV WinLab 6.3.2.0749 / 2.02.05 Lambda 900 UV/VIS/NIR, Aug  7 2015 09:38:08

0
0
3350/servo 860,8/2
0
0
UV/VIS
1
1
1
DoubleDePol,CommonBeamDepol,RBeamAtt,SBeamAtt,60mm sphere, WB InGaAs Detector
0
0
0
0
Program
Program
3350/servo 860,8/2
3350/0,2 860,8/0,2
3350/0,2 860,8/0,2
0
15.00
 
 
 
0
 
860,8
319,2
860,8
Front
100
on
S:100 R:100
0
0
0
0
 
0
 
 
 
0
 
 
0
0
0
0
0
 
 
 
 
0
0


0
0
#HDR
-1
-1
#GR
nm
%R
1.0
0.0
2500,000000
-1,000000
2251
8
88,850800
5,631900
#DATA
2500.000000	7.446402
2499.000000	7.354457
2498.000000	7.448577
2497.000000	7.372370
2496.000000	7.452511
2495.000000	7.407781
2494.000000	7.430664
2493.000000	7.503972
2492.000000	7.396806
2491.000000	7.236006
2490.000000	7.321221
2489.000000	7.324016
2488.000000	7.324120
2487.000000	7.308071
2486.000000	7.318321
2485.000000	7.276491
2484.000000	7.322774
2483.000000	7.341411
2482.000000	7.304550
2481.000000	7.291401
2480.000000	7.338098
2479.000000	7.287052
2478.000000	7.300202
2477.000000	7.254540
2476.000000	7.334163
2475.000000	7.299995
2474.000000	7.281978
2473.000000	7.276283
2472.000000	7.255575
2471.000000	7.240665
2470.000000	7.286120
2469.000000	7.269967
2468.000000	7.249673
2467.000000	7.267172
2466.000000	7.317907
2465.000000	7.279700
2464.000000	7.318114
2463.000000	7.306932
2462.000000	7.324223
2461.000000	7.353526
2460.000000	7.349694
2459.000000	7.355803
2458.000000	7.362327
2457.000000	7.420517
2456.000000	7.446506
2455.000000	7.498277
2454.000000	7.506146
2453.000000	7.531306
2452.000000	7.587426
2451.000000	7.613622
2450.000000	7.637437
2449.000000	7.665289
2448.000000	7.706706
2447.000000	7.749986
2446.000000	7.781567
2445.000000	7.819463
2444.000000	7.875375
2443.000000	7.882934
2442.000000	7.915446
2441.000000	7.958726
2440.000000	7.994345
2439.000000	8.029963
2438.000000	8.063303
2437.000000	8.107516
2436.000000	8.163635
2435.000000	8.164360
2434.000000	8.197804
2433.000000	8.237978
2432.000000	8.250299
2431.000000	8.280637
2430.000000	8.290474
2429.000000	8.316566
2428.000000	8.369062
2427.000000	8.369890
2426.000000	8.392048
2425.000000	8.402091
2424.000000	8.428702
2423.000000	8.458832
2422.000000	8.467737
2421.000000	8.485546
2420.000000	8.501284
2419.000000	8.531726
2418.000000	8.536385
2417.000000	8.555022
2416.000000	8.573971
2415.000000	8.589605
2414.000000	8.591055
2413.000000	8.615905
2412.000000	8.634749
2411.000000	8.648728
2410.000000	8.669747
2409.000000	8.678237
2408.000000	8.687452
2407.000000	8.701948
2406.000000	8.723588
2405.000000	8.740569
2404.000000	8.747092
2403.000000	8.766454
2402.000000	8.782814
2401.000000	8.793996
2400.000000	8.830754
2399.000000	8.841419
2398.000000	8.840280
2397.000000	8.852394
2396.000000	8.860781
2395.000000	8.853947
2394.000000	8.869996
2393.000000	8.864922
2392.000000	8.875070
2391.000000	8.877244
2390.000000	8.887909
2389.000000	8.882628
2388.000000	8.893500
2387.000000	8.900230
2386.000000	8.888841
2385.000000	8.894121
2384.000000	8.913794
2383.000000	8.905200
2382.000000	8.886666
2381.000000	8.882421
2380.000000	8.882939
2379.000000	8.860884
2378.000000	8.844421
2377.000000	8.840073
2376.000000	8.830961
2375.000000	8.824955
2374.000000	8.815533
2373.000000	8.787163
2372.000000	8.759724
2371.000000	8.742329
2370.000000	8.719550
2369.000000	8.688902
2368.000000	8.669022
2367.000000	8.643861
2366.000000	8.608139
2365.000000	8.566205
2364.000000	8.534314
2363.000000	8.490205
2362.000000	8.438642
2361.000000	8.412963
2360.000000	8.388942
2359.000000	8.334272
2358.000000	8.285193
2357.000000	8.257547
2356.000000	8.218616
2355.000000	8.201428
2354.000000	8.183308
2353.000000	8.147172
2352.000000	8.140235
2351.000000	8.141063
2350.000000	8.141270
2349.000000	8.147276
2348.000000	8.147379
2347.000000	8.152970
2346.000000	8.169744
2345.000000	8.195008
2344.000000	8.211161
2343.000000	8.224414
2342.000000	8.232490
2341.000000	8.247193
2340.000000	8.264485
2339.000000	8.283950
2338.000000	8.279291
2337.000000	8.263967
2336.000000	8.273182
2335.000000	8.269040
2334.000000	8.263656
2333.000000	8.249161
2332.000000	8.199150
2331.000000	8.153902
2330.000000	8.137439
2329.000000	8.122218
2328.000000	8.072001
2327.000000	8.016502
2326.000000	7.972290
2325.000000	7.926525
2324.000000	7.875168
2323.000000	7.823294
2322.000000	7.752678
2321.000000	7.681649
2320.000000	7.625736
2319.000000	7.571274
2318.000000	7.508734
2317.000000	7.447541
2316.000000	7.370610
2315.000000	7.314283
2314.000000	7.239216
2313.000000	7.172224
2312.000000	7.120453
2311.000000	7.085974
2310.000000	7.012977
2309.000000	6.988956
2308.000000	6.961517
2307.000000	6.936149
2306.000000	6.925277
2305.000000	6.924863
2304.000000	6.908193
2303.000000	6.938531
2302.000000	6.957168
2301.000000	6.991855
2300.000000	7.021157
2299.000000	7.053255
2298.000000	7.082661
2297.000000	7.133707
2296.000000	7.166840
2295.000000	7.208464
2294.000000	7.258992
2293.000000	7.276491
2292.000000	7.305172
2291.000000	7.322774
2290.000000	7.340169
2289.000000	7.358910
2288.000000	7.360773
2287.000000	7.343378
2286.000000	7.336131
2285.000000	7.334577
2284.000000	7.315940
2283.000000	7.283324
2282.000000	7.267897
2281.000000	7.241804
2280.000000	7.218093
2279.000000	7.176469
2278.000000	7.147685
2277.000000	7.122628
2276.000000	7.094050
2275.000000	7.047560
2274.000000	7.046939
2273.000000	7.036585
2272.000000	7.018672
2271.000000	7.013391
2270.000000	7.015048
2269.000000	7.038138
2268.000000	7.055740
2267.000000	7.071168
2266.000000	7.127184
2265.000000	7.178126
2264.000000	7.229483
2263.000000	7.299477
2262.000000	7.381999
2261.000000	7.503972
2260.000000	7.609066
2259.000000	7.708156
2258.000000	7.840999
2257.000000	7.989582
2256.000000	8.122115
2255.000000	8.259308
2254.000000	8.401470
2253.000000	8.554505
2252.000000	8.693665
2251.000000	8.828165
2250.000000	8.976126
2249.000000	9.108349
2248.000000	9.210544
2247.000000	9.354881
2246.000000	9.434712
2245.000000	9.542809
2244.000000	9.673479
2243.000000	9.743680
2242.000000	9.843287
2241.000000	9.907379
2240.000000	10.003777
2239.000000	10.091684
2238.000000	10.158571
2237.000000	10.226288
2236.000000	10.300838
2235.000000	10.337181
2234.000000	10.383982
2233.000000	10.435545
2232.000000	10.471371
2231.000000	10.525212
2230.000000	10.555239
2229.000000	10.591997
2228.000000	10.615604
2227.000000	10.618503
2226.000000	10.663647
2225.000000	10.672966
2224.000000	10.689222
2223.000000	10.684563
2222.000000	10.690361
2221.000000	10.681457
2220.000000	10.686841
2219.000000	10.695642
2218.000000	10.651947
2217.000000	10.668514
2216.000000	10.656814
2215.000000	10.643043
2214.000000	10.631550
2213.000000	10.624923
2212.000000	10.592204
2211.000000	10.610220
2210.000000	10.593550
2209.000000	10.583610
2208.000000	10.541572
2207.000000	10.562177
2206.000000	10.557517
2205.000000	10.538983
2204.000000	10.536084
2203.000000	10.516929
2202.000000	10.507196
2201.000000	10.510406
2200.000000	10.484417
2199.000000	10.480689
2198.000000	10.440205
2197.000000	10.469507
2196.000000	10.454183
2195.000000	10.438652
2194.000000	10.431714
2193.000000	10.428297
2192.000000	10.415872
2191.000000	10.413387
2190.000000	10.383671
2189.000000	10.372281
2188.000000	10.386984
2187.000000	10.386156
2186.000000	10.373213
2185.000000	10.344325
2184.000000	10.336767
2183.000000	10.324238
2182.000000	10.327551
2181.000000	10.309742
2180.000000	10.314402
2179.000000	10.314402
2178.000000	10.288723
2177.000000	10.281165
2176.000000	10.269154
2175.000000	10.269465
2174.000000	10.265737
2173.000000	10.253001
2172.000000	10.263770
2171.000000	10.256522
2170.000000	10.266876
2169.000000	10.272364
2168.000000	10.266255
2167.000000	10.276920
2166.000000	10.281890
2165.000000	10.291726
2164.000000	10.300423
2163.000000	10.339459
2162.000000	10.345153
2161.000000	10.357682
2160.000000	10.362445
2159.000000	10.357475
2158.000000	10.367622
2157.000000	10.400652
2156.000000	10.402930
2155.000000	10.421567
2154.000000	10.454286
2153.000000	10.464951
2152.000000	10.483485
2151.000000	10.519207
2150.000000	10.539605
2149.000000	10.543746
2148.000000	10.569010
2147.000000	10.580814
2146.000000	10.588994
2145.000000	10.610324
2144.000000	10.624302
2143.000000	10.639315
2142.000000	10.657642
2141.000000	10.667375
2140.000000	10.674623
2139.000000	10.688290
2138.000000	10.687669
2137.000000	10.673070
2136.000000	10.693571
2135.000000	10.699162
2134.000000	10.698955
2133.000000	10.699783
2132.000000	10.702476
2131.000000	10.693364
2130.000000	10.692328
2129.000000	10.688394
2128.000000	10.674209
2127.000000	10.660541
2126.000000	10.653915
2125.000000	10.634966
2124.000000	10.615086
2123.000000	10.620471
2122.000000	10.602972
2121.000000	10.572324
2120.000000	10.560727
2119.000000	10.534531
2118.000000	10.501398
2117.000000	10.470128
2116.000000	10.447867
2115.000000	10.419807
2114.000000	10.403240
2113.000000	10.361202
2112.000000	10.321857
2111.000000	10.299388
2110.000000	10.286652
2109.000000	10.275781
2108.000000	10.233225
2107.000000	10.206925
2106.000000	10.177934
2105.000000	10.142419
2104.000000	10.118604
2103.000000	10.097482
2102.000000	10.059586
2101.000000	10.019515
2100.000000	9.995390
2099.000000	9.968987
2098.000000	9.941548
2097.000000	9.924774
2096.000000	9.902617
2095.000000	9.880252
2094.000000	9.853952
2093.000000	9.843184
2092.000000	9.821958
2091.000000	9.793794
2090.000000	9.782198
2089.000000	9.763974
2088.000000	9.749893
2087.000000	9.743680
2086.000000	9.725975
2085.000000	9.701125
2084.000000	9.685593
2083.000000	9.656705
2082.000000	9.635169
2081.000000	9.632684
2080.000000	9.629163
2079.000000	9.601621
2078.000000	9.567867
2077.000000	9.539807
2076.000000	9.515992
2075.000000	9.504188
2074.000000	9.487104
2073.000000	9.470434
2072.000000	9.450140
2071.000000	9.430467
2070.000000	9.410690
2069.000000	9.388843
2068.000000	9.369067
2067.000000	9.352707
2066.000000	9.335830
2065.000000	9.318124
2064.000000	9.304871
2063.000000	9.287476
2062.000000	9.278364
2061.000000	9.262729
2060.000000	9.246784
2059.000000	9.250511
2058.000000	9.250615
2057.000000	9.234980
2056.000000	9.232185
2055.000000	9.234980
2054.000000	9.248130
2053.000000	9.283334
2052.000000	9.306942
2051.000000	9.307977
2050.000000	9.342456
2049.000000	9.387393
2048.000000	9.429121
2047.000000	9.471987
2046.000000	9.517959
2045.000000	9.572940
2044.000000	9.615185
2043.000000	9.660226
2042.000000	9.722144
2041.000000	9.787064
2040.000000	9.847325
2039.000000	9.892159
2038.000000	9.939892
2037.000000	10.008747
2036.000000	10.067973
2035.000000	10.122746
2034.000000	10.166337
2033.000000	10.199781
2032.000000	10.230843
2031.000000	10.273399
2030.000000	10.311813
2029.000000	10.348156
2028.000000	10.358717
2027.000000	10.393404
2026.000000	10.421981
2025.000000	10.443000
2024.000000	10.474063
2023.000000	10.467229
2022.000000	10.493321
2021.000000	10.524488
2020.000000	10.524591
2019.000000	10.541158
2018.000000	10.556792
2017.000000	10.559381
2016.000000	10.578329
2015.000000	10.562694
2014.000000	10.562073
2013.000000	10.575223
2012.000000	10.563419
2011.000000	10.545817
2010.000000	10.548302
2009.000000	10.534220
2008.000000	10.511234
2007.000000	10.490008
2006.000000	10.486384
2005.000000	10.458428
2004.000000	10.434303
2003.000000	10.407693
2002.000000	10.388744
2001.000000	10.359132
2000.000000	10.301977
1999.000000	10.278887
1998.000000	10.254658
1997.000000	10.208375
1996.000000	10.171618
1995.000000	10.120986
1994.000000	10.065280
1993.000000	10.019826
1992.000000	9.984518
1991.000000	9.944758
1990.000000	9.883254
1989.000000	9.842252
1988.000000	9.784993
1987.000000	9.738192
1986.000000	9.697915
1985.000000	9.648733
1984.000000	9.580395
1983.000000	9.546019
1982.000000	9.478924
1981.000000	9.425083
1980.000000	9.371552
1979.000000	9.327443
1978.000000	9.265111
1977.000000	9.205057
1976.000000	9.155978
1975.000000	9.100169
1974.000000	9.050573
1973.000000	9.026862
1972.000000	8.965565
1971.000000	8.888634
1970.000000	8.863784
1969.000000	8.814498
1968.000000	8.752476
1967.000000	8.712716
1966.000000	8.666330
1965.000000	8.628019
1964.000000	8.575731
1963.000000	8.517955
1962.000000	8.495590
1961.000000	8.432740
1960.000000	8.414516
1959.000000	8.361193
1958.000000	8.334789
1957.000000	8.301449
1956.000000	8.272975
1955.000000	8.218926
1954.000000	8.169019
1953.000000	8.128845
1952.000000	8.102131
1951.000000	8.081941
1950.000000	8.037521
1949.000000	7.996519
1948.000000	7.965456
1947.000000	7.938536
1946.000000	7.900432
1945.000000	7.899293
1944.000000	7.869577
1943.000000	7.864296
1942.000000	7.829196
1941.000000	7.817081
1940.000000	7.807452
1939.000000	7.805071
1938.000000	7.804346
1937.000000	7.776907
1936.000000	7.789125
1935.000000	7.824226
1934.000000	7.819981
1933.000000	7.827539
1932.000000	7.825675
1931.000000	7.874340
1930.000000	7.881898
1929.000000	7.924143
1928.000000	7.954792
1927.000000	7.989582
1926.000000	8.040524
1925.000000	8.089396
1924.000000	8.161564
1923.000000	8.190245
1922.000000	8.230730
1921.000000	8.318637
1920.000000	8.405819
1919.000000	8.494761
1918.000000	8.582357
1917.000000	8.649970
1916.000000	8.758275
1915.000000	8.808285
1914.000000	8.909238
1913.000000	9.026033
1912.000000	9.141482
1911.000000	9.292964
1910.000000	9.394641
1909.000000	9.502325
1908.000000	9.598101
1907.000000	9.724836
1906.000000	9.855298
1905.000000	10.043847
1904.000000	10.218418
1903.000000	10.386259
1902.000000	10.554100
1901.000000	10.722977
1900.000000	10.886262
1899.000000	11.057209
1898.000000	11.285518
1897.000000	11.473861
1896.000000	11.667483
1895.000000	11.857793
1894.000000	12.017558
1893.000000	12.217082
1892.000000	12.446116
1891.000000	12.724850
1890.000000	12.982048
1889.000000	13.233965
1888.000000	13.522328
1887.000000	13.806135
1886.000000	14.109202
1885.000000	14.444884
1884.000000	14.826538
1883.000000	15.269800
1882.000000	15.714200
1881.000000	16.165435
1880.000000	16.611181
1879.000000	17.043157
1878.000000	17.489111
1877.000000	17.943658
1876.000000	18.376566
1875.000000	18.789179
1874.000000	19.204692
1873.000000	19.606744
1872.000000	19.975041
1871.000000	20.345410
1870.000000	20.669702
1869.000000	20.977531
1868.000000	21.291987
1867.000000	21.487991
1866.000000	21.682650
1865.000000	21.845624
1864.000000	21.977226
1863.000000	22.085116
1862.000000	22.190418
1861.000000	22.309180
1860.000000	22.412618
1859.000000	22.525168
1858.000000	22.620530
1857.000000	22.705744
1856.000000	22.752545
1855.000000	22.769526
1854.000000	22.792926
1853.000000	22.813945
1852.000000	22.808872
1851.000000	22.793548
1850.000000	22.781226
1849.000000	22.748300
1848.000000	22.756998
1847.000000	22.751717
1846.000000	22.725107
1845.000000	22.679755
1844.000000	22.622704
1843.000000	22.562961
1842.000000	22.527446
1841.000000	22.530552
1840.000000	22.542666
1839.000000	22.523097
1838.000000	22.486857
1837.000000	22.454449
1836.000000	22.428667
1835.000000	22.394084
1834.000000	22.333098
1833.000000	22.248298
1832.000000	22.180581
1831.000000	22.116075
1830.000000	22.053432
1829.000000	21.996899
1828.000000	21.923177
1827.000000	21.846038
1826.000000	21.779150
1825.000000	21.719614
1824.000000	21.658835
1823.000000	21.604372
1822.000000	21.571653
1821.000000	21.540591
1820.000000	21.523713
1819.000000	21.504247
1818.000000	21.453823
1817.000000	21.418515
1816.000000	21.393872
1815.000000	21.385589
1814.000000	21.382897
1813.000000	21.361257
1812.000000	21.345518
1811.000000	21.331954
1810.000000	21.302548
1809.000000	21.265998
1808.000000	21.224271
1807.000000	21.172604
1806.000000	21.128806
1805.000000	21.087182
1804.000000	21.039449
1803.000000	20.989439
1802.000000	20.945640
1801.000000	20.902153
1800.000000	20.852142
1799.000000	20.793848
1798.000000	20.745805
1797.000000	20.686372
1796.000000	20.626732
1795.000000	20.589354
1794.000000	20.540172
1793.000000	20.489643
1792.000000	20.433938
1791.000000	20.383617
1790.000000	20.335780
1789.000000	20.270549
1788.000000	20.223127
1787.000000	20.176948
1786.000000	20.102915
1785.000000	20.029504
1784.000000	19.959614
1783.000000	19.880611
1782.000000	19.807925
1781.000000	19.739588
1780.000000	19.669490
1779.000000	19.593076
1778.000000	19.521633
1777.000000	19.441284
1776.000000	19.358762
1775.000000	19.273547
1774.000000	19.153232
1773.000000	19.055592
1772.000000	18.959298
1771.000000	18.834116
1770.000000	18.725708
1769.000000	18.617404
1768.000000	18.511895
1767.000000	18.405040
1766.000000	18.306158
1765.000000	18.223014
1764.000000	18.176834
1763.000000	18.132932
1762.000000	18.104148
1761.000000	18.115848
1760.000000	18.147532
1759.000000	18.196714
1758.000000	18.273128
1757.000000	18.350059
1756.000000	18.398103
1755.000000	18.455982
1754.000000	18.536952
1753.000000	18.577954
1752.000000	18.597213
1751.000000	18.596695
1750.000000	18.588619
1749.000000	18.570810
1748.000000	18.526391
1747.000000	18.480522
1746.000000	18.433928
1745.000000	18.352648
1744.000000	18.243929
1743.000000	18.105805
1742.000000	17.962296
1741.000000	17.790313
1740.000000	17.596794
1739.000000	17.400065
1738.000000	17.177658
1737.000000	16.987659
1736.000000	16.811949
1735.000000	16.681279
1734.000000	16.565934
1733.000000	16.529487
1732.000000	16.510228
1731.000000	16.516337
1730.000000	16.574113
1729.000000	16.663056
1728.000000	16.770325
1727.000000	16.875627
1726.000000	16.970678
1725.000000	17.057756
1724.000000	17.139865
1723.000000	17.193499
1722.000000	17.251690
1721.000000	17.271466
1720.000000	17.282338
1719.000000	17.310501
1718.000000	17.332556
1717.000000	17.360409
1716.000000	17.385673
1715.000000	17.432991
1714.000000	17.486936
1713.000000	17.549683
1712.000000	17.600107
1711.000000	17.643698
1710.000000	17.680456
1709.000000	17.701475
1708.000000	17.720733
1707.000000	17.692881
1706.000000	17.651257
1705.000000	17.624336
1704.000000	17.574636
1703.000000	17.508369
1702.000000	17.431127
1701.000000	17.330692
1700.000000	17.228911
1699.000000	17.081364
1698.000000	16.934335
1697.000000	16.784717
1696.000000	16.687906
1695.000000	16.606004
1694.000000	16.577116
1693.000000	16.600620
1692.000000	16.692358
1691.000000	16.823235
1690.000000	16.973473
1689.000000	17.113048
1688.000000	17.231499
1687.000000	17.318888
1686.000000	17.362686
1685.000000	17.384430
1684.000000	17.410730
1683.000000	17.476996
1682.000000	17.612739
1681.000000	17.879566
1680.000000	18.244033
1679.000000	18.685638
1678.000000	19.153853
1677.000000	19.662449
1676.000000	20.140915
1675.000000	20.597223
1674.000000	21.011907
1673.000000	21.316112
1672.000000	21.621250
1671.000000	21.871510
1670.000000	22.070724
1669.000000	22.286090
1668.000000	22.440885
1667.000000	22.565756
1666.000000	22.663292
1665.000000	22.784332
1664.000000	22.868098
1663.000000	22.939748
1662.000000	23.015023
1661.000000	23.073110
1660.000000	23.120946
1659.000000	23.180069
1658.000000	23.223660
1657.000000	23.240019
1656.000000	23.250891
1655.000000	23.271392
1654.000000	23.264559
1653.000000	23.241986
1652.000000	23.267561
1651.000000	23.245817
1650.000000	23.217965
1649.000000	23.169818
1648.000000	23.160085
1647.000000	23.104380
1646.000000	23.080047
1645.000000	23.028173
1644.000000	22.982718
1643.000000	22.935917
1642.000000	22.871929
1641.000000	22.802245
1640.000000	22.751303
1639.000000	22.701292
1638.000000	22.651799
1637.000000	22.577249
1636.000000	22.528171
1635.000000	22.444923
1634.000000	22.393049
1633.000000	22.327300
1632.000000	22.235355
1631.000000	22.168467
1630.000000	22.082631
1629.000000	21.999694
1628.000000	21.940675
1627.000000	21.860741
1626.000000	21.772524
1625.000000	21.696835
1624.000000	21.619489
1623.000000	21.525991
1622.000000	21.455894
1621.000000	21.388902
1620.000000	21.296543
1619.000000	21.208222
1618.000000	21.150135
1617.000000	21.080452
1616.000000	21.005695
1615.000000	20.948436
1614.000000	20.880202
1613.000000	20.802339
1612.000000	20.749740
1611.000000	20.668770
1610.000000	20.578482
1609.000000	20.532406
1608.000000	20.469660
1607.000000	20.402772
1606.000000	20.339922
1605.000000	20.269928
1604.000000	20.210495
1603.000000	20.135427
1602.000000	20.064191
1601.000000	20.001962
1600.000000	19.961167
1599.000000	19.888584
1598.000000	19.818797
1597.000000	19.745490
1596.000000	19.689888
1595.000000	19.640706
1594.000000	19.588935
1593.000000	19.529191
1592.000000	19.468826
1591.000000	19.416020
1590.000000	19.358658
1589.000000	19.309890
1588.000000	19.254392
1587.000000	19.210076
1586.000000	19.173733
1585.000000	19.117096
1584.000000	19.089346
1583.000000	19.064082
1582.000000	18.998023
1581.000000	18.965718
1580.000000	18.934448
1579.000000	18.894585
1578.000000	18.872737
1577.000000	18.858345
1576.000000	18.845609
1575.000000	18.819206
1574.000000	18.807403
1573.000000	18.795392
1572.000000	18.779964
1571.000000	18.770852
1570.000000	18.768160
1569.000000	18.771991
1568.000000	18.765158
1567.000000	18.776444
1566.000000	18.772716
1565.000000	18.760291
1564.000000	18.766918
1563.000000	18.772406
1562.000000	18.781931
1561.000000	18.785969
1560.000000	18.783484
1559.000000	18.774683
1558.000000	18.786280
1557.000000	18.796220
1556.000000	18.778411
1555.000000	18.752526
1554.000000	18.764536
1553.000000	18.750869
1552.000000	18.728814
1551.000000	18.727261
1550.000000	18.693610
1549.000000	18.677458
1548.000000	18.680771
1547.000000	18.682842
1546.000000	18.652090
1545.000000	18.633867
1544.000000	18.610777
1543.000000	18.585927
1542.000000	18.585824
1541.000000	18.575573
1540.000000	18.555589
1539.000000	18.551862
1538.000000	18.546167
1537.000000	18.534778
1536.000000	18.513759
1535.000000	18.506304
1534.000000	18.480832
1533.000000	18.464369
1532.000000	18.456189
1531.000000	18.426266
1530.000000	18.401830
1529.000000	18.387852
1528.000000	18.354408
1527.000000	18.315166
1526.000000	18.297357
1525.000000	18.262981
1524.000000	18.229744
1523.000000	18.205826
1522.000000	18.162235
1521.000000	18.127755
1520.000000	18.100938
1519.000000	18.060350
1518.000000	18.019451
1517.000000	17.987249
1516.000000	17.950285
1515.000000	17.917877
1514.000000	17.884329
1513.000000	17.832662
1512.000000	17.790624
1511.000000	17.752106
1510.000000	17.700750
1509.000000	17.659851
1508.000000	17.609219
1507.000000	17.549268
1506.000000	17.516446
1505.000000	17.479274
1504.000000	17.422326
1503.000000	17.378011
1502.000000	17.335869
1501.000000	17.293003
1500.000000	17.238851
1499.000000	17.194535
1498.000000	17.166889
1497.000000	17.118742
1496.000000	17.073184
1495.000000	17.028454
1494.000000	17.005571
1493.000000	16.987037
1492.000000	16.941272
1491.000000	16.903169
1490.000000	16.876144
1489.000000	16.851709
1488.000000	16.836488
1487.000000	16.794346
1486.000000	16.760903
1485.000000	16.733671
1484.000000	16.705094
1483.000000	16.681797
1482.000000	16.675274
1481.000000	16.666576
1480.000000	16.648663
1479.000000	16.622778
1478.000000	16.603830
1477.000000	16.601759
1476.000000	16.588092
1475.000000	16.564588
1474.000000	16.562620
1473.000000	16.558996
1472.000000	16.573285
1471.000000	16.566037
1470.000000	16.562103
1469.000000	16.559307
1468.000000	16.551127
1467.000000	16.567797
1466.000000	16.565312
1465.000000	16.575667
1464.000000	16.592958
1463.000000	16.600931
1462.000000	16.620604
1461.000000	16.639655
1460.000000	16.652494
1459.000000	16.689977
1458.000000	16.749617
1457.000000	16.777883
1456.000000	16.836074
1455.000000	16.867861
1454.000000	16.916319
1453.000000	16.987659
1452.000000	17.055686
1451.000000	17.126819
1450.000000	17.198677
1449.000000	17.288344
1448.000000	17.352643
1447.000000	17.435373
1446.000000	17.517999
1445.000000	17.603421
1444.000000	17.684804
1443.000000	17.772297
1442.000000	17.858133
1441.000000	17.969337
1440.000000	18.069358
1439.000000	18.169172
1438.000000	18.247967
1437.000000	18.359274
1436.000000	18.481143
1435.000000	18.566151
1434.000000	18.667932
1433.000000	18.788351
1432.000000	18.919435
1431.000000	19.034262
1430.000000	19.155924
1429.000000	19.286490
1428.000000	19.437557
1427.000000	19.585828
1426.000000	19.738035
1425.000000	19.925963
1424.000000	20.104675
1423.000000	20.297366
1422.000000	20.492128
1421.000000	20.677882
1420.000000	20.885069
1419.000000	21.113792
1418.000000	21.336510
1417.000000	21.576934
1416.000000	21.783292
1415.000000	22.018849
1414.000000	22.283398
1413.000000	22.532312
1412.000000	22.777188
1411.000000	23.009121
1410.000000	23.289098
1409.000000	23.614426
1408.000000	23.948554
1407.000000	24.330623
1406.000000	24.686703
1405.000000	25.062455
1404.000000	25.470098
1403.000000	25.860347
1402.000000	26.244486
1401.000000	26.603879
1400.000000	27.056460
1399.000000	27.463896
1398.000000	27.781561
1397.000000	28.027680
1396.000000	28.322256
1395.000000	28.660423
1394.000000	28.969805
1393.000000	29.201635
1392.000000	29.442369
1391.000000	29.727212
1390.000000	29.991243
1389.000000	30.269045
1388.000000	30.604417
1387.000000	31.026349
1386.000000	31.438755
1385.000000	31.892888
1384.000000	32.357583
1383.000000	32.909253
1382.000000	33.462579
1381.000000	33.966723
1380.000000	34.411020
1379.000000	34.626387
1378.000000	34.933699
1377.000000	35.106302
1376.000000	35.283048
1375.000000	35.458965
1374.000000	35.669362
1373.000000	35.940434
1372.000000	36.272906
1371.000000	36.629296
1370.000000	37.030106
1369.000000	37.388774
1368.000000	37.712548
1367.000000	38.018203
1366.000000	38.291967
1365.000000	38.527628
1364.000000	38.768052
1363.000000	38.978862
1362.000000	39.171243
1361.000000	39.385056
1360.000000	39.513137
1359.000000	39.622788
1358.000000	39.692264
1357.000000	39.804917
1356.000000	39.967271
1355.000000	40.211836
1354.000000	40.566570
1353.000000	41.047520
1352.000000	41.483431
1351.000000	42.055394
1350.000000	42.589048
1349.000000	43.105513
1348.000000	43.589985
1347.000000	44.008500
1346.000000	44.431571
1345.000000	44.808566
1344.000000	45.189392
1343.000000	45.602937
1342.000000	45.913666
1341.000000	46.268399
1340.000000	46.619302
1339.000000	46.949289
1338.000000	47.274720
1337.000000	47.585449
1336.000000	47.913468
1335.000000	48.216949
1334.000000	48.528609
1333.000000	48.794504
1332.000000	49.076551
1331.000000	49.358185
1330.000000	49.620973
1329.000000	49.888214
1328.000000	50.138681
1327.000000	50.361089
1326.000000	50.575316
1325.000000	50.790890
1324.000000	50.994349
1323.000000	51.191907
1322.000000	51.385322
1321.000000	51.565381
1320.000000	51.744508
1319.000000	51.898992
1318.000000	52.052648
1317.000000	52.221628
1316.000000	52.356439
1315.000000	52.503261
1314.000000	52.632170
1313.000000	52.750415
1312.000000	52.871869
1311.000000	52.986490
1310.000000	53.089721
1309.000000	53.197715
1308.000000	53.295251
1307.000000	53.372493
1306.000000	53.440934
1305.000000	53.512481
1304.000000	53.585582
1303.000000	53.623685
1302.000000	53.667380
1301.000000	53.719150
1300.000000	53.750213
1299.000000	53.773820
1298.000000	53.799809
1297.000000	53.831907
1296.000000	53.835842
1295.000000	53.829319
1294.000000	53.846196
1293.000000	53.845264
1292.000000	53.835324
1291.000000	53.842779
1290.000000	53.844643
1289.000000	53.813166
1288.000000	53.765744
1287.000000	53.738823
1286.000000	53.700409
1285.000000	53.656818
1284.000000	53.608257
1283.000000	53.551516
1282.000000	53.497675
1281.000000	53.427991
1280.000000	53.361828
1279.000000	53.287071
1278.000000	53.234058
1277.000000	53.186636
1276.000000	53.133622
1275.000000	53.080195
1274.000000	53.022315
1273.000000	52.984005
1272.000000	52.945073
1271.000000	52.903657
1270.000000	52.860066
1269.000000	52.819374
1268.000000	52.780235
1267.000000	52.738197
1266.000000	52.697919
1265.000000	52.647909
1264.000000	52.607838
1263.000000	52.569942
1262.000000	52.515686
1261.000000	52.470438
1260.000000	52.424984
1259.000000	52.378701
1258.000000	52.348466
1257.000000	52.301976
1256.000000	52.234260
1255.000000	52.188909
1254.000000	52.135792
1253.000000	52.063002
1252.000000	51.990937
1251.000000	51.933161
1250.000000	51.854676
1249.000000	51.766459
1248.000000	51.695533
1247.000000	51.595615
1246.000000	51.493627
1245.000000	51.397540
1244.000000	51.275154
1243.000000	51.143656
1242.000000	51.014436
1241.000000	50.870824
1240.000000	50.727522
1239.000000	50.582150
1238.000000	50.429944
1237.000000	50.275046
1236.000000	50.118076
1235.000000	49.940296
1234.000000	49.757959
1233.000000	49.592499
1232.000000	49.400637
1231.000000	49.197177
1230.000000	48.996824
1229.000000	48.800717
1228.000000	48.599742
1227.000000	48.394730
1226.000000	48.191685
1225.000000	47.983463
1224.000000	47.779589
1223.000000	47.568882
1222.000000	47.357968
1221.000000	47.147571
1220.000000	46.955294
1219.000000	46.754009
1218.000000	46.552517
1217.000000	46.378568
1216.000000	46.204307
1215.000000	46.030150
1214.000000	45.868004
1213.000000	45.706272
1212.000000	45.548578
1211.000000	45.399374
1210.000000	45.261457
1209.000000	45.127888
1208.000000	44.991731
1207.000000	44.878871
1206.000000	44.793760
1205.000000	44.723351
1204.000000	44.661019
1203.000000	44.618153
1202.000000	44.583467
1201.000000	44.540186
1200.000000	44.500426
1199.000000	44.449691
1198.000000	44.377212
1197.000000	44.278226
1196.000000	44.144450
1195.000000	43.970086
1194.000000	43.728316
1193.000000	43.416242
1192.000000	43.057470
1191.000000	42.623631
1190.000000	42.150653
1189.000000	41.691756
1188.000000	41.265268
1187.000000	40.921303
1186.000000	40.706040
1185.000000	40.618133
1184.000000	40.667108
1183.000000	40.848720
1182.000000	41.154789
1181.000000	41.594531
1180.000000	42.102195
1179.000000	42.647445
1178.000000	43.167017
1177.000000	43.650557
1176.000000	44.086777
1175.000000	44.469571
1174.000000	44.807738
1173.000000	45.124471
1172.000000	45.466987
1171.000000	45.809917
1170.000000	46.163201
1169.000000	46.506338
1168.000000	46.872461
1167.000000	47.232786
1166.000000	47.604397
1165.000000	47.998683
1164.000000	48.400114
1163.000000	48.792226
1162.000000	49.203183
1161.000000	49.610308
1160.000000	49.997761
1159.000000	50.390494
1158.000000	50.786541
1157.000000	51.156288
1156.000000	51.498597
1155.000000	51.829412
1154.000000	52.093236
1153.000000	52.312641
1152.000000	52.486177
1151.000000	52.592100
1150.000000	52.688601
1149.000000	52.739854
1148.000000	52.801047
1147.000000	52.871662
1146.000000	52.969405
1145.000000	53.130620
1144.000000	53.361621
1143.000000	53.645739
1142.000000	53.991465
1141.000000	54.373637
1140.000000	54.782316
1139.000000	55.187370
1138.000000	55.627422
1137.000000	56.039104
1136.000000	56.504006
1135.000000	56.977191
1134.000000	57.457003
1133.000000	57.917142
1132.000000	58.308736
1131.000000	58.697845
1130.000000	59.078879
1129.000000	59.391885
1128.000000	59.661197
1127.000000	59.913217
1126.000000	60.105079
1125.000000	60.244757
1124.000000	60.362173
1123.000000	60.478140
1122.000000	60.566150
1121.000000	60.635005
1120.000000	60.685534
1119.000000	60.754907
1118.000000	60.779239
1117.000000	60.817342
1116.000000	60.816617
1115.000000	60.817860
1114.000000	60.810405
1113.000000	60.796323
1112.000000	60.798084
1111.000000	60.784002
1110.000000	60.754389
1109.000000	60.750144
1108.000000	60.728193
1107.000000	60.722602
1106.000000	60.702825
1105.000000	60.682220
1104.000000	60.667414
1103.000000	60.648155
1102.000000	60.633349
1101.000000	60.605496
1100.000000	60.580232
1099.000000	60.547513
1098.000000	60.531774
1097.000000	60.493982
1096.000000	60.466440
1095.000000	60.456396
1094.000000	60.390958
1093.000000	60.377808
1092.000000	60.318065
1091.000000	60.297563
1090.000000	60.231193
1089.000000	60.206550
1088.000000	60.165030
1087.000000	60.123821
1086.000000	60.061281
1085.000000	59.989423
1084.000000	59.972546
1083.000000	59.922432
1082.000000	59.879773
1081.000000	59.827381
1080.000000	59.787517
1079.000000	59.738024
1078.000000	59.704891
1077.000000	59.640902
1076.000000	59.575878
1075.000000	59.547301
1074.000000	59.501432
1073.000000	59.459705
1072.000000	59.403999
1071.000000	59.355645
1070.000000	59.304910
1069.000000	59.266082
1068.000000	59.198780
1067.000000	59.156638
1066.000000	59.122055
1065.000000	59.044192
1064.000000	59.004225
1063.000000	58.952247
1062.000000	58.877283
1061.000000	58.830586
1060.000000	58.755207
1059.000000	58.681900
1058.000000	58.601655
1057.000000	58.544397
1056.000000	58.456800
1055.000000	58.382043
1054.000000	58.324474
1053.000000	58.257690
1052.000000	58.164503
1051.000000	58.098547
1050.000000	58.017888
1049.000000	57.952967
1048.000000	57.884733
1047.000000	57.802107
1046.000000	57.756031
1045.000000	57.696080
1044.000000	57.619874
1043.000000	57.544599
1042.000000	57.496245
1041.000000	57.436916
1040.000000	57.368785
1039.000000	57.309663
1038.000000	57.247331
1037.000000	57.185309
1036.000000	57.133124
1035.000000	57.070482
1034.000000	56.994172
1033.000000	56.926870
1032.000000	56.852734
1031.000000	56.775802
1030.000000	56.697318
1029.000000	56.642751
1028.000000	56.561989
1027.000000	56.486921
1026.000000	56.400257
1025.000000	56.325293
1024.000000	56.227757
1023.000000	56.163768
1022.000000	56.077932
1021.000000	56.003589
1020.000000	55.933388
1019.000000	55.864222
1018.000000	55.772173
1017.000000	55.720299
1016.000000	55.669460
1015.000000	55.615101
1014.000000	55.570889
1013.000000	55.537238
1012.000000	55.491369
1011.000000	55.467451
1010.000000	55.458442
1009.000000	55.444050
1008.000000	55.441876
1007.000000	55.449538
1006.000000	55.451505
1005.000000	55.449434
1004.000000	55.464551
1003.000000	55.473456
1002.000000	55.483085
1001.000000	55.480393
1000.000000	55.482878
999.000000	55.497788
998.000000	55.517047
997.000000	55.523467
996.000000	55.526987
995.000000	55.536409
994.000000	55.568197
993.000000	55.598431
992.000000	55.619967
991.000000	55.651548
990.000000	55.678261
989.000000	55.711498
988.000000	55.756332
987.000000	55.799508
986.000000	55.845274
985.000000	55.883791
984.000000	55.925829
983.000000	55.991164
982.000000	56.045213
981.000000	56.088286
980.000000	56.121834
979.000000	56.188928
978.000000	56.241528
977.000000	56.256748
976.000000	56.290296
975.000000	56.326639
974.000000	56.366192
973.000000	56.419205
972.000000	56.448818
971.000000	56.480502
970.000000	56.515913
969.000000	56.538381
968.000000	56.579591
967.000000	56.629291
966.000000	56.663563
965.000000	56.687481
964.000000	56.720511
963.000000	56.776734
962.000000	56.832129
961.000000	56.873235
960.000000	56.912995
959.000000	56.965801
958.000000	57.025234
957.000000	57.095125
956.000000	57.150519
955.000000	57.195146
954.000000	57.251473
953.000000	57.322502
952.000000	57.406060
951.000000	57.492103
950.000000	57.555574
949.000000	57.644413
948.000000	57.747955
947.000000	57.847458
946.000000	57.966324
945.000000	58.072143
944.000000	58.171336
943.000000	58.289891
942.000000	58.411656
941.000000	58.513541
940.000000	58.631993
939.000000	58.762766
938.000000	58.876765
937.000000	58.981756
936.000000	59.082088
935.000000	59.189047
934.000000	59.317645
933.000000	59.424604
932.000000	59.517067
931.000000	59.621126
930.000000	59.737817
929.000000	59.825310
928.000000	59.907522
927.000000	59.994808
926.000000	60.081990
925.000000	60.163684
924.000000	60.234714
923.000000	60.314441
922.000000	60.401208
921.000000	60.476069
920.000000	60.544199
919.000000	60.630967
918.000000	60.696302
917.000000	60.753768
916.000000	60.817446
915.000000	60.879778
914.000000	60.941489
913.000000	61.004753
912.000000	61.067292
911.000000	61.161307
910.000000	61.253149
909.000000	61.343955
908.000000	61.460543
907.000000	61.588313
906.000000	61.733996
905.000000	61.894382
904.000000	62.067918
903.000000	62.226440
902.000000	62.411987
901.000000	62.611718
900.000000	62.824186
899.000000	63.037585
898.000000	63.237420
897.000000	63.432286
896.000000	63.641026
895.000000	63.829264
894.000000	64.011290
893.000000	64.208227
892.000000	64.400503
891.000000	64.562028
890.000000	64.716409
889.000000	64.891291
888.000000	65.024756
887.000000	65.170025
886.000000	65.320885
885.000000	65.453211
884.000000	65.597652
883.000000	65.724179
882.000000	65.859715
881.000000	65.981687
880.000000	66.113392
879.000000	66.214552
878.000000	66.340459
877.000000	66.448453
876.000000	66.519379
875.000000	66.562349
874.000000	66.647460
873.000000	66.684942
872.000000	66.686909
871.000000	66.718282
870.000000	66.845224
869.000000	67.032324
868.000000	67.255560
867.000000	67.488736
866.000000	67.702963
865.000000	67.901867
864.000000	68.130279
863.000000	68.364180
862.000000	68.605121
861.000000	68.838090
860.000000	69.066503
859.000000	69.333019
858.000000	69.572200
857.000000	68.776300
856.000000	69.681900
855.000000	70.258400
854.000000	70.635200
853.000000	70.649100
852.000000	70.716900
851.000000	70.916300
850.000000	71.523800
849.000000	71.527800
848.000000	72.160000
847.000000	72.089100
846.000000	72.162200
845.000000	72.440600
844.000000	73.010700
843.000000	73.183000
842.000000	73.651000
841.000000	74.031100
840.000000	74.333000
839.000000	74.709100
838.000000	74.746900
837.000000	75.191700
836.000000	75.508400
835.000000	75.658100
834.000000	76.078300
833.000000	76.251100
832.000000	76.238800
831.000000	76.442600
830.000000	76.964900
829.000000	77.137400
828.000000	77.302000
827.000000	77.568900
826.000000	77.678200
825.000000	77.934400
824.000000	78.151700
823.000000	78.511900
822.000000	78.612000
821.000000	79.029300
820.000000	78.975300
819.000000	79.269000
818.000000	79.469700
817.000000	80.022100
816.000000	80.064800
815.000000	80.439500
814.000000	80.797900
813.000000	81.083000
812.000000	81.116400
811.000000	81.435100
810.000000	81.794300
809.000000	81.987400
808.000000	82.042700
807.000000	82.252500
806.000000	82.667200
805.000000	82.673700
804.000000	83.018700
803.000000	83.135100
802.000000	83.048900
801.000000	83.180200
800.000000	83.533100
799.000000	83.519000
798.000000	83.485500
797.000000	83.466900
796.000000	83.452100
795.000000	83.440700
794.000000	83.553800
793.000000	83.457900
792.000000	83.385900
791.000000	83.159600
790.000000	83.197000
789.000000	83.366300
788.000000	83.096100
787.000000	83.084900
786.000000	83.250900
785.000000	83.177600
784.000000	83.042400
783.000000	83.210500
782.000000	83.407700
781.000000	83.548300
780.000000	83.690200
779.000000	83.731700
778.000000	83.805000
777.000000	83.951500
776.000000	84.082200
775.000000	84.188100
774.000000	84.639600
773.000000	84.736900
772.000000	84.824000
771.000000	85.054400
770.000000	85.045400
769.000000	85.356000
768.000000	85.679700
767.000000	85.629800
766.000000	85.731800
765.000000	85.880300
764.000000	86.042900
763.000000	86.032100
762.000000	86.171500
761.000000	86.159000
760.000000	86.226400
759.000000	86.175500
758.000000	86.154900
757.000000	85.967900
756.000000	86.077900
755.000000	85.834700
754.000000	85.692300
753.000000	85.513300
752.000000	85.416700
751.000000	85.155200
750.000000	84.813500
749.000000	84.682900
748.000000	84.410500
747.000000	84.163700
746.000000	83.974800
745.000000	83.695400
744.000000	83.561500
743.000000	83.381100
742.000000	83.122200
741.000000	82.889500
740.000000	82.720000
739.000000	82.459500
738.000000	82.259400
737.000000	82.040600
736.000000	81.701700
735.000000	81.518300
734.000000	81.286900
733.000000	80.984800
732.000000	80.752600
731.000000	80.326300
730.000000	80.060900
729.000000	79.761900
728.000000	79.357100
727.000000	78.987900
726.000000	78.695300
725.000000	78.321900
724.000000	77.979200
723.000000	77.623300
722.000000	77.382700
721.000000	77.110600
720.000000	76.739300
719.000000	76.401400
718.000000	76.166100
717.000000	75.885800
716.000000	75.681000
715.000000	75.453900
714.000000	75.234000
713.000000	75.030100
712.000000	74.803600
711.000000	74.631900
710.000000	74.392700
709.000000	74.188100
708.000000	74.106200
707.000000	73.962100
706.000000	73.723200
705.000000	73.558700
704.000000	73.386900
703.000000	73.272600
702.000000	73.181800
701.000000	73.130900
700.000000	73.059200
699.000000	72.978700
698.000000	72.971000
697.000000	72.916100
696.000000	72.831200
695.000000	72.719700
694.000000	72.646300
693.000000	72.506400
692.000000	72.316700
691.000000	72.123200
690.000000	71.943700
689.000000	71.695000
688.000000	71.494900
687.000000	71.281400
686.000000	70.962000
685.000000	70.691300
684.000000	70.468800
683.000000	70.226200
682.000000	69.958300
681.000000	69.696900
680.000000	69.446100
679.000000	69.228300
678.000000	69.026800
677.000000	68.796600
676.000000	68.521800
675.000000	68.297900
674.000000	68.052500
673.000000	67.754700
672.000000	67.405700
671.000000	66.985900
670.000000	66.539000
669.000000	66.036900
668.000000	65.466300
667.000000	64.908500
666.000000	64.328100
665.000000	63.679200
664.000000	63.001600
663.000000	62.309400
662.000000	61.629000
661.000000	60.923900
660.000000	60.243000
659.000000	59.641200
658.000000	59.062300
657.000000	58.499000
656.000000	57.927600
655.000000	57.393400
654.000000	56.916000
653.000000	56.480600
652.000000	56.054900
651.000000	55.690400
650.000000	55.412100
649.000000	55.197500
648.000000	55.060800
647.000000	55.020700
646.000000	55.065700
645.000000	55.272000
644.000000	55.578200
643.000000	56.033500
642.000000	56.606500
641.000000	57.290500
640.000000	58.077800
639.000000	58.920500
638.000000	59.875100
637.000000	60.895600
636.000000	61.935800
635.000000	63.022500
634.000000	64.176600
633.000000	65.338600
632.000000	66.452300
631.000000	67.570500
630.000000	68.678900
629.000000	69.731500
628.000000	70.778300
627.000000	71.763800
626.000000	72.747900
625.000000	73.684300
624.000000	74.563500
623.000000	75.416100
622.000000	76.231100
621.000000	77.036300
620.000000	77.808600
619.000000	78.497500
618.000000	79.155400
617.000000	79.803800
616.000000	80.442600
615.000000	81.028500
614.000000	81.600700
613.000000	82.140200
612.000000	82.631700
611.000000	83.118400
610.000000	83.569500
609.000000	84.045800
608.000000	84.499700
607.000000	84.895900
606.000000	85.280500
605.000000	85.678600
604.000000	85.960400
603.000000	86.227600
602.000000	86.545200
601.000000	86.849200
600.000000	87.157200
599.000000	87.431400
598.000000	87.686100
597.000000	87.900600
596.000000	88.029800
595.000000	88.206300
594.000000	88.355300
593.000000	88.454200
592.000000	88.571300
591.000000	88.672500
590.000000	88.706600
589.000000	88.728000
588.000000	88.791100
587.000000	88.829900
586.000000	88.850800
585.000000	88.843600
584.000000	88.835600
583.000000	88.785400
582.000000	88.747800
581.000000	88.733800
580.000000	88.659900
579.000000	88.625000
578.000000	88.582500
577.000000	88.531600
576.000000	88.445600
575.000000	88.366400
574.000000	88.274500
573.000000	88.134300
572.000000	87.999000
571.000000	87.831600
570.000000	87.627800
569.000000	87.394400
568.000000	87.155300
567.000000	86.873500
566.000000	86.580100
565.000000	86.242200
564.000000	85.911500
563.000000	85.532100
562.000000	85.171800
561.000000	84.800300
560.000000	84.396900
559.000000	83.943200
558.000000	83.533900
557.000000	83.119600
556.000000	82.703200
555.000000	82.305300
554.000000	81.836200
553.000000	81.333900
552.000000	80.817900
551.000000	80.288800
550.000000	79.751200
549.000000	79.172300
548.000000	78.534300
547.000000	77.860900
546.000000	77.149800
545.000000	76.401800
544.000000	75.608200
543.000000	74.795400
542.000000	73.922900
541.000000	72.967000
540.000000	72.008900
539.000000	70.943400
538.000000	69.864600
537.000000	68.775200
536.000000	67.604000
535.000000	66.414300
534.000000	65.154300
533.000000	63.846400
532.000000	62.530700
531.000000	61.131500
530.000000	59.721500
529.000000	58.302100
528.000000	56.875600
527.000000	55.437200
526.000000	54.019100
525.000000	52.665800
524.000000	51.250300
523.000000	49.899600
522.000000	48.631100
521.000000	47.424700
520.000000	46.293000
519.000000	45.245800
518.000000	44.352300
517.000000	43.471600
516.000000	42.754000
515.000000	42.089100
514.000000	41.475000
513.000000	40.905400
512.000000	40.401300
511.000000	39.961700
510.000000	39.551700
509.000000	39.181200
508.000000	38.842700
507.000000	38.564600
506.000000	38.242200
505.000000	37.954800
504.000000	37.625600
503.000000	37.294200
502.000000	36.976400
501.000000	36.642100
500.000000	36.282400
499.000000	35.927000
498.000000	35.510600
497.000000	35.115400
496.000000	34.643800
495.000000	34.164400
494.000000	33.684400
493.000000	33.123500
492.000000	32.622200
491.000000	32.026600
490.000000	31.421300
489.000000	30.819700
488.000000	30.258600
487.000000	29.694600
486.000000	29.140500
485.000000	28.678200
484.000000	28.196500
483.000000	27.792300
482.000000	27.440400
481.000000	27.167400
480.000000	26.954200
479.000000	26.806800
478.000000	26.713700
477.000000	26.666200
476.000000	26.659300
475.000000	26.700800
474.000000	26.740900
473.000000	26.837900
472.000000	26.943600
471.000000	27.045500
470.000000	27.167900
469.000000	27.293700
468.000000	27.479000
467.000000	27.599500
466.000000	27.766300
465.000000	27.912300
464.000000	28.026900
463.000000	28.115500
462.000000	28.182700
461.000000	28.297600
460.000000	28.352500
459.000000	28.371300
458.000000	28.410000
457.000000	28.418600
456.000000	28.401800
455.000000	28.380400
454.000000	28.278600
453.000000	28.247800
452.000000	28.137500
451.000000	28.027800
450.000000	27.914300
449.000000	27.755500
448.000000	27.614400
447.000000	27.464800
446.000000	27.294000
445.000000	27.100600
444.000000	26.895200
443.000000	26.681800
442.000000	26.400800
441.000000	26.164800
440.000000	25.904500
439.000000	25.648600
438.000000	25.370800
437.000000	25.061000
436.000000	24.786400
435.000000	24.450900
434.000000	24.119800
433.000000	23.755000
432.000000	23.436500
431.000000	23.053900
430.000000	22.690100
429.000000	22.277300
428.000000	21.910600
427.000000	21.521600
426.000000	21.098800
425.000000	20.652800
424.000000	20.230600
423.000000	19.758900
422.000000	19.297500
421.000000	18.824000
420.000000	18.348800
419.000000	17.877300
418.000000	17.378600
417.000000	16.907600
416.000000	16.420200
415.000000	15.915800
414.000000	15.445800
413.000000	14.951200
412.000000	14.488900
411.000000	13.999100
410.000000	13.573800
409.000000	13.133700
408.000000	12.745200
407.000000	12.337700
406.000000	11.955000
405.000000	11.607600
404.000000	11.258500
403.000000	10.930500
402.000000	10.622500
401.000000	10.312300
400.000000	10.072500
399.000000	9.821700
398.000000	9.590900
397.000000	9.379500
396.000000	9.165800
395.000000	8.984000
394.000000	8.791200
393.000000	8.641700
392.000000	8.498200
391.000000	8.329900
390.000000	8.197500
389.000000	8.068000
388.000000	7.929600
387.000000	7.823900
386.000000	7.737300
385.000000	7.628700
384.000000	7.533700
383.000000	7.441100
382.000000	7.349600
381.000000	7.272200
380.000000	7.191700
379.000000	7.148000
378.000000	7.082700
377.000000	7.025700
376.000000	6.960900
375.000000	6.911900
374.000000	6.861800
373.000000	6.765300
372.000000	6.759500
371.000000	6.777500
370.000000	6.713900
369.000000	6.600300
368.000000	6.555700
367.000000	6.541700
366.000000	6.539400
365.000000	6.496700
364.000000	6.495600
363.000000	6.476500
362.000000	6.446900
361.000000	6.375300
360.000000	6.339400
359.000000	6.303600
358.000000	6.176600
357.000000	6.180800
356.000000	6.111200
355.000000	6.029800
354.000000	6.040400
353.000000	6.005400
352.000000	5.957700
351.000000	5.904600
350.000000	5.920900
349.000000	5.885100
348.000000	5.839500
347.000000	5.820300
346.000000	5.813600
345.000000	5.814500
344.000000	5.782800
343.000000	5.826000
342.000000	5.819900
341.000000	5.782200
340.000000	5.726800
339.000000	5.671200
338.000000	5.724200
337.000000	5.800300
336.000000	5.786900
335.000000	5.706700
334.000000	5.747200
333.000000	5.739100
332.000000	5.724700
331.000000	5.749700
330.000000	5.734600
329.000000	5.671500
328.000000	5.671200
327.000000	5.677400
326.000000	5.631900
325.000000	5.654000
324.000000	5.757400
323.000000	5.715700
322.000000	5.688700
321.000000	5.743800
320.000000	5.698800
319.000000	5.691700
318.000000	5.748400
317.000000	5.713200
316.000000	5.700000
315.000000	5.725300
314.000000	5.699000
313.000000	5.687800
312.000000	5.689200
311.000000	5.744800
310.000000	5.755100
309.000000	5.727400
308.000000	5.724900
307.000000	5.732500
306.000000	5.747200
305.000000	5.726800
304.000000	5.754400
303.000000	5.791000
302.000000	5.748300
301.000000	5.768300
300.000000	5.808200
299.000000	5.797800
298.000000	5.793900
297.000000	5.784900
296.000000	5.793700
295.000000	5.794100
294.000000	5.842300
293.000000	5.848600
292.000000	5.822300
291.000000	5.818400
290.000000	5.815100
289.000000	5.820700
288.000000	5.850800
287.000000	5.845700
286.000000	5.845400
285.000000	5.855700
284.000000	5.863400
283.000000	5.855300
282.000000	5.875200
281.000000	5.878700
280.000000	5.862300
279.000000	5.888800
278.000000	5.882700
277.000000	5.895800
276.000000	5.913000
275.000000	5.927100
274.000000	5.947100
273.000000	5.959600
272.000000	5.967000
271.000000	5.990600
270.000000	6.003400
269.000000	6.013500
268.000000	6.043200
267.000000	6.066900
266.000000	6.077800
265.000000	6.085100
264.000000	6.129000
263.000000	6.149600
262.000000	6.177100
261.000000	6.192500
260.000000	6.244800
259.000000	6.258700
258.000000	6.238300
257.000000	6.263900
256.000000	6.288900
255.000000	6.306500
254.000000	6.331100
253.000000	6.346500
252.000000	6.366100
251.000000	6.343600
250.000000	6.358200
