PE UV       SUBTECH     SPECTRUM    ASCII       PEDS        4.00        
   -1
CICIMAUCR0236-3.ASC
24/06/17
17:27:19.00
24/06/17
17:27:19.00
Vinicio Soto Monge
C. resplendens. Sex M. Dorsal.
250,000000
1
Lambda 1050
1050L1511233
PerkinElmer UV WinLab 6.3.2.0749 / 2.02.05 Lambda 900 UV/VIS/NIR, Aug  7 2015 09:38:08

0
0
3350/servo 860,8/2
0
0
UV/VIS
1
1
1
DoubleDePol,CommonBeamDepol,RBeamAtt,SBeamAtt,60mm sphere, WB InGaAs Detector
0
0
0
0
Program
Program
3350/servo 860,8/2
3350/0,2 860,8/0,2
3350/0,2 860,8/0,2
0
15.00
 
 
 
0
 
860,8
319,2
860,8
Front
100
on
S:100 R:100
0
0
0
0
 
0
 
 
 
0
 
 
0
0
0
0
0
 
 
 
 
0
0


0
0
#HDR
-1
-1
#GR
nm
%R
1.0
0.0
2500,000000
-1,000000
2251
8
91,555400
5,465400
#DATA
2500.000000	9.618511
2499.000000	9.686315
2498.000000	9.654376
2497.000000	9.577234
2496.000000	9.574369
2495.000000	9.565562
2494.000000	9.458285
2493.000000	9.523118
2492.000000	9.471867
2491.000000	9.421571
2490.000000	9.387510
2489.000000	9.516433
2488.000000	9.406610
2487.000000	9.450327
2486.000000	9.521208
2485.000000	9.525559
2484.000000	9.488208
2483.000000	9.421465
2482.000000	9.428893
2481.000000	9.474414
2480.000000	9.495105
2479.000000	9.547311
2478.000000	9.587739
2477.000000	9.540202
2476.000000	9.570231
2475.000000	9.536276
2474.000000	9.569806
2473.000000	9.572035
2472.000000	9.590922
2471.000000	9.604610
2470.000000	9.641855
2469.000000	9.624665
2468.000000	9.667109
2467.000000	9.696819
2466.000000	9.717617
2465.000000	9.687057
2464.000000	9.754331
2463.000000	9.847707
2462.000000	9.820013
2461.000000	9.832533
2460.000000	9.883678
2459.000000	9.944585
2458.000000	9.998701
2457.000000	10.053241
2456.000000	10.090486
2455.000000	10.158077
2454.000000	10.236280
2453.000000	10.324988
2452.000000	10.371676
2451.000000	10.423776
2450.000000	10.498477
2449.000000	10.586123
2448.000000	10.685124
2447.000000	10.759506
2446.000000	10.838770
2445.000000	10.926629
2444.000000	10.991568
2443.000000	11.074439
2442.000000	11.155507
2441.000000	11.236575
2440.000000	11.312019
2439.000000	11.376215
2438.000000	11.441366
2437.000000	11.515643
2436.000000	11.627801
2435.000000	11.692103
2434.000000	11.745794
2433.000000	11.831000
2432.000000	11.912386
2431.000000	11.959923
2430.000000	12.023483
2429.000000	12.109856
2428.000000	12.187528
2427.000000	12.229229
2426.000000	12.280905
2425.000000	12.332474
2424.000000	12.402718
2423.000000	12.445693
2422.000000	12.489941
2421.000000	12.565809
2420.000000	12.625124
2419.000000	12.675102
2418.000000	12.699719
2417.000000	12.722002
2416.000000	12.784076
2415.000000	12.839147
2414.000000	12.890822
2413.000000	12.937829
2412.000000	12.966054
2411.000000	12.984199
2410.000000	13.035980
2409.000000	13.086382
2408.000000	13.125218
2407.000000	13.163099
2406.000000	13.188990
2405.000000	13.223157
2404.000000	13.258067
2403.000000	13.282154
2402.000000	13.320672
2401.000000	13.361206
2400.000000	13.395691
2399.000000	13.422856
2398.000000	13.455643
2397.000000	13.493418
2396.000000	13.534801
2395.000000	13.563981
2394.000000	13.591251
2393.000000	13.635075
2392.000000	13.668711
2391.000000	13.682718
2390.000000	13.700438
2389.000000	13.739062
2388.000000	13.772805
2387.000000	13.785750
2386.000000	13.795512
2385.000000	13.824798
2384.000000	13.847400
2383.000000	13.858860
2382.000000	13.875413
2381.000000	13.893239
2380.000000	13.886660
2379.000000	13.890586
2378.000000	13.884538
2377.000000	13.886872
2376.000000	13.902895
2375.000000	13.903001
2374.000000	13.878808
2373.000000	13.876580
2372.000000	13.874988
2371.000000	13.851220
2370.000000	13.838805
2369.000000	13.843049
2368.000000	13.827027
2367.000000	13.792435
2366.000000	13.780020
2365.000000	13.760920
2364.000000	13.728133
2363.000000	13.710837
2362.000000	13.678261
2361.000000	13.625631
2360.000000	13.586583
2359.000000	13.541062
2358.000000	13.501483
2357.000000	13.474849
2356.000000	13.438241
2355.000000	13.403544
2354.000000	13.381579
2353.000000	13.360675
2352.000000	13.334785
2351.000000	13.323643
2350.000000	13.327039
2349.000000	13.343273
2348.000000	13.349109
2347.000000	13.356431
2346.000000	13.379987
2345.000000	13.415958
2344.000000	13.452248
2343.000000	13.505197
2342.000000	13.543396
2341.000000	13.581171
2340.000000	13.628920
2339.000000	13.668393
2338.000000	13.696618
2337.000000	13.730149
2336.000000	13.756782
2335.000000	13.782142
2334.000000	13.792966
2333.000000	13.797740
2332.000000	13.794133
2331.000000	13.787448
2330.000000	13.769091
2329.000000	13.746383
2328.000000	13.725055
2327.000000	13.688235
2326.000000	13.658206
2325.000000	13.626055
2324.000000	13.581171
2323.000000	13.519521
2322.000000	13.458933
2321.000000	13.393145
2320.000000	13.317701
2319.000000	13.227932
2318.000000	13.136466
2317.000000	13.051578
2316.000000	12.955549
2315.000000	12.855276
2314.000000	12.751394
2313.000000	12.643587
2312.000000	12.531748
2311.000000	12.446966
2310.000000	12.350406
2309.000000	12.282390
2308.000000	12.204506
2307.000000	12.144978
2306.000000	12.089908
2305.000000	12.058711
2304.000000	12.038869
2303.000000	12.045129
2302.000000	12.071126
2301.000000	12.094789
2300.000000	12.145615
2299.000000	12.219573
2298.000000	12.290773
2297.000000	12.368870
2296.000000	12.437841
2295.000000	12.555622
2294.000000	12.651651
2293.000000	12.743012
2292.000000	12.823124
2291.000000	12.909498
2290.000000	12.975816
2289.000000	13.032266
2288.000000	13.089353
2287.000000	13.119382
2286.000000	13.150791
2285.000000	13.161402
2284.000000	13.165009
2283.000000	13.159067
2282.000000	13.115775
2281.000000	13.076090
2280.000000	13.054019
2279.000000	12.988974
2278.000000	12.930189
2277.000000	12.868221
2276.000000	12.832993
2275.000000	12.779513
2274.000000	12.723169
2273.000000	12.681999
2272.000000	12.661201
2271.000000	12.620986
2270.000000	12.605812
2269.000000	12.609208
2268.000000	12.651439
2267.000000	12.672343
2266.000000	12.713301
2265.000000	12.828005
2264.000000	12.916395
2263.000000	13.053276
2262.000000	13.183685
2261.000000	13.384126
2260.000000	13.557402
2259.000000	13.772380
2258.000000	13.992664
2257.000000	14.224831
2256.000000	14.470475
2255.000000	14.726199
2254.000000	14.995717
2253.000000	15.241467
2252.000000	15.489445
2251.000000	15.726387
2250.000000	15.984870
2249.000000	16.195710
2248.000000	16.413553
2247.000000	16.596273
2246.000000	16.764032
2245.000000	16.962882
2244.000000	17.106554
2243.000000	17.238448
2242.000000	17.375966
2241.000000	17.496613
2240.000000	17.615667
2239.000000	17.713288
2238.000000	17.786610
2237.000000	17.855581
2236.000000	17.975167
2235.000000	18.024083
2234.000000	18.078411
2233.000000	18.131466
2232.000000	18.168604
2231.000000	18.168286
2230.000000	18.239592
2229.000000	18.254129
2228.000000	18.289145
2227.000000	18.278003
2226.000000	18.261981
2225.000000	18.257418
2224.000000	18.259646
2223.000000	18.239485
2222.000000	18.225691
2221.000000	18.183566
2220.000000	18.148019
2219.000000	18.111411
2218.000000	18.084353
2217.000000	18.042334
2216.000000	17.989279
2215.000000	17.969331
2214.000000	17.916806
2213.000000	17.877652
2212.000000	17.828735
2211.000000	17.780349
2210.000000	17.765494
2209.000000	17.722944
2208.000000	17.674240
2207.000000	17.636783
2206.000000	17.627021
2205.000000	17.606224
2204.000000	17.576407
2203.000000	17.551471
2202.000000	17.518471
2201.000000	17.503828
2200.000000	17.482818
2199.000000	17.455760
2198.000000	17.454487
2197.000000	17.427960
2196.000000	17.416818
2195.000000	17.389442
2194.000000	17.374056
2193.000000	17.354850
2192.000000	17.328960
2191.000000	17.318242
2190.000000	17.331294
2189.000000	17.296384
2188.000000	17.280680
2187.000000	17.280255
2186.000000	17.244072
2185.000000	17.232082
2184.000000	17.216271
2183.000000	17.182847
2182.000000	17.175631
2181.000000	17.144117
2180.000000	17.112178
2179.000000	17.106766
2178.000000	17.098914
2177.000000	17.079178
2176.000000	17.072493
2175.000000	17.047663
2174.000000	17.057213
2173.000000	17.033763
2172.000000	17.024531
2171.000000	17.042994
2170.000000	17.027608
2169.000000	17.032489
2168.000000	17.044268
2167.000000	17.059335
2166.000000	17.070052
2165.000000	17.070158
2164.000000	17.097641
2163.000000	17.105493
2162.000000	17.114937
2161.000000	17.147194
2160.000000	17.184969
2159.000000	17.210647
2158.000000	17.260201
2157.000000	17.299355
2156.000000	17.323760
2155.000000	17.348908
2154.000000	17.399098
2153.000000	17.444194
2152.000000	17.494703
2151.000000	17.528552
2150.000000	17.555291
2149.000000	17.603889
2148.000000	17.655352
2147.000000	17.702571
2146.000000	17.740664
2145.000000	17.806771
2144.000000	17.848260
2143.000000	17.901420
2142.000000	17.937073
2141.000000	17.978562
2140.000000	18.012835
2139.000000	18.037983
2138.000000	18.075334
2137.000000	18.104514
2136.000000	18.135816
2135.000000	18.171469
2134.000000	18.190781
2133.000000	18.218370
2132.000000	18.237363
2131.000000	18.262936
2130.000000	18.271530
2129.000000	18.293283
2128.000000	18.307926
2127.000000	18.306334
2126.000000	18.307077
2125.000000	18.302090
2124.000000	18.302090
2123.000000	18.303151
2122.000000	18.302408
2121.000000	18.290206
2120.000000	18.269090
2119.000000	18.253174
2118.000000	18.234923
2117.000000	18.234392
2116.000000	18.208926
2115.000000	18.187173
2114.000000	18.168923
2113.000000	18.147276
2112.000000	18.124250
2111.000000	18.096556
2110.000000	18.056234
2109.000000	18.033739
2108.000000	18.007954
2107.000000	17.977713
2106.000000	17.934527
2105.000000	17.896858
2104.000000	17.857279
2103.000000	17.841044
2102.000000	17.819716
2101.000000	17.778546
2100.000000	17.737693
2099.000000	17.713288
2098.000000	17.687504
2097.000000	17.661188
2096.000000	17.635086
2095.000000	17.593278
2094.000000	17.571738
2093.000000	17.547227
2092.000000	17.522291
2091.000000	17.497249
2090.000000	17.468494
2089.000000	17.436130
2088.000000	17.411407
2087.000000	17.375223
2086.000000	17.347104
2085.000000	17.319197
2084.000000	17.292033
2083.000000	17.270493
2082.000000	17.234522
2081.000000	17.193670
2080.000000	17.140191
2079.000000	17.090425
2078.000000	17.049785
2077.000000	16.994290
2076.000000	16.933383
2075.000000	16.890091
2074.000000	16.849026
2073.000000	16.785360
2072.000000	16.722862
2071.000000	16.663865
2070.000000	16.595743
2069.000000	16.542263
2068.000000	16.482948
2067.000000	16.412598
2066.000000	16.359967
2065.000000	16.295559
2064.000000	16.219372
2063.000000	16.155706
2062.000000	16.088751
2061.000000	16.041002
2060.000000	16.001848
2059.000000	15.956751
2058.000000	15.911124
2057.000000	15.867513
2056.000000	15.852127
2055.000000	15.840031
2054.000000	15.833770
2053.000000	15.824008
2052.000000	15.836529
2051.000000	15.853931
2050.000000	15.880777
2049.000000	15.910063
2048.000000	15.957812
2047.000000	16.013838
2046.000000	16.069333
2045.000000	16.125784
2044.000000	16.190829
2043.000000	16.234440
2042.000000	16.287388
2041.000000	16.355935
2040.000000	16.433289
2039.000000	16.491013
2038.000000	16.545235
2037.000000	16.597547
2036.000000	16.663971
2035.000000	16.723074
2034.000000	16.755968
2033.000000	16.795122
2032.000000	16.827592
2031.000000	16.849132
2030.000000	16.867808
2029.000000	16.888393
2028.000000	16.915663
2027.000000	16.922454
2026.000000	16.944631
2025.000000	16.954287
2024.000000	16.944525
2023.000000	16.951528
2022.000000	16.942615
2021.000000	16.956833
2020.000000	16.961927
2019.000000	16.934338
2018.000000	16.919589
2017.000000	16.905264
2016.000000	16.885740
2015.000000	16.855393
2014.000000	16.841386
2013.000000	16.814010
2012.000000	16.762441
2011.000000	16.748010
2010.000000	16.708643
2009.000000	16.659833
2008.000000	16.611341
2007.000000	16.576112
2006.000000	16.528575
2005.000000	16.461939
2004.000000	16.408141
2003.000000	16.353813
2002.000000	16.278263
2001.000000	16.201227
2000.000000	16.140639
1999.000000	16.070819
1998.000000	15.981899
1997.000000	15.898603
1996.000000	15.856796
1995.000000	15.785278
1994.000000	15.697950
1993.000000	15.607439
1992.000000	15.522339
1991.000000	15.427795
1990.000000	15.354686
1989.000000	15.248258
1988.000000	15.168145
1987.000000	15.069994
1986.000000	14.975450
1985.000000	14.885788
1984.000000	14.777662
1983.000000	14.691183
1982.000000	14.588044
1981.000000	14.473022
1980.000000	14.375295
1979.000000	14.292529
1978.000000	14.210188
1977.000000	14.095059
1976.000000	13.996802
1975.000000	13.890905
1974.000000	13.785962
1973.000000	13.710094
1972.000000	13.600483
1971.000000	13.510290
1970.000000	13.418293
1969.000000	13.336695
1968.000000	13.233132
1967.000000	13.138906
1966.000000	13.071527
1965.000000	12.968919
1964.000000	12.879362
1963.000000	12.794581
1962.000000	12.722214
1961.000000	12.615680
1960.000000	12.531323
1959.000000	12.445587
1958.000000	12.355075
1957.000000	12.293744
1956.000000	12.215435
1955.000000	12.145933
1954.000000	12.060621
1953.000000	11.963956
1952.000000	11.892544
1951.000000	11.816357
1950.000000	11.751843
1949.000000	11.709717
1948.000000	11.645627
1947.000000	11.570926
1946.000000	11.509807
1945.000000	11.464604
1944.000000	11.400408
1943.000000	11.374093
1942.000000	11.324115
1941.000000	11.315945
1940.000000	11.279231
1939.000000	11.234453
1938.000000	11.225539
1937.000000	11.213761
1936.000000	11.189993
1935.000000	11.167816
1934.000000	11.190099
1933.000000	11.209835
1932.000000	11.221189
1931.000000	11.284961
1930.000000	11.302363
1929.000000	11.372819
1928.000000	11.394996
1927.000000	11.467469
1926.000000	11.524344
1925.000000	11.614325
1924.000000	11.718736
1923.000000	11.844052
1922.000000	11.920026
1921.000000	12.029956
1920.000000	12.150178
1919.000000	12.271249
1918.000000	12.399429
1917.000000	12.572175
1916.000000	12.759671
1915.000000	12.910877
1914.000000	13.083623
1913.000000	13.287990
1912.000000	13.480791
1911.000000	13.667120
1910.000000	13.914567
1909.000000	14.136230
1908.000000	14.370944
1907.000000	14.611601
1906.000000	14.869128
1905.000000	15.151274
1904.000000	15.439998
1903.000000	15.734346
1902.000000	16.029967
1901.000000	16.394347
1900.000000	16.705884
1899.000000	17.052544
1898.000000	17.414165
1897.000000	17.828842
1896.000000	18.243093
1895.000000	18.631242
1894.000000	19.032760
1893.000000	19.467279
1892.000000	19.878135
1891.000000	20.348731
1890.000000	20.894664
1889.000000	21.393167
1888.000000	21.870023
1887.000000	22.409484
1886.000000	22.935469
1885.000000	23.493393
1884.000000	24.039432
1883.000000	24.612318
1882.000000	25.227965
1881.000000	25.770185
1880.000000	26.355379
1879.000000	26.868737
1878.000000	27.363101
1877.000000	27.864469
1876.000000	28.379524
1875.000000	28.829853
1874.000000	29.284532
1873.000000	29.733694
1872.000000	30.177762
1871.000000	30.554557
1870.000000	30.933475
1869.000000	31.259549
1868.000000	31.617669
1867.000000	31.917110
1866.000000	32.175274
1865.000000	32.381976
1864.000000	32.593664
1863.000000	32.784343
1862.000000	32.970353
1861.000000	33.160395
1860.000000	33.329852
1859.000000	33.514801
1858.000000	33.665158
1857.000000	33.784638
1856.000000	33.888519
1855.000000	33.969587
1854.000000	34.056172
1853.000000	34.159098
1852.000000	34.187748
1851.000000	34.245790
1850.000000	34.308925
1849.000000	34.383732
1848.000000	34.411427
1847.000000	34.420976
1846.000000	34.419279
1845.000000	34.407925
1844.000000	34.396890
1843.000000	34.402832
1842.000000	34.436256
1841.000000	34.471591
1840.000000	34.481141
1839.000000	34.473288
1838.000000	34.452385
1837.000000	34.427237
1836.000000	34.402407
1835.000000	34.376941
1834.000000	34.349883
1833.000000	34.313912
1832.000000	34.279002
1831.000000	34.261706
1830.000000	34.245153
1829.000000	34.199526
1828.000000	34.155066
1827.000000	34.083124
1826.000000	34.025825
1825.000000	34.000252
1824.000000	33.953670
1823.000000	33.922580
1822.000000	33.920033
1821.000000	33.918654
1820.000000	33.891490
1819.000000	33.858490
1818.000000	33.809467
1817.000000	33.774451
1816.000000	33.761294
1815.000000	33.765962
1814.000000	33.755882
1813.000000	33.715136
1812.000000	33.713863
1811.000000	33.683515
1810.000000	33.644679
1809.000000	33.608814
1808.000000	33.576557
1807.000000	33.558518
1806.000000	33.534644
1805.000000	33.485727
1804.000000	33.423547
1803.000000	33.392032
1802.000000	33.366248
1801.000000	33.326563
1800.000000	33.285286
1799.000000	33.231276
1798.000000	33.171006
1797.000000	33.137476
1796.000000	33.090893
1795.000000	33.050147
1794.000000	33.016086
1793.000000	32.966215
1792.000000	32.921861
1791.000000	32.886208
1790.000000	32.840687
1789.000000	32.789118
1788.000000	32.749115
1787.000000	32.717812
1786.000000	32.676324
1785.000000	32.629105
1784.000000	32.597909
1783.000000	32.557056
1782.000000	32.504851
1781.000000	32.468031
1780.000000	32.413278
1779.000000	32.361072
1778.000000	32.308548
1777.000000	32.257934
1776.000000	32.208805
1775.000000	32.139940
1774.000000	32.068316
1773.000000	32.013988
1772.000000	31.954673
1771.000000	31.879335
1770.000000	31.821505
1769.000000	31.752746
1768.000000	31.669238
1767.000000	31.601752
1766.000000	31.541270
1765.000000	31.478135
1764.000000	31.433993
1763.000000	31.414787
1762.000000	31.402797
1761.000000	31.408845
1760.000000	31.429961
1759.000000	31.471980
1758.000000	31.519730
1757.000000	31.584881
1756.000000	31.634434
1755.000000	31.706589
1754.000000	31.772270
1753.000000	31.817579
1752.000000	31.859599
1751.000000	31.888460
1750.000000	31.907560
1749.000000	31.911486
1748.000000	31.903210
1747.000000	31.886975
1746.000000	31.858325
1745.000000	31.812061
1744.000000	31.764737
1743.000000	31.689187
1742.000000	31.603132
1741.000000	31.498826
1740.000000	31.365765
1739.000000	31.239070
1738.000000	31.105796
1737.000000	30.957561
1736.000000	30.823333
1735.000000	30.711600
1734.000000	30.638808
1733.000000	30.572384
1732.000000	30.516358
1731.000000	30.520708
1730.000000	30.550525
1729.000000	30.582570
1728.000000	30.650480
1727.000000	30.723378
1726.000000	30.800732
1725.000000	30.879253
1724.000000	30.946738
1723.000000	31.017407
1722.000000	31.076935
1721.000000	31.151105
1720.000000	31.222305
1719.000000	31.292019
1718.000000	31.361202
1717.000000	31.443331
1716.000000	31.521852
1715.000000	31.626794
1714.000000	31.721974
1713.000000	31.813229
1712.000000	31.898541
1711.000000	31.983959
1710.000000	32.045821
1709.000000	32.085612
1708.000000	32.134104
1707.000000	32.159040
1706.000000	32.156281
1705.000000	32.158933
1704.000000	32.110760
1703.000000	32.067785
1702.000000	32.022477
1701.000000	31.946502
1700.000000	31.861933
1699.000000	31.775135
1698.000000	31.637087
1697.000000	31.523019
1696.000000	31.418395
1695.000000	31.351440
1694.000000	31.304964
1693.000000	31.310482
1692.000000	31.326398
1691.000000	31.399189
1690.000000	31.486624
1689.000000	31.585942
1688.000000	31.693643
1687.000000	31.791370
1686.000000	31.859705
1685.000000	31.939393
1684.000000	31.995206
1683.000000	32.090175
1682.000000	32.221008
1681.000000	32.424950
1680.000000	32.700517
1679.000000	33.003884
1678.000000	33.356486
1677.000000	33.753866
1676.000000	34.107423
1675.000000	34.432330
1674.000000	34.730604
1673.000000	35.053495
1672.000000	35.286830
1671.000000	35.489393
1670.000000	35.678799
1669.000000	35.861413
1668.000000	35.995324
1667.000000	36.120745
1666.000000	36.228977
1665.000000	36.339225
1664.000000	36.406816
1663.000000	36.492447
1662.000000	36.549428
1661.000000	36.627949
1660.000000	36.674212
1659.000000	36.718142
1658.000000	36.728753
1657.000000	36.778412
1656.000000	36.798467
1655.000000	36.819158
1654.000000	36.815338
1653.000000	36.830406
1652.000000	36.810139
1651.000000	36.777669
1650.000000	36.782656
1649.000000	36.776290
1648.000000	36.746048
1647.000000	36.696389
1646.000000	36.676441
1645.000000	36.636756
1644.000000	36.594630
1643.000000	36.540727
1642.000000	36.497646
1641.000000	36.455308
1640.000000	36.395038
1639.000000	36.364266
1638.000000	36.313864
1637.000000	36.275347
1636.000000	36.235768
1635.000000	36.168282
1634.000000	36.107906
1633.000000	36.040208
1632.000000	35.992883
1631.000000	35.917545
1630.000000	35.854835
1629.000000	35.792654
1628.000000	35.708934
1627.000000	35.627017
1626.000000	35.596988
1625.000000	35.513798
1624.000000	35.439522
1623.000000	35.392091
1622.000000	35.312615
1621.000000	35.249055
1620.000000	35.187512
1619.000000	35.112598
1618.000000	35.080872
1617.000000	35.016675
1616.000000	34.946219
1615.000000	34.897514
1614.000000	34.825148
1613.000000	34.785250
1612.000000	34.743019
1611.000000	34.666302
1610.000000	34.612186
1609.000000	34.542472
1608.000000	34.483369
1607.000000	34.426494
1606.000000	34.371636
1605.000000	34.318156
1604.000000	34.253960
1603.000000	34.200481
1602.000000	34.138619
1601.000000	34.062645
1600.000000	34.008847
1599.000000	33.958339
1598.000000	33.893082
1597.000000	33.830159
1596.000000	33.765750
1595.000000	33.699326
1594.000000	33.636190
1593.000000	33.574859
1592.000000	33.530930
1591.000000	33.493579
1590.000000	33.456547
1589.000000	33.382058
1588.000000	33.333354
1587.000000	33.293881
1586.000000	33.250801
1585.000000	33.196685
1584.000000	33.146283
1583.000000	33.094183
1582.000000	33.058530
1581.000000	33.001231
1580.000000	32.958363
1579.000000	32.917935
1578.000000	32.865941
1577.000000	32.844401
1576.000000	32.803337
1575.000000	32.754951
1574.000000	32.732668
1573.000000	32.717812
1572.000000	32.686616
1571.000000	32.683963
1570.000000	32.647886
1569.000000	32.626452
1568.000000	32.602896
1567.000000	32.588040
1566.000000	32.570320
1565.000000	32.559921
1564.000000	32.557056
1563.000000	32.544323
1562.000000	32.524481
1561.000000	32.500925
1560.000000	32.480976
1559.000000	32.439487
1558.000000	32.412854
1557.000000	32.375503
1556.000000	32.333802
1555.000000	32.287220
1554.000000	32.258146
1553.000000	32.209123
1552.000000	32.154477
1551.000000	32.098982
1550.000000	32.061419
1549.000000	32.027464
1548.000000	31.961676
1547.000000	31.904907
1546.000000	31.846865
1545.000000	31.805801
1544.000000	31.760068
1543.000000	31.710833
1542.000000	31.664569
1541.000000	31.608649
1540.000000	31.562916
1539.000000	31.517926
1538.000000	31.465614
1537.000000	31.431340
1536.000000	31.396218
1535.000000	31.338919
1534.000000	31.287986
1533.000000	31.245224
1532.000000	31.195565
1531.000000	31.147073
1530.000000	31.097944
1529.000000	31.029504
1528.000000	30.971250
1527.000000	30.903127
1526.000000	30.833413
1525.000000	30.772294
1524.000000	30.713191
1523.000000	30.643689
1522.000000	30.587345
1521.000000	30.516464
1520.000000	30.453011
1519.000000	30.394756
1518.000000	30.314432
1517.000000	30.243763
1516.000000	30.182537
1515.000000	30.112717
1514.000000	30.031650
1513.000000	29.942199
1512.000000	29.862723
1511.000000	29.800968
1510.000000	29.727646
1509.000000	29.636179
1508.000000	29.559568
1507.000000	29.478182
1506.000000	29.392446
1505.000000	29.326127
1504.000000	29.260976
1503.000000	29.187336
1502.000000	29.114333
1501.000000	29.033371
1500.000000	28.954744
1499.000000	28.893307
1498.000000	28.824017
1497.000000	28.748785
1496.000000	28.698702
1495.000000	28.633020
1494.000000	28.577525
1493.000000	28.522029
1492.000000	28.463881
1491.000000	28.418997
1490.000000	28.358727
1489.000000	28.308113
1488.000000	28.263547
1487.000000	28.225241
1486.000000	28.181736
1485.000000	28.132501
1484.000000	28.081993
1483.000000	28.043263
1482.000000	28.003684
1481.000000	27.961028
1480.000000	27.939700
1479.000000	27.918054
1478.000000	27.878687
1477.000000	27.848764
1476.000000	27.820009
1475.000000	27.792420
1474.000000	27.785205
1473.000000	27.776185
1472.000000	27.774806
1471.000000	27.765468
1470.000000	27.749552
1469.000000	27.738623
1468.000000	27.722388
1467.000000	27.736501
1466.000000	27.723767
1465.000000	27.713263
1464.000000	27.728224
1463.000000	27.725783
1462.000000	27.726314
1461.000000	27.745095
1460.000000	27.773533
1459.000000	27.801758
1458.000000	27.866060
1457.000000	27.888025
1456.000000	27.931424
1455.000000	27.973337
1454.000000	28.014614
1453.000000	28.074459
1452.000000	28.139398
1451.000000	28.213357
1450.000000	28.272778
1449.000000	28.328061
1448.000000	28.370187
1447.000000	28.455393
1446.000000	28.539007
1445.000000	28.616467
1444.000000	28.690956
1443.000000	28.768522
1442.000000	28.846512
1441.000000	28.942117
1440.000000	29.054063
1439.000000	29.159429
1438.000000	29.253867
1437.000000	29.365706
1436.000000	29.460568
1435.000000	29.574954
1434.000000	29.686369
1433.000000	29.812640
1432.000000	29.965968
1431.000000	30.092238
1430.000000	30.220206
1429.000000	30.379795
1428.000000	30.532381
1427.000000	30.684542
1426.000000	30.851558
1425.000000	31.060700
1424.000000	31.273025
1423.000000	31.501373
1422.000000	31.684412
1421.000000	31.888036
1420.000000	32.132512
1419.000000	32.381657
1418.000000	32.661044
1417.000000	32.889179
1416.000000	33.148193
1415.000000	33.419727
1414.000000	33.728293
1413.000000	34.022323
1412.000000	34.299799
1411.000000	34.580777
1410.000000	34.928074
1409.000000	35.311342
1408.000000	35.706281
1407.000000	36.088275
1406.000000	36.454141
1405.000000	36.840592
1404.000000	37.280734
1403.000000	37.653179
1402.000000	38.076238
1401.000000	38.470222
1400.000000	38.948988
1399.000000	39.400166
1398.000000	39.771762
1397.000000	40.080434
1396.000000	40.489274
1395.000000	40.952018
1394.000000	41.376244
1393.000000	41.720251
1392.000000	42.042506
1391.000000	42.486998
1390.000000	42.894459
1389.000000	43.270936
1388.000000	43.729965
1387.000000	44.243748
1386.000000	44.712858
1385.000000	45.198521
1384.000000	45.700738
1383.000000	46.223221
1382.000000	46.774354
1381.000000	47.252059
1380.000000	47.671298
1379.000000	47.977106
1378.000000	48.260206
1377.000000	48.461496
1376.000000	48.689313
1375.000000	48.909808
1374.000000	49.098259
1373.000000	49.332549
1372.000000	49.597822
1371.000000	49.865006
1370.000000	50.154155
1369.000000	50.398207
1368.000000	50.623902
1367.000000	50.882384
1366.000000	51.110096
1365.000000	51.291861
1364.000000	51.483813
1363.000000	51.618891
1362.000000	51.759486
1361.000000	51.938811
1360.000000	52.058715
1359.000000	52.081528
1358.000000	52.189442
1357.000000	52.277300
1356.000000	52.391050
1355.000000	52.545545
1354.000000	52.762964
1353.000000	53.048611
1352.000000	53.257965
1351.000000	53.622239
1350.000000	53.959136
1349.000000	54.324896
1348.000000	54.637495
1347.000000	54.924839
1346.000000	55.203377
1345.000000	55.476609
1344.000000	55.752812
1343.000000	56.034002
1342.000000	56.307446
1341.000000	56.558077
1340.000000	56.842451
1339.000000	57.092445
1338.000000	57.359947
1337.000000	57.620233
1336.000000	57.884977
1335.000000	58.140064
1334.000000	58.428470
1333.000000	58.653846
1332.000000	58.900551
1331.000000	59.155851
1330.000000	59.394915
1329.000000	59.628356
1328.000000	59.852566
1327.000000	60.065846
1326.000000	60.296634
1325.000000	60.509172
1324.000000	60.725741
1323.000000	60.904854
1322.000000	61.101263
1321.000000	61.301704
1320.000000	61.476784
1319.000000	61.657171
1318.000000	61.838936
1317.000000	61.999798
1316.000000	62.153551
1315.000000	62.319718
1314.000000	62.467635
1313.000000	62.621388
1312.000000	62.770047
1311.000000	62.896105
1310.000000	63.025347
1309.000000	63.138247
1308.000000	63.256453
1307.000000	63.370521
1306.000000	63.473660
1305.000000	63.564595
1304.000000	63.649271
1303.000000	63.721744
1302.000000	63.792943
1301.000000	63.878786
1300.000000	63.927914
1299.000000	63.975239
1298.000000	64.025217
1297.000000	64.072330
1296.000000	64.113394
1295.000000	64.160082
1294.000000	64.182683
1293.000000	64.211227
1292.000000	64.221307
1291.000000	64.238179
1290.000000	64.253034
1289.000000	64.250381
1288.000000	64.247941
1287.000000	64.228417
1286.000000	64.215259
1285.000000	64.199449
1284.000000	64.183214
1283.000000	64.148304
1282.000000	64.104056
1281.000000	64.058217
1280.000000	64.033069
1279.000000	63.995718
1278.000000	63.949136
1277.000000	63.903085
1276.000000	63.865628
1275.000000	63.827110
1274.000000	63.789123
1273.000000	63.752197
1272.000000	63.719197
1271.000000	63.681740
1270.000000	63.666248
1269.000000	63.634522
1268.000000	63.586878
1267.000000	63.563216
1266.000000	63.535946
1265.000000	63.496261
1264.000000	63.449042
1263.000000	63.407659
1262.000000	63.371901
1261.000000	63.334762
1260.000000	63.285633
1259.000000	63.231412
1258.000000	63.200852
1257.000000	63.157559
1256.000000	63.108749
1255.000000	63.053890
1254.000000	63.000305
1253.000000	62.928150
1252.000000	62.871064
1251.000000	62.814719
1250.000000	62.741716
1249.000000	62.666272
1248.000000	62.596983
1247.000000	62.521114
1246.000000	62.441426
1245.000000	62.365982
1244.000000	62.264329
1243.000000	62.172226
1242.000000	62.081609
1241.000000	61.976030
1240.000000	61.868222
1239.000000	61.753730
1238.000000	61.650804
1237.000000	61.557215
1236.000000	61.463945
1235.000000	61.363353
1234.000000	61.248649
1233.000000	61.130018
1232.000000	61.018073
1231.000000	60.896471
1230.000000	60.769458
1229.000000	60.649236
1228.000000	60.526998
1227.000000	60.380673
1226.000000	60.242306
1225.000000	60.112216
1224.000000	59.975228
1223.000000	59.849170
1222.000000	59.717276
1221.000000	59.579864
1220.000000	59.432796
1219.000000	59.294960
1218.000000	59.171661
1217.000000	59.047831
1216.000000	58.911268
1215.000000	58.783194
1214.000000	58.675811
1213.000000	58.568322
1212.000000	58.452875
1211.000000	58.334457
1210.000000	58.219222
1209.000000	58.129453
1208.000000	58.049447
1207.000000	57.950552
1206.000000	57.849536
1205.000000	57.768575
1204.000000	57.701619
1203.000000	57.652915
1202.000000	57.602619
1201.000000	57.548079
1200.000000	57.519005
1199.000000	57.475076
1198.000000	57.406211
1197.000000	57.328963
1196.000000	57.258718
1195.000000	57.141998
1194.000000	57.000129
1193.000000	56.833325
1192.000000	56.615164
1191.000000	56.370263
1190.000000	56.097668
1189.000000	55.817220
1188.000000	55.566802
1187.000000	55.359252
1186.000000	55.203377
1185.000000	55.132814
1184.000000	55.150640
1183.000000	55.236483
1182.000000	55.411988
1181.000000	55.670789
1180.000000	55.970230
1179.000000	56.303202
1178.000000	56.637341
1177.000000	56.962885
1176.000000	57.270496
1175.000000	57.538529
1174.000000	57.772288
1173.000000	58.003926
1172.000000	58.216993
1171.000000	58.441309
1170.000000	58.683451
1169.000000	58.932278
1168.000000	59.169857
1167.000000	59.422398
1166.000000	59.672392
1165.000000	59.931087
1164.000000	60.204743
1163.000000	60.479461
1162.000000	60.758104
1161.000000	61.048102
1160.000000	61.330672
1159.000000	61.622685
1158.000000	61.896129
1157.000000	62.166072
1156.000000	62.425191
1155.000000	62.659269
1154.000000	62.892392
1153.000000	63.086360
1152.000000	63.271096
1151.000000	63.397685
1150.000000	63.508676
1149.000000	63.630383
1148.000000	63.730232
1147.000000	63.845255
1146.000000	63.982561
1145.000000	64.141195
1144.000000	64.331980
1143.000000	64.536665
1142.000000	64.798013
1141.000000	65.088753
1140.000000	65.373126
1139.000000	65.700156
1138.000000	66.019970
1137.000000	66.363234
1136.000000	66.708833
1135.000000	67.088705
1134.000000	67.487571
1133.000000	67.852163
1132.000000	68.143009
1131.000000	68.420910
1130.000000	68.705072
1129.000000	68.963448
1128.000000	69.180124
1127.000000	69.379610
1126.000000	69.527420
1125.000000	69.631938
1124.000000	69.742080
1123.000000	69.830682
1122.000000	69.892543
1121.000000	69.957376
1120.000000	70.008521
1119.000000	70.064229
1118.000000	70.088740
1117.000000	70.134791
1116.000000	70.171824
1115.000000	70.190817
1114.000000	70.222013
1113.000000	70.212145
1112.000000	70.227956
1111.000000	70.264669
1110.000000	70.283981
1109.000000	70.332155
1108.000000	70.354650
1107.000000	70.385847
1106.000000	70.445056
1105.000000	70.435824
1104.000000	70.477207
1103.000000	70.546921
1102.000000	70.576313
1101.000000	70.607722
1100.000000	70.635522
1099.000000	70.690911
1098.000000	70.730066
1097.000000	70.753198
1096.000000	70.792352
1095.000000	70.821745
1094.000000	70.841481
1093.000000	70.861748
1092.000000	70.895172
1091.000000	70.897401
1090.000000	70.892413
1089.000000	70.883712
1088.000000	70.892944
1087.000000	70.888275
1086.000000	70.879680
1085.000000	70.854957
1084.000000	70.851986
1083.000000	70.822381
1082.000000	70.789381
1081.000000	70.722957
1080.000000	70.684969
1079.000000	70.646239
1078.000000	70.591911
1077.000000	70.554136
1076.000000	70.470946
1075.000000	70.424895
1074.000000	70.361654
1073.000000	70.276978
1072.000000	70.216708
1071.000000	70.143492
1070.000000	70.046402
1069.000000	69.983904
1068.000000	69.919283
1067.000000	69.856678
1066.000000	69.766273
1065.000000	69.684675
1064.000000	69.607639
1063.000000	69.538986
1062.000000	69.475533
1061.000000	69.393510
1060.000000	69.336317
1059.000000	69.290053
1058.000000	69.215034
1057.000000	69.189886
1056.000000	69.153915
1055.000000	69.098738
1054.000000	69.080487
1053.000000	69.079744
1052.000000	69.067223
1051.000000	69.053641
1050.000000	69.060751
1049.000000	69.071680
1048.000000	69.081018
1047.000000	69.117201
1046.000000	69.111047
1045.000000	69.158690
1044.000000	69.192963
1043.000000	69.210684
1042.000000	69.238590
1041.000000	69.280291
1040.000000	69.317536
1039.000000	69.365285
1038.000000	69.401575
1037.000000	69.440941
1036.000000	69.484871
1035.000000	69.501530
1034.000000	69.542382
1033.000000	69.585781
1032.000000	69.609974
1031.000000	69.631196
1030.000000	69.658784
1029.000000	69.672154
1028.000000	69.713537
1027.000000	69.729559
1026.000000	69.742398
1025.000000	69.773064
1024.000000	69.782614
1023.000000	69.794923
1022.000000	69.793119
1021.000000	69.801501
1020.000000	69.819009
1019.000000	69.815083
1018.000000	69.823254
1017.000000	69.847447
1016.000000	69.849357
1015.000000	69.873550
1014.000000	69.885434
1013.000000	69.919071
1012.000000	69.942415
1011.000000	69.984328
1010.000000	70.051602
1009.000000	70.096168
1008.000000	70.146357
1007.000000	70.205248
1006.000000	70.268596
1005.000000	70.338734
1004.000000	70.407068
1003.000000	70.471477
1002.000000	70.525274
1001.000000	70.610693
1000.000000	70.677754
999.000000	70.736220
998.000000	70.790442
997.000000	70.850076
996.000000	70.912893
995.000000	70.987488
994.000000	71.055610
993.000000	71.119063
992.000000	71.152276
991.000000	71.214880
990.000000	71.302845
989.000000	71.375742
988.000000	71.444607
987.000000	71.527161
986.000000	71.617884
985.000000	71.715081
984.000000	71.817370
983.000000	71.926132
982.000000	72.027255
981.000000	72.151403
980.000000	72.267062
979.000000	72.395349
978.000000	72.522150
977.000000	72.670915
976.000000	72.828382
975.000000	72.953803
974.000000	73.081135
973.000000	73.262264
972.000000	73.438087
971.000000	73.604785
970.000000	73.795570
969.000000	73.979564
968.000000	74.151355
967.000000	74.353706
966.000000	74.562105
965.000000	74.794167
964.000000	75.007235
963.000000	75.209161
962.000000	75.428808
961.000000	75.654609
960.000000	75.899510
959.000000	76.136028
958.000000	76.353234
957.000000	76.556328
956.000000	76.784039
955.000000	77.026818
954.000000	77.241583
953.000000	77.419211
952.000000	77.604372
951.000000	77.791761
950.000000	77.986048
949.000000	78.190309
948.000000	78.362100
947.000000	78.520203
946.000000	78.693798
945.000000	78.844898
944.000000	79.010641
943.000000	79.177446
942.000000	79.308915
941.000000	79.430729
940.000000	79.592440
939.000000	79.735369
938.000000	79.837235
937.000000	79.952788
936.000000	80.095930
935.000000	80.218592
934.000000	80.314197
933.000000	80.421368
932.000000	80.532464
931.000000	80.673165
930.000000	80.790416
929.000000	80.873076
928.000000	80.961253
927.000000	81.082430
926.000000	81.197240
925.000000	81.290086
924.000000	81.389935
923.000000	81.539550
922.000000	81.677280
921.000000	81.784557
920.000000	81.902126
919.000000	82.039962
918.000000	82.188091
917.000000	82.325928
916.000000	82.488381
915.000000	82.640224
914.000000	82.799176
913.000000	82.967466
912.000000	83.140318
911.000000	83.328132
910.000000	83.510322
909.000000	83.721056
908.000000	83.940278
907.000000	84.165548
906.000000	84.386150
905.000000	84.609298
904.000000	84.841678
903.000000	85.090930
902.000000	85.337634
901.000000	85.591767
900.000000	85.820645
899.000000	86.025224
898.000000	86.265032
897.000000	86.501231
896.000000	86.746344
895.000000	86.989760
894.000000	87.212590
893.000000	87.405603
892.000000	87.609015
891.000000	87.824205
890.000000	88.001408
889.000000	88.141579
888.000000	88.300955
887.000000	88.401335
886.000000	88.561030
885.000000	88.713509
884.000000	88.827364
883.000000	88.915011
882.000000	89.003612
881.000000	89.059957
880.000000	89.156198
879.000000	89.142934
878.000000	89.156516
877.000000	89.180285
876.000000	89.148664
875.000000	89.067278
874.000000	88.945783
873.000000	88.900050
872.000000	88.761364
871.000000	88.585329
870.000000	88.510097
869.000000	88.585965
868.000000	88.724438
867.000000	88.900686
866.000000	89.065368
865.000000	89.179330
864.000000	89.303796
863.000000	89.426777
862.000000	89.549122
861.000000	89.683881
860.000000	89.824051
859.000000	89.949367
858.000000	90.061100
857.000000	89.448300
856.000000	90.234800
855.000000	90.500200
854.000000	89.992100
853.000000	90.676900
852.000000	90.699800
851.000000	90.774100
850.000000	91.159900
849.000000	90.806500
848.000000	90.461800
847.000000	89.952500
846.000000	90.557800
845.000000	90.723700
844.000000	90.904800
843.000000	90.804500
842.000000	90.823700
841.000000	90.873700
840.000000	90.813100
839.000000	90.902000
838.000000	90.894900
837.000000	90.735300
836.000000	90.520100
835.000000	90.815300
834.000000	90.675200
833.000000	90.531500
832.000000	90.609000
831.000000	90.790300
830.000000	90.863300
829.000000	90.688000
828.000000	90.900100
827.000000	90.782900
826.000000	90.615000
825.000000	90.675700
824.000000	90.792500
823.000000	90.782700
822.000000	90.688500
821.000000	90.910700
820.000000	90.555100
819.000000	90.712100
818.000000	90.554200
817.000000	90.726300
816.000000	90.712700
815.000000	90.705300
814.000000	90.604500
813.000000	90.912300
812.000000	90.823300
811.000000	90.704200
810.000000	90.580600
809.000000	90.314100
808.000000	90.432100
807.000000	90.107300
806.000000	90.197200
805.000000	90.088900
804.000000	89.913500
803.000000	89.931400
802.000000	89.757800
801.000000	89.445600
800.000000	89.723200
799.000000	89.292600
798.000000	89.093400
797.000000	88.898200
796.000000	88.849500
795.000000	88.529900
794.000000	88.561200
793.000000	88.076300
792.000000	87.804600
791.000000	87.622200
790.000000	87.387100
789.000000	87.008100
788.000000	86.807300
787.000000	86.446100
786.000000	86.080600
785.000000	85.656200
784.000000	85.213500
783.000000	84.947200
782.000000	84.512000
781.000000	84.181000
780.000000	83.558100
779.000000	83.122200
778.000000	82.748100
777.000000	82.390100
776.000000	81.958700
775.000000	81.287000
774.000000	80.874500
773.000000	80.583000
772.000000	80.156400
771.000000	79.510800
770.000000	79.177700
769.000000	78.691600
768.000000	78.193000
767.000000	77.874200
766.000000	77.377200
765.000000	76.929300
764.000000	76.604500
763.000000	76.169200
762.000000	75.758400
761.000000	75.375900
760.000000	75.094900
759.000000	74.769800
758.000000	74.588700
757.000000	74.301000
756.000000	74.014700
755.000000	73.899700
754.000000	73.691400
753.000000	73.644900
752.000000	73.349300
751.000000	73.313500
750.000000	73.258500
749.000000	73.251800
748.000000	73.294900
747.000000	73.263900
746.000000	73.305400
745.000000	73.266000
744.000000	73.314300
743.000000	73.466400
742.000000	73.511300
741.000000	73.678600
740.000000	73.768900
739.000000	73.869400
738.000000	74.128700
737.000000	74.165200
736.000000	74.293800
735.000000	74.465100
734.000000	74.622200
733.000000	74.687000
732.000000	74.821800
731.000000	75.041100
730.000000	75.259300
729.000000	75.352000
728.000000	75.458200
727.000000	75.571000
726.000000	75.667100
725.000000	75.707500
724.000000	75.762000
723.000000	75.823600
722.000000	75.791400
721.000000	75.768800
720.000000	75.780300
719.000000	75.822900
718.000000	75.708000
717.000000	75.631300
716.000000	75.571800
715.000000	75.404000
714.000000	75.296600
713.000000	75.184600
712.000000	74.972700
711.000000	74.720000
710.000000	74.449500
709.000000	74.200600
708.000000	73.895100
707.000000	73.594600
706.000000	73.076100
705.000000	72.644500
704.000000	72.144600
703.000000	71.600500
702.000000	70.978800
701.000000	70.412000
700.000000	69.788100
699.000000	69.141700
698.000000	68.426700
697.000000	67.785100
696.000000	67.138800
695.000000	66.461200
694.000000	65.777800
693.000000	65.085400
692.000000	64.483100
691.000000	63.850700
690.000000	63.191800
689.000000	62.627500
688.000000	62.061100
687.000000	61.485400
686.000000	60.941000
685.000000	60.401700
684.000000	59.795000
683.000000	59.291500
682.000000	58.823000
681.000000	58.368200
680.000000	57.904300
679.000000	57.475600
678.000000	57.176300
677.000000	56.915200
676.000000	56.672600
675.000000	56.549000
674.000000	56.488800
673.000000	56.522000
672.000000	56.697400
671.000000	56.959100
670.000000	57.276000
669.000000	57.701300
668.000000	58.260500
667.000000	58.892700
666.000000	59.569900
665.000000	60.249500
664.000000	61.012700
663.000000	61.769000
662.000000	62.555100
661.000000	63.372300
660.000000	64.193300
659.000000	64.946200
658.000000	65.753000
657.000000	66.553500
656.000000	67.276900
655.000000	68.045900
654.000000	68.864700
653.000000	69.696700
652.000000	70.527800
651.000000	71.418100
650.000000	72.369900
649.000000	73.329300
648.000000	74.232800
647.000000	75.176000
646.000000	76.158100
645.000000	77.060800
644.000000	77.964600
643.000000	78.874500
642.000000	79.726900
641.000000	80.494600
640.000000	81.192300
639.000000	81.797300
638.000000	82.335500
637.000000	82.870100
636.000000	83.323700
635.000000	83.686500
634.000000	84.057900
633.000000	84.420300
632.000000	84.807100
631.000000	85.163400
630.000000	85.463500
629.000000	85.843300
628.000000	86.289400
627.000000	86.685200
626.000000	87.085600
625.000000	87.491400
624.000000	87.880800
623.000000	88.328800
622.000000	88.735000
621.000000	89.043700
620.000000	89.342500
619.000000	89.602600
618.000000	89.817100
617.000000	89.970900
616.000000	90.098100
615.000000	90.211100
614.000000	90.282800
613.000000	90.312700
612.000000	90.348400
611.000000	90.409600
610.000000	90.477100
609.000000	90.505300
608.000000	90.569000
607.000000	90.702400
606.000000	90.791700
605.000000	90.904100
604.000000	91.023100
603.000000	91.161400
602.000000	91.280100
601.000000	91.381100
600.000000	91.455000
599.000000	91.481100
598.000000	91.554600
597.000000	91.555400
596.000000	91.539600
595.000000	91.492100
594.000000	91.396100
593.000000	91.276700
592.000000	91.121600
591.000000	90.892000
590.000000	90.677400
589.000000	90.465400
588.000000	90.244700
587.000000	90.001100
586.000000	89.766800
585.000000	89.547500
584.000000	89.247400
583.000000	88.968100
582.000000	88.691400
581.000000	88.423400
580.000000	88.104700
579.000000	87.778000
578.000000	87.455600
577.000000	87.113900
576.000000	86.679200
575.000000	86.268300
574.000000	85.836700
573.000000	85.344900
572.000000	84.839400
571.000000	84.286400
570.000000	83.719700
569.000000	83.110800
568.000000	82.486600
567.000000	81.817700
566.000000	81.127800
565.000000	80.421100
564.000000	79.686200
563.000000	78.851100
562.000000	78.053200
561.000000	77.162100
560.000000	76.292400
559.000000	75.207600
558.000000	74.211600
557.000000	73.240300
556.000000	72.219600
555.000000	71.205100
554.000000	70.141700
553.000000	69.085500
552.000000	68.009200
551.000000	66.960800
550.000000	65.908300
549.000000	64.933300
548.000000	63.940400
547.000000	62.981800
546.000000	62.043900
545.000000	61.154300
544.000000	60.242800
543.000000	59.364500
542.000000	58.490200
541.000000	57.677500
540.000000	56.868300
539.000000	56.065500
538.000000	55.272200
537.000000	54.492800
536.000000	53.724400
535.000000	53.008500
534.000000	52.252100
533.000000	51.529000
532.000000	50.822800
531.000000	50.111600
530.000000	49.377400
529.000000	48.679400
528.000000	48.010300
527.000000	47.335300
526.000000	46.632000
525.000000	45.967000
524.000000	45.276100
523.000000	44.546500
522.000000	43.875600
521.000000	43.162400
520.000000	42.485800
519.000000	41.752800
518.000000	41.101800
517.000000	40.427100
516.000000	39.829000
515.000000	39.279000
514.000000	38.769400
513.000000	38.301200
512.000000	37.854300
511.000000	37.543600
510.000000	37.251700
509.000000	37.008300
508.000000	36.835500
507.000000	36.647900
506.000000	36.536200
505.000000	36.443100
504.000000	36.413700
503.000000	36.364200
502.000000	36.279400
501.000000	36.235500
500.000000	36.225700
499.000000	36.191000
498.000000	36.120800
497.000000	36.075300
496.000000	35.976800
495.000000	35.908400
494.000000	35.802700
493.000000	35.654300
492.000000	35.568000
491.000000	35.376700
490.000000	35.253900
489.000000	35.100800
488.000000	34.913500
487.000000	34.756500
486.000000	34.601500
485.000000	34.438500
484.000000	34.235200
483.000000	34.092200
482.000000	33.882800
481.000000	33.720700
480.000000	33.551300
479.000000	33.313600
478.000000	33.158500
477.000000	32.955500
476.000000	32.748700
475.000000	32.557000
474.000000	32.345900
473.000000	32.125600
472.000000	31.934600
471.000000	31.679600
470.000000	31.496000
469.000000	31.252800
468.000000	30.982900
467.000000	30.795200
466.000000	30.509400
465.000000	30.247400
464.000000	29.983800
463.000000	29.722500
462.000000	29.461200
461.000000	29.114900
460.000000	28.814400
459.000000	28.520300
458.000000	28.185500
457.000000	27.826400
456.000000	27.438500
455.000000	27.084700
454.000000	26.695800
453.000000	26.260800
452.000000	25.832900
451.000000	25.369700
450.000000	24.890200
449.000000	24.390700
448.000000	23.844300
447.000000	23.310000
446.000000	22.791300
445.000000	22.226300
444.000000	21.612800
443.000000	21.051100
442.000000	20.436400
441.000000	19.828600
440.000000	19.220400
439.000000	18.602300
438.000000	17.988500
437.000000	17.363400
436.000000	16.741900
435.000000	16.173000
434.000000	15.596200
433.000000	15.022000
432.000000	14.476500
431.000000	13.940300
430.000000	13.433200
429.000000	12.969200
428.000000	12.467600
427.000000	12.026000
426.000000	11.628900
425.000000	11.240800
424.000000	10.873100
423.000000	10.512900
422.000000	10.180400
421.000000	9.901400
420.000000	9.607300
419.000000	9.373800
418.000000	9.155000
417.000000	8.933800
416.000000	8.737700
415.000000	8.549800
414.000000	8.395700
413.000000	8.216300
412.000000	8.092500
411.000000	7.985100
410.000000	7.867300
409.000000	7.759200
408.000000	7.670700
407.000000	7.555600
406.000000	7.481200
405.000000	7.439300
404.000000	7.371700
403.000000	7.313600
402.000000	7.266800
401.000000	7.202000
400.000000	7.152900
399.000000	7.111900
398.000000	7.066800
397.000000	7.034600
396.000000	6.992500
395.000000	6.991300
394.000000	6.931500
393.000000	6.884300
392.000000	6.847500
391.000000	6.819800
390.000000	6.788900
389.000000	6.763800
388.000000	6.725600
387.000000	6.685600
386.000000	6.680100
385.000000	6.652100
384.000000	6.607800
383.000000	6.582700
382.000000	6.548500
381.000000	6.531300
380.000000	6.497400
379.000000	6.435600
378.000000	6.416700
377.000000	6.398500
376.000000	6.322100
375.000000	6.071100
374.000000	5.895600
373.000000	6.056400
372.000000	6.148700
371.000000	6.018200
370.000000	5.933400
369.000000	5.979000
368.000000	6.040700
367.000000	6.106200
366.000000	6.034900
365.000000	6.087400
364.000000	6.025000
363.000000	5.905900
362.000000	5.999400
361.000000	6.006900
360.000000	6.072800
359.000000	5.937200
358.000000	5.925000
357.000000	5.942000
356.000000	5.917300
355.000000	5.893900
354.000000	5.700100
353.000000	5.724100
352.000000	5.829900
351.000000	5.887600
350.000000	5.699700
349.000000	5.603400
348.000000	5.748600
347.000000	5.698800
346.000000	5.720300
345.000000	5.816500
344.000000	5.959900
343.000000	5.603500
342.000000	5.469400
341.000000	5.903300
340.000000	5.827300
339.000000	5.747400
338.000000	5.901900
337.000000	5.779100
336.000000	5.698600
335.000000	5.723600
334.000000	5.521300
333.000000	5.596000
332.000000	5.749300
331.000000	5.576800
330.000000	5.465400
329.000000	5.783000
328.000000	5.946800
327.000000	6.119000
326.000000	6.058500
325.000000	6.012900
324.000000	6.382100
323.000000	5.957400
322.000000	5.895500
321.000000	6.768600
320.000000	6.561600
319.000000	5.970100
318.000000	5.788100
317.000000	6.534500
316.000000	6.285200
315.000000	5.530400
314.000000	5.489100
313.000000	5.486400
312.000000	5.488900
311.000000	5.527800
310.000000	5.540300
309.000000	5.512100
308.000000	5.533000
307.000000	5.484900
306.000000	5.472100
305.000000	5.515000
304.000000	5.521500
303.000000	5.519900
302.000000	5.510800
301.000000	5.502600
300.000000	5.563100
299.000000	5.554600
298.000000	5.492100
297.000000	5.522100
296.000000	5.577600
295.000000	5.537400
294.000000	5.561000
293.000000	5.541700
292.000000	5.542200
291.000000	5.562700
290.000000	5.578000
289.000000	5.551500
288.000000	5.553800
287.000000	5.565700
286.000000	5.552100
285.000000	5.599000
284.000000	5.624700
283.000000	5.640400
282.000000	5.609700
281.000000	5.648300
280.000000	5.655400
279.000000	5.680800
278.000000	5.683500
277.000000	5.696800
276.000000	5.725100
275.000000	5.710300
274.000000	5.741400
273.000000	5.718400
272.000000	5.684000
271.000000	5.743300
270.000000	5.736600
269.000000	5.765000
268.000000	5.836800
267.000000	5.799500
266.000000	5.826100
265.000000	5.828800
264.000000	5.918000
263.000000	5.926300
262.000000	5.960100
261.000000	5.991300
260.000000	6.023400
259.000000	6.038000
258.000000	6.020300
257.000000	6.071700
256.000000	6.074800
255.000000	6.091100
254.000000	6.058800
253.000000	6.044000
252.000000	6.078700
251.000000	6.066800
250.000000	6.085800
