PE UV       SUBTECH     SPECTRUM    ASCII       PEDS        4.00        
   -1
CICIMAUCR0210-3.ASC
24/06/06
17:17:43.00
24/06/06
17:17:43.00
Vinicio Soto Monge
C. resplendens. Sex F. Dorsal
250,000000
1
Lambda 1050
1050L1511233
PerkinElmer UV WinLab 6.3.2.0749 / 2.02.05 Lambda 900 UV/VIS/NIR, Aug  7 2015 09:38:08

0
0
3350/servo 860,8/2
0
0
UV/VIS
1
1
1
DoubleDePol,CommonBeamDepol,RBeamAtt,SBeamAtt,60mm sphere, WB InGaAs Detector
0
0
0
0
Program
Program
3350/servo 860,8/2
3350/0,2 860,8/0,2
3350/0,2 860,8/0,2
0
15.00
 
 
 
0
 
860,8
319,2
860,8
Front
100
on
S:100 R:100
0
0
0
0
 
0
 
 
 
0
 
 
0
0
0
0
0
 
 
 
 
0
0


0
0
#HDR
-1
-1
#GR
nm
%R
1.0
0.0
2500,000000
-1,000000
2251
8
91,100500
5,644400
#DATA
2500.000000	6.596662
2499.000000	6.664679
2498.000000	6.846257
2497.000000	6.609589
2496.000000	6.556786
2495.000000	6.604219
2494.000000	6.649365
2493.000000	6.634946
2492.000000	6.629875
2491.000000	6.608396
2490.000000	6.579757
2489.000000	6.505077
2488.000000	6.521485
2487.000000	6.489266
2486.000000	6.498514
2485.000000	6.493741
2484.000000	6.567625
2483.000000	6.432784
2482.000000	6.462815
2481.000000	6.548234
2480.000000	6.451181
2479.000000	6.445712
2478.000000	6.478726
2477.000000	6.421349
2476.000000	6.512038
2475.000000	6.480814
2474.000000	6.486880
2473.000000	6.477930
2472.000000	6.483499
2471.000000	6.479919
2470.000000	6.497520
2469.000000	6.465600
2468.000000	6.481411
2467.000000	6.457247
2466.000000	6.441535
2465.000000	6.473058
2464.000000	6.517507
2463.000000	6.516911
2462.000000	6.537495
2461.000000	6.558178
2460.000000	6.527253
2459.000000	6.528346
2458.000000	6.542666
2457.000000	6.561460
2456.000000	6.574288
2455.000000	6.619235
2454.000000	6.624505
2453.000000	6.660005
2452.000000	6.702665
2451.000000	6.735182
2450.000000	6.767401
2449.000000	6.771179
2448.000000	6.799420
2447.000000	6.819507
2446.000000	6.867736
2445.000000	6.893391
2444.000000	6.919643
2443.000000	6.960613
2442.000000	6.967673
2441.000000	7.029425
2440.000000	7.048617
2439.000000	7.064031
2438.000000	7.099431
2437.000000	7.121408
2436.000000	7.135031
2435.000000	7.187436
2434.000000	7.199269
2433.000000	7.239443
2432.000000	7.266590
2431.000000	7.267883
2430.000000	7.294533
2429.000000	7.318498
2428.000000	7.326254
2427.000000	7.364738
2426.000000	7.380350
2425.000000	7.390095
2424.000000	7.412966
2423.000000	7.447372
2422.000000	7.468851
2421.000000	7.485160
2420.000000	7.496993
2419.000000	7.485557
2418.000000	7.512108
2417.000000	7.534581
2416.000000	7.560138
2415.000000	7.551785
2414.000000	7.570977
2413.000000	7.579528
2412.000000	7.606377
2411.000000	7.616719
2410.000000	7.642176
2409.000000	7.660870
2408.000000	7.662959
2407.000000	7.678074
2406.000000	7.685233
2405.000000	7.693686
2404.000000	7.711784
2403.000000	7.718645
2402.000000	7.735152
2401.000000	7.752952
2400.000000	7.775823
2399.000000	7.780298
2398.000000	7.781889
2397.000000	7.803865
2396.000000	7.825344
2395.000000	7.835288
2394.000000	7.851199
2393.000000	7.859552
2392.000000	7.873772
2391.000000	7.893262
2390.000000	7.913349
2389.000000	7.922796
2388.000000	7.925381
2387.000000	7.933834
2386.000000	7.949744
2385.000000	7.958197
2384.000000	7.957600
2383.000000	7.942783
2382.000000	7.945667
2381.000000	7.952528
2380.000000	7.964262
2379.000000	7.980173
2378.000000	7.963268
2377.000000	7.948451
2376.000000	7.947258
2375.000000	7.926972
2374.000000	7.931447
2373.000000	7.938706
2372.000000	7.939502
2371.000000	7.928464
2370.000000	7.896742
2369.000000	7.876656
2368.000000	7.857961
2367.000000	7.851000
2366.000000	7.848315
2365.000000	7.821963
2364.000000	7.794120
2363.000000	7.765680
2362.000000	7.735152
2361.000000	7.704823
2360.000000	7.692393
2359.000000	7.669820
2358.000000	7.637900
2357.000000	7.622884
2356.000000	7.605979
2355.000000	7.589075
2354.000000	7.568491
2353.000000	7.566502
2352.000000	7.566701
2351.000000	7.565010
2350.000000	7.585097
2349.000000	7.592157
2348.000000	7.598124
2347.000000	7.625470
2346.000000	7.643270
2345.000000	7.663655
2344.000000	7.691597
2343.000000	7.719242
2342.000000	7.730081
2341.000000	7.747682
2340.000000	7.780298
2339.000000	7.797601
2338.000000	7.797004
2337.000000	7.809732
2336.000000	7.818682
2335.000000	7.830714
2334.000000	7.834891
2333.000000	7.817688
2332.000000	7.805655
2331.000000	7.797501
2330.000000	7.783679
2329.000000	7.760410
2328.000000	7.729882
2327.000000	7.696868
2326.000000	7.676681
2325.000000	7.643667
2324.000000	7.617813
2323.000000	7.572667
2322.000000	7.510119
2321.000000	7.451251
2320.000000	7.417739
2319.000000	7.377367
2318.000000	7.327050
2317.000000	7.264900
2316.000000	7.210406
2315.000000	7.170829
2314.000000	7.121010
2313.000000	7.090183
2312.000000	7.034298
2311.000000	6.992732
2310.000000	6.978214
2309.000000	6.945100
2308.000000	6.924516
2307.000000	6.905722
2306.000000	6.897568
2305.000000	6.897866
2304.000000	6.894783
2303.000000	6.911589
2302.000000	6.941520
2301.000000	6.980004
2300.000000	7.008841
2299.000000	7.051501
2298.000000	7.083919
2297.000000	7.141892
2296.000000	7.168343
2295.000000	7.220848
2294.000000	7.259331
2293.000000	7.287671
2292.000000	7.329635
2291.000000	7.349324
2290.000000	7.380350
2289.000000	7.400536
2288.000000	7.407895
2287.000000	7.401630
2286.000000	7.424799
2285.000000	7.393874
2284.000000	7.389200
2283.000000	7.372494
2282.000000	7.351313
2281.000000	7.333116
2280.000000	7.322177
2279.000000	7.294632
2278.000000	7.265795
2277.000000	7.228306
2276.000000	7.214384
2275.000000	7.197479
2274.000000	7.182862
2273.000000	7.165658
2272.000000	7.170432
2271.000000	7.169338
2270.000000	7.157703
2269.000000	7.168741
2268.000000	7.205832
2267.000000	7.216075
2266.000000	7.254558
2265.000000	7.308454
2264.000000	7.361058
2263.000000	7.445781
2262.000000	7.523742
2261.000000	7.614233
2260.000000	7.721628
2259.000000	7.823157
2258.000000	7.932740
2257.000000	8.049681
2256.000000	8.176169
2255.000000	8.298381
2254.000000	8.450724
2253.000000	8.573532
2252.000000	8.695048
2251.000000	8.832773
2250.000000	8.972983
2249.000000	9.087936
2248.000000	9.224269
2247.000000	9.321422
2246.000000	9.414697
2245.000000	9.515628
2244.000000	9.622725
2243.000000	9.692433
2242.000000	9.797840
2241.000000	9.858001
2240.000000	9.945707
2239.000000	10.014122
2238.000000	10.061257
2237.000000	10.118037
2236.000000	10.205445
2235.000000	10.242834
2234.000000	10.292952
2233.000000	10.340186
2232.000000	10.378968
2231.000000	10.424313
2230.000000	10.439626
2229.000000	10.467470
2228.000000	10.498793
2227.000000	10.502473
2226.000000	10.517090
2225.000000	10.537674
2224.000000	10.541055
2223.000000	10.567109
2222.000000	10.550204
2221.000000	10.548812
2220.000000	10.531310
2219.000000	10.553187
2218.000000	10.544039
2217.000000	10.519875
2216.000000	10.525940
2215.000000	10.536879
2214.000000	10.500981
2213.000000	10.476519
2212.000000	10.479800
2211.000000	10.453250
2210.000000	10.455139
2209.000000	10.467669
2208.000000	10.411286
2207.000000	10.406314
2206.000000	10.426998
2205.000000	10.403530
2204.000000	10.391597
2203.000000	10.405419
2202.000000	10.382249
2201.000000	10.378073
2200.000000	10.368129
2199.000000	10.354705
2198.000000	10.351721
2197.000000	10.351622
2196.000000	10.337104
2195.000000	10.336109
2194.000000	10.310653
2193.000000	10.319403
2192.000000	10.321492
2191.000000	10.303294
2190.000000	10.304487
2189.000000	10.283008
2188.000000	10.288378
2187.000000	10.279130
2186.000000	10.244326
2185.000000	10.238360
2184.000000	10.241542
2183.000000	10.237663
2182.000000	10.216383
2181.000000	10.193114
2180.000000	10.195004
2179.000000	10.193810
2178.000000	10.188242
2177.000000	10.191623
2176.000000	10.173226
2175.000000	10.163581
2174.000000	10.163581
2173.000000	10.153637
2172.000000	10.159603
2171.000000	10.143593
2170.000000	10.142499
2169.000000	10.150454
2168.000000	10.161194
2167.000000	10.153637
2166.000000	10.162288
2165.000000	10.159006
2164.000000	10.181082
2163.000000	10.171635
2162.000000	10.181778
2161.000000	10.176209
2160.000000	10.190131
2159.000000	10.207036
2158.000000	10.227222
2157.000000	10.226128
2156.000000	10.255065
2155.000000	10.254966
2154.000000	10.284798
2153.000000	10.312244
2152.000000	10.314730
2151.000000	10.339590
2150.000000	10.359875
2149.000000	10.382349
2148.000000	10.403828
2147.000000	10.422423
2146.000000	10.443306
2145.000000	10.443206
2144.000000	10.467768
2143.000000	10.498197
2142.000000	10.495910
2141.000000	10.505257
2140.000000	10.525841
2139.000000	10.524747
2138.000000	10.523852
2137.000000	10.529819
2136.000000	10.543044
2135.000000	10.548911
2134.000000	10.544337
2133.000000	10.551298
2132.000000	10.558159
2131.000000	10.546922
2130.000000	10.548513
2129.000000	10.558955
2128.000000	10.557861
2127.000000	10.554281
2126.000000	10.556071
2125.000000	10.551298
2124.000000	10.525543
2123.000000	10.528128
2122.000000	10.531609
2121.000000	10.513809
2120.000000	10.495213
2119.000000	10.476419
2118.000000	10.460807
2117.000000	10.447681
2116.000000	10.449968
2115.000000	10.420733
2114.000000	10.401839
2113.000000	10.388514
2112.000000	10.363455
2111.000000	10.338197
2110.000000	10.311547
2109.000000	10.310056
2108.000000	10.301504
2107.000000	10.275252
2106.000000	10.256159
2105.000000	10.237862
2104.000000	10.210119
2103.000000	10.190230
2102.000000	10.173525
2101.000000	10.155228
2100.000000	10.131163
2099.000000	10.110977
2098.000000	10.102524
2097.000000	10.088105
2096.000000	10.061455
2095.000000	10.021679
2094.000000	10.022972
2093.000000	10.016906
2092.000000	10.000797
2091.000000	9.984489
2090.000000	9.961916
2089.000000	9.958535
2088.000000	9.943221
2087.000000	9.927311
2086.000000	9.912594
2085.000000	9.894197
2084.000000	9.881071
2083.000000	9.863868
2082.000000	9.851338
2081.000000	9.853526
2080.000000	9.844775
2079.000000	9.815242
2078.000000	9.784017
2077.000000	9.771389
2076.000000	9.753290
2075.000000	9.733502
2074.000000	9.724055
2073.000000	9.711824
2072.000000	9.685771
2071.000000	9.663297
2070.000000	9.646591
2069.000000	9.622825
2068.000000	9.606517
2067.000000	9.595379
2066.000000	9.579469
2065.000000	9.561570
2064.000000	9.546057
2063.000000	9.532832
2062.000000	9.513142
2061.000000	9.500116
2060.000000	9.487387
2059.000000	9.480924
2058.000000	9.482515
2057.000000	9.472272
2056.000000	9.477642
2055.000000	9.471974
2054.000000	9.459345
2053.000000	9.479929
2052.000000	9.506480
2051.000000	9.529948
2050.000000	9.542676
2049.000000	9.573503
2048.000000	9.583745
2047.000000	9.603534
2046.000000	9.650966
2045.000000	9.698300
2044.000000	9.738573
2043.000000	9.769897
2042.000000	9.802116
2041.000000	9.825484
2040.000000	9.866851
2039.000000	9.899766
2038.000000	9.935067
2037.000000	9.956347
2036.000000	10.008255
2035.000000	10.047335
2034.000000	10.055290
2033.000000	10.084028
2032.000000	10.108192
2031.000000	10.132655
2030.000000	10.137726
2029.000000	10.165271
2028.000000	10.165470
2027.000000	10.179292
2026.000000	10.194606
2025.000000	10.201865
2024.000000	10.215091
2023.000000	10.210119
2022.000000	10.218372
2021.000000	10.212306
2020.000000	10.233487
2019.000000	10.245917
2018.000000	10.237862
2017.000000	10.218869
2016.000000	10.226626
2015.000000	10.204152
2014.000000	10.239155
2013.000000	10.206837
2012.000000	10.189236
2011.000000	10.190728
2010.000000	10.156620
2009.000000	10.136632
2008.000000	10.118534
2007.000000	10.111573
2006.000000	10.089597
2005.000000	10.074582
2004.000000	10.054097
2003.000000	10.030728
2002.000000	9.987273
2001.000000	9.964203
2000.000000	9.947000
1999.000000	9.926018
1998.000000	9.881071
1997.000000	9.861084
1996.000000	9.809176
1995.000000	9.781730
1994.000000	9.735292
1993.000000	9.705857
1992.000000	9.668269
1991.000000	9.640625
1990.000000	9.576486
1989.000000	9.535516
1988.000000	9.500215
1987.000000	9.465809
1986.000000	9.421956
1985.000000	9.371937
1984.000000	9.335144
1983.000000	9.283833
1982.000000	9.270210
1981.000000	9.220192
1980.000000	9.158837
1979.000000	9.134574
1978.000000	9.084158
1977.000000	9.039409
1976.000000	9.013555
1975.000000	8.970398
1974.000000	8.916104
1973.000000	8.907154
1972.000000	8.838441
1971.000000	8.810697
1970.000000	8.774302
1969.000000	8.748149
1968.000000	8.686894
1967.000000	8.645328
1966.000000	8.639958
1965.000000	8.601177
1964.000000	8.552650
1963.000000	8.526298
1962.000000	8.486721
1961.000000	8.457684
1960.000000	8.397324
1959.000000	8.391457
1958.000000	8.375945
1957.000000	8.333683
1956.000000	8.311507
1955.000000	8.300470
1954.000000	8.244385
1953.000000	8.227779
1952.000000	8.212366
1951.000000	8.174280
1950.000000	8.152900
1949.000000	8.134206
1948.000000	8.112727
1947.000000	8.088563
1946.000000	8.062410
1945.000000	8.051273
1944.000000	8.039936
1943.000000	8.006127
1942.000000	7.999265
1941.000000	8.013187
1940.000000	7.982858
1939.000000	7.983057
1938.000000	7.989719
1937.000000	7.964561
1936.000000	7.951236
1935.000000	7.946264
1934.000000	7.972019
1933.000000	7.965257
1932.000000	7.964859
1931.000000	7.979377
1930.000000	8.020048
1929.000000	8.036058
1928.000000	8.048190
1927.000000	8.068675
1926.000000	8.118096
1925.000000	8.135598
1924.000000	8.171993
1923.000000	8.225492
1922.000000	8.244087
1921.000000	8.290526
1920.000000	8.346510
1919.000000	8.399413
1918.000000	8.463949
1917.000000	8.510388
1916.000000	8.582979
1915.000000	8.664918
1914.000000	8.730250
1913.000000	8.783649
1912.000000	8.888161
1911.000000	8.977558
1910.000000	9.056016
1909.000000	9.167091
1908.000000	9.244555
1907.000000	9.349663
1906.000000	9.460638
1905.000000	9.564752
1904.000000	9.714210
1903.000000	9.833041
1902.000000	9.982599
1901.000000	10.108988
1900.000000	10.219963
1899.000000	10.390503
1898.000000	10.561441
1897.000000	10.753957
1896.000000	10.925292
1895.000000	11.095733
1894.000000	11.284868
1893.000000	11.453916
1892.000000	11.665028
1891.000000	11.931627
1890.000000	12.171874
1889.000000	12.414508
1888.000000	12.688068
1887.000000	12.981218
1886.000000	13.287394
1885.000000	13.629369
1884.000000	13.964979
1883.000000	14.365524
1882.000000	14.808431
1881.000000	15.240200
1880.000000	15.686388
1879.000000	16.105528
1878.000000	16.525464
1877.000000	16.946096
1876.000000	17.379755
1875.000000	17.799790
1874.000000	18.224200
1873.000000	18.618381
1872.000000	19.015844
1871.000000	19.389739
1870.000000	19.749215
1869.000000	20.111674
1868.000000	20.415563
1867.000000	20.702249
1866.000000	20.936033
1865.000000	21.122682
1864.000000	21.309232
1863.000000	21.478280
1862.000000	21.614215
1861.000000	21.765464
1860.000000	21.929440
1859.000000	22.069949
1858.000000	22.185996
1857.000000	22.302540
1856.000000	22.404267
1855.000000	22.458263
1854.000000	22.509077
1853.000000	22.562675
1852.000000	22.575802
1851.000000	22.605534
1850.000000	22.628008
1849.000000	22.629499
1848.000000	22.623036
1847.000000	22.649884
1846.000000	22.648095
1845.000000	22.624229
1844.000000	22.581569
1843.000000	22.562974
1842.000000	22.550245
1841.000000	22.573216
1840.000000	22.578188
1839.000000	22.562576
1838.000000	22.537617
1837.000000	22.508381
1836.000000	22.487001
1835.000000	22.466119
1834.000000	22.413714
1833.000000	22.356934
1832.000000	22.297966
1831.000000	22.255008
1830.000000	22.217021
1829.000000	22.152087
1828.000000	22.107140
1827.000000	22.029278
1826.000000	21.966631
1825.000000	21.918601
1824.000000	21.856650
1823.000000	21.801560
1822.000000	21.758204
1821.000000	21.731853
1820.000000	21.714152
1819.000000	21.689790
1818.000000	21.642058
1817.000000	21.601984
1816.000000	21.580505
1815.000000	21.570959
1814.000000	21.572749
1813.000000	21.547690
1812.000000	21.521338
1811.000000	21.490810
1810.000000	21.468436
1809.000000	21.436913
1808.000000	21.410860
1807.000000	21.376851
1806.000000	21.339760
1805.000000	21.294714
1804.000000	21.241513
1803.000000	21.192788
1802.000000	21.148437
1801.000000	21.110551
1800.000000	21.061029
1799.000000	21.010216
1798.000000	20.955722
1797.000000	20.910974
1796.000000	20.863541
1795.000000	20.807556
1794.000000	20.755947
1793.000000	20.715475
1792.000000	20.676295
1791.000000	20.619913
1790.000000	20.553487
1789.000000	20.500784
1788.000000	20.461206
1787.000000	20.401741
1786.000000	20.347845
1785.000000	20.297230
1784.000000	20.235079
1783.000000	20.168455
1782.000000	20.095764
1781.000000	20.021581
1780.000000	19.958835
1779.000000	19.900762
1778.000000	19.846964
1777.000000	19.770197
1776.000000	19.699196
1775.000000	19.627202
1774.000000	19.535220
1773.000000	19.451889
1772.000000	19.370447
1771.000000	19.271007
1770.000000	19.193344
1769.000000	19.093506
1768.000000	18.987205
1767.000000	18.912724
1766.000000	18.834763
1765.000000	18.758691
1764.000000	18.703800
1763.000000	18.666411
1762.000000	18.651694
1761.000000	18.656268
1760.000000	18.692564
1759.000000	18.745366
1758.000000	18.803439
1757.000000	18.869368
1756.000000	18.925055
1755.000000	19.004010
1754.000000	19.064768
1753.000000	19.100666
1752.000000	19.140343
1751.000000	19.158938
1750.000000	19.180417
1749.000000	19.190162
1748.000000	19.157148
1747.000000	19.115483
1746.000000	19.084855
1745.000000	19.039908
1744.000000	18.968411
1743.000000	18.870860
1742.000000	18.754316
1741.000000	18.617884
1740.000000	18.454007
1739.000000	18.288439
1738.000000	18.111932
1737.000000	17.942288
1736.000000	17.788851
1735.000000	17.650232
1734.000000	17.553974
1733.000000	17.486653
1732.000000	17.462489
1731.000000	17.456821
1730.000000	17.488343
1729.000000	17.575751
1728.000000	17.659579
1727.000000	17.769262
1726.000000	17.862139
1725.000000	17.967645
1724.000000	18.051175
1723.000000	18.111137
1722.000000	18.152504
1721.000000	18.197451
1720.000000	18.228079
1719.000000	18.247668
1718.000000	18.266164
1717.000000	18.277401
1716.000000	18.323044
1715.000000	18.376145
1714.000000	18.426064
1713.000000	18.481054
1712.000000	18.532863
1711.000000	18.575523
1710.000000	18.605454
1709.000000	18.628524
1708.000000	18.640457
1707.000000	18.627828
1706.000000	18.588151
1705.000000	18.554541
1704.000000	18.522322
1703.000000	18.448935
1702.000000	18.372167
1701.000000	18.283367
1700.000000	18.171895
1699.000000	18.069571
1698.000000	17.928465
1697.000000	17.791138
1696.000000	17.668131
1695.000000	17.571475
1694.000000	17.546416
1693.000000	17.546516
1692.000000	17.609859
1691.000000	17.728392
1690.000000	17.849510
1689.000000	17.989422
1688.000000	18.122175
1687.000000	18.231062
1686.000000	18.285853
1685.000000	18.309620
1684.000000	18.337562
1683.000000	18.410551
1682.000000	18.520234
1681.000000	18.705391
1680.000000	18.993569
1679.000000	19.368956
1678.000000	19.805299
1677.000000	20.272270
1676.000000	20.699067
1675.000000	21.114727
1674.000000	21.480667
1673.000000	21.779982
1672.000000	22.080192
1671.000000	22.313379
1670.000000	22.504702
1669.000000	22.693439
1668.000000	22.841903
1667.000000	22.947211
1666.000000	23.076483
1665.000000	23.166476
1664.000000	23.232107
1663.000000	23.312355
1662.000000	23.354418
1661.000000	23.418060
1660.000000	23.459029
1659.000000	23.485381
1658.000000	23.517997
1657.000000	23.527344
1656.000000	23.545940
1655.000000	23.550514
1654.000000	23.559762
1653.000000	23.540371
1652.000000	23.526847
1651.000000	23.502087
1650.000000	23.466587
1649.000000	23.454157
1648.000000	23.422733
1647.000000	23.371223
1646.000000	23.328961
1645.000000	23.263033
1644.000000	23.219478
1643.000000	23.165681
1642.000000	23.108701
1641.000000	23.085631
1640.000000	23.024575
1639.000000	22.950691
1638.000000	22.885160
1637.000000	22.842301
1636.000000	22.768019
1635.000000	22.687175
1634.000000	22.623334
1633.000000	22.583061
1632.000000	22.518226
1631.000000	22.442353
1630.000000	22.374336
1629.000000	22.290707
1628.000000	22.218712
1627.000000	22.145126
1626.000000	22.076512
1625.000000	21.997458
1624.000000	21.924568
1623.000000	21.858440
1622.000000	21.779882
1621.000000	21.688099
1620.000000	21.645340
1619.000000	21.584980
1618.000000	21.483451
1617.000000	21.428262
1616.000000	21.368001
1615.000000	21.304857
1614.000000	21.238928
1613.000000	21.190103
1612.000000	21.120694
1611.000000	21.049992
1610.000000	21.003354
1609.000000	20.926586
1608.000000	20.883529
1607.000000	20.814517
1606.000000	20.758532
1605.000000	20.707321
1604.000000	20.644972
1603.000000	20.584612
1602.000000	20.525445
1601.000000	20.470355
1600.000000	20.401343
1599.000000	20.358286
1598.000000	20.285297
1597.000000	20.245123
1596.000000	20.180785
1595.000000	20.130866
1594.000000	20.065534
1593.000000	20.020388
1592.000000	19.992147
1591.000000	19.934074
1590.000000	19.875802
1589.000000	19.838413
1588.000000	19.781433
1587.000000	19.747624
1586.000000	19.699495
1585.000000	19.642515
1584.000000	19.588122
1583.000000	19.562267
1582.000000	19.537407
1581.000000	19.492560
1580.000000	19.472572
1579.000000	19.430807
1578.000000	19.395904
1577.000000	19.369552
1576.000000	19.330671
1575.000000	19.300441
1574.000000	19.296861
1573.000000	19.283039
1572.000000	19.259174
1571.000000	19.226358
1570.000000	19.206371
1569.000000	19.195631
1568.000000	19.185588
1567.000000	19.185488
1566.000000	19.187179
1565.000000	19.184892
1564.000000	19.168882
1563.000000	19.166495
1562.000000	19.164507
1561.000000	19.155060
1560.000000	19.133581
1559.000000	19.118466
1558.000000	19.110312
1557.000000	19.100666
1556.000000	19.088335
1555.000000	19.054426
1554.000000	19.044681
1553.000000	19.018628
1552.000000	19.009579
1551.000000	18.998342
1550.000000	18.968212
1549.000000	18.935894
1548.000000	18.899001
1547.000000	18.876826
1546.000000	18.855148
1545.000000	18.837647
1544.000000	18.809804
1543.000000	18.770624
1542.000000	18.742085
1541.000000	18.714242
1540.000000	18.706684
1539.000000	18.687194
1538.000000	18.673670
1537.000000	18.654876
1536.000000	18.622757
1535.000000	18.593223
1534.000000	18.562894
1533.000000	18.536045
1532.000000	18.508400
1531.000000	18.472403
1530.000000	18.437400
1529.000000	18.408065
1528.000000	18.369681
1527.000000	18.330999
1526.000000	18.288439
1525.000000	18.256817
1524.000000	18.222808
1523.000000	18.183529
1522.000000	18.141765
1521.000000	18.106563
1520.000000	18.064102
1519.000000	18.005929
1518.000000	17.966551
1517.000000	17.929858
1516.000000	17.881331
1515.000000	17.833202
1514.000000	17.787956
1513.000000	17.746192
1512.000000	17.700350
1511.000000	17.647348
1510.000000	17.596733
1509.000000	17.550294
1508.000000	17.498784
1507.000000	17.453639
1506.000000	17.408493
1505.000000	17.365336
1504.000000	17.309550
1503.000000	17.244615
1502.000000	17.194895
1501.000000	17.154920
1500.000000	17.110669
1499.000000	17.074672
1498.000000	17.032509
1497.000000	16.980801
1496.000000	16.946693
1495.000000	16.899657
1494.000000	16.865748
1493.000000	16.836215
1492.000000	16.791168
1491.000000	16.764817
1490.000000	16.745823
1489.000000	16.698987
1488.000000	16.654736
1487.000000	16.627490
1486.000000	16.611480
1485.000000	16.579559
1484.000000	16.551219
1483.000000	16.531530
1482.000000	16.507863
1481.000000	16.481114
1480.000000	16.456552
1479.000000	16.450685
1478.000000	16.429107
1477.000000	16.398578
1476.000000	16.371033
1475.000000	16.353134
1474.000000	16.351245
1473.000000	16.359896
1472.000000	16.357609
1471.000000	16.348858
1470.000000	16.338616
1469.000000	16.345577
1468.000000	16.336727
1467.000000	16.342196
1466.000000	16.335732
1465.000000	16.326087
1464.000000	16.330164
1463.000000	16.334439
1462.000000	16.351046
1461.000000	16.367653
1460.000000	16.374912
1459.000000	16.406136
1458.000000	16.438553
1457.000000	16.451978
1456.000000	16.475744
1455.000000	16.515321
1454.000000	16.556688
1453.000000	16.605314
1452.000000	16.662194
1451.000000	16.720566
1450.000000	16.762331
1449.000000	16.804891
1448.000000	16.846556
1447.000000	16.905425
1446.000000	16.985076
1445.000000	17.069203
1444.000000	17.133541
1443.000000	17.197481
1442.000000	17.263012
1441.000000	17.338984
1440.000000	17.407996
1439.000000	17.496000
1438.000000	17.569287
1437.000000	17.683146
1436.000000	17.750169
1435.000000	17.846626
1434.000000	17.940299
1433.000000	18.049782
1432.000000	18.153001
1431.000000	18.260695
1430.000000	18.366400
1429.000000	18.475486
1428.000000	18.592030
1427.000000	18.729257
1426.000000	18.872948
1425.000000	19.032052
1424.000000	19.193742
1423.000000	19.365177
1422.000000	19.542280
1421.000000	19.715007
1420.000000	19.904441
1419.000000	20.105708
1418.000000	20.321791
1417.000000	20.545929
1416.000000	20.754157
1415.000000	20.960396
1414.000000	21.197263
1413.000000	21.479374
1412.000000	21.729963
1411.000000	21.948533
1410.000000	22.245064
1409.000000	22.559493
1408.000000	22.892916
1407.000000	23.229720
1406.000000	23.607990
1405.000000	23.959810
1404.000000	24.356278
1403.000000	24.718339
1402.000000	25.121569
1401.000000	25.456185
1400.000000	25.904760
1399.000000	26.341004
1398.000000	26.700580
1397.000000	26.948583
1396.000000	27.280017
1395.000000	27.694584
1394.000000	28.077428
1393.000000	28.383207
1392.000000	28.659551
1391.000000	29.025590
1390.000000	29.386160
1389.000000	29.716103
1388.000000	30.103422
1387.000000	30.578547
1386.000000	31.045120
1385.000000	31.532875
1384.000000	32.046384
1383.000000	32.625026
1382.000000	33.205856
1381.000000	33.747407
1380.000000	34.229692
1379.000000	34.507826
1378.000000	34.839061
1377.000000	35.069762
1376.000000	35.290420
1375.000000	35.460264
1374.000000	35.692954
1373.000000	35.949311
1372.000000	36.258868
1371.000000	36.583043
1370.000000	36.941326
1369.000000	37.268782
1368.000000	37.542640
1367.000000	37.846927
1366.000000	38.117603
1365.000000	38.334781
1364.000000	38.560311
1363.000000	38.722100
1362.000000	38.912329
1361.000000	39.072030
1360.000000	39.236305
1359.000000	39.304223
1358.000000	39.411121
1357.000000	39.524582
1356.000000	39.656241
1355.000000	39.844382
1354.000000	40.094872
1353.000000	40.437642
1352.000000	40.806068
1351.000000	41.267271
1350.000000	41.703316
1349.000000	42.129219
1348.000000	42.542591
1347.000000	42.894709
1346.000000	43.241755
1345.000000	43.559168
1344.000000	43.881653
1343.000000	44.225517
1342.000000	44.502358
1341.000000	44.818876
1340.000000	45.128334
1339.000000	45.407164
1338.000000	45.696336
1337.000000	45.978846
1336.000000	46.272493
1335.000000	46.574393
1334.000000	46.854317
1333.000000	47.098741
1332.000000	47.363053
1331.000000	47.616128
1330.000000	47.889887
1329.000000	48.131924
1328.000000	48.360836
1327.000000	48.601978
1326.000000	48.810405
1325.000000	49.020522
1324.000000	49.234517
1323.000000	49.431508
1322.000000	49.632178
1321.000000	49.815745
1320.000000	50.014625
1319.000000	50.181784
1318.000000	50.353716
1317.000000	50.491341
1316.000000	50.643783
1315.000000	50.794832
1314.000000	50.941010
1313.000000	51.100313
1312.000000	51.225210
1311.000000	51.340759
1310.000000	51.465954
1309.000000	51.579515
1308.000000	51.679353
1307.000000	51.790229
1306.000000	51.876543
1305.000000	51.950427
1304.000000	52.032067
1303.000000	52.109531
1302.000000	52.171880
1301.000000	52.221799
1300.000000	52.279275
1299.000000	52.326808
1298.000000	52.356441
1297.000000	52.385477
1296.000000	52.422966
1295.000000	52.455682
1294.000000	52.465626
1293.000000	52.499336
1292.000000	52.514252
1291.000000	52.529765
1290.000000	52.535930
1289.000000	52.503513
1288.000000	52.495856
1287.000000	52.482730
1286.000000	52.464135
1285.000000	52.423265
1284.000000	52.398504
1283.000000	52.349381
1282.000000	52.303240
1281.000000	52.273806
1280.000000	52.217722
1279.000000	52.170189
1278.000000	52.118182
1277.000000	52.060308
1276.000000	52.015560
1275.000000	51.977972
1274.000000	51.934019
1273.000000	51.894740
1272.000000	51.839949
1271.000000	51.808128
1270.000000	51.773224
1269.000000	51.738917
1268.000000	51.693672
1267.000000	51.641367
1266.000000	51.602088
1265.000000	51.564499
1264.000000	51.511498
1263.000000	51.466054
1262.000000	51.426775
1261.000000	51.378546
1260.000000	51.327633
1259.000000	51.298298
1258.000000	51.253749
1257.000000	51.208205
1256.000000	51.150729
1255.000000	51.087883
1254.000000	51.040748
1253.000000	50.979592
1252.000000	50.911973
1251.000000	50.854795
1250.000000	50.783496
1249.000000	50.708717
1248.000000	50.639507
1247.000000	50.552099
1246.000000	50.450173
1245.000000	50.355904
1244.000000	50.264717
1243.000000	50.170050
1242.000000	50.057981
1241.000000	49.954165
1240.000000	49.822009
1239.000000	49.698803
1238.000000	49.580867
1237.000000	49.441551
1236.000000	49.313572
1235.000000	49.189272
1234.000000	49.050851
1233.000000	48.900995
1232.000000	48.749845
1231.000000	48.595117
1230.000000	48.436410
1229.000000	48.280587
1228.000000	48.116312
1227.000000	47.945176
1226.000000	47.782591
1225.000000	47.627663
1224.000000	47.464979
1223.000000	47.285191
1222.000000	47.101227
1221.000000	46.926709
1220.000000	46.752987
1219.000000	46.590801
1218.000000	46.431497
1217.000000	46.272393
1216.000000	46.112493
1215.000000	45.969697
1214.000000	45.839928
1213.000000	45.702402
1212.000000	45.570942
1211.000000	45.439582
1210.000000	45.302056
1209.000000	45.175866
1208.000000	45.067676
1207.000000	44.965352
1206.000000	44.862729
1205.000000	44.774625
1204.000000	44.711879
1203.000000	44.650922
1202.000000	44.597721
1201.000000	44.571867
1200.000000	44.555758
1199.000000	44.500867
1198.000000	44.438418
1197.000000	44.345541
1196.000000	44.242223
1195.000000	44.128065
1194.000000	43.945195
1193.000000	43.697291
1192.000000	43.411997
1191.000000	43.061271
1190.000000	42.674250
1189.000000	42.293394
1188.000000	41.934813
1187.000000	41.627245
1186.000000	41.431845
1185.000000	41.319378
1184.000000	41.337874
1183.000000	41.456108
1182.000000	41.701328
1181.000000	42.063787
1180.000000	42.466619
1179.000000	42.918972
1178.000000	43.377093
1177.000000	43.833325
1176.000000	44.230091
1175.000000	44.584396
1174.000000	44.888484
1173.000000	45.179049
1172.000000	45.475281
1171.000000	45.759879
1170.000000	46.079081
1169.000000	46.401069
1168.000000	46.702671
1167.000000	47.011333
1166.000000	47.329542
1165.000000	47.653120
1164.000000	47.999172
1163.000000	48.323446
1162.000000	48.674768
1161.000000	49.033747
1160.000000	49.389146
1159.000000	49.727939
1158.000000	50.060367
1157.000000	50.390111
1156.000000	50.703348
1155.000000	50.999779
1154.000000	51.255141
1153.000000	51.477688
1152.000000	51.648825
1151.000000	51.789035
1150.000000	51.895536
1149.000000	52.012179
1148.000000	52.101675
1147.000000	52.166510
1146.000000	52.290711
1145.000000	52.457770
1144.000000	52.674053
1143.000000	52.927824
1142.000000	53.234995
1141.000000	53.573091
1140.000000	53.934556
1139.000000	54.288563
1138.000000	54.660171
1137.000000	55.070760
1136.000000	55.467128
1135.000000	55.885473
1134.000000	56.342997
1133.000000	56.760149
1132.000000	57.122210
1131.000000	57.463688
1130.000000	57.806856
1129.000000	58.086482
1128.000000	58.367798
1127.000000	58.585273
1126.000000	58.776397
1125.000000	58.892245
1124.000000	59.027484
1123.000000	59.123046
1122.000000	59.217017
1121.000000	59.310192
1120.000000	59.364586
1119.000000	59.421665
1118.000000	59.448116
1117.000000	59.504697
1116.000000	59.524287
1115.000000	59.544573
1114.000000	59.555213
1113.000000	59.568637
1112.000000	59.578979
1111.000000	59.587929
1110.000000	59.601651
1109.000000	59.591011
1108.000000	59.626810
1107.000000	59.616766
1106.000000	59.623926
1105.000000	59.626213
1104.000000	59.638842
1103.000000	59.637152
1102.000000	59.673348
1101.000000	59.660818
1100.000000	59.665989
1099.000000	59.653659
1098.000000	59.646698
1097.000000	59.675933
1096.000000	59.662012
1095.000000	59.652366
1094.000000	59.642024
1093.000000	59.623827
1092.000000	59.602049
1091.000000	59.602049
1090.000000	59.583951
1089.000000	59.561975
1088.000000	59.556207
1087.000000	59.506686
1086.000000	59.493858
1085.000000	59.462634
1084.000000	59.448712
1083.000000	59.416494
1082.000000	59.382286
1081.000000	59.326202
1080.000000	59.300944
1079.000000	59.266439
1078.000000	59.240485
1077.000000	59.226464
1076.000000	59.171672
1075.000000	59.128813
1074.000000	59.108826
1073.000000	59.068553
1072.000000	59.035240
1071.000000	59.011474
1070.000000	58.956981
1069.000000	58.934408
1068.000000	58.889262
1067.000000	58.856248
1066.000000	58.810406
1065.000000	58.783458
1064.000000	58.743682
1063.000000	58.704602
1062.000000	58.682526
1061.000000	58.641358
1060.000000	58.603471
1059.000000	58.556336
1058.000000	58.520240
1057.000000	58.495181
1056.000000	58.443372
1055.000000	58.420998
1054.000000	58.387686
1053.000000	58.351191
1052.000000	58.312509
1051.000000	58.287848
1050.000000	58.260005
1049.000000	58.233951
1048.000000	58.212771
1047.000000	58.207401
1046.000000	58.197954
1045.000000	58.188308
1044.000000	58.180154
1043.000000	58.162752
1042.000000	58.152013
1041.000000	58.160564
1040.000000	58.157482
1039.000000	58.151317
1038.000000	58.143660
1037.000000	58.154399
1036.000000	58.156885
1035.000000	58.135605
1034.000000	58.147240
1033.000000	58.151317
1032.000000	58.143958
1031.000000	58.124169
1030.000000	58.118800
1029.000000	58.134312
1028.000000	58.127749
1027.000000	58.125661
1026.000000	58.118501
1025.000000	58.103685
1024.000000	58.097519
1023.000000	58.100503
1022.000000	58.083697
1021.000000	58.073157
1020.000000	58.089266
1019.000000	58.088769
1018.000000	58.083996
1017.000000	58.096028
1016.000000	58.095531
1015.000000	58.112137
1014.000000	58.135108
1013.000000	58.174486
1012.000000	58.187314
1011.000000	58.231465
1010.000000	58.284964
1009.000000	58.331800
1008.000000	58.379631
1007.000000	58.431837
1006.000000	58.502738
1005.000000	58.561408
1004.000000	58.625248
1003.000000	58.700425
1002.000000	58.767448
1001.000000	58.837752
1000.000000	58.909747
999.000000	58.989199
998.000000	59.066266
997.000000	59.116383
996.000000	59.215028
995.000000	59.304425
994.000000	59.395711
993.000000	59.492566
992.000000	59.571521
991.000000	59.689755
990.000000	59.799438
989.000000	59.889829
988.000000	59.990363
987.000000	60.104421
986.000000	60.238665
985.000000	60.373208
984.000000	60.492735
983.000000	60.603213
982.000000	60.734673
981.000000	60.875977
980.000000	61.011912
979.000000	61.151029
978.000000	61.290841
977.000000	61.424887
976.000000	61.563805
975.000000	61.709882
974.000000	61.873959
973.000000	62.014766
972.000000	62.151297
971.000000	62.303441
970.000000	62.454093
969.000000	62.591618
968.000000	62.725664
967.000000	62.866769
966.000000	63.015035
965.000000	63.187663
964.000000	63.341795
963.000000	63.474249
962.000000	63.635839
961.000000	63.786094
960.000000	63.921133
959.000000	64.075365
958.000000	64.225221
957.000000	64.363344
956.000000	64.491721
955.000000	64.621093
954.000000	64.763491
953.000000	64.899923
952.000000	65.015472
951.000000	65.156280
950.000000	65.278690
949.000000	65.388572
948.000000	65.511778
947.000000	65.624543
946.000000	65.737607
945.000000	65.842516
944.000000	65.957469
943.000000	66.066555
942.000000	66.158139
941.000000	66.261358
940.000000	66.353042
939.000000	66.440351
938.000000	66.524576
937.000000	66.617951
936.000000	66.697602
935.000000	66.748416
934.000000	66.828664
933.000000	66.927011
932.000000	67.004773
931.000000	67.093672
930.000000	67.169943
929.000000	67.233784
928.000000	67.315126
927.000000	67.374889
926.000000	67.425405
925.000000	67.488848
924.000000	67.545529
923.000000	67.618816
922.000000	67.661874
921.000000	67.694589
920.000000	67.756739
919.000000	67.808846
918.000000	67.862146
917.000000	67.910971
916.000000	67.945278
915.000000	67.979585
914.000000	68.029205
913.000000	68.086085
912.000000	68.121188
911.000000	68.164643
910.000000	68.196762
909.000000	68.227887
908.000000	68.281485
907.000000	68.338862
906.000000	68.400416
905.000000	68.456898
904.000000	68.508209
903.000000	68.578811
902.000000	68.654386
901.000000	68.738413
900.000000	68.812197
899.000000	68.879518
898.000000	68.959369
897.000000	69.044092
896.000000	69.118573
895.000000	69.193352
894.000000	69.265247
893.000000	69.334059
892.000000	69.406352
891.000000	69.480336
890.000000	69.547259
889.000000	69.610404
888.000000	69.685680
887.000000	69.766425
886.000000	69.835834
885.000000	69.902957
884.000000	69.979028
883.000000	70.055995
882.000000	70.142707
881.000000	70.217884
880.000000	70.303899
879.000000	70.383451
878.000000	70.478516
877.000000	70.555980
876.000000	70.632549
875.000000	70.681076
874.000000	70.744817
873.000000	70.780814
872.000000	70.787974
871.000000	70.771765
870.000000	70.750485
869.000000	70.788173
868.000000	70.829043
867.000000	70.893082
866.000000	70.942603
865.000000	70.966469
864.000000	70.999384
863.000000	71.025835
862.000000	71.063423
861.000000	71.095443
860.000000	71.093653
859.000000	71.129352
858.000000	71.126767
857.000000	71.356100
856.000000	71.059500
855.000000	70.964700
854.000000	70.921900
853.000000	70.937200
852.000000	70.604500
851.000000	70.780700
850.000000	70.531400
849.000000	70.719800
848.000000	70.975400
847.000000	70.820700
846.000000	70.574700
845.000000	70.615800
844.000000	70.794300
843.000000	70.332000
842.000000	70.433700
841.000000	70.179800
840.000000	70.125500
839.000000	70.574800
838.000000	70.192600
837.000000	70.111200
836.000000	70.347900
835.000000	70.282200
834.000000	70.708000
833.000000	70.585900
832.000000	70.664900
831.000000	70.732400
830.000000	71.314500
829.000000	71.467800
828.000000	71.665700
827.000000	71.764800
826.000000	72.294800
825.000000	72.533300
824.000000	73.066200
823.000000	73.462600
822.000000	73.820000
821.000000	74.291400
820.000000	74.553400
819.000000	75.026000
818.000000	75.621500
817.000000	75.924200
816.000000	76.492700
815.000000	76.697800
814.000000	77.111900
813.000000	77.271000
812.000000	77.919100
811.000000	78.050900
810.000000	78.523500
809.000000	78.844700
808.000000	79.061200
807.000000	79.183800
806.000000	79.556000
805.000000	79.956700
804.000000	79.993500
803.000000	79.987900
802.000000	80.331200
801.000000	80.492200
800.000000	80.587100
799.000000	80.833200
798.000000	80.974400
797.000000	81.297600
796.000000	81.493100
795.000000	81.724100
794.000000	81.816800
793.000000	82.167300
792.000000	82.174300
791.000000	82.398900
790.000000	82.528500
789.000000	82.643100
788.000000	82.662100
787.000000	83.024800
786.000000	83.175000
785.000000	83.376700
784.000000	83.615300
783.000000	83.938100
782.000000	83.982800
781.000000	84.089600
780.000000	84.226400
779.000000	84.302000
778.000000	84.367400
777.000000	84.402900
776.000000	84.468900
775.000000	84.623100
774.000000	84.412800
773.000000	84.544700
772.000000	84.485500
771.000000	84.710700
770.000000	84.569000
769.000000	84.875900
768.000000	84.849700
767.000000	84.814100
766.000000	84.846800
765.000000	85.005000
764.000000	85.094300
763.000000	85.196400
762.000000	85.167400
761.000000	85.354000
760.000000	85.469900
759.000000	85.419600
758.000000	85.554800
757.000000	85.559400
756.000000	85.620500
755.000000	85.638000
754.000000	85.642100
753.000000	85.564900
752.000000	85.694000
751.000000	85.801400
750.000000	85.780300
749.000000	85.803600
748.000000	85.714600
747.000000	85.665500
746.000000	85.626800
745.000000	85.481200
744.000000	85.427900
743.000000	85.395000
742.000000	85.220900
741.000000	85.108400
740.000000	84.898200
739.000000	84.758700
738.000000	84.570300
737.000000	84.367600
736.000000	84.116200
735.000000	83.816600
734.000000	83.514300
733.000000	83.122700
732.000000	82.828100
731.000000	82.405500
730.000000	82.003800
729.000000	81.756200
728.000000	81.380000
727.000000	80.872600
726.000000	80.354700
725.000000	79.891800
724.000000	79.617000
723.000000	78.972500
722.000000	78.516000
721.000000	77.886700
720.000000	77.371300
719.000000	76.863500
718.000000	76.264500
717.000000	75.695700
716.000000	75.145600
715.000000	74.471900
714.000000	73.864400
713.000000	73.294300
712.000000	72.683500
711.000000	72.061200
710.000000	71.572600
709.000000	71.053300
708.000000	70.543500
707.000000	70.060800
706.000000	69.672400
705.000000	69.384200
704.000000	69.051500
703.000000	68.795300
702.000000	68.603300
701.000000	68.404000
700.000000	68.300900
699.000000	68.162600
698.000000	68.001100
697.000000	67.912700
696.000000	67.784700
695.000000	67.755400
694.000000	67.630900
693.000000	67.543200
692.000000	67.518900
691.000000	67.393900
690.000000	67.334200
689.000000	67.375300
688.000000	67.241300
687.000000	67.284600
686.000000	67.316100
685.000000	67.320100
684.000000	67.433800
683.000000	67.499000
682.000000	67.575800
681.000000	67.638700
680.000000	67.669000
679.000000	67.690600
678.000000	67.719400
677.000000	67.685400
676.000000	67.636100
675.000000	67.568200
674.000000	67.422900
673.000000	67.242900
672.000000	67.033800
671.000000	66.772500
670.000000	66.530400
669.000000	66.189900
668.000000	65.794400
667.000000	65.442100
666.000000	65.101600
665.000000	64.720900
664.000000	64.266700
663.000000	63.783300
662.000000	63.184700
661.000000	62.569200
660.000000	61.939900
659.000000	61.222200
658.000000	60.459800
657.000000	59.627800
656.000000	58.770100
655.000000	57.889300
654.000000	56.966400
653.000000	56.006000
652.000000	55.122700
651.000000	54.307300
650.000000	53.538100
649.000000	52.919000
648.000000	52.445800
647.000000	52.114400
646.000000	51.926600
645.000000	51.901700
644.000000	52.020900
643.000000	52.310600
642.000000	52.795000
641.000000	53.374000
640.000000	54.049500
639.000000	54.872300
638.000000	55.816900
637.000000	56.802700
636.000000	57.821700
635.000000	58.925800
634.000000	60.081400
633.000000	61.305300
632.000000	62.562200
631.000000	63.854300
630.000000	65.204400
629.000000	66.556000
628.000000	67.918600
627.000000	69.245700
626.000000	70.588400
625.000000	71.931000
624.000000	73.228000
623.000000	74.515800
622.000000	75.726000
621.000000	76.916200
620.000000	78.046200
619.000000	79.104600
618.000000	80.098200
617.000000	80.999700
616.000000	81.877200
615.000000	82.685400
614.000000	83.388500
613.000000	84.031100
612.000000	84.693500
611.000000	85.318900
610.000000	85.834700
609.000000	86.336700
608.000000	86.811400
607.000000	87.259700
606.000000	87.718900
605.000000	88.116200
604.000000	88.423900
603.000000	88.800000
602.000000	89.118800
601.000000	89.415900
600.000000	89.724400
599.000000	89.919100
598.000000	90.155700
597.000000	90.389300
596.000000	90.565900
595.000000	90.672500
594.000000	90.777800
593.000000	90.886500
592.000000	90.949500
591.000000	91.014700
590.000000	91.069900
589.000000	91.100500
588.000000	91.078300
587.000000	91.013600
586.000000	90.983200
585.000000	90.966900
584.000000	90.899000
583.000000	90.781500
582.000000	90.726700
581.000000	90.710500
580.000000	90.602600
579.000000	90.494700
578.000000	90.398400
577.000000	90.286800
576.000000	90.162600
575.000000	90.050000
574.000000	89.821100
573.000000	89.659500
572.000000	89.539700
571.000000	89.364100
570.000000	89.109500
569.000000	88.935400
568.000000	88.673700
567.000000	88.421300
566.000000	88.107900
565.000000	87.770900
564.000000	87.444500
563.000000	87.088000
562.000000	86.632700
561.000000	86.199700
560.000000	85.765100
559.000000	85.251500
558.000000	84.661300
557.000000	84.133700
556.000000	83.520800
555.000000	82.860700
554.000000	82.179000
553.000000	81.467700
552.000000	80.696200
551.000000	79.830600
550.000000	79.030700
549.000000	78.146700
548.000000	77.248600
547.000000	76.373800
546.000000	75.416100
545.000000	74.451500
544.000000	73.397800
543.000000	72.350300
542.000000	71.264500
541.000000	70.148900
540.000000	68.978400
539.000000	67.789800
538.000000	66.590500
537.000000	65.364800
536.000000	64.059300
535.000000	62.711000
534.000000	61.334900
533.000000	59.913900
532.000000	58.478800
531.000000	57.042400
530.000000	55.529600
529.000000	54.061900
528.000000	52.608500
527.000000	51.182900
526.000000	49.732200
525.000000	48.280100
524.000000	46.896200
523.000000	45.496700
522.000000	44.141800
521.000000	42.821600
520.000000	41.558500
519.000000	40.340600
518.000000	39.260700
517.000000	38.214800
516.000000	37.257500
515.000000	36.381100
514.000000	35.577400
513.000000	34.867100
512.000000	34.272000
511.000000	33.741200
510.000000	33.312400
509.000000	32.978100
508.000000	32.724600
507.000000	32.583100
506.000000	32.477000
505.000000	32.404700
504.000000	32.399000
503.000000	32.452500
502.000000	32.477500
501.000000	32.588300
500.000000	32.693900
499.000000	32.760600
498.000000	32.832600
497.000000	32.894100
496.000000	32.964300
495.000000	33.006400
494.000000	33.026200
493.000000	33.009400
492.000000	32.977000
491.000000	32.907700
490.000000	32.856400
489.000000	32.754800
488.000000	32.645100
487.000000	32.501500
486.000000	32.358000
485.000000	32.222000
484.000000	32.013100
483.000000	31.837300
482.000000	31.631200
481.000000	31.417700
480.000000	31.180100
479.000000	30.923200
478.000000	30.697200
477.000000	30.502300
476.000000	30.299400
475.000000	30.031100
474.000000	29.820000
473.000000	29.590900
472.000000	29.342500
471.000000	29.144700
470.000000	28.892700
469.000000	28.642200
468.000000	28.389600
467.000000	28.164200
466.000000	27.896500
465.000000	27.632300
464.000000	27.363400
463.000000	27.091700
462.000000	26.784600
461.000000	26.474500
460.000000	26.150100
459.000000	25.838500
458.000000	25.470600
457.000000	25.097200
456.000000	24.712400
455.000000	24.322000
454.000000	23.849800
453.000000	23.409600
452.000000	22.965300
451.000000	22.458900
450.000000	21.945300
449.000000	21.400300
448.000000	20.852900
447.000000	20.322400
446.000000	19.733100
445.000000	19.121600
444.000000	18.517600
443.000000	17.895100
442.000000	17.300900
441.000000	16.669000
440.000000	16.085600
439.000000	15.458900
438.000000	14.891700
437.000000	14.335900
436.000000	13.777200
435.000000	13.233600
434.000000	12.736800
433.000000	12.232000
432.000000	11.753800
431.000000	11.337500
430.000000	10.920700
429.000000	10.553600
428.000000	10.193400
427.000000	9.857000
426.000000	9.544800
425.000000	9.278300
424.000000	9.031000
423.000000	8.775200
422.000000	8.586500
421.000000	8.387500
420.000000	8.213400
419.000000	8.066500
418.000000	7.929000
417.000000	7.806700
416.000000	7.686900
415.000000	7.567700
414.000000	7.493700
413.000000	7.434400
412.000000	7.357200
411.000000	7.267500
410.000000	7.222600
409.000000	7.167700
408.000000	7.122300
407.000000	7.088600
406.000000	7.048800
405.000000	7.021400
404.000000	6.990500
403.000000	6.958300
402.000000	6.925400
401.000000	6.878400
400.000000	6.876500
399.000000	6.867300
398.000000	6.844600
397.000000	6.818300
396.000000	6.792100
395.000000	6.768900
394.000000	6.756700
393.000000	6.761000
392.000000	6.733400
391.000000	6.716800
390.000000	6.706900
389.000000	6.675900
388.000000	6.660000
387.000000	6.639600
386.000000	6.616500
385.000000	6.597300
384.000000	6.562300
383.000000	6.537400
382.000000	6.542300
381.000000	6.517400
380.000000	6.510200
379.000000	6.481500
378.000000	6.483000
377.000000	6.467000
376.000000	6.413300
375.000000	6.347000
374.000000	6.237900
373.000000	6.177300
372.000000	6.181000
371.000000	6.216800
370.000000	6.158600
369.000000	6.094000
368.000000	6.171100
367.000000	6.243100
366.000000	6.151800
365.000000	6.210300
364.000000	6.329800
363.000000	6.261800
362.000000	6.162100
361.000000	6.172200
360.000000	6.250000
359.000000	6.261800
358.000000	6.277300
357.000000	6.283600
356.000000	6.122000
355.000000	6.092500
354.000000	6.165200
353.000000	6.143500
352.000000	6.215000
351.000000	6.151000
350.000000	6.162500
349.000000	6.138400
348.000000	6.050900
347.000000	6.090400
346.000000	6.034400
345.000000	5.941000
344.000000	5.851700
343.000000	5.925700
342.000000	6.124000
341.000000	6.047600
340.000000	5.932000
339.000000	5.868700
338.000000	5.952400
337.000000	6.261100
336.000000	6.075500
335.000000	5.876000
334.000000	5.968400
333.000000	6.047700
332.000000	6.092900
331.000000	6.194800
330.000000	6.300300
329.000000	6.076300
328.000000	6.056700
327.000000	6.232500
326.000000	6.293600
325.000000	6.268000
324.000000	6.156400
323.000000	5.960100
322.000000	6.017200
321.000000	6.168000
320.000000	6.081000
319.000000	6.066400
318.000000	6.241900
317.000000	6.553100
316.000000	6.158200
315.000000	5.678300
314.000000	5.700000
313.000000	5.680300
312.000000	5.644400
311.000000	5.714800
310.000000	5.753200
309.000000	5.708000
308.000000	5.703400
307.000000	5.728200
306.000000	5.744500
305.000000	5.741800
304.000000	5.726900
303.000000	5.728500
302.000000	5.746600
301.000000	5.751400
300.000000	5.727400
299.000000	5.708500
298.000000	5.718200
297.000000	5.740300
296.000000	5.765700
295.000000	5.778300
294.000000	5.770000
293.000000	5.751500
292.000000	5.725300
291.000000	5.724000
290.000000	5.771100
289.000000	5.809400
288.000000	5.799000
287.000000	5.790900
286.000000	5.801100
285.000000	5.800400
284.000000	5.848200
283.000000	5.817600
282.000000	5.838400
281.000000	5.865300
280.000000	5.883700
279.000000	5.923800
278.000000	5.898100
277.000000	5.901800
276.000000	5.926300
275.000000	5.945500
274.000000	5.989300
273.000000	6.021500
272.000000	6.001200
271.000000	6.014500
270.000000	6.006700
269.000000	6.037600
268.000000	6.087000
267.000000	6.100500
266.000000	6.089300
265.000000	6.109500
264.000000	6.106400
263.000000	6.123400
262.000000	6.203100
261.000000	6.192100
260.000000	6.236900
259.000000	6.283700
258.000000	6.260300
257.000000	6.312600
256.000000	6.301000
255.000000	6.273700
254.000000	6.316200
253.000000	6.363200
252.000000	6.330500
251.000000	6.323500
250.000000	6.343200
