PE UV       SUBTECH     SPECTRUM    ASCII       PEDS        4.00        
   -1
CICIMAUCR0244-2.Sample.ASC
24/06/21
11:05:02.00
24/06/21
11:05:02.00
Vinicio Soto Monge
C. cupreomarginata. Sex M. Dorsal
250,000000
1
Lambda 1050
1050L1511233
PerkinElmer UV WinLab 6.3.2.0749 / 2.02.05 Lambda 900 UV/VIS/NIR, Aug  7 2015 09:38:08

0
0
3350/servo 860,8/2
0
0
UV/VIS
1
1
1
DoubleDePol,CommonBeamDepol,RBeamAtt,SBeamAtt,60mm sphere, WB InGaAs Detector
0
0
0
0
Program
Program
3350/servo 860,8/2
3350/0,2 860,8/0,2
3350/0,2 860,8/0,2
0
15.00
 
 
 
0
 
860,8
319,2
860,8
Front
100
on
S:100 R:100
0
0
0
0
 
0
 
 
 
0
 
 
0
0
0
0
0
 
 
 
 
0
0


0
0
#HDR
-1
-1
#GR
nm
%R
1.0
0.0
2500,000000
-1,000000
2251
8
73,853900
5,259900
#DATA
2482.000000	8.100064
2481.000000	8.066361
2480.000000	8.092539
2479.000000	8.129315
2478.000000	8.083212
2477.000000	8.111934
2476.000000	8.076005
2475.000000	8.122638
2474.000000	8.078867
2473.000000	8.090101
2472.000000	8.124440
2471.000000	8.143093
2470.000000	8.128044
2469.000000	8.174253
2468.000000	8.170225
2467.000000	8.227987
2466.000000	8.181566
2465.000000	8.206684
2464.000000	8.227457
2463.000000	8.258298
2462.000000	8.275362
2461.000000	8.330368
2460.000000	8.329626
2459.000000	8.367886
2458.000000	8.406040
2457.000000	8.445467
2456.000000	8.500578
2455.000000	8.553995
2454.000000	8.608576
2453.000000	8.616207
2452.000000	8.654680
2451.000000	8.732790
2450.000000	8.772004
2449.000000	8.844922
2448.000000	8.882016
2447.000000	8.919005
2446.000000	9.005276
2445.000000	9.051379
2444.000000	9.109564
2443.000000	9.157257
2442.000000	9.218410
2441.000000	9.271296
2440.000000	9.316552
2439.000000	9.376221
2438.000000	9.424126
2437.000000	9.481993
2436.000000	9.530216
2435.000000	9.583314
2434.000000	9.626344
2433.000000	9.656867
2432.000000	9.704454
2431.000000	9.761050
2430.000000	9.802596
2429.000000	9.875513
2428.000000	9.906884
2427.000000	9.928399
2426.000000	9.967613
2425.000000	9.985631
2424.000000	10.042544
2423.000000	10.071478
2422.000000	10.096702
2421.000000	10.131253
2420.000000	10.169832
2419.000000	10.208092
2418.000000	10.257269
2417.000000	10.276028
2416.000000	10.295529
2415.000000	10.310897
2414.000000	10.352019
2413.000000	10.389113
2412.000000	10.412960
2411.000000	10.457897
2410.000000	10.477080
2409.000000	10.481849
2408.000000	10.505272
2407.000000	10.544062
2406.000000	10.568968
2405.000000	10.592603
2404.000000	10.620583
2403.000000	10.637222
2402.000000	10.655452
2401.000000	10.681842
2400.000000	10.688095
2399.000000	10.708550
2398.000000	10.730383
2397.000000	10.759952
2396.000000	10.775320
2395.000000	10.792913
2394.000000	10.819091
2393.000000	10.835625
2392.000000	10.855656
2391.000000	10.879715
2390.000000	10.900487
2389.000000	10.922320
2388.000000	10.924440
2387.000000	10.929845
2386.000000	10.947650
2385.000000	10.953904
2384.000000	10.958143
2383.000000	10.961004
2382.000000	10.953162
2381.000000	10.949240
2380.000000	10.953692
2379.000000	10.952632
2378.000000	10.954116
2377.000000	10.941609
2376.000000	10.926348
2375.000000	10.915431
2374.000000	10.923804
2373.000000	10.917975
2372.000000	10.887875
2371.000000	10.873673
2370.000000	10.864453
2369.000000	10.852900
2368.000000	10.831386
2367.000000	10.806055
2366.000000	10.777122
2365.000000	10.749354
2364.000000	10.731336
2363.000000	10.714697
2362.000000	10.683961
2361.000000	10.633195
2360.000000	10.585820
2359.000000	10.570028
2358.000000	10.553177
2357.000000	10.508981
2356.000000	10.468389
2355.000000	10.459805
2354.000000	10.441999
2353.000000	10.442529
2352.000000	10.459063
2351.000000	10.440304
2350.000000	10.428751
2349.000000	10.455989
2348.000000	10.490010
2347.000000	10.494038
2346.000000	10.511631
2345.000000	10.549255
2344.000000	10.586774
2343.000000	10.606699
2342.000000	10.629592
2341.000000	10.660539
2340.000000	10.689155
2339.000000	10.713319
2338.000000	10.729005
2337.000000	10.736636
2336.000000	10.751156
2335.000000	10.753699
2334.000000	10.753487
2333.000000	10.750626
2332.000000	10.729641
2331.000000	10.717770
2330.000000	10.710034
2329.000000	10.673681
2328.000000	10.636586
2327.000000	10.606063
2326.000000	10.567379
2325.000000	10.525091
2324.000000	10.494991
2323.000000	10.440092
2322.000000	10.380952
2321.000000	10.318210
2320.000000	10.261190
2319.000000	10.184881
2318.000000	10.103273
2317.000000	10.034278
2316.000000	9.971217
2315.000000	9.891517
2314.000000	9.808849
2313.000000	9.728513
2312.000000	9.653370
2311.000000	9.602497
2310.000000	9.554699
2309.000000	9.487187
2308.000000	9.454437
2307.000000	9.426458
2306.000000	9.391483
2305.000000	9.389787
2304.000000	9.406744
2303.000000	9.418721
2302.000000	9.435678
2301.000000	9.479980
2300.000000	9.542192
2299.000000	9.587872
2298.000000	9.647435
2297.000000	9.697989
2296.000000	9.768787
2295.000000	9.827396
2294.000000	9.905931
2293.000000	9.964434
2292.000000	10.006404
2291.000000	10.060350
2290.000000	10.094477
2289.000000	10.100518
2288.000000	10.129769
2287.000000	10.141958
2286.000000	10.150330
2285.000000	10.147045
2284.000000	10.134327
2283.000000	10.133055
2282.000000	10.099352
2281.000000	10.062151
2280.000000	10.015836
2279.000000	9.984041
2278.000000	9.950974
2277.000000	9.909534
2276.000000	9.876255
2275.000000	9.849547
2274.000000	9.794011
2273.000000	9.772390
2272.000000	9.768045
2271.000000	9.756599
2270.000000	9.778219
2269.000000	9.784685
2268.000000	9.820295
2267.000000	9.856012
2266.000000	9.908792
2265.000000	10.009159
2264.000000	10.083136
2263.000000	10.205866
2262.000000	10.323827
2261.000000	10.457579
2260.000000	10.623338
2259.000000	10.798213
2258.000000	10.980612
2257.000000	11.159831
2256.000000	11.329512
2255.000000	11.539997
2254.000000	11.753661
2253.000000	11.915923
2252.000000	12.093235
2251.000000	12.297467
2250.000000	12.464498
2249.000000	12.633225
2248.000000	12.799938
2247.000000	12.930193
2246.000000	13.071364
2245.000000	13.203103
2244.000000	13.332298
2243.000000	13.417509
2242.000000	13.544478
2241.000000	13.641348
2240.000000	13.742139
2239.000000	13.831378
2238.000000	13.896452
2237.000000	13.970535
2236.000000	14.024905
2235.000000	14.076096
2234.000000	14.134493
2233.000000	14.192890
2232.000000	14.217797
2231.000000	14.255739
2230.000000	14.282659
2229.000000	14.304916
2228.000000	14.316150
2227.000000	14.343388
2226.000000	14.321661
2225.000000	14.319012
2224.000000	14.315514
2223.000000	14.320496
2222.000000	14.291244
2221.000000	14.275134
2220.000000	14.239206
2219.000000	14.235814
2218.000000	14.190983
2217.000000	14.169468
2216.000000	14.165122
2215.000000	14.121987
2214.000000	14.105135
2213.000000	14.078003
2212.000000	14.060622
2211.000000	14.020560
2210.000000	13.985903
2209.000000	13.981134
2208.000000	13.963964
2207.000000	13.940648
2206.000000	13.917543
2205.000000	13.913940
2204.000000	13.901963
2203.000000	13.881402
2202.000000	13.873348
2201.000000	13.873136
2200.000000	13.861053
2199.000000	13.850879
2198.000000	13.841022
2197.000000	13.814632
2196.000000	13.824065
2195.000000	13.806366
2194.000000	13.790574
2193.000000	13.795979
2192.000000	13.783791
2191.000000	13.768741
2190.000000	13.761746
2189.000000	13.736840
2188.000000	13.748392
2187.000000	13.739807
2186.000000	13.717339
2185.000000	13.707058
2184.000000	13.693386
2183.000000	13.684060
2182.000000	13.663075
2181.000000	13.659259
2180.000000	13.649509
2179.000000	13.641136
2178.000000	13.644845
2177.000000	13.618879
2176.000000	13.611672
2175.000000	13.607539
2174.000000	13.613368
2173.000000	13.612732
2172.000000	13.618243
2171.000000	13.615594
2170.000000	13.632975
2169.000000	13.653748
2168.000000	13.647389
2167.000000	13.652794
2166.000000	13.669010
2165.000000	13.683106
2164.000000	13.706740
2163.000000	13.721684
2162.000000	13.742457
2161.000000	13.768953
2160.000000	13.781141
2159.000000	13.833180
2158.000000	13.860418
2157.000000	13.893273
2156.000000	13.930367
2155.000000	13.971171
2154.000000	14.005828
2153.000000	14.033702
2152.000000	14.069525
2151.000000	14.128452
2150.000000	14.159929
2149.000000	14.200415
2148.000000	14.220128
2147.000000	14.261462
2146.000000	14.307883
2145.000000	14.335121
2144.000000	14.382708
2143.000000	14.412702
2142.000000	14.438880
2141.000000	14.467178
2140.000000	14.499609
2139.000000	14.534478
2138.000000	14.564047
2137.000000	14.581111
2136.000000	14.598810
2135.000000	14.623929
2134.000000	14.648729
2133.000000	14.659221
2132.000000	14.673529
2131.000000	14.673741
2130.000000	14.689109
2129.000000	14.706384
2128.000000	14.691971
2127.000000	14.695468
2126.000000	14.698436
2125.000000	14.696528
2124.000000	14.678934
2123.000000	14.679464
2122.000000	14.682114
2121.000000	14.670986
2120.000000	14.648093
2119.000000	14.628910
2118.000000	14.608773
2117.000000	14.582277
2116.000000	14.567015
2115.000000	14.539989
2114.000000	14.515295
2113.000000	14.490494
2112.000000	14.452022
2111.000000	14.414292
2110.000000	14.393201
2109.000000	14.363843
2108.000000	14.333956
2107.000000	14.296331
2106.000000	14.270259
2105.000000	14.241325
2104.000000	14.221294
2103.000000	14.193950
2102.000000	14.153358
2101.000000	14.115946
2100.000000	14.075036
2099.000000	14.036034
2098.000000	14.010173
2097.000000	13.993110
2096.000000	13.957075
2095.000000	13.922312
2094.000000	13.889669
2093.000000	13.866141
2092.000000	13.840069
2091.000000	13.805518
2090.000000	13.781459
2089.000000	13.753055
2088.000000	13.729103
2087.000000	13.712357
2086.000000	13.684272
2085.000000	13.644951
2084.000000	13.603618
2083.000000	13.577651
2082.000000	13.556243
2081.000000	13.512153
2080.000000	13.466050
2079.000000	13.419841
2078.000000	13.378613
2077.000000	13.326892
2076.000000	13.269661
2075.000000	13.235322
2074.000000	13.184450
2073.000000	13.134531
2072.000000	13.089594
2071.000000	13.034588
2070.000000	12.966652
2069.000000	12.913660
2068.000000	12.859608
2067.000000	12.805662
2066.000000	12.748006
2065.000000	12.679328
2064.000000	12.620295
2063.000000	12.583095
2062.000000	12.534342
2061.000000	12.492584
2060.000000	12.451780
2059.000000	12.406207
2058.000000	12.368052
2057.000000	12.327142
2056.000000	12.297467
2055.000000	12.278602
2054.000000	12.269487
2053.000000	12.269169
2052.000000	12.269063
2051.000000	12.286126
2050.000000	12.304886
2049.000000	12.324175
2048.000000	12.343888
2047.000000	12.384056
2046.000000	12.422210
2045.000000	12.463438
2044.000000	12.501381
2043.000000	12.557870
2042.000000	12.600582
2041.000000	12.642658
2040.000000	12.686535
2039.000000	12.711971
2038.000000	12.751080
2037.000000	12.785313
2036.000000	12.815200
2035.000000	12.839259
2034.000000	12.867980
2033.000000	12.889283
2032.000000	12.916839
2031.000000	12.945243
2030.000000	12.959657
2029.000000	12.970149
2028.000000	12.966546
2027.000000	12.967818
2026.000000	12.975660
2025.000000	12.987319
2024.000000	12.986789
2023.000000	12.975766
2022.000000	12.978098
2021.000000	12.959975
2020.000000	12.941534
2019.000000	12.931783
2018.000000	12.932313
2017.000000	12.909208
2016.000000	12.878155
2015.000000	12.842332
2014.000000	12.829508
2013.000000	12.810431
2012.000000	12.777576
2011.000000	12.749490
2010.000000	12.712713
2009.000000	12.666292
2008.000000	12.609379
2007.000000	12.594859
2006.000000	12.549286
2005.000000	12.493114
2004.000000	12.440758
2003.000000	12.405465
2002.000000	12.342404
2001.000000	12.288352
2000.000000	12.234406
1999.000000	12.156932
1998.000000	12.104787
1997.000000	12.051265
1996.000000	11.981845
1995.000000	11.897588
1994.000000	11.849259
1993.000000	11.781217
1992.000000	11.700987
1991.000000	11.630401
1990.000000	11.551125
1989.000000	11.508943
1988.000000	11.411862
1987.000000	11.336507
1986.000000	11.277156
1985.000000	11.215049
1984.000000	11.147113
1983.000000	11.048018
1982.000000	10.979022
1981.000000	10.934826
1980.000000	10.829796
1979.000000	10.760906
1978.000000	10.692546
1977.000000	10.620053
1976.000000	10.572572
1975.000000	10.495521
1974.000000	10.420061
1973.000000	10.334213
1972.000000	10.305279
1971.000000	10.239145
1970.000000	10.166546
1969.000000	10.093417
1968.000000	10.047844
1967.000000	9.990824
1966.000000	9.911866
1965.000000	9.862053
1964.000000	9.816692
1963.000000	9.741125
1962.000000	9.697459
1961.000000	9.627404
1960.000000	9.603239
1959.000000	9.539967
1958.000000	9.489306
1957.000000	9.442249
1956.000000	9.386819
1955.000000	9.348241
1954.000000	9.299594
1953.000000	9.284121
1952.000000	9.226147
1951.000000	9.180680
1950.000000	9.132987
1949.000000	9.098224
1948.000000	9.079147
1947.000000	9.046292
1946.000000	9.039191
1945.000000	8.980581
1944.000000	8.976872
1943.000000	8.938824
1942.000000	8.919429
1941.000000	8.916567
1940.000000	8.915507
1939.000000	8.936492
1938.000000	8.921442
1937.000000	8.920064
1936.000000	8.956523
1935.000000	8.968817
1934.000000	8.973692
1933.000000	8.996055
1932.000000	9.016086
1931.000000	9.051909
1930.000000	9.130655
1929.000000	9.151640
1928.000000	9.242999
1927.000000	9.302562
1926.000000	9.378977
1925.000000	9.464612
1924.000000	9.531912
1923.000000	9.582042
1922.000000	9.686649
1921.000000	9.813300
1920.000000	9.965600
1919.000000	10.095325
1918.000000	10.209894
1917.000000	10.326794
1916.000000	10.431189
1915.000000	10.517248
1914.000000	10.692228
1913.000000	10.871130
1912.000000	11.089352
1911.000000	11.287224
1910.000000	11.444717
1909.000000	11.557802
1908.000000	11.708830
1907.000000	11.901721
1906.000000	12.118247
1905.000000	12.402285
1904.000000	12.689609
1903.000000	12.920549
1902.000000	13.150641
1901.000000	13.384336
1900.000000	13.719564
1899.000000	14.027979
1898.000000	14.388537
1897.000000	14.703417
1896.000000	14.986713
1895.000000	15.219984
1894.000000	15.490244
1893.000000	15.802474
1892.000000	16.181262
1891.000000	16.677481
1890.000000	17.115514
1889.000000	17.524084
1888.000000	17.957242
1887.000000	18.346840
1886.000000	18.777984
1885.000000	19.240606
1884.000000	19.814405
1883.000000	20.382587
1882.000000	20.888556
1881.000000	21.418266
1880.000000	21.913530
1879.000000	22.356757
1878.000000	22.846616
1877.000000	23.351102
1876.000000	23.802807
1875.000000	24.279842
1874.000000	24.723175
1873.000000	25.216638
1872.000000	25.684240
1871.000000	26.103196
1870.000000	26.538792
1869.000000	26.943440
1868.000000	27.273051
1867.000000	27.528474
1866.000000	27.750511
1865.000000	27.911289
1864.000000	28.069947
1863.000000	28.181019
1862.000000	28.306187
1861.000000	28.491871
1860.000000	28.669819
1859.000000	28.833247
1858.000000	29.001550
1857.000000	29.101175
1856.000000	29.153743
1855.000000	29.204404
1854.000000	29.300319
1853.000000	29.373449
1852.000000	29.377688
1851.000000	29.388604
1850.000000	29.362320
1849.000000	29.333069
1848.000000	29.407576
1847.000000	29.519601
1846.000000	29.545355
1845.000000	29.472014
1844.000000	29.390618
1843.000000	29.299896
1842.000000	29.285800
1841.000000	29.359565
1840.000000	29.372389
1839.000000	29.388710
1838.000000	29.347482
1837.000000	29.310918
1836.000000	29.310388
1835.000000	29.297670
1834.000000	29.229098
1833.000000	29.124491
1832.000000	29.019779
1831.000000	28.953433
1830.000000	28.932342
1829.000000	28.886875
1828.000000	28.813957
1827.000000	28.752381
1826.000000	28.685504
1825.000000	28.629969
1824.000000	28.558535
1823.000000	28.466541
1822.000000	28.420014
1821.000000	28.431778
1820.000000	28.450113
1819.000000	28.441529
1818.000000	28.374758
1817.000000	28.309260
1816.000000	28.279161
1815.000000	28.269410
1814.000000	28.237509
1813.000000	28.209953
1812.000000	28.172646
1811.000000	28.134704
1810.000000	28.109268
1809.000000	28.057547
1808.000000	27.992473
1807.000000	27.954743
1806.000000	27.916800
1805.000000	27.858721
1804.000000	27.805835
1803.000000	27.743304
1802.000000	27.673884
1801.000000	27.638697
1800.000000	27.600331
1799.000000	27.526142
1798.000000	27.447820
1797.000000	27.379036
1796.000000	27.327951
1795.000000	27.280682
1794.000000	27.228114
1793.000000	27.179891
1792.000000	27.121176
1791.000000	27.065958
1790.000000	27.007985
1789.000000	26.936975
1788.000000	26.879744
1787.000000	26.832475
1786.000000	26.775773
1785.000000	26.698934
1784.000000	26.628879
1783.000000	26.565288
1782.000000	26.483468
1781.000000	26.402390
1780.000000	26.346113
1779.000000	26.289623
1778.000000	26.218295
1777.000000	26.137323
1776.000000	26.073415
1775.000000	25.990853
1774.000000	25.910729
1773.000000	25.816721
1772.000000	25.705225
1771.000000	25.613125
1770.000000	25.527914
1769.000000	25.412603
1768.000000	25.319760
1767.000000	25.222573
1766.000000	25.149761
1765.000000	25.077056
1764.000000	25.016221
1763.000000	24.997886
1762.000000	25.000959
1761.000000	25.007001
1760.000000	25.019401
1759.000000	25.072287
1758.000000	25.140753
1757.000000	25.191413
1756.000000	25.247797
1755.000000	25.293688
1754.000000	25.352615
1753.000000	25.408363
1752.000000	25.421187
1751.000000	25.426805
1750.000000	25.417372
1749.000000	25.402322
1748.000000	25.380277
1747.000000	25.352827
1746.000000	25.304923
1745.000000	25.231263
1744.000000	25.149338
1743.000000	25.042611
1742.000000	24.915112
1741.000000	24.778604
1740.000000	24.630968
1739.000000	24.466799
1738.000000	24.288639
1737.000000	24.137293
1736.000000	23.978953
1735.000000	23.868411
1734.000000	23.788711
1733.000000	23.743456
1732.000000	23.747483
1731.000000	23.766772
1730.000000	23.797084
1729.000000	23.866927
1728.000000	23.968778
1727.000000	24.049432
1726.000000	24.130934
1725.000000	24.216040
1724.000000	24.303477
1723.000000	24.366537
1722.000000	24.425677
1721.000000	24.489903
1720.000000	24.529753
1719.000000	24.598007
1718.000000	24.675588
1717.000000	24.761117
1716.000000	24.823860
1715.000000	24.903666
1714.000000	25.001595
1713.000000	25.081826
1712.000000	25.177423
1711.000000	25.257760
1710.000000	25.304181
1709.000000	25.355583
1708.000000	25.395221
1707.000000	25.401898
1706.000000	25.377946
1705.000000	25.363320
1704.000000	25.340639
1703.000000	25.286693
1702.000000	25.234125
1701.000000	25.155485
1700.000000	25.064338
1699.000000	24.956658
1698.000000	24.828629
1697.000000	24.718193
1696.000000	24.647290
1695.000000	24.601929
1694.000000	24.576916
1693.000000	24.630120
1692.000000	24.713000
1691.000000	24.824178
1690.000000	24.948709
1689.000000	25.078540
1688.000000	25.193639
1687.000000	25.268888
1686.000000	25.349012
1685.000000	25.422353
1684.000000	25.484460
1683.000000	25.644602
1682.000000	25.821490
1681.000000	26.125029
1680.000000	26.449765
1679.000000	26.858441
1678.000000	27.296050
1677.000000	27.770966
1676.000000	28.190876
1675.000000	28.584819
1674.000000	28.923121
1673.000000	29.233549
1672.000000	29.516316
1671.000000	29.770678
1670.000000	29.979785
1669.000000	30.148300
1668.000000	30.321902
1667.000000	30.415698
1666.000000	30.537686
1665.000000	30.639749
1664.000000	30.735877
1663.000000	30.832747
1662.000000	30.892204
1661.000000	30.941275
1660.000000	31.019597
1659.000000	31.061673
1658.000000	31.109154
1657.000000	31.116997
1656.000000	31.131199
1655.000000	31.157165
1654.000000	31.175076
1653.000000	31.169035
1652.000000	31.161616
1651.000000	31.155999
1650.000000	31.123568
1649.000000	31.100039
1648.000000	31.052664
1647.000000	31.017054
1646.000000	30.976250
1645.000000	30.958762
1644.000000	30.894960
1643.000000	30.831263
1642.000000	30.809218
1641.000000	30.768732
1640.000000	30.708321
1639.000000	30.648970
1638.000000	30.583260
1637.000000	30.510660
1636.000000	30.478653
1635.000000	30.388990
1634.000000	30.343311
1633.000000	30.246759
1632.000000	30.163244
1631.000000	30.106966
1630.000000	30.030975
1629.000000	29.937815
1628.000000	29.866700
1627.000000	29.794736
1626.000000	29.709525
1625.000000	29.612337
1624.000000	29.542388
1623.000000	29.442550
1622.000000	29.361790
1621.000000	29.305089
1620.000000	29.208961
1619.000000	29.127565
1618.000000	29.045215
1617.000000	28.970072
1616.000000	28.894400
1615.000000	28.822118
1614.000000	28.744114
1613.000000	28.655617
1612.000000	28.585243
1611.000000	28.501092
1610.000000	28.414185
1609.000000	28.338830
1608.000000	28.256692
1607.000000	28.165969
1606.000000	28.091674
1605.000000	28.018227
1604.000000	27.926975
1603.000000	27.845579
1602.000000	27.756870
1601.000000	27.669115
1600.000000	27.595880
1599.000000	27.501554
1598.000000	27.425669
1597.000000	27.327739
1596.000000	27.251537
1595.000000	27.168021
1594.000000	27.081644
1593.000000	27.017417
1592.000000	26.949693
1591.000000	26.876352
1590.000000	26.798030
1589.000000	26.727126
1588.000000	26.642975
1587.000000	26.580020
1586.000000	26.509434
1585.000000	26.440968
1584.000000	26.400165
1583.000000	26.329579
1582.000000	26.257616
1581.000000	26.170496
1580.000000	26.116021
1579.000000	26.084649
1578.000000	26.030491
1577.000000	25.982692
1576.000000	25.940511
1575.000000	25.904582
1574.000000	25.869501
1573.000000	25.811422
1572.000000	25.765848
1571.000000	25.754190
1570.000000	25.737445
1569.000000	25.708193
1568.000000	25.678623
1567.000000	25.654777
1566.000000	25.648948
1565.000000	25.624889
1564.000000	25.598923
1563.000000	25.591928
1562.000000	25.564902
1561.000000	25.546461
1560.000000	25.509366
1559.000000	25.479373
1558.000000	25.461461
1557.000000	25.431150
1556.000000	25.394691
1555.000000	25.365334
1554.000000	25.329405
1553.000000	25.287859
1552.000000	25.254792
1551.000000	25.223421
1550.000000	25.170110
1549.000000	25.128883
1548.000000	25.072817
1547.000000	25.040386
1546.000000	25.003503
1545.000000	24.964819
1544.000000	24.939913
1543.000000	24.895293
1542.000000	24.853747
1541.000000	24.824390
1540.000000	24.806372
1539.000000	24.790687
1538.000000	24.764932
1537.000000	24.729428
1536.000000	24.701448
1535.000000	24.660008
1534.000000	24.616448
1533.000000	24.595040
1532.000000	24.574691
1531.000000	24.532403
1530.000000	24.501349
1529.000000	24.466481
1528.000000	24.420165
1527.000000	24.373638
1526.000000	24.337286
1525.000000	24.299449
1524.000000	24.257162
1523.000000	24.206183
1522.000000	24.158066
1521.000000	24.101683
1520.000000	24.055155
1519.000000	24.023784
1518.000000	23.968142
1517.000000	23.914832
1516.000000	23.868199
1515.000000	23.810332
1514.000000	23.751934
1513.000000	23.703711
1512.000000	23.645632
1511.000000	23.591898
1510.000000	23.542933
1509.000000	23.481992
1508.000000	23.421475
1507.000000	23.365727
1506.000000	23.304468
1505.000000	23.249569
1504.000000	23.207175
1503.000000	23.140935
1502.000000	23.077132
1501.000000	23.028697
1500.000000	22.979944
1499.000000	22.930556
1498.000000	22.885300
1497.000000	22.826055
1496.000000	22.778998
1495.000000	22.736181
1494.000000	22.701948
1493.000000	22.673650
1492.000000	22.627441
1491.000000	22.600945
1490.000000	22.577310
1489.000000	22.536506
1488.000000	22.492311
1487.000000	22.456488
1486.000000	22.417486
1485.000000	22.390990
1484.000000	22.356121
1483.000000	22.313091
1482.000000	22.280130
1481.000000	22.269426
1480.000000	22.248229
1479.000000	22.219825
1478.000000	22.216327
1477.000000	22.193117
1476.000000	22.176583
1475.000000	22.162593
1474.000000	22.154009
1473.000000	22.145636
1472.000000	22.150829
1471.000000	22.159096
1470.000000	22.158990
1469.000000	22.157718
1468.000000	22.136203
1467.000000	22.135461
1466.000000	22.140655
1465.000000	22.154645
1464.000000	22.153055
1463.000000	22.161110
1462.000000	22.172768
1461.000000	22.182095
1460.000000	22.223852
1459.000000	22.247381
1458.000000	22.268684
1457.000000	22.305884
1456.000000	22.346264
1455.000000	22.405086
1454.000000	22.447903
1453.000000	22.482242
1452.000000	22.540322
1451.000000	22.598613
1450.000000	22.657858
1449.000000	22.703643
1448.000000	22.764266
1447.000000	22.822028
1446.000000	22.907239
1445.000000	22.993828
1444.000000	23.059327
1443.000000	23.108821
1442.000000	23.174850
1441.000000	23.263029
1440.000000	23.340821
1439.000000	23.423701
1438.000000	23.499480
1437.000000	23.594760
1436.000000	23.704347
1435.000000	23.794328
1434.000000	23.893953
1433.000000	24.002587
1432.000000	24.130616
1431.000000	24.254088
1430.000000	24.361662
1429.000000	24.486406
1428.000000	24.629272
1427.000000	24.782526
1426.000000	24.938959
1425.000000	25.102492
1424.000000	25.293158
1423.000000	25.486580
1422.000000	25.668661
1421.000000	25.851802
1420.000000	26.079456
1419.000000	26.309336
1418.000000	26.577052
1417.000000	26.781178
1416.000000	27.007349
1415.000000	27.268388
1414.000000	27.584751
1413.000000	27.897193
1412.000000	28.159716
1411.000000	28.417788
1410.000000	28.772941
1409.000000	29.142721
1408.000000	29.520131
1407.000000	29.898601
1406.000000	30.287139
1405.000000	30.723477
1404.000000	31.156105
1403.000000	31.605055
1402.000000	31.934984
1401.000000	32.387113
1400.000000	32.889161
1399.000000	33.345741
1398.000000	33.650870
1397.000000	33.957271
1396.000000	34.366476
1395.000000	34.860999
1394.000000	35.248478
1393.000000	35.552123
1392.000000	35.948292
1391.000000	36.355378
1390.000000	36.751759
1389.000000	37.096420
1388.000000	37.631641
1387.000000	38.153296
1386.000000	38.681734
1385.000000	39.205826
1384.000000	39.785560
1383.000000	40.412352
1382.000000	40.974598
1381.000000	41.546066
1380.000000	41.902597
1379.000000	42.244185
1378.000000	42.509251
1377.000000	42.717829
1376.000000	42.971873
1375.000000	43.193486
1374.000000	43.463958
1373.000000	43.721500
1372.000000	44.088524
1371.000000	44.464238
1370.000000	44.842178
1369.000000	45.148579
1368.000000	45.493876
1367.000000	45.817658
1366.000000	46.059090
1365.000000	46.283671
1364.000000	46.536338
1363.000000	46.720326
1362.000000	46.929434
1361.000000	47.151471
1360.000000	47.313945
1359.000000	47.399262
1358.000000	47.497933
1357.000000	47.632534
1356.000000	47.791192
1355.000000	48.106177
1354.000000	48.469174
1353.000000	48.846584
1352.000000	49.289916
1351.000000	49.730599
1350.000000	50.198308
1349.000000	50.625637
1348.000000	51.028271
1347.000000	51.428468
1346.000000	51.789345
1345.000000	52.136549
1344.000000	52.486086
1343.000000	52.855653
1342.000000	53.156754
1341.000000	53.486366
1340.000000	53.817884
1339.000000	54.129584
1338.000000	54.447113
1337.000000	54.738782
1336.000000	55.039354
1335.000000	55.356035
1334.000000	55.626401
1333.000000	55.918070
1332.000000	56.183667
1331.000000	56.468446
1330.000000	56.735739
1329.000000	56.976959
1328.000000	57.193273
1327.000000	57.430890
1326.000000	57.653245
1325.000000	57.870301
1324.000000	58.077076
1323.000000	58.261171
1322.000000	58.462117
1321.000000	58.626181
1320.000000	58.805613
1319.000000	58.980911
1318.000000	59.147624
1317.000000	59.276395
1316.000000	59.423395
1315.000000	59.572939
1314.000000	59.694397
1313.000000	59.846485
1312.000000	59.944838
1311.000000	60.060467
1310.000000	60.171645
1309.000000	60.274873
1308.000000	60.354362
1307.000000	60.435334
1306.000000	60.520969
1305.000000	60.601517
1304.000000	60.648680
1303.000000	60.697645
1302.000000	60.755406
1301.000000	60.784128
1300.000000	60.816771
1299.000000	60.841253
1298.000000	60.862874
1297.000000	60.870717
1296.000000	60.894988
1295.000000	60.900075
1294.000000	60.916714
1293.000000	60.935897
1292.000000	60.929220
1291.000000	60.901347
1290.000000	60.883223
1289.000000	60.858847
1288.000000	60.850156
1287.000000	60.815499
1286.000000	60.754240
1285.000000	60.712271
1284.000000	60.658748
1283.000000	60.605756
1282.000000	60.545981
1281.000000	60.489386
1280.000000	60.444130
1279.000000	60.385945
1278.000000	60.323308
1277.000000	60.265547
1276.000000	60.218490
1275.000000	60.175884
1274.000000	60.143771
1273.000000	60.113989
1272.000000	60.072867
1271.000000	60.034183
1270.000000	60.005673
1269.000000	59.977269
1268.000000	59.946428
1267.000000	59.904458
1266.000000	59.863548
1265.000000	59.844683
1264.000000	59.816597
1263.000000	59.776535
1262.000000	59.748343
1261.000000	59.714640
1260.000000	59.679665
1259.000000	59.643101
1258.000000	59.614485
1257.000000	59.580040
1256.000000	59.556829
1255.000000	59.529062
1254.000000	59.472890
1253.000000	59.419792
1252.000000	59.386195
1251.000000	59.334898
1250.000000	59.258060
1249.000000	59.206339
1248.000000	59.142537
1247.000000	59.072269
1246.000000	59.011434
1245.000000	58.916472
1244.000000	58.818013
1243.000000	58.719023
1242.000000	58.617914
1241.000000	58.513308
1240.000000	58.412623
1239.000000	58.300173
1238.000000	58.181047
1237.000000	58.074639
1236.000000	57.958904
1235.000000	57.832889
1234.000000	57.703482
1233.000000	57.567186
1232.000000	57.427922
1231.000000	57.293640
1230.000000	57.135724
1229.000000	56.980245
1228.000000	56.843313
1227.000000	56.685396
1226.000000	56.515503
1225.000000	56.363946
1224.000000	56.209951
1223.000000	56.042389
1222.000000	55.874722
1221.000000	55.718077
1220.000000	55.560691
1219.000000	55.394613
1218.000000	55.226734
1217.000000	55.076130
1216.000000	54.945664
1215.000000	54.797498
1214.000000	54.648590
1213.000000	54.516427
1212.000000	54.383311
1211.000000	54.249665
1210.000000	54.126723
1209.000000	54.012578
1208.000000	53.889106
1207.000000	53.758851
1206.000000	53.657848
1205.000000	53.592880
1204.000000	53.507986
1203.000000	53.439838
1202.000000	53.388436
1201.000000	53.329721
1200.000000	53.270263
1199.000000	53.186006
1198.000000	53.075994
1197.000000	52.960577
1196.000000	52.814107
1195.000000	52.615598
1194.000000	52.372258
1193.000000	52.078046
1192.000000	51.727662
1191.000000	51.321318
1190.000000	50.912642
1189.000000	50.515413
1188.000000	50.155172
1187.000000	49.876752
1186.000000	49.721167
1185.000000	49.658000
1184.000000	49.700712
1183.000000	49.869863
1182.000000	50.155278
1181.000000	50.530781
1180.000000	50.962879
1179.000000	51.414160
1178.000000	51.871164
1177.000000	52.282066
1176.000000	52.626833
1175.000000	52.928676
1174.000000	53.227446
1173.000000	53.529289
1172.000000	53.821488
1171.000000	54.129690
1170.000000	54.427400
1169.000000	54.760615
1168.000000	55.088001
1167.000000	55.435311
1166.000000	55.784106
1165.000000	56.153991
1164.000000	56.509674
1163.000000	56.895245
1162.000000	57.296290
1161.000000	57.697229
1160.000000	58.088947
1159.000000	58.473988
1158.000000	58.867931
1157.000000	59.238347
1156.000000	59.588943
1155.000000	59.896615
1154.000000	60.187860
1153.000000	60.429928
1152.000000	60.642533
1151.000000	60.795680
1150.000000	60.938759
1149.000000	61.079082
1148.000000	61.206581
1147.000000	61.364286
1146.000000	61.559827
1145.000000	61.787164
1144.000000	62.096744
1143.000000	62.418088
1142.000000	62.813198
1141.000000	63.237241
1140.000000	63.668385
1139.000000	64.122634
1138.000000	64.565755
1137.000000	65.072572
1136.000000	65.571334
1135.000000	66.089915
1134.000000	66.604151
1133.000000	67.100688
1132.000000	67.497175
1131.000000	67.903413
1130.000000	68.275842
1129.000000	68.620397
1128.000000	68.913867
1127.000000	69.152968
1126.000000	69.343846
1125.000000	69.528046
1124.000000	69.655652
1123.000000	69.783045
1122.000000	69.896448
1121.000000	69.994271
1120.000000	70.047582
1119.000000	70.118167
1118.000000	70.179320
1117.000000	70.228497
1116.000000	70.249270
1115.000000	70.258172
1114.000000	70.272586
1113.000000	70.279475
1112.000000	70.273964
1111.000000	70.282231
1110.000000	70.276084
1109.000000	70.282655
1108.000000	70.281807
1107.000000	70.284986
1106.000000	70.258596
1105.000000	70.267923
1104.000000	70.255205
1103.000000	70.245878
1102.000000	70.239731
1101.000000	70.217792
1100.000000	70.200941
1099.000000	70.166920
1098.000000	70.156321
1097.000000	70.133641
1096.000000	70.115941
1095.000000	70.083934
1094.000000	70.022251
1093.000000	70.008367
1092.000000	69.946261
1091.000000	69.926441
1090.000000	69.867620
1089.000000	69.806149
1088.000000	69.775732
1087.000000	69.733232
1086.000000	69.674305
1085.000000	69.611456
1084.000000	69.568108
1083.000000	69.510983
1082.000000	69.468589
1081.000000	69.397792
1080.000000	69.343316
1079.000000	69.309401
1078.000000	69.259058
1077.000000	69.201615
1076.000000	69.129333
1075.000000	69.096372
1074.000000	69.067862
1073.000000	69.019958
1072.000000	68.974808
1071.000000	68.936654
1070.000000	68.882284
1069.000000	68.835651
1068.000000	68.806187
1067.000000	68.760296
1066.000000	68.727123
1065.000000	68.672647
1064.000000	68.635552
1063.000000	68.601531
1062.000000	68.568994
1061.000000	68.523633
1060.000000	68.476894
1059.000000	68.427611
1058.000000	68.411714
1057.000000	68.374937
1056.000000	68.320461
1055.000000	68.275948
1054.000000	68.226877
1053.000000	68.194658
1052.000000	68.163392
1051.000000	68.128841
1050.000000	68.073624
1049.000000	68.070868
1048.000000	68.038013
1047.000000	68.011199
1046.000000	68.017028
1045.000000	67.969653
1044.000000	67.932135
1043.000000	67.911574
1042.000000	67.885501
1041.000000	67.835795
1040.000000	67.812796
1039.000000	67.770826
1038.000000	67.745708
1037.000000	67.712323
1036.000000	67.658801
1035.000000	67.600086
1034.000000	67.573484
1033.000000	67.500354
1032.000000	67.443653
1031.000000	67.391508
1030.000000	67.335973
1029.000000	67.253941
1028.000000	67.165232
1027.000000	67.120083
1026.000000	67.042926
1025.000000	66.931960
1024.000000	66.848975
1023.000000	66.763869
1022.000000	66.660747
1021.000000	66.590479
1020.000000	66.483541
1019.000000	66.402675
1018.000000	66.303579
1017.000000	66.209041
1016.000000	66.113020
1015.000000	66.035015
1014.000000	65.975664
1013.000000	65.906032
1012.000000	65.837672
1011.000000	65.783514
1010.000000	65.728826
1009.000000	65.658453
1008.000000	65.615105
1007.000000	65.582462
1006.000000	65.537313
1005.000000	65.505623
1004.000000	65.460156
1003.000000	65.432494
1002.000000	65.409390
1001.000000	65.365724
1000.000000	65.325132
999.000000	65.303193
998.000000	65.284964
997.000000	65.249353
996.000000	65.230170
995.000000	65.219890
994.000000	65.215438
993.000000	65.212577
992.000000	65.194242
991.000000	65.188094
990.000000	65.192122
989.000000	65.214591
988.000000	65.243100
987.000000	65.258892
986.000000	65.281891
985.000000	65.318561
984.000000	65.360213
983.000000	65.398261
982.000000	65.440549
981.000000	65.503080
980.000000	65.559252
979.000000	65.598996
978.000000	65.666932
977.000000	65.739001
976.000000	65.800472
975.000000	65.874131
974.000000	65.939417
973.000000	66.012864
972.000000	66.085994
971.000000	66.156261
970.000000	66.236173
969.000000	66.319795
968.000000	66.383174
967.000000	66.449732
966.000000	66.525299
965.000000	66.606271
964.000000	66.685441
963.000000	66.749773
962.000000	66.829050
961.000000	66.902709
960.000000	66.975202
959.000000	67.043456
958.000000	67.087016
957.000000	67.156753
956.000000	67.225219
955.000000	67.271534
954.000000	67.332369
953.000000	67.371265
952.000000	67.406134
951.000000	67.464002
950.000000	67.497175
949.000000	67.504806
948.000000	67.530348
947.000000	67.533739
946.000000	67.524837
945.000000	67.530348
944.000000	67.532256
943.000000	67.532044
942.000000	67.513178
941.000000	67.488484
940.000000	67.487318
939.000000	67.477250
938.000000	67.457325
937.000000	67.445666
936.000000	67.445772
935.000000	67.466545
934.000000	67.464426
933.000000	67.446726
932.000000	67.468877
931.000000	67.496327
930.000000	67.528864
929.000000	67.550485
928.000000	67.578041
927.000000	67.602523
926.000000	67.645023
925.000000	67.685191
924.000000	67.717410
923.000000	67.777079
922.000000	67.831449
921.000000	67.891754
920.000000	67.967427
919.000000	68.058256
918.000000	68.134141
917.000000	68.195294
916.000000	68.258460
915.000000	68.331271
914.000000	68.414575
913.000000	68.522785
912.000000	68.593901
911.000000	68.665334
910.000000	68.727759
909.000000	68.809791
908.000000	68.905071
907.000000	69.001940
906.000000	69.120855
905.000000	69.240299
904.000000	69.350947
903.000000	69.476962
902.000000	69.605309
901.000000	69.736200
900.000000	69.868892
899.000000	69.999359
898.000000	70.133005
897.000000	70.267605
896.000000	70.376027
895.000000	70.470247
894.000000	70.598806
893.000000	70.710408
892.000000	70.788412
891.000000	70.862177
890.000000	70.927993
889.000000	70.982787
888.000000	71.069270
887.000000	71.137418
886.000000	71.172711
885.000000	71.226763
884.000000	71.267991
883.000000	71.326070
882.000000	71.368146
881.000000	71.405771
880.000000	71.439368
879.000000	71.469679
878.000000	71.477734
877.000000	71.429511
876.000000	71.389873
875.000000	71.359667
874.000000	71.268415
873.000000	71.198465
872.000000	71.222524
871.000000	71.327342
870.000000	71.450814
869.000000	71.601524
868.000000	71.749478
867.000000	71.867544
866.000000	72.006808
865.000000	72.095941
864.000000	72.241033
863.000000	72.363763
862.000000	72.491368
861.000000	72.604877
860.000000	72.743823
859.000000	72.872594
858.000000	72.964800
857.000000	71.969300
856.000000	73.071200
855.000000	73.853900
854.000000	73.605500
853.000000	73.353600
852.000000	73.287600
851.000000	73.371800
850.000000	73.685900
849.000000	73.627000
848.000000	73.471800
847.000000	73.221600
846.000000	73.452300
845.000000	73.065600
844.000000	73.384300
843.000000	73.736300
842.000000	73.362000
841.000000	73.338300
840.000000	73.272600
839.000000	73.149900
838.000000	73.555600
837.000000	73.262600
836.000000	73.540200
835.000000	73.316300
834.000000	73.366000
833.000000	73.444000
832.000000	73.357800
831.000000	73.471200
830.000000	73.456900
829.000000	73.252700
828.000000	73.119800
827.000000	73.088900
826.000000	72.850900
825.000000	72.848500
824.000000	72.785400
823.000000	72.728600
822.000000	72.608600
821.000000	72.468800
820.000000	72.448200
819.000000	72.295600
818.000000	71.976700
817.000000	72.102300
816.000000	71.966400
815.000000	71.923600
814.000000	71.823000
813.000000	71.641100
812.000000	71.572800
811.000000	71.335900
810.000000	71.217700
809.000000	71.235800
808.000000	71.061500
807.000000	70.867600
806.000000	70.677800
805.000000	70.581000
804.000000	70.319300
803.000000	70.094300
802.000000	70.034200
801.000000	69.842100
800.000000	69.491400
799.000000	69.464500
798.000000	69.428000
797.000000	69.115000
796.000000	69.071200
795.000000	68.915200
794.000000	68.485500
793.000000	68.483000
792.000000	68.389900
791.000000	68.028000
790.000000	67.885600
789.000000	67.687500
788.000000	67.475000
787.000000	67.338700
786.000000	67.211400
785.000000	66.943500
784.000000	66.893700
783.000000	66.561000
782.000000	66.478300
781.000000	66.231900
780.000000	66.037500
779.000000	65.827400
778.000000	65.773200
777.000000	65.708900
776.000000	65.521100
775.000000	65.380500
774.000000	65.364000
773.000000	65.154200
772.000000	64.881200
771.000000	64.763600
770.000000	64.625400
769.000000	64.335400
768.000000	64.174000
767.000000	64.000100
766.000000	63.854400
765.000000	63.737400
764.000000	63.465000
763.000000	63.354800
762.000000	63.131000
761.000000	62.999800
760.000000	62.729100
759.000000	62.424200
758.000000	62.288500
757.000000	62.151400
756.000000	61.999600
755.000000	61.667300
754.000000	61.591700
753.000000	61.459100
752.000000	61.343500
751.000000	61.203900
750.000000	61.023200
749.000000	60.878500
748.000000	60.844500
747.000000	60.774500
746.000000	60.675900
745.000000	60.563000
744.000000	60.496300
743.000000	60.453300
742.000000	60.301600
741.000000	60.153000
740.000000	60.042000
739.000000	60.006700
738.000000	59.797100
737.000000	59.676700
736.000000	59.620600
735.000000	59.412600
734.000000	59.413600
733.000000	59.278900
732.000000	59.112600
731.000000	59.053900
730.000000	58.996100
729.000000	58.873200
728.000000	58.768100
727.000000	58.668700
726.000000	58.572100
725.000000	58.448100
724.000000	58.384500
723.000000	58.251200
722.000000	58.297800
721.000000	58.106600
720.000000	57.937300
719.000000	57.806700
718.000000	57.726900
717.000000	57.534400
716.000000	57.374900
715.000000	57.193200
714.000000	57.021500
713.000000	56.864500
712.000000	56.673800
711.000000	56.484300
710.000000	56.337100
709.000000	56.206400
708.000000	56.071900
707.000000	56.014900
706.000000	55.912200
705.000000	55.779500
704.000000	55.698500
703.000000	55.621600
702.000000	55.509300
701.000000	55.445900
700.000000	55.365800
699.000000	55.250700
698.000000	55.181500
697.000000	55.027900
696.000000	54.887800
695.000000	54.750800
694.000000	54.615100
693.000000	54.542500
692.000000	54.483600
691.000000	54.457700
690.000000	54.422300
689.000000	54.444600
688.000000	54.501200
687.000000	54.545100
686.000000	54.640600
685.000000	54.728900
684.000000	54.842700
683.000000	54.897100
682.000000	54.958000
681.000000	55.012100
680.000000	55.110700
679.000000	55.179300
678.000000	55.197700
677.000000	55.212400
676.000000	55.195800
675.000000	55.147100
674.000000	55.128100
673.000000	55.129500
672.000000	55.078200
671.000000	55.039100
670.000000	55.028700
669.000000	54.987900
668.000000	54.950800
667.000000	54.932000
666.000000	54.898200
665.000000	54.876900
664.000000	54.844800
663.000000	54.803300
662.000000	54.762700
661.000000	54.699300
660.000000	54.555700
659.000000	54.369000
658.000000	54.129700
657.000000	53.850400
656.000000	53.524400
655.000000	53.162900
654.000000	52.823900
653.000000	52.442800
652.000000	52.038500
651.000000	51.672200
650.000000	51.384800
649.000000	51.096400
648.000000	50.834400
647.000000	50.619400
646.000000	50.410300
645.000000	50.277700
644.000000	50.152500
643.000000	50.050100
642.000000	50.012600
641.000000	49.974000
640.000000	49.956100
639.000000	49.984500
638.000000	50.001400
637.000000	50.023600
636.000000	50.136700
635.000000	50.276500
634.000000	50.448400
633.000000	50.666400
632.000000	50.957300
631.000000	51.307700
630.000000	51.731600
629.000000	52.228600
628.000000	52.748700
627.000000	53.348300
626.000000	54.016000
625.000000	54.705400
624.000000	55.400800
623.000000	56.112700
622.000000	56.821500
621.000000	57.487100
620.000000	58.125600
619.000000	58.750800
618.000000	59.316000
617.000000	59.849900
616.000000	60.390100
615.000000	60.916400
614.000000	61.409500
613.000000	61.876600
612.000000	62.351100
611.000000	62.823300
610.000000	63.280500
609.000000	63.715400
608.000000	64.135000
607.000000	64.537800
606.000000	64.963400
605.000000	65.408200
604.000000	65.795000
603.000000	66.220300
602.000000	66.636000
601.000000	66.974900
600.000000	67.279000
599.000000	67.545500
598.000000	67.842400
597.000000	68.111000
596.000000	68.366900
595.000000	68.641500
594.000000	68.890500
593.000000	69.162100
592.000000	69.439200
591.000000	69.668700
590.000000	69.905000
589.000000	70.149400
588.000000	70.334600
587.000000	70.517800
586.000000	70.713900
585.000000	70.892800
584.000000	71.044200
583.000000	71.156600
582.000000	71.247300
581.000000	71.329700
580.000000	71.347300
579.000000	71.380200
578.000000	71.361600
577.000000	71.328100
576.000000	71.224600
575.000000	71.135900
574.000000	71.016000
573.000000	70.958500
572.000000	70.849300
571.000000	70.733900
570.000000	70.640500
569.000000	70.516900
568.000000	70.434300
567.000000	70.350600
566.000000	70.264900
565.000000	70.171000
564.000000	70.101600
563.000000	69.996600
562.000000	69.845900
561.000000	69.686400
560.000000	69.477300
559.000000	69.220800
558.000000	68.986100
557.000000	68.635900
556.000000	68.272500
555.000000	67.802500
554.000000	67.331400
553.000000	66.776100
552.000000	66.151700
551.000000	65.607700
550.000000	65.044300
549.000000	64.380100
548.000000	63.737800
547.000000	63.054200
546.000000	62.362600
545.000000	61.598200
544.000000	60.763300
543.000000	59.853900
542.000000	58.881900
541.000000	57.912600
540.000000	56.875000
539.000000	55.803300
538.000000	54.759800
537.000000	53.678700
536.000000	52.630800
535.000000	51.559700
534.000000	50.498600
533.000000	49.450600
532.000000	48.397800
531.000000	47.379000
530.000000	46.397700
529.000000	45.413500
528.000000	44.478700
527.000000	43.585100
526.000000	42.744200
525.000000	41.923400
524.000000	41.107500
523.000000	40.319200
522.000000	39.530800
521.000000	38.745500
520.000000	37.973500
519.000000	37.213900
518.000000	36.495400
517.000000	35.790200
516.000000	35.027600
515.000000	34.300700
514.000000	33.512500
513.000000	32.710600
512.000000	31.908600
511.000000	31.094100
510.000000	30.325300
509.000000	29.534800
508.000000	28.749800
507.000000	27.944400
506.000000	27.196000
505.000000	26.411700
504.000000	25.742400
503.000000	25.122600
502.000000	24.561500
501.000000	24.052500
500.000000	23.684600
499.000000	23.336300
498.000000	23.106400
497.000000	22.890400
496.000000	22.776000
495.000000	22.744900
494.000000	22.741300
493.000000	22.805600
492.000000	22.853800
491.000000	22.928000
490.000000	22.977900
489.000000	23.035300
488.000000	23.125900
487.000000	23.171800
486.000000	23.219900
485.000000	23.214000
484.000000	23.201000
483.000000	23.177200
482.000000	23.108100
481.000000	23.007000
480.000000	22.919800
479.000000	22.843800
478.000000	22.721000
477.000000	22.551700
476.000000	22.422600
475.000000	22.271600
474.000000	22.140500
473.000000	21.953500
472.000000	21.795700
471.000000	21.651000
470.000000	21.431700
469.000000	21.267900
468.000000	21.104100
467.000000	20.916400
466.000000	20.745900
465.000000	20.564600
464.000000	20.388700
463.000000	20.229200
462.000000	20.029500
461.000000	19.849000
460.000000	19.664200
459.000000	19.491400
458.000000	19.284300
457.000000	19.070300
456.000000	18.848000
455.000000	18.645400
454.000000	18.415500
453.000000	18.157200
452.000000	17.894700
451.000000	17.642900
450.000000	17.374400
449.000000	17.084600
448.000000	16.836700
447.000000	16.510700
446.000000	16.240400
445.000000	15.918000
444.000000	15.592100
443.000000	15.284400
442.000000	14.945900
441.000000	14.577900
440.000000	14.231900
439.000000	13.891800
438.000000	13.546000
437.000000	13.189100
436.000000	12.835100
435.000000	12.482000
434.000000	12.130000
433.000000	11.747300
432.000000	11.384000
431.000000	11.042600
430.000000	10.718700
429.000000	10.389600
428.000000	10.077100
427.000000	9.782500
426.000000	9.501300
425.000000	9.227100
424.000000	8.957700
423.000000	8.701700
422.000000	8.462000
421.000000	8.222800
420.000000	8.004700
419.000000	7.796400
418.000000	7.590400
417.000000	7.439000
416.000000	7.286400
415.000000	7.126800
414.000000	6.990800
413.000000	6.875700
412.000000	6.783100
411.000000	6.683100
410.000000	6.595300
409.000000	6.509800
408.000000	6.446400
407.000000	6.383500
406.000000	6.350200
405.000000	6.283200
404.000000	6.237300
403.000000	6.190300
402.000000	6.149300
401.000000	6.099900
400.000000	6.071400
399.000000	6.079600
398.000000	6.054700
397.000000	6.033400
396.000000	5.983200
395.000000	5.956600
394.000000	5.948800
393.000000	5.937900
392.000000	5.915400
391.000000	5.906600
390.000000	5.895200
389.000000	5.876100
388.000000	5.853400
387.000000	5.848200
386.000000	5.830300
385.000000	5.819900
384.000000	5.801000
383.000000	5.786100
382.000000	5.776300
381.000000	5.750100
380.000000	5.724700
379.000000	5.737100
378.000000	5.746600
377.000000	5.732400
376.000000	5.743300
375.000000	5.565700
374.000000	5.259900
373.000000	5.409200
372.000000	5.615400
371.000000	5.878600
370.000000	5.808300
369.000000	5.634300
368.000000	5.623200
367.000000	5.704100
366.000000	5.684100
365.000000	5.677100
364.000000	5.697000
363.000000	5.648000
362.000000	5.624000
361.000000	5.406500
360.000000	5.400900
359.000000	5.650500
358.000000	5.699100
357.000000	5.607400
356.000000	5.654800
355.000000	5.653900
354.000000	5.520700
353.000000	5.574700
352.000000	5.694900
351.000000	5.664900
350.000000	5.752400
349.000000	5.670300
348.000000	5.557300
347.000000	5.588400
346.000000	5.415000
345.000000	5.414000
344.000000	5.506200
343.000000	5.524100
342.000000	5.528300
341.000000	5.716900
340.000000	5.786600
339.000000	5.623400
338.000000	5.649100
337.000000	5.820200
336.000000	5.840400
335.000000	5.768400
334.000000	5.712400
333.000000	5.884600
332.000000	5.998000
331.000000	5.822600
330.000000	5.859700
329.000000	6.036700
328.000000	5.917900
327.000000	5.854000
326.000000	6.209500
325.000000	6.071800
324.000000	5.728700
323.000000	5.892300
322.000000	6.147000
321.000000	6.162500
320.000000	6.210900
319.000000	6.306000
318.000000	6.635900
317.000000	6.981200
316.000000	6.195700
315.000000	5.535600
314.000000	5.533700
313.000000	5.481500
312.000000	5.476200
311.000000	5.474700
310.000000	5.451100
309.000000	5.467200
308.000000	5.496800
307.000000	5.491000
306.000000	5.489600
305.000000	5.491800
304.000000	5.516600
303.000000	5.513100
302.000000	5.475800
301.000000	5.499500
300.000000	5.544300
299.000000	5.522700
298.000000	5.506100
297.000000	5.532600
296.000000	5.539900
295.000000	5.541900
294.000000	5.553800
293.000000	5.502500
292.000000	5.514900
291.000000	5.513500
290.000000	5.535100
289.000000	5.593100
288.000000	5.603600
287.000000	5.561200
286.000000	5.613300
285.000000	5.628300
284.000000	5.600200
283.000000	5.594900
282.000000	5.591900
281.000000	5.602200
280.000000	5.671900
279.000000	5.653400
278.000000	5.663700
277.000000	5.665400
276.000000	5.672800
275.000000	5.719800
274.000000	5.736800
273.000000	5.706100
272.000000	5.713900
271.000000	5.757200
270.000000	5.771100
269.000000	5.820500
268.000000	5.814100
267.000000	5.784100
266.000000	5.837900
265.000000	5.860800
264.000000	5.891600
263.000000	5.912800
262.000000	5.964600
261.000000	6.002500
260.000000	6.006300
259.000000	6.000300
258.000000	5.977900
257.000000	6.022800
256.000000	6.094900
255.000000	6.121300
254.000000	6.090400
253.000000	6.114000
252.000000	6.095500
251.000000	6.134300
250.000000	6.138200
