PE UV       SUBTECH     SPECTRUM    ASCII       PEDS        4.00        
   -1
CICIMAUCR0235-3.ASC
24/06/17
14:43:29.00
24/06/17
14:43:29.00
Vinicio Soto Monge
C. resplendens. Sex M. Dorsal. 
250,000000
1
Lambda 1050
1050L1511233
PerkinElmer UV WinLab 6.3.2.0749 / 2.02.05 Lambda 900 UV/VIS/NIR, Aug  7 2015 09:38:08

0
0
3350/servo 860,8/2
0
0
UV/VIS
1
1
1
DoubleDePol,CommonBeamDepol,RBeamAtt,SBeamAtt,60mm sphere, WB InGaAs Detector
0
0
0
0
Program
Program
3350/servo 860,8/2
3350/0,2 860,8/0,2
3350/0,2 860,8/0,2
0
15.00
 
 
 
0
 
860,8
319,2
860,8
Front
100
on
S:100 R:100
0
0
0
0
 
0
 
 
 
0
 
 
0
0
0
0
0
 
 
 
 
0
0


0
0
#HDR
-1
-1
#GR
nm
%R
1.0
0.0
2500,000000
-1,000000
2251
8
87,133000
5,483900
#DATA
2482.000000	8.635034
2481.000000	8.617385
2480.000000	8.649575
2479.000000	8.556114
2478.000000	8.631123
2477.000000	8.607156
2476.000000	8.609764
2475.000000	8.621797
2474.000000	8.643859
2473.000000	8.640951
2472.000000	8.629920
2471.000000	8.653185
2470.000000	8.671135
2469.000000	8.661007
2468.000000	8.685175
2467.000000	8.729498
2466.000000	8.702423
2465.000000	8.721977
2464.000000	8.764095
2463.000000	8.777934
2462.000000	8.789667
2461.000000	8.835695
2460.000000	8.867885
2459.000000	8.955530
2458.000000	8.956734
2457.000000	8.987319
2456.000000	9.033749
2455.000000	9.074162
2454.000000	9.141851
2453.000000	9.196303
2452.000000	9.240627
2451.000000	9.286856
2450.000000	9.340105
2449.000000	9.391248
2448.000000	9.460943
2447.000000	9.518203
2446.000000	9.571552
2445.000000	9.636233
2444.000000	9.689381
2443.000000	9.741326
2442.000000	9.815133
2441.000000	9.880315
2440.000000	9.934165
2439.000000	10.001353
2438.000000	10.077466
2437.000000	10.118380
2436.000000	10.160699
2435.000000	10.230092
2434.000000	10.300188
2433.000000	10.358752
2432.000000	10.398964
2431.000000	10.449807
2430.000000	10.479490
2429.000000	10.538053
2428.000000	10.609152
2427.000000	10.652774
2426.000000	10.687270
2425.000000	10.737110
2424.000000	10.789456
2423.000000	10.819540
2422.000000	10.870382
2421.000000	10.910294
2420.000000	10.963242
2419.000000	10.992022
2418.000000	11.021906
2417.000000	11.070541
2416.000000	11.113562
2415.000000	11.152370
2414.000000	11.177541
2413.000000	11.207224
2412.000000	11.235603
2411.000000	11.272305
2410.000000	11.321944
2409.000000	11.351326
2408.000000	11.373889
2407.000000	11.406280
2406.000000	11.431851
2405.000000	11.452008
2404.000000	11.479886
2403.000000	11.530928
2402.000000	11.551987
2401.000000	11.573247
2400.000000	11.602829
2399.000000	11.622083
2398.000000	11.647554
2397.000000	11.691377
2396.000000	11.723166
2395.000000	11.739912
2394.000000	11.753049
2393.000000	11.782130
2392.000000	11.796872
2391.000000	11.820036
2390.000000	11.851925
2389.000000	11.883113
2388.000000	11.896650
2387.000000	11.908082
2386.000000	11.925130
2385.000000	11.934256
2384.000000	11.937464
2383.000000	11.938166
2382.000000	11.957019
2381.000000	11.963337
2380.000000	11.971760
2379.000000	11.991816
2378.000000	11.994524
2377.000000	11.974769
2376.000000	11.966546
2375.000000	11.981889
2374.000000	11.974368
2373.000000	11.957621
2372.000000	11.959626
2371.000000	11.949899
2370.000000	11.939771
2369.000000	11.934155
2368.000000	11.915202
2367.000000	11.899458
2366.000000	11.882511
2365.000000	11.855937
2364.000000	11.836081
2363.000000	11.818532
2362.000000	11.784236
2361.000000	11.735801
2360.000000	11.715544
2359.000000	11.702909
2358.000000	11.668312
2357.000000	11.636122
2356.000000	11.609247
2355.000000	11.588088
2354.000000	11.562015
2353.000000	11.531229
2352.000000	11.516388
2351.000000	11.523708
2350.000000	11.519496
2349.000000	11.514382
2348.000000	11.521000
2347.000000	11.539853
2346.000000	11.561815
2345.000000	11.599319
2344.000000	11.634417
2343.000000	11.659989
2342.000000	11.687867
2341.000000	11.718152
2340.000000	11.749840
2339.000000	11.775412
2338.000000	11.816025
2337.000000	11.830766
2336.000000	11.848416
2335.000000	11.871881
2334.000000	11.869675
2333.000000	11.861051
2332.000000	11.863157
2331.000000	11.858043
2330.000000	11.843101
2329.000000	11.817128
2328.000000	11.798777
2327.000000	11.779322
2326.000000	11.747333
2325.000000	11.702207
2324.000000	11.659788
2323.000000	11.611152
2322.000000	11.556099
2321.000000	11.492120
2320.000000	11.429545
2319.000000	11.364563
2318.000000	11.275815
2317.000000	11.177741
2316.000000	11.099823
2315.000000	11.009671
2314.000000	10.901669
2313.000000	10.825456
2312.000000	10.744229
2311.000000	10.660596
2310.000000	10.587191
2309.000000	10.522109
2308.000000	10.469060
2307.000000	10.416915
2306.000000	10.367075
2305.000000	10.348223
2304.000000	10.330874
2303.000000	10.343108
2302.000000	10.365270
2301.000000	10.417316
2300.000000	10.440681
2299.000000	10.504660
2298.000000	10.570043
2297.000000	10.623492
2296.000000	10.709432
2295.000000	10.771706
2294.000000	10.847318
2293.000000	10.902773
2292.000000	10.969258
2291.000000	11.006462
2290.000000	11.050586
2289.000000	11.116069
2288.000000	11.138231
2287.000000	11.166610
2286.000000	11.187970
2285.000000	11.175034
2284.000000	11.178443
2283.000000	11.181752
2282.000000	11.152270
2281.000000	11.136726
2280.000000	11.107946
2279.000000	11.084380
2278.000000	11.035544
2277.000000	10.996835
2276.000000	10.972868
2275.000000	10.936667
2274.000000	10.906082
2273.000000	10.893547
2272.000000	10.859853
2271.000000	10.849423
2270.000000	10.852231
2269.000000	10.862861
2268.000000	10.882917
2267.000000	10.930851
2266.000000	10.985404
2265.000000	11.057004
2264.000000	11.158387
2263.000000	11.261074
2262.000000	11.390736
2261.000000	11.510271
2260.000000	11.671020
2259.000000	11.865162
2258.000000	12.033834
2257.000000	12.194483
2256.000000	12.377494
2255.000000	12.579860
2254.000000	12.775005
2253.000000	12.985895
2252.000000	13.187358
2251.000000	13.369768
2250.000000	13.564412
2249.000000	13.720849
2248.000000	13.887013
2247.000000	14.051272
2246.000000	14.189860
2245.000000	14.324035
2244.000000	14.438856
2243.000000	14.568919
2242.000000	14.663383
2241.000000	14.754337
2240.000000	14.832155
2239.000000	14.929627
2238.000000	14.987589
2237.000000	15.075635
2236.000000	15.120762
2235.000000	15.183236
2234.000000	15.228663
2233.000000	15.261655
2232.000000	15.303974
2231.000000	15.332854
2230.000000	15.331751
2229.000000	15.357724
2228.000000	15.362337
2227.000000	15.373368
2226.000000	15.394727
2225.000000	15.346693
2224.000000	15.377078
2223.000000	15.344487
2222.000000	15.329044
2221.000000	15.287026
2220.000000	15.267772
2219.000000	15.236686
2218.000000	15.204395
2217.000000	15.143926
2216.000000	15.133898
2215.000000	15.107525
2214.000000	15.081753
2213.000000	15.017974
2212.000000	14.984982
2211.000000	14.963422
2210.000000	14.948781
2209.000000	14.913181
2208.000000	14.871966
2207.000000	14.848300
2206.000000	14.834762
2205.000000	14.798260
2204.000000	14.803575
2203.000000	14.781814
2202.000000	14.748321
2201.000000	14.737390
2200.000000	14.719640
2199.000000	14.701189
2198.000000	14.660475
2197.000000	14.655762
2196.000000	14.626580
2195.000000	14.608630
2194.000000	14.601911
2193.000000	14.584764
2192.000000	14.579048
2191.000000	14.567114
2190.000000	14.560696
2189.000000	14.527804
2188.000000	14.500628
2187.000000	14.511659
2186.000000	14.490600
2185.000000	14.475759
2184.000000	14.456906
2183.000000	14.420404
2182.000000	14.414889
2181.000000	14.381997
2180.000000	14.374476
2179.000000	14.356526
2178.000000	14.353818
2177.000000	14.330553
2176.000000	14.320224
2175.000000	14.325138
2174.000000	14.314408
2173.000000	14.315611
2172.000000	14.300770
2171.000000	14.320124
2170.000000	14.345896
2169.000000	14.338776
2168.000000	14.350409
2167.000000	14.359835
2166.000000	14.369161
2165.000000	14.392526
2164.000000	14.417697
2163.000000	14.422410
2162.000000	14.463725
2161.000000	14.476661
2160.000000	14.512261
2159.000000	14.541844
2158.000000	14.577443
2157.000000	14.611438
2156.000000	14.649545
2155.000000	14.679729
2154.000000	14.725056
2153.000000	14.758950
2152.000000	14.812801
2151.000000	14.867754
2150.000000	14.908569
2149.000000	14.949683
2148.000000	14.998520
2147.000000	15.039234
2146.000000	15.077541
2145.000000	15.120060
2144.000000	15.169197
2143.000000	15.198880
2142.000000	15.226658
2141.000000	15.261856
2140.000000	15.311796
2139.000000	15.345791
2138.000000	15.375273
2137.000000	15.412076
2136.000000	15.429625
2135.000000	15.451185
2134.000000	15.481971
2133.000000	15.502328
2132.000000	15.517671
2131.000000	15.532412
2130.000000	15.549460
2129.000000	15.558385
2128.000000	15.567310
2127.000000	15.555878
2126.000000	15.571822
2125.000000	15.590976
2124.000000	15.591878
2123.000000	15.579845
2122.000000	15.576937
2121.000000	15.564602
2120.000000	15.556881
2119.000000	15.547855
2118.000000	15.534017
2117.000000	15.508746
2116.000000	15.487888
2115.000000	15.480467
2114.000000	15.453391
2113.000000	15.421201
2112.000000	15.403351
2111.000000	15.390917
2110.000000	15.370259
2109.000000	15.343183
2108.000000	15.311595
2107.000000	15.270580
2106.000000	15.240897
2105.000000	15.230669
2104.000000	15.205198
2103.000000	15.156261
2102.000000	15.123870
2101.000000	15.109530
2100.000000	15.082555
2099.000000	15.044849
2098.000000	15.021584
2097.000000	15.000225
2096.000000	14.968737
2095.000000	14.952190
2094.000000	14.926118
2093.000000	14.901248
2092.000000	14.886808
2091.000000	14.869158
2090.000000	14.854016
2089.000000	14.840980
2088.000000	14.818517
2087.000000	14.799263
2086.000000	14.773190
2085.000000	14.739596
2084.000000	14.709913
2083.000000	14.688453
2082.000000	14.654458
2081.000000	14.611739
2080.000000	14.583360
2079.000000	14.554679
2078.000000	14.517074
2077.000000	14.468739
2076.000000	14.424215
2075.000000	14.375077
2074.000000	14.330453
2073.000000	14.287834
2072.000000	14.225760
2071.000000	14.168901
2070.000000	14.121569
2069.000000	14.059094
2068.000000	13.992909
2067.000000	13.939560
2066.000000	13.882300
2065.000000	13.831057
2064.000000	13.763267
2063.000000	13.683946
2062.000000	13.631599
2061.000000	13.565415
2060.000000	13.507152
2059.000000	13.462126
2058.000000	13.409078
2057.000000	13.357935
2056.000000	13.303382
2055.000000	13.274702
2054.000000	13.269287
2053.000000	13.240506
2052.000000	13.234490
2051.000000	13.237398
2050.000000	13.245721
2049.000000	13.258757
2048.000000	13.288340
2047.000000	13.324040
2046.000000	13.355628
2045.000000	13.407974
2044.000000	13.477168
2043.000000	13.533024
2042.000000	13.588680
2041.000000	13.652859
2040.000000	13.721049
2039.000000	13.783424
2038.000000	13.834266
2037.000000	13.904763
2036.000000	13.964430
2035.000000	14.008453
2034.000000	14.063106
2033.000000	14.096098
2032.000000	14.127987
2031.000000	14.151753
2030.000000	14.206406
2029.000000	14.242607
2028.000000	14.254942
2027.000000	14.269181
2026.000000	14.285527
2025.000000	14.307288
2024.000000	14.310397
2023.000000	14.313505
2022.000000	14.317216
2021.000000	14.334063
2020.000000	14.330754
2019.000000	14.314909
2018.000000	14.320625
2017.000000	14.308090
2016.000000	14.291043
2015.000000	14.265672
2014.000000	14.257449
2013.000000	14.239900
2012.000000	14.224055
2011.000000	14.190060
2010.000000	14.175319
2009.000000	14.145636
2008.000000	14.105925
2007.000000	14.084064
2006.000000	14.044353
2005.000000	14.007049
2004.000000	13.948485
2003.000000	13.934646
2002.000000	13.889520
2001.000000	13.842188
2000.000000	13.794154
1999.000000	13.745618
1998.000000	13.681339
1997.000000	13.606128
1996.000000	13.548166
1995.000000	13.495118
1994.000000	13.431641
1993.000000	13.373679
1992.000000	13.311806
1991.000000	13.245420
1990.000000	13.156572
1989.000000	13.090688
1988.000000	13.033929
1987.000000	12.953203
1986.000000	12.867063
1985.000000	12.780621
1984.000000	12.714637
1983.000000	12.647950
1982.000000	12.545564
1981.000000	12.475268
1980.000000	12.417807
1979.000000	12.317025
1978.000000	12.249838
1977.000000	12.175630
1976.000000	12.073144
1975.000000	12.007260
1974.000000	11.933152
1973.000000	11.862555
1972.000000	11.798677
1971.000000	11.712837
1970.000000	11.642941
1969.000000	11.553993
1968.000000	11.508165
1967.000000	11.415907
1966.000000	11.352028
1965.000000	11.297075
1964.000000	11.228282
1963.000000	11.144949
1962.000000	11.087088
1961.000000	11.014184
1960.000000	10.955019
1959.000000	10.885825
1958.000000	10.824955
1957.000000	10.775216
1956.000000	10.707126
1955.000000	10.645153
1954.000000	10.597018
1953.000000	10.550789
1952.000000	10.479690
1951.000000	10.420023
1950.000000	10.370084
1949.000000	10.337794
1948.000000	10.286651
1947.000000	10.242628
1946.000000	10.199407
1945.000000	10.166615
1944.000000	10.123595
1943.000000	10.088196
1942.000000	10.081477
1941.000000	10.051293
1940.000000	10.027827
1939.000000	9.992529
1938.000000	9.992027
1937.000000	10.018301
1936.000000	9.994634
1935.000000	10.000651
1934.000000	9.987314
1933.000000	10.024819
1932.000000	10.059817
1931.000000	10.063527
1930.000000	10.120486
1929.000000	10.152275
1928.000000	10.207329
1927.000000	10.257970
1926.000000	10.322350
1925.000000	10.372992
1924.000000	10.457328
1923.000000	10.532337
1922.000000	10.623191
1921.000000	10.711037
1920.000000	10.809612
1919.000000	10.957526
1918.000000	11.065628
1917.000000	11.177942
1916.000000	11.316328
1915.000000	11.427940
1914.000000	11.586684
1913.000000	11.735099
1912.000000	11.930244
1911.000000	12.089189
1910.000000	12.263576
1909.000000	12.451802
1908.000000	12.602523
1907.000000	12.806995
1906.000000	13.015377
1905.000000	13.309800
1904.000000	13.565013
1903.000000	13.827347
1902.000000	14.067117
1901.000000	14.343088
1900.000000	14.617956
1899.000000	14.969940
1898.000000	15.310291
1897.000000	15.636002
1896.000000	15.960509
1895.000000	16.292035
1894.000000	16.598793
1893.000000	16.966922
1892.000000	17.386895
1891.000000	17.844875
1890.000000	18.314187
1889.000000	18.751008
1888.000000	19.190536
1887.000000	19.676495
1886.000000	20.157339
1885.000000	20.660445
1884.000000	21.180699
1883.000000	21.746280
1882.000000	22.287492
1881.000000	22.795713
1880.000000	23.293203
1879.000000	23.750682
1878.000000	24.221197
1877.000000	24.703144
1876.000000	25.162127
1875.000000	25.592128
1874.000000	26.019222
1873.000000	26.448422
1872.000000	26.852852
1871.000000	27.220680
1870.000000	27.586302
1869.000000	27.916926
1868.000000	28.216162
1867.000000	28.493137
1866.000000	28.726689
1865.000000	28.894759
1864.000000	29.068043
1863.000000	29.234308
1862.000000	29.385430
1861.000000	29.556208
1860.000000	29.743732
1859.000000	29.894854
1858.000000	30.042266
1857.000000	30.152875
1856.000000	30.251952
1855.000000	30.320945
1854.000000	30.410395
1853.000000	30.468257
1852.000000	30.506163
1851.000000	30.538854
1850.000000	30.581574
1849.000000	30.611357
1848.000000	30.650266
1847.000000	30.690378
1846.000000	30.711437
1845.000000	30.689375
1844.000000	30.668517
1843.000000	30.639636
1842.000000	30.664806
1841.000000	30.716350
1840.000000	30.713743
1839.000000	30.689575
1838.000000	30.672127
1837.000000	30.646956
1836.000000	30.634120
1835.000000	30.623992
1834.000000	30.579067
1833.000000	30.526018
1832.000000	30.476781
1831.000000	30.448201
1830.000000	30.412301
1829.000000	30.384322
1828.000000	30.354138
1827.000000	30.285346
1826.000000	30.231495
1825.000000	30.203116
1824.000000	30.153277
1823.000000	30.117176
1822.000000	30.104841
1821.000000	30.101733
1820.000000	30.091303
1819.000000	30.071147
1818.000000	30.022611
1817.000000	29.972471
1816.000000	29.952917
1815.000000	29.939479
1814.000000	29.927345
1813.000000	29.919323
1812.000000	29.901473
1811.000000	29.880614
1810.000000	29.845316
1809.000000	29.803098
1808.000000	29.779231
1807.000000	29.740022
1806.000000	29.709637
1805.000000	29.673435
1804.000000	29.624499
1803.000000	29.583484
1802.000000	29.547885
1801.000000	29.515494
1800.000000	29.459738
1799.000000	29.392651
1798.000000	29.347224
1797.000000	29.312226
1796.000000	29.275323
1795.000000	29.243634
1794.000000	29.207433
1793.000000	29.165616
1792.000000	29.115977
1791.000000	29.074662
1790.000000	29.037157
1789.000000	29.001257
1788.000000	28.962348
1787.000000	28.919027
1786.000000	28.876007
1785.000000	28.838101
1784.000000	28.812429
1783.000000	28.751759
1782.000000	28.686276
1781.000000	28.639746
1780.000000	28.584592
1779.000000	28.540870
1778.000000	28.480802
1777.000000	28.418428
1776.000000	28.357157
1775.000000	28.289467
1774.000000	28.219873
1773.000000	28.137743
1772.000000	28.051201
1771.000000	27.973785
1770.000000	27.896168
1769.000000	27.812935
1768.000000	27.722583
1767.000000	27.625612
1766.000000	27.537967
1765.000000	27.458545
1764.000000	27.398176
1763.000000	27.375413
1762.000000	27.357462
1761.000000	27.361273
1760.000000	27.395769
1759.000000	27.418433
1758.000000	27.470779
1757.000000	27.537165
1756.000000	27.594826
1755.000000	27.649378
1754.000000	27.715864
1753.000000	27.765603
1752.000000	27.803910
1751.000000	27.839610
1750.000000	27.858162
1749.000000	27.861672
1748.000000	27.860869
1747.000000	27.846128
1746.000000	27.827877
1745.000000	27.773224
1744.000000	27.707441
1743.000000	27.634336
1742.000000	27.546190
1741.000000	27.433876
1740.000000	27.280046
1739.000000	27.143464
1738.000000	26.993345
1737.000000	26.821865
1736.000000	26.663122
1735.000000	26.536167
1734.000000	26.417335
1733.000000	26.310336
1732.000000	26.234323
1731.000000	26.207047
1730.000000	26.221889
1729.000000	26.249666
1728.000000	26.315851
1727.000000	26.378927
1726.000000	26.438394
1725.000000	26.539276
1724.000000	26.613082
1723.000000	26.676559
1722.000000	26.757486
1721.000000	26.840518
1720.000000	26.917633
1719.000000	26.995150
1718.000000	27.087608
1717.000000	27.184479
1716.000000	27.301305
1715.000000	27.417029
1714.000000	27.521220
1713.000000	27.638347
1712.000000	27.758082
1711.000000	27.843020
1710.000000	27.924146
1709.000000	27.999557
1708.000000	28.053408
1707.000000	28.087804
1706.000000	28.113977
1705.000000	28.117186
1704.000000	28.116985
1703.000000	28.104049
1702.000000	28.090311
1701.000000	28.036360
1700.000000	27.992939
1699.000000	27.921238
1698.000000	27.840813
1697.000000	27.766004
1696.000000	27.694605
1695.000000	27.659106
1694.000000	27.641256
1693.000000	27.625512
1692.000000	27.666225
1691.000000	27.730405
1690.000000	27.808022
1689.000000	27.913416
1688.000000	28.012794
1687.000000	28.070656
1686.000000	28.145866
1685.000000	28.196608
1684.000000	28.265901
1683.000000	28.390650
1682.000000	28.505371
1681.000000	28.707135
1680.000000	28.973178
1679.000000	29.255868
1678.000000	29.569645
1677.000000	29.924638
1676.000000	30.243228
1675.000000	30.542565
1674.000000	30.819840
1673.000000	31.041760
1672.000000	31.259368
1671.000000	31.452307
1670.000000	31.613458
1669.000000	31.768792
1668.000000	31.909786
1667.000000	31.994422
1666.000000	32.106235
1665.000000	32.200298
1664.000000	32.267586
1663.000000	32.344501
1662.000000	32.402162
1661.000000	32.468848
1660.000000	32.520693
1659.000000	32.531022
1658.000000	32.575747
1657.000000	32.614355
1656.000000	32.624584
1655.000000	32.636016
1654.000000	32.639124
1653.000000	32.652161
1652.000000	32.621475
1651.000000	32.613453
1650.000000	32.587079
1649.000000	32.551078
1648.000000	32.518086
1647.000000	32.511468
1646.000000	32.469450
1645.000000	32.421717
1644.000000	32.394039
1643.000000	32.344701
1642.000000	32.282829
1641.000000	32.272399
1640.000000	32.200097
1639.000000	32.162392
1638.000000	32.092396
1637.000000	32.057398
1636.000000	31.991013
1635.000000	31.940171
1634.000000	31.884114
1633.000000	31.813517
1632.000000	31.751042
1631.000000	31.700902
1630.000000	31.628700
1629.000000	31.556599
1628.000000	31.479985
1627.000000	31.425031
1626.000000	31.358244
1625.000000	31.279725
1624.000000	31.195389
1623.000000	31.131009
1622.000000	31.076156
1621.000000	31.005158
1620.000000	30.931953
1619.000000	30.872587
1618.000000	30.814525
1617.000000	30.761677
1616.000000	30.685765
1615.000000	30.621987
1614.000000	30.578264
1613.000000	30.491321
1612.000000	30.430150
1611.000000	30.369280
1610.000000	30.304700
1609.000000	30.257067
1608.000000	30.194191
1607.000000	30.148563
1606.000000	30.068239
1605.000000	30.004060
1604.000000	29.945696
1603.000000	29.862363
1602.000000	29.813728
1601.000000	29.746540
1600.000000	29.681859
1599.000000	29.618081
1598.000000	29.556308
1597.000000	29.497243
1596.000000	29.426245
1595.000000	29.362767
1594.000000	29.319747
1593.000000	29.257573
1592.000000	29.198508
1591.000000	29.143554
1590.000000	29.102038
1589.000000	29.040867
1588.000000	29.009179
1587.000000	28.952922
1586.000000	28.906893
1585.000000	28.837298
1584.000000	28.800997
1583.000000	28.735715
1582.000000	28.686176
1581.000000	28.636638
1580.000000	28.579478
1579.000000	28.538463
1578.000000	28.497950
1577.000000	28.466362
1576.000000	28.418327
1575.000000	28.382728
1574.000000	28.350839
1573.000000	28.308721
1572.000000	28.281645
1571.000000	28.261289
1570.000000	28.243038
1569.000000	28.221979
1568.000000	28.198413
1567.000000	28.166022
1566.000000	28.146167
1565.000000	28.119091
1564.000000	28.109665
1563.000000	28.095726
1562.000000	28.067046
1561.000000	28.042477
1560.000000	28.020115
1559.000000	27.983813
1558.000000	27.935779
1557.000000	27.904191
1556.000000	27.862073
1555.000000	27.821660
1554.000000	27.782651
1553.000000	27.729402
1552.000000	27.678760
1551.000000	27.614982
1550.000000	27.564441
1549.000000	27.504874
1548.000000	27.428160
1547.000000	27.369195
1546.000000	27.312437
1545.000000	27.251667
1544.000000	27.195309
1543.000000	27.130628
1542.000000	27.076577
1541.000000	27.024231
1540.000000	26.968375
1539.000000	26.909109
1538.000000	26.864184
1537.000000	26.819559
1536.000000	26.764204
1535.000000	26.702532
1534.000000	26.661718
1533.000000	26.610575
1532.000000	26.547499
1531.000000	26.507286
1530.000000	26.454539
1529.000000	26.385045
1528.000000	26.330693
1527.000000	26.282057
1526.000000	26.222591
1525.000000	26.163826
1524.000000	26.094533
1523.000000	26.028348
1522.000000	25.975299
1521.000000	25.912524
1520.000000	25.832400
1519.000000	25.773134
1518.000000	25.719986
1517.000000	25.651494
1516.000000	25.578390
1515.000000	25.517520
1514.000000	25.449931
1513.000000	25.382442
1512.000000	25.327188
1511.000000	25.258697
1510.000000	25.186294
1509.000000	25.113190
1508.000000	25.029556
1507.000000	24.965276
1506.000000	24.898891
1505.000000	24.821274
1504.000000	24.752883
1503.000000	24.687701
1502.000000	24.616301
1501.000000	24.562150
1500.000000	24.497669
1499.000000	24.428075
1498.000000	24.369912
1497.000000	24.311148
1496.000000	24.264016
1495.000000	24.202244
1494.000000	24.148393
1493.000000	24.101061
1492.000000	24.058642
1491.000000	24.016625
1490.000000	23.976312
1489.000000	23.934495
1488.000000	23.889770
1487.000000	23.849959
1486.000000	23.800020
1485.000000	23.767429
1484.000000	23.733333
1483.000000	23.697333
1482.000000	23.668552
1481.000000	23.631348
1480.000000	23.595849
1479.000000	23.560550
1478.000000	23.540895
1477.000000	23.523647
1476.000000	23.493764
1475.000000	23.475011
1474.000000	23.469797
1473.000000	23.472504
1472.000000	23.477719
1471.000000	23.472304
1470.000000	23.459969
1469.000000	23.445328
1468.000000	23.447534
1467.000000	23.447635
1466.000000	23.442821
1465.000000	23.466989
1464.000000	23.478722
1463.000000	23.487947
1462.000000	23.491658
1461.000000	23.509608
1460.000000	23.528260
1459.000000	23.551024
1458.000000	23.565364
1457.000000	23.612997
1456.000000	23.668853
1455.000000	23.710570
1454.000000	23.757701
1453.000000	23.809647
1452.000000	23.867308
1451.000000	23.930785
1450.000000	23.984134
1449.000000	24.044804
1448.000000	24.069272
1447.000000	24.135056
1446.000000	24.217085
1445.000000	24.294502
1444.000000	24.367105
1443.000000	24.429078
1442.000000	24.502082
1441.000000	24.589526
1440.000000	24.665940
1439.000000	24.753886
1438.000000	24.849152
1437.000000	24.957154
1436.000000	25.055729
1435.000000	25.148589
1434.000000	25.260702
1433.000000	25.391468
1432.000000	25.494455
1431.000000	25.609978
1430.000000	25.760298
1429.000000	25.893270
1428.000000	26.035367
1427.000000	26.196317
1426.000000	26.345835
1425.000000	26.537170
1424.000000	26.718276
1423.000000	26.920742
1422.000000	27.100444
1421.000000	27.301005
1420.000000	27.533454
1419.000000	27.774729
1418.000000	28.018109
1417.000000	28.222681
1416.000000	28.435375
1415.000000	28.717263
1414.000000	29.016700
1413.000000	29.303201
1412.000000	29.585690
1411.000000	29.863567
1410.000000	30.194291
1409.000000	30.577863
1408.000000	30.933858
1407.000000	31.305497
1406.000000	31.636121
1405.000000	32.036640
1404.000000	32.442274
1403.000000	32.811205
1402.000000	33.216739
1401.000000	33.596099
1400.000000	34.076542
1399.000000	34.501429
1398.000000	34.829246
1397.000000	35.126577
1396.000000	35.502728
1395.000000	35.948374
1394.000000	36.356013
1393.000000	36.638502
1392.000000	36.994297
1391.000000	37.394215
1390.000000	37.796539
1389.000000	38.152434
1388.000000	38.624052
1387.000000	39.095770
1386.000000	39.546731
1385.000000	40.020956
1384.000000	40.544720
1383.000000	41.004405
1382.000000	41.523355
1381.000000	41.962583
1380.000000	42.340339
1379.000000	42.604978
1378.000000	42.863100
1377.000000	43.067872
1376.000000	43.276355
1375.000000	43.473907
1374.000000	43.685599
1373.000000	43.898995
1372.000000	44.151100
1371.000000	44.422659
1370.000000	44.696524
1369.000000	44.914834
1368.000000	45.148186
1367.000000	45.397985
1366.000000	45.610679
1365.000000	45.778047
1364.000000	45.950028
1363.000000	46.087913
1362.000000	46.270222
1361.000000	46.399083
1360.000000	46.538873
1359.000000	46.549603
1358.000000	46.670942
1357.000000	46.748660
1356.000000	46.872305
1355.000000	47.040475
1354.000000	47.255376
1353.000000	47.495347
1352.000000	47.728699
1351.000000	48.055011
1350.000000	48.389546
1349.000000	48.686576
1348.000000	48.998147
1347.000000	49.285049
1346.000000	49.544373
1345.000000	49.809013
1344.000000	50.079268
1343.000000	50.321646
1342.000000	50.570742
1341.000000	50.821744
1340.000000	51.066528
1339.000000	51.306900
1338.000000	51.566826
1337.000000	51.810206
1336.000000	52.047871
1335.000000	52.277613
1334.000000	52.495321
1333.000000	52.728974
1332.000000	52.956009
1331.000000	53.159879
1330.000000	53.369464
1329.000000	53.573134
1328.000000	53.787031
1327.000000	53.991102
1326.000000	54.176620
1325.000000	54.364245
1324.000000	54.536025
1323.000000	54.696273
1322.000000	54.875474
1321.000000	55.025092
1320.000000	55.191958
1319.000000	55.356017
1318.000000	55.493100
1317.000000	55.623564
1316.000000	55.765060
1315.000000	55.895525
1314.000000	56.046346
1313.000000	56.164476
1312.000000	56.278696
1311.000000	56.384692
1310.000000	56.495602
1309.000000	56.598690
1308.000000	56.696864
1307.000000	56.798047
1306.000000	56.888400
1305.000000	56.946963
1304.000000	57.027488
1303.000000	57.100492
1302.000000	57.156148
1301.000000	57.195959
1300.000000	57.253620
1299.000000	57.306669
1298.000000	57.356608
1297.000000	57.396018
1296.000000	57.423696
1295.000000	57.438236
1294.000000	57.463507
1293.000000	57.494794
1292.000000	57.501513
1291.000000	57.525781
1290.000000	57.531497
1289.000000	57.516355
1288.000000	57.516656
1287.000000	57.517859
1286.000000	57.508633
1285.000000	57.484466
1284.000000	57.460198
1283.000000	57.430114
1282.000000	57.391807
1281.000000	57.365834
1280.000000	57.336151
1279.000000	57.317098
1278.000000	57.294535
1277.000000	57.250913
1276.000000	57.229453
1275.000000	57.195558
1274.000000	57.165173
1273.000000	57.140805
1272.000000	57.123156
1271.000000	57.106910
1270.000000	57.095679
1269.000000	57.075222
1268.000000	57.044335
1267.000000	57.029093
1266.000000	57.005326
1265.000000	56.986073
1264.000000	56.955487
1263.000000	56.928512
1262.000000	56.905347
1261.000000	56.885993
1260.000000	56.861324
1259.000000	56.830939
1258.000000	56.803763
1257.000000	56.780598
1256.000000	56.748709
1255.000000	56.713310
1254.000000	56.685934
1253.000000	56.636897
1252.000000	56.587358
1251.000000	56.550555
1250.000000	56.480459
1249.000000	56.424503
1248.000000	56.389405
1247.000000	56.317404
1246.000000	56.246104
1245.000000	56.176009
1244.000000	56.096887
1243.000000	56.011649
1242.000000	55.922901
1241.000000	55.829139
1240.000000	55.746007
1239.000000	55.652445
1238.000000	55.557079
1237.000000	55.468230
1236.000000	55.378479
1235.000000	55.288528
1234.000000	55.174409
1233.000000	55.066909
1232.000000	54.964222
1231.000000	54.858927
1230.000000	54.741198
1229.000000	54.617553
1228.000000	54.493807
1227.000000	54.378485
1226.000000	54.262661
1225.000000	54.126580
1224.000000	53.995815
1223.000000	53.866654
1222.000000	53.733983
1221.000000	53.595797
1220.000000	53.464430
1219.000000	53.346801
1218.000000	53.221150
1217.000000	53.095398
1216.000000	52.981380
1215.000000	52.856531
1214.000000	52.754044
1213.000000	52.677932
1212.000000	52.582465
1211.000000	52.478675
1210.000000	52.371174
1209.000000	52.289947
1208.000000	52.215640
1207.000000	52.127694
1206.000000	52.061208
1205.000000	52.000237
1204.000000	51.948092
1203.000000	51.904570
1202.000000	51.855032
1201.000000	51.821538
1200.000000	51.793460
1199.000000	51.758462
1198.000000	51.716845
1197.000000	51.667909
1196.000000	51.596409
1195.000000	51.484997
1194.000000	51.351524
1193.000000	51.198597
1192.000000	51.007864
1191.000000	50.794267
1190.000000	50.562018
1189.000000	50.327362
1188.000000	50.108049
1187.000000	49.936870
1186.000000	49.827264
1185.000000	49.769102
1184.000000	49.787152
1183.000000	49.880714
1182.000000	50.053296
1181.000000	50.304598
1180.000000	50.589495
1179.000000	50.886424
1178.000000	51.184959
1177.000000	51.475972
1176.000000	51.739007
1175.000000	51.973062
1174.000000	52.181143
1173.000000	52.379999
1172.000000	52.595601
1171.000000	52.807093
1170.000000	53.003341
1169.000000	53.223557
1168.000000	53.446780
1167.000000	53.687052
1166.000000	53.912181
1165.000000	54.148642
1164.000000	54.401649
1163.000000	54.647637
1162.000000	54.901145
1161.000000	55.175612
1160.000000	55.438046
1159.000000	55.693159
1158.000000	55.954991
1157.000000	56.211407
1156.000000	56.435233
1155.000000	56.654947
1154.000000	56.867441
1153.000000	57.050753
1152.000000	57.210801
1151.000000	57.342068
1150.000000	57.458694
1149.000000	57.567097
1148.000000	57.669483
1147.000000	57.786911
1146.000000	57.911559
1145.000000	58.050849
1144.000000	58.256423
1143.000000	58.465909
1142.000000	58.693545
1141.000000	58.955778
1140.000000	59.241175
1139.000000	59.539810
1138.000000	59.845866
1137.000000	60.174584
1136.000000	60.499192
1135.000000	60.859599
1134.000000	61.224920
1133.000000	61.565171
1132.000000	61.821487
1131.000000	62.085525
1130.000000	62.379046
1129.000000	62.610492
1128.000000	62.822184
1127.000000	63.016226
1126.000000	63.145588
1125.000000	63.292499
1124.000000	63.397793
1123.000000	63.507901
1122.000000	63.586520
1121.000000	63.658722
1120.000000	63.716183
1119.000000	63.744362
1118.000000	63.803126
1117.000000	63.820173
1116.000000	63.860687
1115.000000	63.862793
1114.000000	63.884553
1113.000000	63.893679
1112.000000	63.904509
1111.000000	63.908520
1110.000000	63.927674
1109.000000	63.925468
1108.000000	63.940309
1107.000000	63.965580
1106.000000	63.973402
1105.000000	63.984433
1104.000000	63.976109
1103.000000	63.987240
1102.000000	63.993358
1101.000000	63.990650
1100.000000	63.996667
1099.000000	64.015820
1098.000000	63.998773
1097.000000	64.006996
1096.000000	63.986438
1095.000000	63.980221
1094.000000	63.986639
1093.000000	63.971396
1092.000000	63.976210
1091.000000	63.964276
1090.000000	63.964377
1089.000000	63.950337
1088.000000	63.953145
1087.000000	63.927473
1086.000000	63.923964
1085.000000	63.881445
1084.000000	63.875328
1083.000000	63.847951
1082.000000	63.839728
1081.000000	63.806335
1080.000000	63.782468
1079.000000	63.759704
1078.000000	63.747871
1077.000000	63.720996
1076.000000	63.714679
1075.000000	63.688505
1074.000000	63.673865
1073.000000	63.671257
1072.000000	63.646789
1071.000000	63.622822
1070.000000	63.606276
1069.000000	63.576994
1068.000000	63.575690
1067.000000	63.552826
1066.000000	63.527455
1065.000000	63.501483
1064.000000	63.493561
1063.000000	63.461170
1062.000000	63.437003
1061.000000	63.409225
1060.000000	63.402807
1059.000000	63.378138
1058.000000	63.357982
1057.000000	63.341034
1056.000000	63.306538
1055.000000	63.296209
1054.000000	63.270036
1053.000000	63.234637
1052.000000	63.221901
1051.000000	63.204653
1050.000000	63.189411
1049.000000	63.142078
1048.000000	63.130947
1047.000000	63.132752
1046.000000	63.106980
1045.000000	63.111392
1044.000000	63.101665
1043.000000	63.091036
1042.000000	63.083013
1041.000000	63.084818
1040.000000	63.056940
1039.000000	63.065364
1038.000000	63.054233
1037.000000	63.042099
1036.000000	63.040795
1035.000000	63.018132
1034.000000	62.993363
1033.000000	62.988750
1032.000000	62.977919
1031.000000	62.970398
1030.000000	62.957663
1029.000000	62.948136
1028.000000	62.949139
1027.000000	62.942320
1026.000000	62.932292
1025.000000	62.921161
1024.000000	62.906520
1023.000000	62.893684
1022.000000	62.893584
1021.000000	62.871221
1020.000000	62.854073
1019.000000	62.860291
1018.000000	62.869316
1017.000000	62.866007
1016.000000	62.865004
1015.000000	62.865606
1014.000000	62.875333
1013.000000	62.874129
1012.000000	62.878542
1011.000000	62.909729
1010.000000	62.924570
1009.000000	62.930988
1008.000000	62.969295
1007.000000	63.011714
1006.000000	63.044506
1005.000000	63.074088
1004.000000	63.097855
1003.000000	63.148496
1002.000000	63.192018
1001.000000	63.236643
1000.000000	63.281568
999.000000	63.315463
998.000000	63.361491
997.000000	63.405615
996.000000	63.441214
995.000000	63.478920
994.000000	63.524547
993.000000	63.575790
992.000000	63.635056
991.000000	63.677575
990.000000	63.737342
989.000000	63.785276
988.000000	63.846647
987.000000	63.912632
986.000000	63.968187
985.000000	64.050517
984.000000	64.132547
983.000000	64.210063
982.000000	64.296003
981.000000	64.383047
980.000000	64.472196
979.000000	64.562649
978.000000	64.645982
977.000000	64.737838
976.000000	64.825383
975.000000	64.918744
974.000000	64.996963
973.000000	65.097744
972.000000	65.194414
971.000000	65.275541
970.000000	65.360077
969.000000	65.448023
968.000000	65.538175
967.000000	65.624717
966.000000	65.714468
965.000000	65.783762
964.000000	65.881635
963.000000	65.988534
962.000000	66.077282
961.000000	66.173350
960.000000	66.263904
959.000000	66.364986
958.000000	66.457745
957.000000	66.531050
956.000000	66.610272
955.000000	66.693605
954.000000	66.789472
953.000000	66.864683
952.000000	66.925553
951.000000	66.998256
950.000000	67.061031
949.000000	67.125712
948.000000	67.200120
947.000000	67.261993
946.000000	67.319955
945.000000	67.387745
944.000000	67.459244
943.000000	67.514800
942.000000	67.557820
941.000000	67.619091
940.000000	67.679961
939.000000	67.737623
938.000000	67.800699
937.000000	67.867987
936.000000	67.947910
935.000000	68.006775
934.000000	68.059021
933.000000	68.130922
932.000000	68.187881
931.000000	68.255470
930.000000	68.318747
929.000000	68.358558
928.000000	68.419428
927.000000	68.472276
926.000000	68.518806
925.000000	68.573258
924.000000	68.623900
923.000000	68.692190
922.000000	68.757573
921.000000	68.812727
920.000000	68.865475
919.000000	68.928150
918.000000	68.985109
917.000000	69.051595
916.000000	69.103640
915.000000	69.150872
914.000000	69.206929
913.000000	69.251454
912.000000	69.291165
911.000000	69.325460
910.000000	69.377406
909.000000	69.423334
908.000000	69.465652
907.000000	69.514890
906.000000	69.572752
905.000000	69.627705
904.000000	69.683561
903.000000	69.761479
902.000000	69.822650
901.000000	69.885225
900.000000	69.954819
899.000000	70.033439
898.000000	70.106844
897.000000	70.190879
896.000000	70.266390
895.000000	70.357545
894.000000	70.437569
893.000000	70.522807
892.000000	70.612257
891.000000	70.704013
890.000000	70.786945
889.000000	70.875593
888.000000	70.961433
887.000000	71.043462
886.000000	71.128600
885.000000	71.200000
884.000000	71.272603
883.000000	71.349818
882.000000	71.422722
881.000000	71.483291
880.000000	71.553287
879.000000	71.630302
878.000000	71.686860
877.000000	71.723262
876.000000	71.753446
875.000000	71.756455
874.000000	71.748031
873.000000	71.731285
872.000000	71.659384
871.000000	71.561711
870.000000	71.492617
869.000000	71.525509
868.000000	71.591193
867.000000	71.661590
866.000000	71.788344
865.000000	71.904569
864.000000	72.000838
863.000000	72.095603
862.000000	72.200195
861.000000	72.307796
860.000000	72.399953
859.000000	72.499532
858.000000	72.607433
857.000000	72.692800
856.000000	72.862600
855.000000	72.266900
854.000000	72.741000
853.000000	73.154200
852.000000	73.023200
851.000000	73.116400
850.000000	73.415900
849.000000	73.328800
848.000000	73.247500
847.000000	73.290500
846.000000	73.324000
845.000000	73.505000
844.000000	73.636700
843.000000	73.923400
842.000000	74.018100
841.000000	74.317600
840.000000	73.970600
839.000000	74.376000
838.000000	74.373300
837.000000	74.462300
836.000000	74.738300
835.000000	74.900000
834.000000	74.922900
833.000000	75.275600
832.000000	75.297900
831.000000	75.493500
830.000000	75.628900
829.000000	75.679000
828.000000	76.260900
827.000000	76.061400
826.000000	76.475800
825.000000	76.341100
824.000000	76.879600
823.000000	77.105800
822.000000	77.257500
821.000000	77.713800
820.000000	77.871500
819.000000	78.259400
818.000000	78.436500
817.000000	78.504000
816.000000	78.870400
815.000000	79.226500
814.000000	79.463700
813.000000	79.569100
812.000000	79.970900
811.000000	80.254800
810.000000	80.446300
809.000000	80.695500
808.000000	80.840200
807.000000	81.189100
806.000000	81.191000
805.000000	81.436000
804.000000	81.689000
803.000000	82.008500
802.000000	82.009400
801.000000	82.401800
800.000000	82.507400
799.000000	82.547500
798.000000	82.477900
797.000000	82.781000
796.000000	82.709700
795.000000	82.594600
794.000000	82.655500
793.000000	82.602600
792.000000	82.682700
791.000000	82.629800
790.000000	82.481200
789.000000	82.448000
788.000000	82.498000
787.000000	82.543900
786.000000	82.457100
785.000000	82.440100
784.000000	82.372800
783.000000	82.672100
782.000000	82.563000
781.000000	82.475700
780.000000	82.639200
779.000000	82.807400
778.000000	82.962100
777.000000	83.015400
776.000000	83.091800
775.000000	83.153200
774.000000	83.186400
773.000000	83.504600
772.000000	83.645000
771.000000	83.804100
770.000000	83.768200
769.000000	83.871400
768.000000	84.187500
767.000000	84.256600
766.000000	84.451300
765.000000	84.614300
764.000000	84.618400
763.000000	84.886800
762.000000	84.963400
761.000000	84.898900
760.000000	84.952800
759.000000	84.811300
758.000000	84.846400
757.000000	84.766000
756.000000	84.532500
755.000000	84.467000
754.000000	84.414200
753.000000	84.394800
752.000000	84.299300
751.000000	84.213600
750.000000	84.198400
749.000000	84.068400
748.000000	83.891400
747.000000	83.824900
746.000000	83.758300
745.000000	83.558200
744.000000	83.591800
743.000000	83.514700
742.000000	83.433100
741.000000	83.214900
740.000000	83.082900
739.000000	83.018200
738.000000	82.962900
737.000000	82.774600
736.000000	82.716300
735.000000	82.503900
734.000000	82.380400
733.000000	82.187300
732.000000	82.039400
731.000000	81.805500
730.000000	81.558500
729.000000	81.396000
728.000000	81.134600
727.000000	80.845100
726.000000	80.659000
725.000000	80.357700
724.000000	79.923200
723.000000	79.584700
722.000000	79.135300
721.000000	78.728300
720.000000	78.255000
719.000000	77.782600
718.000000	77.373200
717.000000	77.016400
716.000000	76.538300
715.000000	76.064400
714.000000	75.751000
713.000000	75.369700
712.000000	74.988700
711.000000	74.725100
710.000000	74.485700
709.000000	74.157100
708.000000	73.883400
707.000000	73.713500
706.000000	73.602900
705.000000	73.380200
704.000000	73.231200
703.000000	73.098400
702.000000	73.083900
701.000000	73.015500
700.000000	72.897600
699.000000	72.889800
698.000000	72.800900
697.000000	72.732800
696.000000	72.722500
695.000000	72.713600
694.000000	72.695100
693.000000	72.644000
692.000000	72.658700
691.000000	72.699200
690.000000	72.706500
689.000000	72.712900
688.000000	72.737800
687.000000	72.746100
686.000000	72.714900
685.000000	72.682500
684.000000	72.626600
683.000000	72.563800
682.000000	72.397400
681.000000	72.283800
680.000000	72.170400
679.000000	71.981200
678.000000	71.748900
677.000000	71.579100
676.000000	71.389600
675.000000	71.199700
674.000000	70.939800
673.000000	70.648300
672.000000	70.400200
671.000000	70.070300
670.000000	69.679100
669.000000	69.324300
668.000000	68.948800
667.000000	68.499700
666.000000	67.978100
665.000000	67.412800
664.000000	66.814000
663.000000	66.108500
662.000000	65.396800
661.000000	64.677200
660.000000	63.917000
659.000000	63.139300
658.000000	62.328900
657.000000	61.534000
656.000000	60.729700
655.000000	59.947600
654.000000	59.175400
653.000000	58.435000
652.000000	57.746100
651.000000	57.095500
650.000000	56.530600
649.000000	56.010900
648.000000	55.592300
647.000000	55.290100
646.000000	55.031400
645.000000	54.875000
644.000000	54.819700
643.000000	54.897300
642.000000	55.107800
641.000000	55.401600
640.000000	55.817000
639.000000	56.350100
638.000000	56.990000
637.000000	57.730600
636.000000	58.526800
635.000000	59.392400
634.000000	60.355200
633.000000	61.360800
632.000000	62.390600
631.000000	63.401700
630.000000	64.422500
629.000000	65.409900
628.000000	66.396400
627.000000	67.270800
626.000000	68.113900
625.000000	68.974600
624.000000	69.804800
623.000000	70.607900
622.000000	71.341100
621.000000	72.071500
620.000000	72.901100
619.000000	73.663200
618.000000	74.359300
617.000000	75.083500
616.000000	75.811600
615.000000	76.486300
614.000000	77.134400
613.000000	77.773500
612.000000	78.428200
611.000000	79.034800
610.000000	79.567800
609.000000	80.079000
608.000000	80.545900
607.000000	81.001700
606.000000	81.428800
605.000000	81.845500
604.000000	82.224600
603.000000	82.607200
602.000000	83.004800
601.000000	83.382300
600.000000	83.720500
599.000000	84.070000
598.000000	84.381900
597.000000	84.724900
596.000000	85.056500
595.000000	85.329700
594.000000	85.591700
593.000000	85.837000
592.000000	86.064000
591.000000	86.265100
590.000000	86.444300
589.000000	86.627300
588.000000	86.726800
587.000000	86.823200
586.000000	86.917600
585.000000	86.980300
584.000000	87.056700
583.000000	87.099500
582.000000	87.131000
581.000000	87.133000
580.000000	87.123600
579.000000	87.122700
578.000000	87.126900
577.000000	87.096100
576.000000	87.064200
575.000000	86.977200
574.000000	86.965600
573.000000	86.909000
572.000000	86.851900
571.000000	86.751500
570.000000	86.647800
569.000000	86.574500
568.000000	86.433700
567.000000	86.300600
566.000000	86.191500
565.000000	85.976400
564.000000	85.776300
563.000000	85.581600
562.000000	85.355600
561.000000	85.074200
560.000000	84.804000
559.000000	84.496200
558.000000	84.176000
557.000000	83.907600
556.000000	83.575900
555.000000	83.190200
554.000000	82.803700
553.000000	82.415900
552.000000	81.981200
551.000000	81.556800
550.000000	81.057300
549.000000	80.541500
548.000000	80.054500
547.000000	79.492500
546.000000	78.914400
545.000000	78.283500
544.000000	77.601500
543.000000	76.863600
542.000000	76.115000
541.000000	75.268900
540.000000	74.414200
539.000000	73.484600
538.000000	72.519900
537.000000	71.513300
536.000000	70.429500
535.000000	69.253900
534.000000	68.038200
533.000000	66.762800
532.000000	65.406300
531.000000	63.977600
530.000000	62.524000
529.000000	61.077600
528.000000	59.554100
527.000000	58.028800
526.000000	56.486400
525.000000	54.946600
524.000000	53.388900
523.000000	51.906300
522.000000	50.501700
521.000000	49.111500
520.000000	47.805100
519.000000	46.618400
518.000000	45.555500
517.000000	44.521100
516.000000	43.686400
515.000000	42.900900
514.000000	42.170700
513.000000	41.537300
512.000000	41.037400
511.000000	40.567600
510.000000	40.177100
509.000000	39.838800
508.000000	39.518100
507.000000	39.224100
506.000000	38.960200
505.000000	38.697800
504.000000	38.431600
503.000000	38.131100
502.000000	37.853300
501.000000	37.533300
500.000000	37.169900
499.000000	36.751700
498.000000	36.339200
497.000000	35.858400
496.000000	35.353800
495.000000	34.850200
494.000000	34.305500
493.000000	33.812900
492.000000	33.264300
491.000000	32.704100
490.000000	32.183900
489.000000	31.695500
488.000000	31.263400
487.000000	30.834800
486.000000	30.451700
485.000000	30.098400
484.000000	29.832700
483.000000	29.596600
482.000000	29.422800
481.000000	29.236100
480.000000	29.127800
479.000000	29.055900
478.000000	29.035400
477.000000	29.035200
476.000000	29.027800
475.000000	29.026100
474.000000	29.080200
473.000000	29.092500
472.000000	29.160500
471.000000	29.217700
470.000000	29.290100
469.000000	29.290400
468.000000	29.349800
467.000000	29.370000
466.000000	29.422100
465.000000	29.441300
464.000000	29.440800
463.000000	29.420900
462.000000	29.401100
461.000000	29.391900
460.000000	29.338800
459.000000	29.245800
458.000000	29.231800
457.000000	29.139700
456.000000	29.027200
455.000000	28.936900
454.000000	28.834700
453.000000	28.652100
452.000000	28.538600
451.000000	28.403300
450.000000	28.183000
449.000000	28.027000
448.000000	27.865400
447.000000	27.671100
446.000000	27.453500
445.000000	27.231300
444.000000	26.990800
443.000000	26.701200
442.000000	26.471300
441.000000	26.205400
440.000000	25.917300
439.000000	25.614200
438.000000	25.254300
437.000000	24.936600
436.000000	24.579900
435.000000	24.255800
434.000000	23.884700
433.000000	23.447900
432.000000	23.021500
431.000000	22.601700
430.000000	22.137100
429.000000	21.703100
428.000000	21.220500
427.000000	20.700600
426.000000	20.214000
425.000000	19.682800
424.000000	19.131700
423.000000	18.565200
422.000000	17.985500
421.000000	17.425500
420.000000	16.866700
419.000000	16.288000
418.000000	15.719400
417.000000	15.180500
416.000000	14.674200
415.000000	14.124700
414.000000	13.600100
413.000000	13.121600
412.000000	12.676900
411.000000	12.193600
410.000000	11.788800
409.000000	11.366400
408.000000	11.001300
407.000000	10.664300
406.000000	10.364300
405.000000	10.047900
404.000000	9.761000
403.000000	9.512700
402.000000	9.298800
401.000000	9.050500
400.000000	8.861500
399.000000	8.676700
398.000000	8.500500
397.000000	8.330200
396.000000	8.210900
395.000000	8.064700
394.000000	7.946800
393.000000	7.828300
392.000000	7.698000
391.000000	7.605900
390.000000	7.518400
389.000000	7.424300
388.000000	7.315500
387.000000	7.224800
386.000000	7.167500
385.000000	7.096000
384.000000	7.053000
383.000000	6.969200
382.000000	6.900300
381.000000	6.826700
380.000000	6.776100
379.000000	6.732200
378.000000	6.692000
377.000000	6.647800
376.000000	6.509800
375.000000	6.225000
374.000000	6.102700
373.000000	6.194400
372.000000	6.227000
371.000000	6.323600
370.000000	6.226700
369.000000	6.175600
368.000000	6.186200
367.000000	6.239700
366.000000	6.138000
365.000000	6.118800
364.000000	6.161600
363.000000	6.069200
362.000000	6.075100
361.000000	6.058900
360.000000	6.028300
359.000000	5.958100
358.000000	5.946400
357.000000	5.931700
356.000000	5.830800
355.000000	5.828200
354.000000	5.787600
353.000000	5.881200
352.000000	5.998200
351.000000	6.103100
350.000000	6.105800
349.000000	5.716400
348.000000	5.734600
347.000000	5.939400
346.000000	5.902000
345.000000	5.868200
344.000000	5.808000
343.000000	5.743600
342.000000	5.599600
341.000000	5.570000
340.000000	5.822500
339.000000	5.891500
338.000000	5.734100
337.000000	5.667900
336.000000	5.823100
335.000000	5.897200
334.000000	5.775100
333.000000	5.796900
332.000000	5.923800
331.000000	6.093100
330.000000	6.045600
329.000000	5.928900
328.000000	6.028200
327.000000	6.008600
326.000000	6.060700
325.000000	6.343900
324.000000	6.367400
323.000000	6.239300
322.000000	6.696400
321.000000	7.109100
320.000000	6.835000
319.000000	6.280000
318.000000	6.119700
317.000000	6.359700
316.000000	5.951400
315.000000	5.516800
314.000000	5.501900
313.000000	5.539400
312.000000	5.568100
311.000000	5.586500
310.000000	5.591700
309.000000	5.561400
308.000000	5.580100
307.000000	5.565100
306.000000	5.576200
305.000000	5.575000
304.000000	5.562200
303.000000	5.579300
302.000000	5.593300
301.000000	5.541700
300.000000	5.516000
299.000000	5.542700
298.000000	5.573000
297.000000	5.552300
296.000000	5.503100
295.000000	5.483900
294.000000	5.511800
293.000000	5.522300
292.000000	5.535200
291.000000	5.594500
290.000000	5.580500
289.000000	5.560200
288.000000	5.548200
287.000000	5.549000
286.000000	5.553600
285.000000	5.624100
284.000000	5.635100
283.000000	5.563000
282.000000	5.542900
281.000000	5.571900
280.000000	5.555600
279.000000	5.562400
278.000000	5.607300
277.000000	5.623500
276.000000	5.637900
275.000000	5.666400
274.000000	5.698500
273.000000	5.678400
272.000000	5.660900
271.000000	5.707200
270.000000	5.686600
269.000000	5.699200
268.000000	5.743100
267.000000	5.734300
266.000000	5.791500
265.000000	5.825700
264.000000	5.862900
263.000000	5.825900
262.000000	5.900400
261.000000	5.894500
260.000000	5.900700
259.000000	5.959100
258.000000	5.990900
257.000000	5.958000
256.000000	5.962800
255.000000	5.974500
254.000000	5.996800
253.000000	6.029300
252.000000	6.017200
251.000000	6.048500
250.000000	6.027600
