PE UV       SUBTECH     SPECTRUM    ASCII       PEDS        4.00        
   -1
CICIMAUCR0260-3.Sample.ASC
24/07/01
13:47:05.00
24/07/01
13:47:05.00
Vinicio Soto Monge
C. resplendens. Sex F. Dorsal.
250,000000
1
Lambda 1050
1050L1511233
PerkinElmer UV WinLab 6.3.2.0749 / 2.02.05 Lambda 900 UV/VIS/NIR, Aug  7 2015 09:38:08

0
0
3350/servo 860,8/2
0
0
UV/VIS
1
1
1
DoubleDePol,CommonBeamDepol,RBeamAtt,SBeamAtt,60mm sphere, WB InGaAs Detector
0
0
0
0
Program
Program
3350/servo 860,8/2
3350/0,2 860,8/0,2
3350/0,2 860,8/0,2
0
15.00
 
 
 
0
 
860,8
319,2
860,8
Front
100
on
S:100 R:100
0
0
0
0
 
0
 
 
 
0
 
 
0
0
0
0
0
 
 
 
 
0
0


0
0
#HDR
-1
-1
#GR
nm
%R
1.0
0.0
2500,000000
-1,000000
2251
8
90,775700
5,523800
#DATA
2500.000000	8.776880
2499.000000	8.647531
2498.000000	8.817468
2497.000000	8.661470
2496.000000	8.663930
2495.000000	8.594848
2494.000000	8.597821
2493.000000	8.518079
2492.000000	8.601921
2491.000000	8.538373
2490.000000	8.571992
2489.000000	8.553543
2488.000000	8.568712
2487.000000	8.539398
2486.000000	8.482001
2485.000000	8.556208
2484.000000	8.525049
2483.000000	8.476569
2482.000000	8.483846
2481.000000	8.509265
2480.000000	8.533556
2479.000000	8.531506
2478.000000	8.501373
2477.000000	8.556720
2476.000000	8.578039
2475.000000	8.537861
2474.000000	8.571582
2473.000000	8.545958
2472.000000	8.551493
2471.000000	8.559590
2470.000000	8.598538
2469.000000	8.630209
2468.000000	8.625802
2467.000000	8.655936
2466.000000	8.695089
2465.000000	8.711181
2464.000000	8.694781
2463.000000	8.723788
2462.000000	8.759353
2461.000000	8.771960
2460.000000	8.833458
2459.000000	8.862464
2458.000000	8.920066
2457.000000	8.950507
2456.000000	8.996118
2455.000000	9.058025
2454.000000	9.108043
2453.000000	9.133256
2452.000000	9.199673
2451.000000	9.262196
2450.000000	9.319490
2449.000000	9.369713
2448.000000	9.433363
2447.000000	9.516794
2446.000000	9.554307
2445.000000	9.611807
2444.000000	9.696673
2443.000000	9.750791
2442.000000	9.803986
2441.000000	9.873990
2440.000000	9.950042
2439.000000	9.998932
2438.000000	10.071909
2437.000000	10.114034
2436.000000	10.164974
2435.000000	10.252710
2434.000000	10.310313
2433.000000	10.373655
2432.000000	10.449706
2431.000000	10.484350
2430.000000	10.550562
2429.000000	10.619541
2428.000000	10.667201
2427.000000	10.711889
2426.000000	10.748583
2425.000000	10.798191
2424.000000	10.846978
2423.000000	10.892384
2422.000000	10.938404
2421.000000	10.983092
2420.000000	11.032700
2419.000000	11.076875
2418.000000	11.118181
2417.000000	11.146982
2416.000000	11.194335
2415.000000	11.236666
2414.000000	11.263724
2413.000000	11.305235
2412.000000	11.332806
2411.000000	11.360480
2410.000000	11.401888
2409.000000	11.441861
2408.000000	11.473327
2407.000000	11.510431
2406.000000	11.534722
2405.000000	11.569058
2404.000000	11.588020
2403.000000	11.629428
2402.000000	11.678420
2401.000000	11.719009
2400.000000	11.742787
2399.000000	11.754677
2398.000000	11.788808
2397.000000	11.808999
2396.000000	11.833188
2395.000000	11.868652
2394.000000	11.897555
2393.000000	11.917542
2392.000000	11.943986
2391.000000	11.961718
2390.000000	11.971660
2389.000000	11.989801
2388.000000	12.013888
2387.000000	12.034182
2386.000000	12.044534
2385.000000	12.064930
2384.000000	12.091784
2383.000000	12.099061
2382.000000	12.104186
2381.000000	12.098036
2380.000000	12.104903
2379.000000	12.115358
2378.000000	12.106133
2377.000000	12.100701
2376.000000	12.103879
2375.000000	12.089837
2374.000000	12.090349
2373.000000	12.094654
2372.000000	12.072412
2371.000000	12.061035
2370.000000	12.063393
2369.000000	12.040024
2368.000000	12.016143
2367.000000	12.009993
2366.000000	11.994004
2365.000000	11.969302
2364.000000	11.944396
2363.000000	11.923487
2362.000000	11.901553
2361.000000	11.875621
2360.000000	11.852560
2359.000000	11.819966
2358.000000	11.788603
2357.000000	11.771794
2356.000000	11.746375
2355.000000	11.719521
2354.000000	11.702199
2353.000000	11.688567
2352.000000	11.671041
2351.000000	11.659356
2350.000000	11.654437
2349.000000	11.666121
2348.000000	11.664174
2347.000000	11.673501
2346.000000	11.703737
2345.000000	11.714294
2344.000000	11.729566
2343.000000	11.763184
2342.000000	11.798442
2341.000000	11.827654
2340.000000	11.842823
2339.000000	11.870292
2338.000000	11.889561
2337.000000	11.900323
2336.000000	11.912007
2335.000000	11.916517
2334.000000	11.919284
2333.000000	11.917747
2332.000000	11.904730
2331.000000	11.910880
2330.000000	11.903500
2329.000000	11.883821
2328.000000	11.842105
2327.000000	11.828781
2326.000000	11.803362
2325.000000	11.763902
2324.000000	11.728848
2323.000000	11.684980
2322.000000	11.631683
2321.000000	11.568545
2320.000000	11.514325
2319.000000	11.460515
2318.000000	11.409473
2317.000000	11.331269
2316.000000	11.254500
2315.000000	11.184495
2314.000000	11.100962
2313.000000	11.024090
2312.000000	10.953266
2311.000000	10.875062
2310.000000	10.815717
2309.000000	10.758627
2308.000000	10.702562
2307.000000	10.650802
2306.000000	10.626921
2305.000000	10.607447
2304.000000	10.581515
2303.000000	10.580388
2302.000000	10.615749
2301.000000	10.636760
2300.000000	10.666279
2299.000000	10.706867
2298.000000	10.770414
2297.000000	10.831502
2296.000000	10.887566
2295.000000	10.940044
2294.000000	11.007076
2293.000000	11.082205
2292.000000	11.135605
2291.000000	11.170556
2290.000000	11.212989
2289.000000	11.251937
2288.000000	11.283301
2287.000000	11.305952
2286.000000	11.313332
2285.000000	11.297958
2284.000000	11.295805
2283.000000	11.291501
2282.000000	11.277561
2281.000000	11.242200
2280.000000	11.200177
2279.000000	11.155694
2278.000000	11.138680
2277.000000	11.110494
2276.000000	11.058221
2275.000000	11.021528
2274.000000	10.985552
2273.000000	10.956033
2272.000000	10.927745
2271.000000	10.901403
2270.000000	10.905503
2269.000000	10.902838
2268.000000	10.924772
2267.000000	10.962798
2266.000000	10.989242
2265.000000	11.053916
2264.000000	11.142267
2263.000000	11.234001
2262.000000	11.357303
2261.000000	11.482347
2260.000000	11.627788
2259.000000	11.782658
2258.000000	11.942141
2257.000000	12.111156
2256.000000	12.278633
2255.000000	12.476654
2254.000000	12.667808
2253.000000	12.866444
2252.000000	13.046836
2251.000000	13.240962
2250.000000	13.413256
2249.000000	13.571099
2248.000000	13.737449
2247.000000	13.884530
2246.000000	14.035096
2245.000000	14.159935
2244.000000	14.287542
2243.000000	14.389934
2242.000000	14.483923
2241.000000	14.583343
2240.000000	14.683993
2239.000000	14.751333
2238.000000	14.838044
2237.000000	14.902206
2236.000000	14.952634
2235.000000	15.014131
2234.000000	15.041190
2233.000000	15.088133
2232.000000	15.129951
2231.000000	15.142250
2230.000000	15.156804
2229.000000	15.175459
2228.000000	15.181096
2227.000000	15.186528
2226.000000	15.187246
2225.000000	15.172999
2224.000000	15.172384
2223.000000	15.136305
2222.000000	15.132821
2221.000000	15.104224
2220.000000	15.073271
2219.000000	15.031658
2218.000000	14.997527
2217.000000	14.962268
2216.000000	14.952224
2215.000000	14.896466
2214.000000	14.861310
2213.000000	14.825335
2212.000000	14.778084
2211.000000	14.745286
2210.000000	14.751743
2209.000000	14.686966
2208.000000	14.669644
2207.000000	14.628031
2206.000000	14.611529
2205.000000	14.603330
2204.000000	14.569199
2203.000000	14.549315
2202.000000	14.536298
2201.000000	14.495915
2200.000000	14.505754
2199.000000	14.477363
2198.000000	14.465576
2197.000000	14.429600
2196.000000	14.432162
2195.000000	14.416071
2194.000000	14.408076
2193.000000	14.403156
2192.000000	14.356111
2191.000000	14.383477
2190.000000	14.381632
2189.000000	14.367283
2188.000000	14.345861
2187.000000	14.338687
2186.000000	14.332025
2185.000000	14.319315
2184.000000	14.301071
2183.000000	14.292666
2182.000000	14.275140
2181.000000	14.255870
2180.000000	14.268067
2179.000000	14.264275
2178.000000	14.252796
2177.000000	14.250848
2176.000000	14.233936
2175.000000	14.238651
2174.000000	14.243161
2173.000000	14.230862
2172.000000	14.237831
2171.000000	14.241111
2170.000000	14.264275
2169.000000	14.274320
2168.000000	14.285594
2167.000000	14.298714
2166.000000	14.319930
2165.000000	14.351601
2164.000000	14.359596
2163.000000	14.388192
2162.000000	14.406436
2161.000000	14.458504
2160.000000	14.490790
2159.000000	14.510161
2158.000000	14.546752
2157.000000	14.586008
2156.000000	14.622189
2155.000000	14.686351
2154.000000	14.723762
2153.000000	14.764657
2152.000000	14.818570
2151.000000	14.864693
2150.000000	14.925575
2149.000000	14.974158
2148.000000	15.022126
2147.000000	15.070196
2146.000000	15.115601
2145.000000	15.148605
2144.000000	15.190628
2143.000000	15.229884
2142.000000	15.280106
2141.000000	15.317312
2140.000000	15.351751
2139.000000	15.393466
2138.000000	15.427905
2137.000000	15.460088
2136.000000	15.478640
2135.000000	15.504366
2134.000000	15.525993
2133.000000	15.563813
2132.000000	15.587182
2131.000000	15.600404
2130.000000	15.630333
2129.000000	15.648577
2128.000000	15.628590
2127.000000	15.636278
2126.000000	15.647655
2125.000000	15.644067
2124.000000	15.648577
2123.000000	15.640582
2122.000000	15.621108
2121.000000	15.612396
2120.000000	15.607374
2119.000000	15.582468
2118.000000	15.566273
2117.000000	15.559509
2116.000000	15.531015
2115.000000	15.500881
2114.000000	15.484072
2113.000000	15.449429
2112.000000	15.408738
2111.000000	15.390699
2110.000000	15.379937
2109.000000	15.343653
2108.000000	15.309727
2107.000000	15.268729
2106.000000	15.239928
2105.000000	15.214509
2104.000000	15.183453
2103.000000	15.154242
2102.000000	15.108119
2101.000000	15.080958
2100.000000	15.060561
2099.000000	15.029095
2098.000000	14.998039
2097.000000	14.977643
2096.000000	14.943512
2095.000000	14.902719
2094.000000	14.875660
2093.000000	14.858748
2092.000000	14.834047
2091.000000	14.805348
2090.000000	14.787514
2089.000000	14.776137
2088.000000	14.746516
2087.000000	14.723864
2086.000000	14.700393
2085.000000	14.662059
2084.000000	14.636948
2083.000000	14.610607
2082.000000	14.576373
2081.000000	14.549315
2080.000000	14.508009
2079.000000	14.460246
2078.000000	14.423553
2077.000000	14.373330
2076.000000	14.329667
2075.000000	14.286312
2074.000000	14.222047
2073.000000	14.161985
2072.000000	14.109405
2071.000000	14.052212
2070.000000	13.987948
2069.000000	13.927475
2068.000000	13.867413
2067.000000	13.810631
2066.000000	13.750773
2065.000000	13.674107
2064.000000	13.616095
2063.000000	13.554290
2062.000000	13.493100
2061.000000	13.436933
2060.000000	13.389990
2059.000000	13.335975
2058.000000	13.284112
2057.000000	13.251929
2056.000000	13.213595
2055.000000	13.181309
2054.000000	13.163270
2053.000000	13.162553
2052.000000	13.165525
2051.000000	13.172597
2050.000000	13.191559
2049.000000	13.202628
2048.000000	13.249469
2047.000000	13.293337
2046.000000	13.342022
2045.000000	13.406799
2044.000000	13.449847
2043.000000	13.494228
2042.000000	13.533073
2041.000000	13.602258
2040.000000	13.658733
2039.000000	13.698911
2038.000000	13.746366
2037.000000	13.796589
2036.000000	13.833180
2035.000000	13.886580
2034.000000	13.932600
2033.000000	13.950844
2032.000000	13.972676
2031.000000	13.993995
2030.000000	14.013162
2029.000000	14.031611
2028.000000	14.039093
2027.000000	14.059899
2026.000000	14.059592
2025.000000	14.069124
2024.000000	14.089213
2023.000000	14.064512
2022.000000	14.052622
2021.000000	14.059079
2020.000000	14.051290
2019.000000	14.023514
2018.000000	14.026383
2017.000000	14.024846
2016.000000	13.995327
2015.000000	13.969909
2014.000000	13.948282
2013.000000	13.919481
2012.000000	13.902774
2011.000000	13.874690
2010.000000	13.860136
2009.000000	13.812988
2008.000000	13.764815
2007.000000	13.705368
2006.000000	13.669392
2005.000000	13.635466
2004.000000	13.580119
2003.000000	13.520876
2002.000000	13.478956
2001.000000	13.436420
2000.000000	13.375333
1999.000000	13.304816
1998.000000	13.226202
1997.000000	13.167678
1996.000000	13.115815
1995.000000	13.042736
1994.000000	12.959612
1993.000000	12.888173
1992.000000	12.821756
1991.000000	12.759541
1990.000000	12.691074
1989.000000	12.616868
1988.000000	12.527799
1987.000000	12.448263
1986.000000	12.377849
1985.000000	12.295955
1984.000000	12.196842
1983.000000	12.122840
1982.000000	12.049351
1981.000000	11.964075
1980.000000	11.869472
1979.000000	11.816687
1978.000000	11.723313
1977.000000	11.640805
1976.000000	11.548661
1975.000000	11.487062
1974.000000	11.418595
1973.000000	11.333421
1972.000000	11.266594
1971.000000	11.186033
1970.000000	11.112236
1969.000000	11.042642
1968.000000	10.977352
1967.000000	10.893614
1966.000000	10.820944
1965.000000	10.756987
1964.000000	10.673966
1963.000000	10.611752
1962.000000	10.557531
1961.000000	10.476868
1960.000000	10.436792
1959.000000	10.373450
1958.000000	10.307238
1957.000000	10.224422
1956.000000	10.181784
1955.000000	10.108499
1954.000000	10.058277
1953.000000	9.982430
1952.000000	9.951477
1951.000000	9.886187
1950.000000	9.840884
1949.000000	9.768522
1948.000000	9.728037
1947.000000	9.708460
1946.000000	9.637226
1945.000000	9.600738
1944.000000	9.591615
1943.000000	9.550925
1942.000000	9.513514
1941.000000	9.496192
1940.000000	9.502240
1939.000000	9.475488
1938.000000	9.469749
1937.000000	9.457859
1936.000000	9.451197
1935.000000	9.455809
1934.000000	9.457142
1933.000000	9.471798
1932.000000	9.492400
1931.000000	9.520484
1930.000000	9.547235
1929.000000	9.602582
1928.000000	9.676379
1927.000000	9.718812
1926.000000	9.794659
1925.000000	9.839244
1924.000000	9.902176
1923.000000	9.953834
1922.000000	10.080416
1921.000000	10.179631
1920.000000	10.312875
1919.000000	10.426850
1918.000000	10.523606
1917.000000	10.665049
1916.000000	10.747148
1915.000000	10.875062
1914.000000	11.008203
1913.000000	11.159384
1912.000000	11.363452
1911.000000	11.540667
1910.000000	11.690002
1909.000000	11.849075
1908.000000	12.007840
1907.000000	12.183312
1906.000000	12.397938
1905.000000	12.644336
1904.000000	12.928146
1903.000000	13.165013
1902.000000	13.402392
1901.000000	13.648996
1900.000000	13.909539
1899.000000	14.198781
1898.000000	14.521846
1897.000000	14.857313
1896.000000	15.161929
1895.000000	15.452401
1894.000000	15.743283
1893.000000	16.064093
1892.000000	16.423237
1891.000000	16.849720
1890.000000	17.308284
1889.000000	17.712423
1888.000000	18.104468
1887.000000	18.548990
1886.000000	18.943597
1885.000000	19.400111
1884.000000	19.869335
1883.000000	20.388371
1882.000000	20.876556
1881.000000	21.321386
1880.000000	21.775850
1879.000000	22.229597
1878.000000	22.659565
1877.000000	23.093428
1876.000000	23.549635
1875.000000	23.946189
1874.000000	24.340796
1873.000000	24.730791
1872.000000	25.112996
1871.000000	25.469167
1870.000000	25.786493
1869.000000	26.055030
1868.000000	26.357392
1867.000000	26.580421
1866.000000	26.768910
1865.000000	26.942332
1864.000000	27.100483
1863.000000	27.270318
1862.000000	27.417603
1861.000000	27.595740
1860.000000	27.761475
1859.000000	27.904866
1858.000000	28.035343
1857.000000	28.141528
1856.000000	28.229059
1855.000000	28.305725
1854.000000	28.382392
1853.000000	28.428412
1852.000000	28.438867
1851.000000	28.478225
1850.000000	28.543310
1849.000000	28.611264
1848.000000	28.661282
1847.000000	28.687213
1846.000000	28.652775
1845.000000	28.605627
1844.000000	28.609829
1843.000000	28.598042
1842.000000	28.623973
1841.000000	28.655439
1840.000000	28.648777
1839.000000	28.644575
1838.000000	28.628073
1837.000000	28.603269
1836.000000	28.585845
1835.000000	28.547409
1834.000000	28.476893
1833.000000	28.441019
1832.000000	28.413140
1831.000000	28.385262
1830.000000	28.345904
1829.000000	28.301011
1828.000000	28.271389
1827.000000	28.228034
1826.000000	28.169202
1825.000000	28.131176
1824.000000	28.078288
1823.000000	28.049077
1822.000000	28.053484
1821.000000	28.064451
1820.000000	28.040877
1819.000000	28.000597
1818.000000	27.956421
1817.000000	27.927825
1816.000000	27.914193
1815.000000	27.913988
1814.000000	27.883035
1813.000000	27.853106
1812.000000	27.849724
1811.000000	27.836912
1810.000000	27.804728
1809.000000	27.765165
1808.000000	27.730419
1807.000000	27.701310
1806.000000	27.679684
1805.000000	27.641556
1804.000000	27.595330
1803.000000	27.560892
1802.000000	27.525018
1801.000000	27.495602
1800.000000	27.458704
1799.000000	27.408276
1798.000000	27.368098
1797.000000	27.337759
1796.000000	27.296761
1795.000000	27.252381
1794.000000	27.224502
1793.000000	27.196623
1792.000000	27.154600
1791.000000	27.113090
1790.000000	27.078754
1789.000000	27.046775
1788.000000	27.008442
1787.000000	26.981896
1786.000000	26.956989
1785.000000	26.916914
1784.000000	26.885140
1783.000000	26.841477
1782.000000	26.791562
1781.000000	26.760301
1780.000000	26.714178
1779.000000	26.659548
1778.000000	26.615065
1777.000000	26.576937
1776.000000	26.529891
1775.000000	26.475364
1774.000000	26.418274
1773.000000	26.373381
1772.000000	26.304402
1771.000000	26.247619
1770.000000	26.191862
1769.000000	26.122267
1768.000000	26.061283
1767.000000	25.996711
1766.000000	25.938186
1765.000000	25.884786
1764.000000	25.835588
1763.000000	25.819291
1762.000000	25.809349
1761.000000	25.808939
1760.000000	25.823698
1759.000000	25.848707
1758.000000	25.898623
1757.000000	25.935828
1756.000000	25.996198
1755.000000	26.048881
1754.000000	26.088751
1753.000000	26.118577
1752.000000	26.162753
1751.000000	26.188274
1750.000000	26.197499
1749.000000	26.190837
1748.000000	26.180177
1747.000000	26.157526
1746.000000	26.142254
1745.000000	26.084242
1744.000000	26.020797
1743.000000	25.950383
1742.000000	25.865619
1741.000000	25.774808
1740.000000	25.667496
1739.000000	25.548703
1738.000000	25.428476
1737.000000	25.287135
1736.000000	25.171316
1735.000000	25.078660
1734.000000	24.980982
1733.000000	24.918767
1732.000000	24.869672
1731.000000	24.856450
1730.000000	24.854298
1729.000000	24.884841
1728.000000	24.917332
1727.000000	24.966223
1726.000000	25.008143
1725.000000	25.052524
1724.000000	25.104489
1723.000000	25.150612
1722.000000	25.204524
1721.000000	25.265201
1720.000000	25.317781
1719.000000	25.371694
1718.000000	25.443851
1717.000000	25.534252
1716.000000	25.608561
1715.000000	25.700909
1714.000000	25.804327
1713.000000	25.901082
1712.000000	25.993636
1711.000000	26.067535
1710.000000	26.133849
1709.000000	26.174232
1708.000000	26.212053
1707.000000	26.237882
1706.000000	26.227325
1705.000000	26.227838
1704.000000	26.201701
1703.000000	26.173105
1702.000000	26.123292
1701.000000	26.061795
1700.000000	25.995993
1699.000000	25.907847
1698.000000	25.825338
1697.000000	25.729710
1696.000000	25.662371
1695.000000	25.572687
1694.000000	25.540196
1693.000000	25.541939
1692.000000	25.591342
1691.000000	25.614813
1690.000000	25.702139
1689.000000	25.780958
1688.000000	25.841943
1687.000000	25.929064
1686.000000	26.012085
1685.000000	26.053185
1684.000000	26.135592
1683.000000	26.268118
1682.000000	26.390703
1681.000000	26.591183
1680.000000	26.832560
1679.000000	27.107452
1678.000000	27.417501
1677.000000	27.744871
1676.000000	28.054202
1675.000000	28.365788
1674.000000	28.634838
1673.000000	28.891076
1672.000000	29.097912
1671.000000	29.334881
1670.000000	29.482474
1669.000000	29.625763
1668.000000	29.770589
1667.000000	29.880156
1666.000000	29.982139
1665.000000	30.057371
1664.000000	30.167041
1663.000000	30.230690
1662.000000	30.293520
1661.000000	30.331546
1660.000000	30.415182
1659.000000	30.460485
1658.000000	30.468274
1657.000000	30.505070
1656.000000	30.541251
1655.000000	30.557753
1654.000000	30.573435
1653.000000	30.556523
1652.000000	30.556625
1651.000000	30.537459
1650.000000	30.528542
1649.000000	30.545556
1648.000000	30.476576
1647.000000	30.466532
1646.000000	30.436911
1645.000000	30.401242
1644.000000	30.360654
1643.000000	30.329803
1642.000000	30.294545
1641.000000	30.263694
1640.000000	30.227615
1639.000000	30.178930
1638.000000	30.143159
1637.000000	30.118458
1636.000000	30.066595
1635.000000	30.008685
1634.000000	29.956823
1633.000000	29.919002
1632.000000	29.859965
1631.000000	29.796725
1630.000000	29.752447
1629.000000	29.687977
1628.000000	29.608543
1627.000000	29.545816
1626.000000	29.471507
1625.000000	29.436556
1624.000000	29.368909
1623.000000	29.300238
1622.000000	29.231463
1621.000000	29.183803
1620.000000	29.115541
1619.000000	29.075363
1618.000000	29.015096
1617.000000	28.957698
1616.000000	28.902351
1615.000000	28.843826
1614.000000	28.793398
1613.000000	28.730876
1612.000000	28.672659
1611.000000	28.632685
1610.000000	28.549767
1609.000000	28.493497
1608.000000	28.443582
1607.000000	28.393461
1606.000000	28.323047
1605.000000	28.249968
1604.000000	28.194723
1603.000000	28.145115
1602.000000	28.078698
1601.000000	28.027758
1600.000000	27.975280
1599.000000	27.902201
1598.000000	27.836707
1597.000000	27.768137
1596.000000	27.719760
1595.000000	27.677121
1594.000000	27.598405
1593.000000	27.557407
1592.000000	27.502572
1591.000000	27.451017
1590.000000	27.414733
1589.000000	27.369431
1588.000000	27.305473
1587.000000	27.266833
1586.000000	27.219992
1585.000000	27.161262
1584.000000	27.129284
1583.000000	27.092078
1582.000000	27.046160
1581.000000	26.998090
1580.000000	26.982203
1579.000000	26.929111
1578.000000	26.889855
1577.000000	26.857261
1576.000000	26.835840
1575.000000	26.796072
1574.000000	26.771268
1573.000000	26.749129
1572.000000	26.740724
1571.000000	26.719815
1570.000000	26.686914
1569.000000	26.672257
1568.000000	26.666415
1567.000000	26.660573
1566.000000	26.653296
1565.000000	26.646223
1564.000000	26.629619
1563.000000	26.614757
1562.000000	26.612912
1561.000000	26.605943
1560.000000	26.584214
1559.000000	26.561562
1558.000000	26.537783
1557.000000	26.501398
1556.000000	26.475671
1555.000000	26.451175
1554.000000	26.420836
1553.000000	26.381990
1552.000000	26.337098
1551.000000	26.290975
1550.000000	26.239727
1549.000000	26.208876
1548.000000	26.150249
1547.000000	26.109045
1546.000000	26.084652
1545.000000	26.033609
1544.000000	25.993636
1543.000000	25.943413
1542.000000	25.908257
1541.000000	25.883863
1540.000000	25.842763
1539.000000	25.815089
1538.000000	25.784648
1537.000000	25.739960
1536.000000	25.699987
1535.000000	25.660526
1534.000000	25.629060
1533.000000	25.593596
1532.000000	25.558543
1531.000000	25.512318
1530.000000	25.450718
1529.000000	25.402135
1528.000000	25.355192
1527.000000	25.299332
1526.000000	25.250442
1525.000000	25.203192
1524.000000	25.150099
1523.000000	25.096187
1522.000000	25.037559
1521.000000	24.982109
1520.000000	24.925327
1519.000000	24.864957
1518.000000	24.794133
1517.000000	24.731406
1516.000000	24.663656
1515.000000	24.586067
1514.000000	24.525903
1513.000000	24.471068
1512.000000	24.411210
1511.000000	24.333519
1510.000000	24.260235
1509.000000	24.195048
1508.000000	24.123506
1507.000000	24.059651
1506.000000	23.981447
1505.000000	23.904371
1504.000000	23.847588
1503.000000	23.778917
1502.000000	23.707580
1501.000000	23.631733
1500.000000	23.565009
1499.000000	23.502692
1498.000000	23.441399
1497.000000	23.389332
1496.000000	23.327732
1495.000000	23.273922
1494.000000	23.226262
1493.000000	23.167737
1492.000000	23.106957
1491.000000	23.060219
1490.000000	23.029778
1489.000000	22.981093
1488.000000	22.938352
1487.000000	22.900429
1486.000000	22.866196
1485.000000	22.823865
1484.000000	22.781945
1483.000000	22.732337
1482.000000	22.699128
1481.000000	22.663767
1480.000000	22.636504
1479.000000	22.611187
1478.000000	22.583309
1477.000000	22.563219
1476.000000	22.534213
1475.000000	22.512689
1474.000000	22.506232
1473.000000	22.510229
1472.000000	22.525911
1471.000000	22.524886
1470.000000	22.509204
1469.000000	22.507462
1468.000000	22.496495
1467.000000	22.496188
1466.000000	22.504182
1465.000000	22.517507
1464.000000	22.523554
1463.000000	22.530216
1462.000000	22.549280
1461.000000	22.581976
1460.000000	22.616210
1459.000000	22.639271
1458.000000	22.661820
1457.000000	22.699026
1456.000000	22.744329
1455.000000	22.803469
1454.000000	22.849386
1453.000000	22.901044
1452.000000	22.957314
1451.000000	23.022399
1450.000000	23.100500
1449.000000	23.149083
1448.000000	23.184444
1447.000000	23.250758
1446.000000	23.319020
1445.000000	23.412393
1444.000000	23.476658
1443.000000	23.523293
1442.000000	23.592170
1441.000000	23.681341
1440.000000	23.764977
1439.000000	23.846256
1438.000000	23.931020
1437.000000	24.029005
1436.000000	24.111206
1435.000000	24.195048
1434.000000	24.288318
1433.000000	24.399731
1432.000000	24.527747
1431.000000	24.649204
1430.000000	24.747805
1429.000000	24.868647
1428.000000	25.009271
1427.000000	25.125808
1426.000000	25.280166
1425.000000	25.443031
1424.000000	25.590009
1423.000000	25.747237
1422.000000	25.942081
1421.000000	26.106176
1420.000000	26.307989
1419.000000	26.507547
1418.000000	26.710796
1417.000000	26.941308
1416.000000	27.115857
1415.000000	27.370045
1414.000000	27.630486
1413.000000	27.871453
1412.000000	28.132611
1411.000000	28.340266
1410.000000	28.639450
1409.000000	28.969178
1408.000000	29.273384
1407.000000	29.588249
1406.000000	29.916849
1405.000000	30.265436
1404.000000	30.597418
1403.000000	30.922944
1402.000000	31.281780
1401.000000	31.630776
1400.000000	32.069149
1399.000000	32.436082
1398.000000	32.754740
1397.000000	33.026148
1396.000000	33.371865
1395.000000	33.798553
1394.000000	34.150009
1393.000000	34.477789
1392.000000	34.784968
1391.000000	35.187057
1390.000000	35.541076
1389.000000	35.896837
1388.000000	36.332852
1387.000000	36.779424
1386.000000	37.232864
1385.000000	37.683843
1384.000000	38.177563
1383.000000	38.631207
1382.000000	39.130360
1381.000000	39.541571
1380.000000	39.921419
1379.000000	40.190571
1378.000000	40.445887
1377.000000	40.655798
1376.000000	40.855151
1375.000000	41.049072
1374.000000	41.243096
1373.000000	41.453314
1372.000000	41.701865
1371.000000	41.950724
1370.000000	42.215777
1369.000000	42.446904
1368.000000	42.680285
1367.000000	42.901060
1366.000000	43.120400
1365.000000	43.279268
1364.000000	43.451153
1363.000000	43.606638
1362.000000	43.761201
1361.000000	43.920684
1360.000000	44.020309
1359.000000	44.052903
1358.000000	44.183482
1357.000000	44.262301
1356.000000	44.365924
1355.000000	44.511364
1354.000000	44.740647
1353.000000	44.946252
1352.000000	45.130641
1351.000000	45.467441
1350.000000	45.751046
1349.000000	46.077801
1348.000000	46.351873
1347.000000	46.638143
1346.000000	46.902171
1345.000000	47.147647
1344.000000	47.395788
1343.000000	47.671501
1342.000000	47.906112
1341.000000	48.147796
1340.000000	48.388353
1339.000000	48.641926
1338.000000	48.875001
1337.000000	49.105205
1336.000000	49.344942
1335.000000	49.567357
1334.000000	49.791514
1333.000000	50.021206
1332.000000	50.249053
1331.000000	50.471365
1330.000000	50.673794
1329.000000	50.888214
1328.000000	51.089412
1327.000000	51.300245
1326.000000	51.488939
1325.000000	51.671586
1324.000000	51.842035
1323.000000	52.021300
1322.000000	52.184677
1321.000000	52.344468
1320.000000	52.516250
1319.000000	52.667430
1318.000000	52.825581
1317.000000	52.979631
1316.000000	53.115642
1315.000000	53.264978
1314.000000	53.394327
1313.000000	53.529211
1312.000000	53.678444
1311.000000	53.783810
1310.000000	53.895222
1309.000000	54.012272
1308.000000	54.120609
1307.000000	54.222695
1306.000000	54.325702
1305.000000	54.404829
1304.000000	54.488157
1303.000000	54.568616
1302.000000	54.636161
1301.000000	54.692943
1300.000000	54.766432
1299.000000	54.819012
1298.000000	54.875180
1297.000000	54.928887
1296.000000	54.963941
1295.000000	55.002172
1294.000000	55.044605
1293.000000	55.074533
1292.000000	55.096467
1291.000000	55.112354
1290.000000	55.141155
1289.000000	55.151302
1288.000000	55.154992
1287.000000	55.162679
1286.000000	55.157964
1285.000000	55.144538
1284.000000	55.120759
1283.000000	55.107127
1282.000000	55.076173
1281.000000	55.040710
1280.000000	55.029128
1279.000000	55.002274
1278.000000	54.975113
1277.000000	54.939444
1276.000000	54.913923
1275.000000	54.894449
1274.000000	54.866570
1273.000000	54.839511
1272.000000	54.818295
1271.000000	54.803946
1270.000000	54.788161
1269.000000	54.771147
1268.000000	54.744806
1267.000000	54.716927
1266.000000	54.697248
1265.000000	54.660042
1264.000000	54.641593
1263.000000	54.618327
1262.000000	54.585733
1261.000000	54.565644
1260.000000	54.536843
1259.000000	54.501482
1258.000000	54.465403
1257.000000	54.445314
1256.000000	54.425943
1255.000000	54.379205
1254.000000	54.339129
1253.000000	54.307663
1252.000000	54.255288
1251.000000	54.203323
1250.000000	54.153510
1249.000000	54.090168
1248.000000	54.037075
1247.000000	53.987160
1246.000000	53.919718
1245.000000	53.838440
1244.000000	53.755521
1243.000000	53.680084
1242.000000	53.601983
1241.000000	53.507687
1240.000000	53.427331
1239.000000	53.354252
1238.000000	53.272563
1237.000000	53.190157
1236.000000	53.105598
1235.000000	53.022372
1234.000000	52.933816
1233.000000	52.848745
1232.000000	52.765723
1231.000000	52.678397
1230.000000	52.570060
1229.000000	52.463772
1228.000000	52.374704
1227.000000	52.276001
1226.000000	52.174018
1225.000000	52.060453
1224.000000	51.953448
1223.000000	51.855565
1222.000000	51.753172
1221.000000	51.648217
1220.000000	51.535267
1219.000000	51.421190
1218.000000	51.320642
1217.000000	51.227678
1216.000000	51.137995
1215.000000	51.044417
1214.000000	50.945509
1213.000000	50.852751
1212.000000	50.762350
1211.000000	50.675024
1210.000000	50.582265
1209.000000	50.486740
1208.000000	50.391829
1207.000000	50.325412
1206.000000	50.243518
1205.000000	50.153015
1204.000000	50.101665
1203.000000	50.041193
1202.000000	49.993122
1201.000000	49.955916
1200.000000	49.907231
1199.000000	49.858136
1198.000000	49.794999
1197.000000	49.714950
1196.000000	49.628136
1195.000000	49.513854
1194.000000	49.368311
1193.000000	49.208828
1192.000000	49.018904
1191.000000	48.788495
1190.000000	48.536664
1189.000000	48.299387
1188.000000	48.067645
1187.000000	47.883461
1186.000000	47.745707
1185.000000	47.666478
1184.000000	47.653359
1183.000000	47.737610
1182.000000	47.888996
1181.000000	48.113255
1180.000000	48.361499
1179.000000	48.648179
1178.000000	48.941315
1177.000000	49.231069
1176.000000	49.491305
1175.000000	49.721202
1174.000000	49.944129
1173.000000	50.152810
1172.000000	50.346526
1171.000000	50.541985
1170.000000	50.764400
1169.000000	50.995424
1168.000000	51.206769
1167.000000	51.445174
1166.000000	51.680708
1165.000000	51.931309
1164.000000	52.190930
1163.000000	52.446143
1162.000000	52.705046
1161.000000	52.983321
1160.000000	53.277380
1159.000000	53.558422
1158.000000	53.823475
1157.000000	54.090681
1156.000000	54.343332
1155.000000	54.577431
1154.000000	54.834899
1153.000000	55.040505
1152.000000	55.229506
1151.000000	55.381302
1150.000000	55.536480
1149.000000	55.664291
1148.000000	55.814447
1147.000000	55.970445
1146.000000	56.123983
1145.000000	56.304067
1144.000000	56.518385
1143.000000	56.746950
1142.000000	57.012720
1141.000000	57.302577
1140.000000	57.617032
1139.000000	57.950860
1138.000000	58.291759
1137.000000	58.651415
1136.000000	59.013839
1135.000000	59.408753
1134.000000	59.808075
1133.000000	60.164451
1132.000000	60.461585
1131.000000	60.799512
1130.000000	61.094084
1129.000000	61.347042
1128.000000	61.555518
1127.000000	61.758561
1126.000000	61.904412
1125.000000	62.035094
1124.000000	62.150503
1123.000000	62.266118
1122.000000	62.352727
1121.000000	62.422321
1120.000000	62.449687
1119.000000	62.480641
1118.000000	62.542035
1117.000000	62.587441
1116.000000	62.591233
1115.000000	62.604045
1114.000000	62.630489
1113.000000	62.620957
1112.000000	62.630489
1111.000000	62.639714
1110.000000	62.624749
1109.000000	62.622597
1108.000000	62.632026
1107.000000	62.627209
1106.000000	62.617985
1105.000000	62.622187
1104.000000	62.615935
1103.000000	62.613885
1102.000000	62.598818
1101.000000	62.589491
1100.000000	62.602713
1099.000000	62.593386
1098.000000	62.594821
1097.000000	62.587236
1096.000000	62.551260
1095.000000	62.567762
1094.000000	62.557820
1093.000000	62.536808
1092.000000	62.517642
1091.000000	62.516002
1090.000000	62.506162
1089.000000	62.489045
1088.000000	62.464344
1087.000000	62.429291
1086.000000	62.417709
1085.000000	62.414121
1084.000000	62.379580
1083.000000	62.366358
1082.000000	62.335815
1081.000000	62.322490
1080.000000	62.288155
1079.000000	62.270115
1078.000000	62.266631
1077.000000	62.251051
1076.000000	62.227990
1075.000000	62.202058
1074.000000	62.191809
1073.000000	62.164443
1072.000000	62.145481
1071.000000	62.135027
1070.000000	62.119755
1069.000000	62.097718
1068.000000	62.070659
1067.000000	62.043396
1066.000000	62.015107
1065.000000	62.009367
1064.000000	61.984256
1063.000000	61.950842
1062.000000	61.927883
1061.000000	61.910254
1060.000000	61.873151
1059.000000	61.852242
1058.000000	61.850807
1057.000000	61.814524
1056.000000	61.770451
1055.000000	61.749029
1054.000000	61.712746
1053.000000	61.682202
1052.000000	61.641307
1051.000000	61.635772
1050.000000	61.604511
1049.000000	61.584832
1048.000000	61.549881
1047.000000	61.521387
1046.000000	61.498941
1045.000000	61.478236
1044.000000	61.448923
1043.000000	61.423401
1042.000000	61.393985
1041.000000	61.383223
1040.000000	61.367029
1039.000000	61.338843
1038.000000	61.311989
1037.000000	61.291387
1036.000000	61.272733
1035.000000	61.226200
1034.000000	61.190942
1033.000000	61.163473
1032.000000	61.148816
1031.000000	61.109971
1030.000000	61.074097
1029.000000	61.024490
1028.000000	61.002248
1027.000000	60.990154
1026.000000	60.945978
1025.000000	60.922507
1024.000000	60.882431
1023.000000	60.874129
1022.000000	60.843073
1021.000000	60.794695
1020.000000	60.775016
1019.000000	60.763742
1018.000000	60.749085
1017.000000	60.721616
1016.000000	60.735043
1015.000000	60.732480
1014.000000	60.738220
1013.000000	60.767226
1012.000000	60.784548
1011.000000	60.810889
1010.000000	60.836308
1009.000000	60.870644
1008.000000	60.916050
1007.000000	60.968732
1006.000000	61.022850
1005.000000	61.085167
1004.000000	61.142154
1003.000000	61.206111
1002.000000	61.287185
1001.000000	61.360674
1000.000000	61.426989
999.000000	61.500068
998.000000	61.581962
997.000000	61.644689
996.000000	61.734167
995.000000	61.822723
994.000000	61.900722
993.000000	61.982308
992.000000	62.060410
991.000000	62.149786
990.000000	62.236087
989.000000	62.336430
988.000000	62.428163
987.000000	62.510979
986.000000	62.605685
985.000000	62.697316
984.000000	62.779927
983.000000	62.861513
982.000000	62.948634
981.000000	63.036370
980.000000	63.120929
979.000000	63.202618
978.000000	63.273545
977.000000	63.357181
976.000000	63.422880
975.000000	63.488682
974.000000	63.573753
973.000000	63.648473
972.000000	63.724012
971.000000	63.802933
970.000000	63.857051
969.000000	63.944787
968.000000	64.053944
967.000000	64.131328
966.000000	64.216912
965.000000	64.321047
964.000000	64.422107
963.000000	64.535057
962.000000	64.657334
961.000000	64.777049
960.000000	64.894201
959.000000	65.020475
958.000000	65.167863
957.000000	65.315559
956.000000	65.467355
955.000000	65.611976
954.000000	65.754854
953.000000	65.902447
952.000000	66.069105
951.000000	66.240784
950.000000	66.403445
949.000000	66.572357
948.000000	66.727330
947.000000	66.889580
946.000000	67.071202
945.000000	67.243906
944.000000	67.406566
943.000000	67.567484
942.000000	67.731887
941.000000	67.899876
940.000000	68.041832
939.000000	68.194140
938.000000	68.356801
937.000000	68.508801
936.000000	68.656189
935.000000	68.798760
934.000000	68.952606
933.000000	69.088412
932.000000	69.227088
931.000000	69.356130
930.000000	69.455141
929.000000	69.552409
928.000000	69.659004
927.000000	69.759859
926.000000	69.848108
925.000000	69.939738
924.000000	70.046231
923.000000	70.158258
922.000000	70.240870
921.000000	70.311387
920.000000	70.389283
919.000000	70.470664
918.000000	70.549688
917.000000	70.642856
916.000000	70.733257
915.000000	70.809821
914.000000	70.895507
913.000000	70.993083
912.000000	71.085841
911.000000	71.199919
910.000000	71.306206
909.000000	71.410034
908.000000	71.527699
907.000000	71.664325
906.000000	71.814173
905.000000	71.969453
904.000000	72.140723
903.000000	72.326137
902.000000	72.519238
901.000000	72.739193
900.000000	72.964068
899.000000	73.162499
898.000000	73.406028
897.000000	73.638385
896.000000	73.879146
895.000000	74.104739
894.000000	74.349088
893.000000	74.571605
892.000000	74.801604
891.000000	75.032321
890.000000	75.267548
889.000000	75.485863
888.000000	75.687984
887.000000	75.895127
886.000000	76.087716
885.000000	76.276717
884.000000	76.471356
883.000000	76.657897
882.000000	76.834292
881.000000	77.012121
880.000000	77.190156
879.000000	77.350356
878.000000	77.500204
877.000000	77.661019
876.000000	77.815070
875.000000	77.968608
874.000000	78.080328
873.000000	78.168781
872.000000	78.245038
871.000000	78.293723
870.000000	78.341076
869.000000	78.451873
868.000000	78.638927
867.000000	78.864724
866.000000	79.060490
865.000000	79.264046
864.000000	79.502963
863.000000	79.719330
862.000000	79.941745
861.000000	80.144583
860.000000	80.384013
859.000000	80.614832
858.000000	80.861333
857.000000	80.575600
856.000000	80.995700
855.000000	81.012700
854.000000	81.276600
853.000000	82.130100
852.000000	81.795300
851.000000	81.977000
850.000000	82.733500
849.000000	82.765000
848.000000	83.104000
847.000000	83.302800
846.000000	83.076100
845.000000	83.797600
844.000000	84.175600
843.000000	84.243000
842.000000	84.674800
841.000000	84.944700
840.000000	85.127100
839.000000	85.297200
838.000000	85.881900
837.000000	86.022300
836.000000	86.494900
835.000000	86.776700
834.000000	86.826100
833.000000	86.924800
832.000000	87.351900
831.000000	87.908900
830.000000	88.218700
829.000000	88.609300
828.000000	88.614300
827.000000	88.973500
826.000000	89.229500
825.000000	89.301000
824.000000	89.722000
823.000000	89.797100
822.000000	89.801300
821.000000	90.034100
820.000000	90.178300
819.000000	90.099700
818.000000	90.381200
817.000000	90.518100
816.000000	90.501300
815.000000	90.752900
814.000000	90.491000
813.000000	90.432800
812.000000	90.775700
811.000000	90.744100
810.000000	90.681500
809.000000	90.214200
808.000000	90.501800
807.000000	90.208500
806.000000	90.314100
805.000000	90.046300
804.000000	89.858200
803.000000	89.907900
802.000000	90.012700
801.000000	89.538900
800.000000	89.471100
799.000000	89.326000
798.000000	89.294300
797.000000	89.200200
796.000000	89.104000
795.000000	88.952500
794.000000	88.939500
793.000000	88.839100
792.000000	88.854500
791.000000	88.834500
790.000000	88.755600
789.000000	88.922900
788.000000	88.854200
787.000000	88.850200
786.000000	88.772700
785.000000	88.705000
784.000000	89.029300
783.000000	88.713200
782.000000	88.689600
781.000000	88.652200
780.000000	88.605600
779.000000	88.523400
778.000000	88.658900
777.000000	88.656600
776.000000	88.421000
775.000000	88.522300
774.000000	88.377900
773.000000	88.358900
772.000000	88.432800
771.000000	88.375900
770.000000	88.478600
769.000000	88.431800
768.000000	88.280800
767.000000	88.234300
766.000000	88.280200
765.000000	88.132600
764.000000	88.150700
763.000000	88.087700
762.000000	87.964300
761.000000	87.750900
760.000000	87.737900
759.000000	87.631000
758.000000	87.487300
757.000000	87.408300
756.000000	87.214800
755.000000	87.019700
754.000000	86.927800
753.000000	86.808800
752.000000	86.688800
751.000000	86.357600
750.000000	86.146500
749.000000	85.932700
748.000000	85.717500
747.000000	85.403200
746.000000	84.998100
745.000000	84.619400
744.000000	84.243400
743.000000	83.897200
742.000000	83.458500
741.000000	82.960600
740.000000	82.556900
739.000000	82.049800
738.000000	81.585200
737.000000	81.068100
736.000000	80.650300
735.000000	80.085200
734.000000	79.428200
733.000000	78.925600
732.000000	78.491600
731.000000	77.957500
730.000000	77.446800
729.000000	76.937000
728.000000	76.336500
727.000000	75.771700
726.000000	75.292300
725.000000	74.676600
724.000000	74.114500
723.000000	73.692900
722.000000	73.101000
721.000000	72.589600
720.000000	72.150900
719.000000	71.754200
718.000000	71.306400
717.000000	70.896700
716.000000	70.525700
715.000000	70.299700
714.000000	70.023500
713.000000	69.914900
712.000000	69.773500
711.000000	69.696000
710.000000	69.697000
709.000000	69.763900
708.000000	69.903000
707.000000	69.907800
706.000000	70.040900
705.000000	70.241600
704.000000	70.381400
703.000000	70.497900
702.000000	70.658700
701.000000	70.877500
700.000000	70.996700
699.000000	71.154300
698.000000	71.289500
697.000000	71.433300
696.000000	71.511500
695.000000	71.655000
694.000000	71.849000
693.000000	71.980500
692.000000	72.129500
691.000000	72.303900
690.000000	72.424100
689.000000	72.618200
688.000000	72.747900
687.000000	72.849100
686.000000	72.943200
685.000000	72.988300
684.000000	72.924000
683.000000	72.913100
682.000000	72.862000
681.000000	72.742700
680.000000	72.574800
679.000000	72.357400
678.000000	72.094600
677.000000	71.884300
676.000000	71.639100
675.000000	71.329600
674.000000	71.020400
673.000000	70.766000
672.000000	70.487600
671.000000	70.129600
670.000000	69.710800
669.000000	69.234800
668.000000	68.791400
667.000000	68.304700
666.000000	67.698500
665.000000	67.056500
664.000000	66.343200
663.000000	65.522500
662.000000	64.684800
661.000000	63.749800
660.000000	62.759900
659.000000	61.774700
658.000000	60.775000
657.000000	59.761800
656.000000	58.776700
655.000000	57.855600
654.000000	56.986200
653.000000	56.184900
652.000000	55.450500
651.000000	54.775100
650.000000	54.201800
649.000000	53.765500
648.000000	53.421400
647.000000	53.179300
646.000000	53.079300
645.000000	53.117000
644.000000	53.289100
643.000000	53.583300
642.000000	54.077800
641.000000	54.759200
640.000000	55.529700
639.000000	56.410200
638.000000	57.447200
637.000000	58.615500
636.000000	59.875800
635.000000	61.223200
634.000000	62.608300
633.000000	64.073200
632.000000	65.562700
631.000000	67.027300
630.000000	68.448800
629.000000	69.835600
628.000000	71.177700
627.000000	72.476600
626.000000	73.679300
625.000000	74.803800
624.000000	75.920500
623.000000	76.984100
622.000000	77.952400
621.000000	78.829800
620.000000	79.652300
619.000000	80.426800
618.000000	81.153100
617.000000	81.855200
616.000000	82.467800
615.000000	83.033400
614.000000	83.573000
613.000000	84.081500
612.000000	84.555100
611.000000	84.964900
610.000000	85.352800
609.000000	85.676800
608.000000	85.909500
607.000000	86.145600
606.000000	86.330400
605.000000	86.493900
604.000000	86.671300
603.000000	86.776300
602.000000	86.877900
601.000000	86.947200
600.000000	86.997100
599.000000	87.038600
598.000000	87.024000
597.000000	86.978600
596.000000	86.922600
595.000000	86.891800
594.000000	86.816800
593.000000	86.742400
592.000000	86.647500
591.000000	86.543200
590.000000	86.503000
589.000000	86.411600
588.000000	86.247200
587.000000	86.089800
586.000000	85.960500
585.000000	85.818900
584.000000	85.651400
583.000000	85.484300
582.000000	85.278000
581.000000	85.051700
580.000000	84.821000
579.000000	84.566600
578.000000	84.312900
577.000000	84.044100
576.000000	83.769600
575.000000	83.490200
574.000000	83.185800
573.000000	82.870100
572.000000	82.504400
571.000000	82.188600
570.000000	81.827600
569.000000	81.412400
568.000000	81.034600
567.000000	80.608900
566.000000	80.168500
565.000000	79.733600
564.000000	79.251300
563.000000	78.747100
562.000000	78.161600
561.000000	77.661100
560.000000	77.182900
559.000000	76.599200
558.000000	76.018800
557.000000	75.485100
556.000000	74.926200
555.000000	74.351400
554.000000	73.752400
553.000000	73.135100
552.000000	72.526600
551.000000	71.837000
550.000000	71.103300
549.000000	70.456200
548.000000	69.697200
547.000000	68.893500
546.000000	68.079800
545.000000	67.206500
544.000000	66.296500
543.000000	65.325800
542.000000	64.322600
541.000000	63.241700
540.000000	62.152100
539.000000	61.065200
538.000000	59.896800
537.000000	58.667300
536.000000	57.475700
535.000000	56.258600
534.000000	55.050200
533.000000	53.810300
532.000000	52.584700
531.000000	51.372100
530.000000	50.179800
529.000000	49.068100
528.000000	47.969100
527.000000	46.896800
526.000000	45.918600
525.000000	44.987600
524.000000	44.132100
523.000000	43.322100
522.000000	42.564300
521.000000	41.868700
520.000000	41.232900
519.000000	40.655500
518.000000	40.122100
517.000000	39.627600
516.000000	39.182200
515.000000	38.720600
514.000000	38.311600
513.000000	37.940500
512.000000	37.523800
511.000000	37.126600
510.000000	36.748300
509.000000	36.344200
508.000000	35.950600
507.000000	35.512900
506.000000	35.112000
505.000000	34.657500
504.000000	34.185400
503.000000	33.704600
502.000000	33.171200
501.000000	32.645400
500.000000	32.201700
499.000000	31.720600
498.000000	31.255600
497.000000	30.785500
496.000000	30.331400
495.000000	29.966400
494.000000	29.569000
493.000000	29.223200
492.000000	28.955000
491.000000	28.682900
490.000000	28.483900
489.000000	28.316700
488.000000	28.172900
487.000000	28.041200
486.000000	27.971200
485.000000	27.954500
484.000000	27.965700
483.000000	27.944700
482.000000	27.950700
481.000000	27.951800
480.000000	27.948300
479.000000	27.992200
478.000000	28.017200
477.000000	28.011900
476.000000	28.055800
475.000000	28.042300
474.000000	28.018300
473.000000	28.021600
472.000000	27.986300
471.000000	27.943700
470.000000	27.919600
469.000000	27.868500
468.000000	27.804400
467.000000	27.733500
466.000000	27.651200
465.000000	27.594600
464.000000	27.504200
463.000000	27.371100
462.000000	27.276400
461.000000	27.140400
460.000000	27.007200
459.000000	26.879700
458.000000	26.708200
457.000000	26.560800
456.000000	26.373300
455.000000	26.221300
454.000000	26.029500
453.000000	25.801600
452.000000	25.634800
451.000000	25.390800
450.000000	25.209300
449.000000	24.949400
448.000000	24.672700
447.000000	24.425000
446.000000	24.119900
445.000000	23.808400
444.000000	23.526000
443.000000	23.199400
442.000000	22.849400
441.000000	22.497000
440.000000	22.129600
439.000000	21.737300
438.000000	21.315700
437.000000	20.893000
436.000000	20.484000
435.000000	20.029400
434.000000	19.597800
433.000000	19.083100
432.000000	18.578200
431.000000	18.091000
430.000000	17.613300
429.000000	17.080500
428.000000	16.572800
427.000000	16.077300
426.000000	15.558700
425.000000	15.059100
424.000000	14.562800
423.000000	14.059300
422.000000	13.571700
421.000000	13.094900
420.000000	12.648600
419.000000	12.208100
418.000000	11.792900
417.000000	11.407900
416.000000	11.019400
415.000000	10.662400
414.000000	10.344100
413.000000	10.024900
412.000000	9.727200
411.000000	9.455300
410.000000	9.215300
409.000000	9.017200
408.000000	8.797800
407.000000	8.587500
406.000000	8.419400
405.000000	8.267300
404.000000	8.122900
403.000000	7.993700
402.000000	7.888600
401.000000	7.784500
400.000000	7.678000
399.000000	7.568400
398.000000	7.486700
397.000000	7.397600
396.000000	7.331800
395.000000	7.277300
394.000000	7.199600
393.000000	7.134600
392.000000	7.061700
391.000000	7.027500
390.000000	6.980400
389.000000	6.935700
388.000000	6.879400
387.000000	6.843200
386.000000	6.804000
385.000000	6.752800
384.000000	6.704100
383.000000	6.642500
382.000000	6.610000
381.000000	6.563600
380.000000	6.531000
379.000000	6.513200
378.000000	6.454900
377.000000	6.416000
376.000000	6.461900
375.000000	6.481700
374.000000	6.290500
373.000000	6.197600
372.000000	6.334300
371.000000	6.254300
370.000000	6.331800
369.000000	6.296700
368.000000	6.217800
367.000000	6.174900
366.000000	6.065400
365.000000	6.036500
364.000000	6.116900
363.000000	6.045500
362.000000	5.973100
361.000000	6.013400
360.000000	6.031400
359.000000	6.092400
358.000000	6.168100
357.000000	6.058900
356.000000	5.961900
355.000000	5.937300
354.000000	5.843500
353.000000	5.755000
352.000000	5.738900
351.000000	5.794400
350.000000	5.879000
349.000000	5.743700
348.000000	5.612800
347.000000	5.730100
346.000000	5.811100
345.000000	5.781900
344.000000	5.770300
343.000000	5.770600
342.000000	5.733500
341.000000	5.700500
340.000000	5.626300
339.000000	5.549700
338.000000	5.620600
337.000000	5.820200
336.000000	6.012900
335.000000	5.881600
334.000000	5.692800
333.000000	5.772600
332.000000	5.823300
331.000000	5.721300
330.000000	5.863100
329.000000	5.933500
328.000000	5.889600
327.000000	5.973700
326.000000	6.032800
325.000000	5.898900
324.000000	5.720700
323.000000	5.877400
322.000000	5.941600
321.000000	6.129400
320.000000	6.544900
319.000000	6.319000
318.000000	6.117500
317.000000	6.085600
316.000000	5.765100
315.000000	5.535400
314.000000	5.523800
313.000000	5.548200
312.000000	5.561300
311.000000	5.573700
310.000000	5.556900
309.000000	5.548300
308.000000	5.566700
307.000000	5.558400
306.000000	5.576800
305.000000	5.559800
304.000000	5.558800
303.000000	5.555800
302.000000	5.553000
301.000000	5.590000
300.000000	5.597600
299.000000	5.603700
298.000000	5.601000
297.000000	5.597100
296.000000	5.570900
295.000000	5.611300
294.000000	5.615700
293.000000	5.632600
292.000000	5.629100
291.000000	5.622100
290.000000	5.660300
289.000000	5.639600
288.000000	5.639900
287.000000	5.652800
286.000000	5.665900
285.000000	5.669000
284.000000	5.632200
283.000000	5.643800
282.000000	5.707500
281.000000	5.697100
280.000000	5.663600
279.000000	5.707400
278.000000	5.782900
277.000000	5.759700
276.000000	5.752500
275.000000	5.769300
274.000000	5.765200
273.000000	5.795000
272.000000	5.771100
271.000000	5.808200
270.000000	5.846300
269.000000	5.805300
268.000000	5.883400
267.000000	5.907900
266.000000	5.916500
265.000000	5.946400
264.000000	5.915900
263.000000	5.937000
262.000000	6.002200
261.000000	5.983900
260.000000	5.989600
259.000000	6.012500
258.000000	6.094600
257.000000	6.079200
256.000000	6.084100
255.000000	6.114600
254.000000	6.143500
253.000000	6.165500
252.000000	6.210800
251.000000	6.199000
250.000000	6.211800
