PE UV       SUBTECH     SPECTRUM    ASCII       PEDS        4.00        
   -1
CICIMAUCR0233-2.Sample.ASC
24/06/13
16:53:07.00
24/06/13
16:53:07.00
Vinicio Soto Monge
C. resplendens. Sex F. Dorsal.
250,000000
1
Lambda 1050
1050L1511233
PerkinElmer UV WinLab 6.3.2.0749 / 2.02.05 Lambda 900 UV/VIS/NIR, Aug  7 2015 09:38:08

0
0
3350/servo 860,8/2
0
0
UV/VIS
1
1
1
DoubleDePol,CommonBeamDepol,RBeamAtt,SBeamAtt,60mm sphere, WB InGaAs Detector
0
0
0
0
Program
Program
3350/servo 860,8/2
3350/0,2 860,8/0,2
3350/0,2 860,8/0,2
0
15.00
 
 
 
0
 
860,8
319,2
860,8
Front
100
on
S:100 R:100
0
0
0
0
 
0
 
 
 
0
 
 
0
0
0
0
0
 
 
 
 
0
0


0
0
#HDR
-1
-1
#GR
nm
%R
1.0
0.0
2500,000000
-1,000000
2251
8
91,540700
5,380200
#DATA
2482.000000	6.283694
2481.000000	6.303935
2480.000000	6.316190
2479.000000	6.313236
2478.000000	6.338619
2477.000000	6.336431
2476.000000	6.353828
2475.000000	6.394748
2474.000000	6.329210
2473.000000	6.317612
2472.000000	6.320566
2471.000000	6.356125
2470.000000	6.408315
2469.000000	6.343215
2468.000000	6.431292
2467.000000	6.393982
2466.000000	6.387965
2465.000000	6.413567
2464.000000	6.410613
2463.000000	6.421117
2462.000000	6.370677
2461.000000	6.433699
2460.000000	6.474510
2459.000000	6.454706
2458.000000	6.488296
2457.000000	6.508319
2456.000000	6.544863
2455.000000	6.564666
2454.000000	6.588409
2453.000000	6.610729
2452.000000	6.607338
2451.000000	6.630205
2450.000000	6.667515
2449.000000	6.684692
2448.000000	6.712812
2447.000000	6.728895
2446.000000	6.758874
2445.000000	6.798044
2444.000000	6.822662
2443.000000	6.847718
2442.000000	6.872554
2441.000000	6.882073
2440.000000	6.915226
2439.000000	6.948487
2438.000000	6.982733
2437.000000	7.002975
2436.000000	6.997613
2435.000000	7.046959
2434.000000	7.065012
2433.000000	7.097617
2432.000000	7.135255
2431.000000	7.150026
2430.000000	7.154512
2429.000000	7.184710
2428.000000	7.213048
2427.000000	7.237228
2426.000000	7.267754
2425.000000	7.269942
2424.000000	7.292153
2423.000000	7.321476
2422.000000	7.318412
2421.000000	7.346641
2420.000000	7.368086
2419.000000	7.378699
2418.000000	7.411741
2417.000000	7.436797
2416.000000	7.443252
2415.000000	7.454631
2414.000000	7.474982
2413.000000	7.490300
2412.000000	7.503648
2411.000000	7.525203
2410.000000	7.545882
2409.000000	7.549273
2408.000000	7.560871
2407.000000	7.589866
2406.000000	7.597415
2405.000000	7.606387
2404.000000	7.611092
2403.000000	7.630567
2402.000000	7.644791
2401.000000	7.649058
2400.000000	7.682429
2399.000000	7.700482
2398.000000	7.714706
2397.000000	7.732650
2396.000000	7.743481
2395.000000	7.753219
2394.000000	7.771601
2393.000000	7.796547
2392.000000	7.817445
2391.000000	7.818210
2390.000000	7.830574
2389.000000	7.830027
2388.000000	7.844141
2387.000000	7.852347
2386.000000	7.860444
2385.000000	7.877293
2384.000000	7.883311
2383.000000	7.880248
2382.000000	7.896769
2381.000000	7.890642
2380.000000	7.906616
2379.000000	7.908695
2378.000000	7.900598
2377.000000	7.913947
2376.000000	7.911759
2375.000000	7.907382
2374.000000	7.892830
2373.000000	7.886046
2372.000000	7.897754
2371.000000	7.907491
2370.000000	7.902677
2369.000000	7.892611
2368.000000	7.882655
2367.000000	7.875980
2366.000000	7.876199
2365.000000	7.866243
2364.000000	7.836264
2363.000000	7.830136
2362.000000	7.835279
2361.000000	7.813615
2360.000000	7.801470
2359.000000	7.792498
2358.000000	7.778712
2357.000000	7.762519
2356.000000	7.752891
2355.000000	7.745998
2354.000000	7.732868
2353.000000	7.728382
2352.000000	7.727288
2351.000000	7.727617
2350.000000	7.726632
2349.000000	7.717988
2348.000000	7.716894
2347.000000	7.743153
2346.000000	7.757377
2345.000000	7.760987
2344.000000	7.788450
2343.000000	7.808144
2342.000000	7.822806
2341.000000	7.832981
2340.000000	7.855739
2339.000000	7.876199
2338.000000	7.890751
2337.000000	7.904865
2336.000000	7.914713
2335.000000	7.912306
2334.000000	7.906397
2333.000000	7.920840
2332.000000	7.938346
2331.000000	7.939659
2330.000000	7.924013
2329.000000	7.893158
2328.000000	7.889219
2327.000000	7.877293
2326.000000	7.867118
2325.000000	7.855411
2324.000000	7.833091
2323.000000	7.804971
2322.000000	7.777181
2321.000000	7.741840
2320.000000	7.716456
2319.000000	7.685602
2318.000000	7.643369
2317.000000	7.604418
2316.000000	7.545444
2315.000000	7.504086
2314.000000	7.469074
2313.000000	7.412398
2312.000000	7.363162
2311.000000	7.341061
2310.000000	7.297186
2309.000000	7.269942
2308.000000	7.246747
2307.000000	7.211188
2306.000000	7.191931
2305.000000	7.174425
2304.000000	7.176504
2303.000000	7.178364
2302.000000	7.186241
2301.000000	7.205279
2300.000000	7.232414
2299.000000	7.269395
2298.000000	7.294341
2297.000000	7.316115
2296.000000	7.361083
2295.000000	7.402222
2294.000000	7.438329
2293.000000	7.464478
2292.000000	7.495333
2291.000000	7.529689
2290.000000	7.557370
2289.000000	7.597525
2288.000000	7.606715
2287.000000	7.615687
2286.000000	7.620501
2285.000000	7.618422
2284.000000	7.616344
2283.000000	7.618860
2282.000000	7.619735
2281.000000	7.578924
2280.000000	7.569734
2279.000000	7.557479
2278.000000	7.537785
2277.000000	7.496646
2276.000000	7.477717
2275.000000	7.455507
2274.000000	7.432968
2273.000000	7.432092
2272.000000	7.415024
2271.000000	7.396971
2270.000000	7.388327
2269.000000	7.400362
2268.000000	7.393579
2267.000000	7.393798
2266.000000	7.440517
2265.000000	7.466338
2264.000000	7.511745
2263.000000	7.546210
2262.000000	7.620282
2261.000000	7.686258
2260.000000	7.792389
2259.000000	7.875324
2258.000000	7.971607
2257.000000	8.069094
2256.000000	8.169207
2255.000000	8.295141
2254.000000	8.398974
2253.000000	8.519876
2252.000000	8.615065
2251.000000	8.726010
2250.000000	8.832140
2249.000000	8.912012
2248.000000	9.012234
2247.000000	9.098232
2246.000000	9.199002
2245.000000	9.267932
2244.000000	9.335768
2243.000000	9.408418
2242.000000	9.477458
2241.000000	9.540479
2240.000000	9.580525
2239.000000	9.654925
2238.000000	9.659630
2237.000000	9.708756
2236.000000	9.783923
2235.000000	9.800992
2234.000000	9.844538
2233.000000	9.879003
2232.000000	9.882067
2231.000000	9.905700
2230.000000	9.940712
2229.000000	9.965658
2228.000000	9.955701
2227.000000	9.982617
2226.000000	9.983164
2225.000000	9.979225
2224.000000	9.968175
2223.000000	9.985024
2222.000000	9.986009
2221.000000	9.956577
2220.000000	9.957780
2219.000000	9.949027
2218.000000	9.959640
2217.000000	9.942353
2216.000000	9.885240
2215.000000	9.899026
2214.000000	9.877143
2213.000000	9.872001
2212.000000	9.847054
2211.000000	9.845304
2210.000000	9.829220
2209.000000	9.837973
2208.000000	9.792020
2207.000000	9.773420
2206.000000	9.779984
2205.000000	9.771341
2204.000000	9.753069
2203.000000	9.761056
2202.000000	9.754053
2201.000000	9.751099
2200.000000	9.745519
2199.000000	9.721667
2198.000000	9.724403
2197.000000	9.705146
2196.000000	9.699347
2195.000000	9.698800
2194.000000	9.674182
2193.000000	9.646391
2192.000000	9.655035
2191.000000	9.662475
2190.000000	9.635997
2189.000000	9.630526
2188.000000	9.636982
2187.000000	9.622977
2186.000000	9.603939
2185.000000	9.604048
2184.000000	9.580525
2183.000000	9.586542
2182.000000	9.587199
2181.000000	9.570130
2180.000000	9.554156
2179.000000	9.566410
2178.000000	9.552187
2177.000000	9.558533
2176.000000	9.538619
2175.000000	9.532164
2174.000000	9.541026
2173.000000	9.534899
2172.000000	9.535009
2171.000000	9.528116
2170.000000	9.548576
2169.000000	9.554265
2168.000000	9.537744
2167.000000	9.559408
2166.000000	9.562800
2165.000000	9.571224
2164.000000	9.569036
2163.000000	9.593107
2162.000000	9.581072
2161.000000	9.596718
2160.000000	9.629760
2159.000000	9.651205
2158.000000	9.656019
2157.000000	9.663022
2156.000000	9.688296
2155.000000	9.689937
2154.000000	9.707881
2153.000000	9.735344
2152.000000	9.754491
2151.000000	9.758758
2150.000000	9.785893
2149.000000	9.818498
2148.000000	9.824297
2147.000000	9.848805
2146.000000	9.865873
2145.000000	9.875939
2144.000000	9.882614
2143.000000	9.912593
2142.000000	9.917298
2141.000000	9.927692
2140.000000	9.952857
2139.000000	9.977256
2138.000000	9.979553
2137.000000	9.971129
2136.000000	9.969816
2135.000000	9.988197
2134.000000	9.993558
2133.000000	9.989182
2132.000000	9.987103
2131.000000	10.013362
2130.000000	10.016535
2129.000000	10.001983
2128.000000	9.996513
2127.000000	9.999248
2126.000000	9.988416
2125.000000	9.986228
2124.000000	9.961610
2123.000000	9.965330
2122.000000	9.954607
2121.000000	9.937101
2120.000000	9.942791
2119.000000	9.909967
2118.000000	9.881629
2117.000000	9.878128
2116.000000	9.860184
2115.000000	9.828345
2114.000000	9.815872
2113.000000	9.801320
2112.000000	9.794208
2111.000000	9.763025
2110.000000	9.717291
2109.000000	9.705255
2108.000000	9.700769
2107.000000	9.678121
2106.000000	9.654159
2105.000000	9.636653
2104.000000	9.610285
2103.000000	9.585120
2102.000000	9.565863
2101.000000	9.556563
2100.000000	9.529319
2099.000000	9.506343
2098.000000	9.486101
2097.000000	9.463890
2096.000000	9.437303
2095.000000	9.420453
2094.000000	9.405354
2093.000000	9.399774
2092.000000	9.371108
2091.000000	9.341457
2090.000000	9.320559
2089.000000	9.303600
2088.000000	9.308196
2087.000000	9.300099
2086.000000	9.269135
2085.000000	9.243752
2084.000000	9.220228
2083.000000	9.203269
2082.000000	9.179636
2081.000000	9.147249
2080.000000	9.141013
2079.000000	9.120006
2078.000000	9.092981
2077.000000	9.074490
2076.000000	9.054686
2075.000000	9.034773
2074.000000	8.997025
2073.000000	8.966280
2072.000000	8.943851
2071.000000	8.912887
2070.000000	8.867043
2069.000000	8.854460
2068.000000	8.847677
2067.000000	8.814306
2066.000000	8.779622
2065.000000	8.747345
2064.000000	8.731152
2063.000000	8.706643
2062.000000	8.667364
2061.000000	8.642637
2060.000000	8.617910
2059.000000	8.596465
2058.000000	8.585086
2057.000000	8.563969
2056.000000	8.554778
2055.000000	8.547557
2054.000000	8.522173
2053.000000	8.513420
2052.000000	8.507403
2051.000000	8.508825
2050.000000	8.523486
2049.000000	8.538257
2048.000000	8.563641
2047.000000	8.568674
2046.000000	8.581147
2045.000000	8.590119
2044.000000	8.595918
2043.000000	8.630054
2042.000000	8.666927
2041.000000	8.657736
2040.000000	8.665176
2039.000000	8.703252
2038.000000	8.711129
2037.000000	8.704783
2036.000000	8.728854
2035.000000	8.758177
2034.000000	8.760584
2033.000000	8.762772
2032.000000	8.761569
2031.000000	8.770869
2030.000000	8.776668
2029.000000	8.778200
2028.000000	8.780278
2027.000000	8.772948
2026.000000	8.768352
2025.000000	8.759271
2024.000000	8.761131
2023.000000	8.772291
2022.000000	8.747564
2021.000000	8.750846
2020.000000	8.754457
2019.000000	8.738701
2018.000000	8.741984
2017.000000	8.713974
2016.000000	8.687277
2015.000000	8.675242
2014.000000	8.651718
2013.000000	8.647889
2012.000000	8.638151
2011.000000	8.610688
2010.000000	8.588259
2009.000000	8.579615
2008.000000	8.548761
2007.000000	8.535740
2006.000000	8.495586
2005.000000	8.472500
2004.000000	8.447663
2003.000000	8.414949
2002.000000	8.384422
2001.000000	8.362540
2000.000000	8.332232
1999.000000	8.300065
1998.000000	8.280808
1997.000000	8.244593
1996.000000	8.213629
1995.000000	8.191856
1994.000000	8.157609
1993.000000	8.127521
1992.000000	8.082771
1991.000000	8.028830
1990.000000	7.991521
1989.000000	7.974562
1988.000000	7.940425
1987.000000	7.893487
1986.000000	7.862632
1985.000000	7.821602
1984.000000	7.783089
1983.000000	7.752016
1982.000000	7.712408
1981.000000	7.657155
1980.000000	7.641618
1979.000000	7.597306
1978.000000	7.563388
1977.000000	7.522139
1976.000000	7.481656
1975.000000	7.455288
1974.000000	7.410210
1973.000000	7.371477
1972.000000	7.332526
1971.000000	7.333074
1970.000000	7.281978
1969.000000	7.249044
1968.000000	7.201559
1967.000000	7.179458
1966.000000	7.158998
1965.000000	7.114357
1964.000000	7.092256
1963.000000	7.083831
1962.000000	7.047615
1961.000000	7.010852
1960.000000	6.961398
1959.000000	6.972339
1958.000000	6.909974
1957.000000	6.894218
1956.000000	6.869600
1955.000000	6.832947
1954.000000	6.811174
1953.000000	6.783821
1952.000000	6.774083
1951.000000	6.719814
1950.000000	6.700776
1949.000000	6.715109
1948.000000	6.662810
1947.000000	6.644429
1946.000000	6.634363
1945.000000	6.619482
1944.000000	6.607119
1943.000000	6.564448
1942.000000	6.584580
1941.000000	6.580313
1940.000000	6.546504
1939.000000	6.572654
1938.000000	6.551975
1937.000000	6.560728
1936.000000	6.532827
1935.000000	6.540705
1934.000000	6.568277
1933.000000	6.569699
1932.000000	6.559196
1931.000000	6.585346
1930.000000	6.592457
1929.000000	6.603180
1928.000000	6.629767
1927.000000	6.636113
1926.000000	6.687209
1925.000000	6.710842
1924.000000	6.710405
1923.000000	6.735788
1922.000000	6.766643
1921.000000	6.830649
1920.000000	6.888857
1919.000000	6.935576
1918.000000	6.959538
1917.000000	7.011947
1916.000000	7.068732
1915.000000	7.088426
1914.000000	7.144227
1913.000000	7.220159
1912.000000	7.316552
1911.000000	7.383513
1910.000000	7.473669
1909.000000	7.525093
1908.000000	7.595227
1907.000000	7.666236
1906.000000	7.782870
1905.000000	7.885937
1904.000000	8.030690
1903.000000	8.122925
1902.000000	8.250829
1901.000000	8.392081
1900.000000	8.507731
1899.000000	8.673273
1898.000000	8.839033
1897.000000	9.034992
1896.000000	9.206770
1895.000000	9.336205
1894.000000	9.494307
1893.000000	9.681731
1892.000000	9.880207
1891.000000	10.184265
1890.000000	10.461189
1889.000000	10.719951
1888.000000	10.975539
1887.000000	11.276316
1886.000000	11.555209
1885.000000	11.871084
1884.000000	12.185209
1883.000000	12.562683
1882.000000	12.937532
1881.000000	13.297172
1880.000000	13.630225
1879.000000	13.961637
1878.000000	14.285718
1877.000000	14.660567
1876.000000	15.004124
1875.000000	15.328205
1874.000000	15.690799
1873.000000	16.029870
1872.000000	16.386337
1871.000000	16.729237
1870.000000	17.056382
1869.000000	17.386809
1868.000000	17.704216
1867.000000	17.922604
1866.000000	18.137163
1865.000000	18.292310
1864.000000	18.456102
1863.000000	18.591336
1862.000000	18.704359
1861.000000	18.858851
1860.000000	19.037631
1859.000000	19.198906
1858.000000	19.364557
1857.000000	19.496290
1856.000000	19.577365
1855.000000	19.661941
1854.000000	19.747174
1853.000000	19.858228
1852.000000	19.918624
1851.000000	19.937990
1850.000000	19.960967
1849.000000	19.983834
1848.000000	20.030335
1847.000000	20.115677
1846.000000	20.190734
1845.000000	20.193798
1844.000000	20.176510
1843.000000	20.126071
1842.000000	20.105283
1841.000000	20.146422
1840.000000	20.202223
1839.000000	20.231108
1838.000000	20.226293
1837.000000	20.209772
1836.000000	20.221807
1835.000000	20.237125
1834.000000	20.214149
1833.000000	20.167757
1832.000000	20.101234
1831.000000	20.057360
1830.000000	20.033508
1829.000000	20.034493
1828.000000	20.010531
1827.000000	19.969392
1826.000000	19.936021
1825.000000	19.913591
1824.000000	19.871686
1823.000000	19.823654
1822.000000	19.759975
1821.000000	19.752317
1820.000000	19.778576
1819.000000	19.793237
1818.000000	19.757678
1817.000000	19.705160
1816.000000	19.668397
1815.000000	19.646405
1814.000000	19.636886
1813.000000	19.616207
1812.000000	19.600889
1811.000000	19.583492
1810.000000	19.568722
1809.000000	19.535788
1808.000000	19.489507
1807.000000	19.455151
1806.000000	19.423859
1805.000000	19.387971
1804.000000	19.367840
1803.000000	19.350224
1802.000000	19.310835
1801.000000	19.270243
1800.000000	19.243765
1799.000000	19.203830
1798.000000	19.157657
1797.000000	19.125928
1796.000000	19.083366
1795.000000	19.049448
1794.000000	19.027128
1793.000000	18.999009
1792.000000	18.966622
1791.000000	18.920997
1790.000000	18.878764
1789.000000	18.844080
1788.000000	18.816398
1787.000000	18.773946
1786.000000	18.743092
1785.000000	18.726133
1784.000000	18.682149
1783.000000	18.636961
1782.000000	18.619236
1781.000000	18.581817
1780.000000	18.533785
1779.000000	18.502711
1778.000000	18.468246
1777.000000	18.431374
1776.000000	18.404349
1775.000000	18.369556
1774.000000	18.309707
1773.000000	18.257955
1772.000000	18.226663
1771.000000	18.198762
1770.000000	18.152590
1769.000000	18.097337
1768.000000	18.045256
1767.000000	18.001381
1766.000000	17.966588
1765.000000	17.930701
1764.000000	17.899299
1763.000000	17.873915
1762.000000	17.858379
1761.000000	17.873697
1760.000000	17.900722
1759.000000	17.939125
1758.000000	17.968120
1757.000000	18.015605
1756.000000	18.074032
1755.000000	18.119000
1754.000000	18.180162
1753.000000	18.238807
1752.000000	18.261675
1751.000000	18.278196
1750.000000	18.305221
1749.000000	18.346798
1748.000000	18.344719
1747.000000	18.337717
1746.000000	18.317257
1745.000000	18.290341
1744.000000	18.271522
1743.000000	18.233446
1742.000000	18.169549
1741.000000	18.102151
1740.000000	18.019435
1739.000000	17.937703
1738.000000	17.843499
1737.000000	17.736930
1736.000000	17.649619
1735.000000	17.552351
1734.000000	17.508914
1733.000000	17.462194
1732.000000	17.439655
1731.000000	17.430355
1730.000000	17.457380
1729.000000	17.482983
1728.000000	17.548084
1727.000000	17.589004
1726.000000	17.652792
1725.000000	17.709030
1724.000000	17.773255
1723.000000	17.832776
1722.000000	17.874134
1721.000000	17.902691
1720.000000	17.942298
1719.000000	17.992519
1718.000000	18.025452
1717.000000	18.075454
1716.000000	18.126550
1715.000000	18.164735
1714.000000	18.226991
1713.000000	18.288700
1712.000000	18.344282
1711.000000	18.386077
1710.000000	18.418135
1709.000000	18.444941
1708.000000	18.466168
1707.000000	18.468028
1706.000000	18.478312
1705.000000	18.474045
1704.000000	18.434875
1703.000000	18.388047
1702.000000	18.350080
1701.000000	18.298766
1700.000000	18.225131
1699.000000	18.153247
1698.000000	18.070640
1697.000000	17.974685
1696.000000	17.913960
1695.000000	17.843389
1694.000000	17.802250
1693.000000	17.804000
1692.000000	17.821616
1691.000000	17.860020
1690.000000	17.929935
1689.000000	18.013964
1688.000000	18.104558
1687.000000	18.170753
1686.000000	18.227429
1685.000000	18.270865
1684.000000	18.310035
1683.000000	18.391001
1682.000000	18.460369
1681.000000	18.569782
1680.000000	18.748891
1679.000000	18.993976
1678.000000	19.239170
1677.000000	19.487209
1676.000000	19.770589
1675.000000	20.017534
1674.000000	20.270496
1673.000000	20.467111
1672.000000	20.671385
1671.000000	20.855855
1670.000000	20.970630
1669.000000	21.085513
1668.000000	21.203351
1667.000000	21.269983
1666.000000	21.347010
1665.000000	21.424256
1664.000000	21.478415
1663.000000	21.519335
1662.000000	21.556536
1661.000000	21.606100
1660.000000	21.638267
1659.000000	21.669231
1658.000000	21.677437
1657.000000	21.694943
1656.000000	21.706650
1655.000000	21.715075
1654.000000	21.718576
1653.000000	21.709167
1652.000000	21.691442
1651.000000	21.666168
1650.000000	21.655773
1649.000000	21.637939
1648.000000	21.616932
1647.000000	21.576230
1646.000000	21.553800
1645.000000	21.503580
1644.000000	21.498985
1643.000000	21.451390
1642.000000	21.442528
1641.000000	21.378630
1640.000000	21.349745
1639.000000	21.288802
1638.000000	21.268342
1637.000000	21.221295
1636.000000	21.164181
1635.000000	21.113085
1634.000000	21.070524
1633.000000	21.025774
1632.000000	20.987807
1631.000000	20.911000
1630.000000	20.864061
1629.000000	20.810011
1628.000000	20.739221
1627.000000	20.701911
1626.000000	20.652129
1625.000000	20.586262
1624.000000	20.518098
1623.000000	20.459124
1622.000000	20.428488
1621.000000	20.380675
1620.000000	20.308025
1619.000000	20.266776
1618.000000	20.217650
1617.000000	20.182638
1616.000000	20.125852
1615.000000	20.072787
1614.000000	20.011844
1613.000000	19.966219
1612.000000	19.928143
1611.000000	19.862824
1610.000000	19.808992
1609.000000	19.769604
1608.000000	19.710083
1607.000000	19.663583
1606.000000	19.615441
1605.000000	19.575177
1604.000000	19.535898
1603.000000	19.469156
1602.000000	19.427251
1601.000000	19.376811
1600.000000	19.330749
1599.000000	19.273197
1598.000000	19.223414
1597.000000	19.168927
1596.000000	19.119363
1595.000000	19.071440
1594.000000	19.027675
1593.000000	18.986426
1592.000000	18.928765
1591.000000	18.870886
1590.000000	18.838172
1589.000000	18.785544
1588.000000	18.735323
1587.000000	18.684446
1586.000000	18.633569
1585.000000	18.588819
1584.000000	18.562670
1583.000000	18.530174
1582.000000	18.482470
1581.000000	18.427326
1580.000000	18.384545
1579.000000	18.350190
1578.000000	18.333012
1577.000000	18.279400
1576.000000	18.261456
1575.000000	18.210688
1574.000000	18.160468
1573.000000	18.151715
1572.000000	18.116046
1571.000000	18.080706
1570.000000	18.075345
1569.000000	18.047335
1568.000000	18.018778
1567.000000	17.993394
1566.000000	17.959476
1565.000000	17.925668
1564.000000	17.913960
1563.000000	17.887592
1562.000000	17.872602
1561.000000	17.872274
1560.000000	17.826102
1559.000000	17.795138
1558.000000	17.770958
1557.000000	17.745246
1556.000000	17.697323
1555.000000	17.672158
1554.000000	17.629159
1553.000000	17.593271
1552.000000	17.559791
1551.000000	17.531125
1550.000000	17.499723
1549.000000	17.457380
1548.000000	17.406394
1547.000000	17.363723
1546.000000	17.334510
1545.000000	17.307813
1544.000000	17.270722
1543.000000	17.249496
1542.000000	17.207809
1541.000000	17.167327
1540.000000	17.133409
1539.000000	17.099162
1538.000000	17.067651
1537.000000	17.027497
1536.000000	16.999050
1535.000000	16.956160
1534.000000	16.921366
1533.000000	16.885479
1532.000000	16.830663
1531.000000	16.795870
1530.000000	16.757466
1529.000000	16.704401
1528.000000	16.654836
1527.000000	16.610524
1526.000000	16.569057
1525.000000	16.532950
1524.000000	16.484809
1523.000000	16.434041
1522.000000	16.390714
1521.000000	16.332944
1520.000000	16.276049
1519.000000	16.236332
1518.000000	16.196396
1517.000000	16.152631
1516.000000	16.093220
1515.000000	16.025493
1514.000000	15.978446
1513.000000	15.932602
1512.000000	15.876145
1511.000000	15.823298
1510.000000	15.761261
1509.000000	15.699662
1508.000000	15.645065
1507.000000	15.607098
1506.000000	15.552501
1505.000000	15.480945
1504.000000	15.427223
1503.000000	15.375252
1502.000000	15.317701
1501.000000	15.268793
1500.000000	15.212774
1499.000000	15.148220
1498.000000	15.101392
1497.000000	15.049530
1496.000000	14.993401
1495.000000	14.957185
1494.000000	14.908606
1493.000000	14.849742
1492.000000	14.807290
1491.000000	14.780484
1490.000000	14.740657
1489.000000	14.694594
1488.000000	14.646781
1487.000000	14.601484
1486.000000	14.563955
1485.000000	14.530475
1484.000000	14.494478
1483.000000	14.456621
1482.000000	14.417561
1481.000000	14.384846
1480.000000	14.346989
1479.000000	14.312634
1478.000000	14.282108
1477.000000	14.242062
1476.000000	14.230136
1475.000000	14.206284
1474.000000	14.169631
1473.000000	14.158799
1472.000000	14.143810
1471.000000	14.138667
1470.000000	14.122474
1469.000000	14.112080
1468.000000	14.102452
1467.000000	14.100920
1466.000000	14.090635
1465.000000	14.075208
1464.000000	14.065361
1463.000000	14.053544
1462.000000	14.067658
1461.000000	14.088009
1460.000000	14.094355
1459.000000	14.094136
1458.000000	14.111971
1457.000000	14.134400
1456.000000	14.160222
1455.000000	14.181995
1454.000000	14.226964
1453.000000	14.276090
1452.000000	14.312634
1451.000000	14.337908
1450.000000	14.378829
1449.000000	14.417342
1448.000000	14.447431
1447.000000	14.470626
1446.000000	14.523910
1445.000000	14.598530
1444.000000	14.672055
1443.000000	14.703347
1442.000000	14.758601
1441.000000	14.835518
1440.000000	14.897008
1439.000000	14.966486
1438.000000	15.021411
1437.000000	15.123712
1436.000000	15.179294
1435.000000	15.253257
1434.000000	15.330502
1433.000000	15.409498
1432.000000	15.527008
1431.000000	15.619681
1430.000000	15.706008
1429.000000	15.803385
1428.000000	15.899231
1427.000000	16.021554
1426.000000	16.156898
1425.000000	16.271563
1424.000000	16.392136
1423.000000	16.541047
1422.000000	16.698602
1421.000000	16.842261
1420.000000	16.992922
1419.000000	17.194242
1418.000000	17.358252
1417.000000	17.558368
1416.000000	17.714501
1415.000000	17.888577
1414.000000	18.132458
1413.000000	18.385202
1412.000000	18.610483
1411.000000	18.797689
1410.000000	19.031504
1409.000000	19.318823
1408.000000	19.616207
1407.000000	19.923548
1406.000000	20.226840
1405.000000	20.519082
1404.000000	20.856184
1403.000000	21.183766
1402.000000	21.519882
1401.000000	21.845824
1400.000000	22.240695
1399.000000	22.670469
1398.000000	23.032735
1397.000000	23.270271
1396.000000	23.602229
1395.000000	24.048306
1394.000000	24.475892
1393.000000	24.804678
1392.000000	25.151516
1391.000000	25.573194
1390.000000	25.989182
1389.000000	26.368626
1388.000000	26.800260
1387.000000	27.342839
1386.000000	27.799747
1385.000000	28.274162
1384.000000	28.739385
1383.000000	29.266865
1382.000000	29.802770
1381.000000	30.321715
1380.000000	30.783000
1379.000000	31.129620
1378.000000	31.413766
1377.000000	31.654255
1376.000000	31.899559
1375.000000	32.119260
1374.000000	32.332178
1373.000000	32.556365
1372.000000	32.848388
1371.000000	33.087893
1370.000000	33.403440
1369.000000	33.663624
1368.000000	33.899409
1367.000000	34.148432
1366.000000	34.367915
1365.000000	34.587616
1364.000000	34.765631
1363.000000	34.939707
1362.000000	35.109734
1361.000000	35.249674
1360.000000	35.448805
1359.000000	35.567737
1358.000000	35.645639
1357.000000	35.712819
1356.000000	35.860964
1355.000000	36.023770
1354.000000	36.217759
1353.000000	36.507156
1352.000000	36.754648
1351.000000	37.073040
1350.000000	37.434759
1349.000000	37.759497
1348.000000	38.095942
1347.000000	38.393654
1346.000000	38.702855
1345.000000	38.952098
1344.000000	39.229241
1343.000000	39.535706
1342.000000	39.825979
1341.000000	40.070736
1340.000000	40.339235
1339.000000	40.627319
1338.000000	40.889691
1337.000000	41.175697
1336.000000	41.433145
1335.000000	41.719698
1334.000000	41.989401
1333.000000	42.263152
1332.000000	42.505173
1331.000000	42.792820
1330.000000	43.019961
1329.000000	43.266906
1328.000000	43.502035
1327.000000	43.743399
1326.000000	43.998660
1325.000000	44.205560
1324.000000	44.420556
1323.000000	44.649886
1322.000000	44.857223
1321.000000	45.074080
1320.000000	45.273868
1319.000000	45.452867
1318.000000	45.633727
1317.000000	45.810538
1316.000000	45.975970
1315.000000	46.144357
1314.000000	46.316354
1313.000000	46.460232
1312.000000	46.613848
1311.000000	46.744487
1310.000000	46.901604
1309.000000	47.022724
1308.000000	47.137936
1307.000000	47.250522
1306.000000	47.376346
1305.000000	47.476788
1304.000000	47.585544
1303.000000	47.669245
1302.000000	47.733689
1301.000000	47.818375
1300.000000	47.894417
1299.000000	47.964113
1298.000000	48.017616
1297.000000	48.096721
1296.000000	48.135782
1295.000000	48.153507
1294.000000	48.214012
1293.000000	48.258105
1292.000000	48.295087
1291.000000	48.318392
1290.000000	48.348262
1289.000000	48.355702
1288.000000	48.372442
1287.000000	48.389182
1286.000000	48.379007
1285.000000	48.361719
1284.000000	48.345854
1283.000000	48.355045
1282.000000	48.325285
1281.000000	48.293774
1280.000000	48.290820
1279.000000	48.269922
1278.000000	48.249790
1277.000000	48.215325
1276.000000	48.182282
1275.000000	48.140049
1274.000000	48.129436
1273.000000	48.097159
1272.000000	48.091251
1271.000000	48.074182
1270.000000	48.052081
1269.000000	48.028448
1268.000000	47.992232
1267.000000	47.970130
1266.000000	47.950764
1265.000000	47.913673
1264.000000	47.888727
1263.000000	47.850870
1262.000000	47.808637
1261.000000	47.768920
1260.000000	47.753055
1259.000000	47.721763
1258.000000	47.676466
1257.000000	47.639375
1256.000000	47.614210
1255.000000	47.576900
1254.000000	47.527883
1253.000000	47.475037
1252.000000	47.426348
1251.000000	47.354902
1250.000000	47.294506
1249.000000	47.251725
1248.000000	47.183780
1247.000000	47.118241
1246.000000	47.036291
1245.000000	46.940883
1244.000000	46.859152
1243.000000	46.785517
1242.000000	46.700175
1241.000000	46.597436
1240.000000	46.489336
1239.000000	46.392177
1238.000000	46.291736
1237.000000	46.195562
1236.000000	46.091401
1235.000000	45.986036
1234.000000	45.877280
1233.000000	45.766445
1232.000000	45.646966
1231.000000	45.526283
1230.000000	45.405601
1229.000000	45.281636
1228.000000	45.157452
1227.000000	45.024406
1226.000000	44.879325
1225.000000	44.734571
1224.000000	44.598133
1223.000000	44.467385
1222.000000	44.322303
1221.000000	44.183568
1220.000000	44.046911
1219.000000	43.894280
1218.000000	43.755982
1217.000000	43.618341
1216.000000	43.487701
1215.000000	43.364503
1214.000000	43.250713
1213.000000	43.139878
1212.000000	43.027292
1211.000000	42.888447
1210.000000	42.776846
1209.000000	42.692926
1208.000000	42.583185
1207.000000	42.466222
1206.000000	42.389414
1205.000000	42.299368
1204.000000	42.217964
1203.000000	42.168400
1202.000000	42.114460
1201.000000	42.082511
1200.000000	42.044435
1199.000000	41.993121
1198.000000	41.945526
1197.000000	41.881082
1196.000000	41.786877
1195.000000	41.682498
1194.000000	41.549014
1193.000000	41.378330
1192.000000	41.171320
1191.000000	40.919342
1190.000000	40.654782
1189.000000	40.387377
1188.000000	40.111547
1187.000000	39.870182
1186.000000	39.710111
1185.000000	39.636147
1184.000000	39.641290
1183.000000	39.710767
1182.000000	39.879701
1181.000000	40.143495
1180.000000	40.443724
1179.000000	40.783014
1178.000000	41.141341
1177.000000	41.475379
1176.000000	41.783267
1175.000000	42.070038
1174.000000	42.319281
1173.000000	42.567429
1172.000000	42.796540
1171.000000	43.031668
1170.000000	43.270298
1169.000000	43.517024
1168.000000	43.780381
1167.000000	44.031593
1166.000000	44.292871
1165.000000	44.569029
1164.000000	44.836325
1163.000000	45.114672
1162.000000	45.410743
1161.000000	45.725743
1160.000000	46.024987
1159.000000	46.318761
1158.000000	46.615817
1157.000000	46.903245
1156.000000	47.209601
1155.000000	47.493528
1154.000000	47.727124
1153.000000	47.954922
1152.000000	48.176702
1151.000000	48.361172
1150.000000	48.507239
1149.000000	48.657791
1148.000000	48.817643
1147.000000	48.944562
1146.000000	49.120170
1145.000000	49.340199
1144.000000	49.576531
1143.000000	49.861224
1142.000000	50.160577
1141.000000	50.497897
1140.000000	50.848347
1139.000000	51.247595
1138.000000	51.619818
1137.000000	52.024317
1136.000000	52.475208
1135.000000	52.903231
1134.000000	53.392307
1133.000000	53.822191
1132.000000	54.202291
1131.000000	54.578672
1130.000000	54.915226
1129.000000	55.208562
1128.000000	55.477718
1127.000000	55.700373
1126.000000	55.888454
1125.000000	56.037365
1124.000000	56.167128
1123.000000	56.271618
1122.000000	56.392191
1121.000000	56.491647
1120.000000	56.550074
1119.000000	56.589681
1118.000000	56.628742
1117.000000	56.669881
1116.000000	56.699422
1115.000000	56.725025
1114.000000	56.730167
1113.000000	56.742203
1112.000000	56.748111
1111.000000	56.759381
1110.000000	56.777106
1109.000000	56.773714
1108.000000	56.756755
1107.000000	56.767477
1106.000000	56.780169
1105.000000	56.766164
1104.000000	56.779403
1103.000000	56.781154
1102.000000	56.777653
1101.000000	56.805881
1100.000000	56.792314
1099.000000	56.791439
1098.000000	56.770869
1097.000000	56.780716
1096.000000	56.759599
1095.000000	56.758396
1094.000000	56.743516
1093.000000	56.725353
1092.000000	56.698766
1091.000000	56.657955
1090.000000	56.649421
1089.000000	56.624584
1088.000000	56.602264
1087.000000	56.561890
1086.000000	56.536397
1085.000000	56.506090
1084.000000	56.476876
1083.000000	56.430267
1082.000000	56.391206
1081.000000	56.343612
1080.000000	56.314508
1079.000000	56.277636
1078.000000	56.240982
1077.000000	56.191199
1076.000000	56.154327
1075.000000	56.100496
1074.000000	56.050932
1073.000000	56.007386
1072.000000	55.963073
1071.000000	55.912743
1070.000000	55.875981
1069.000000	55.838561
1068.000000	55.772367
1067.000000	55.695668
1066.000000	55.664704
1065.000000	55.634178
1064.000000	55.544350
1063.000000	55.494020
1062.000000	55.452881
1061.000000	55.383622
1060.000000	55.309441
1059.000000	55.285151
1058.000000	55.201888
1057.000000	55.137662
1056.000000	55.071467
1055.000000	55.027812
1054.000000	54.961726
1053.000000	54.890717
1052.000000	54.811830
1051.000000	54.766096
1050.000000	54.701870
1049.000000	54.648477
1048.000000	54.574951
1047.000000	54.532390
1046.000000	54.476261
1045.000000	54.413458
1044.000000	54.363347
1043.000000	54.321223
1042.000000	54.251636
1041.000000	54.181940
1040.000000	54.143317
1039.000000	54.117387
1038.000000	54.054474
1037.000000	54.003160
1036.000000	53.931822
1035.000000	53.886197
1034.000000	53.811359
1033.000000	53.771642
1032.000000	53.706869
1031.000000	53.634110
1030.000000	53.583342
1029.000000	53.514521
1028.000000	53.466489
1027.000000	53.405765
1026.000000	53.338257
1025.000000	53.274469
1024.000000	53.200944
1023.000000	53.127637
1022.000000	53.072712
1021.000000	53.009252
1020.000000	52.943167
1019.000000	52.901043
1018.000000	52.836599
1017.000000	52.771826
1016.000000	52.737580
1015.000000	52.680029
1014.000000	52.642063
1013.000000	52.608035
1012.000000	52.571601
1011.000000	52.545889
1010.000000	52.523897
1009.000000	52.514925
1008.000000	52.495778
1007.000000	52.482320
1006.000000	52.464814
1005.000000	52.473020
1004.000000	52.468753
1003.000000	52.467330
1002.000000	52.459781
1001.000000	52.452231
1000.000000	52.465251
999.000000	52.479584
998.000000	52.472910
997.000000	52.484399
996.000000	52.506391
995.000000	52.517660
994.000000	52.543700
993.000000	52.583964
992.000000	52.627948
991.000000	52.668650
990.000000	52.716245
989.000000	52.769419
988.000000	52.803775
987.000000	52.869532
986.000000	52.948747
985.000000	53.026211
984.000000	53.104551
983.000000	53.182125
982.000000	53.272719
981.000000	53.366157
980.000000	53.471960
979.000000	53.569994
978.000000	53.665183
977.000000	53.782255
976.000000	53.893747
975.000000	54.003925
974.000000	54.119684
973.000000	54.237960
972.000000	54.360940
971.000000	54.482716
970.000000	54.605368
969.000000	54.722440
968.000000	54.844983
967.000000	54.985141
966.000000	55.111950
965.000000	55.253968
964.000000	55.391610
963.000000	55.512292
962.000000	55.658030
961.000000	55.805956
960.000000	55.957931
959.000000	56.109249
958.000000	56.267679
957.000000	56.425671
956.000000	56.593182
955.000000	56.767258
954.000000	56.941444
953.000000	57.125367
952.000000	57.312135
951.000000	57.500982
950.000000	57.690704
949.000000	57.900120
948.000000	58.099251
947.000000	58.289958
946.000000	58.517646
945.000000	58.742052
944.000000	58.951359
943.000000	59.161323
942.000000	59.385510
941.000000	59.607399
940.000000	59.819223
939.000000	60.029077
938.000000	60.248231
937.000000	60.464540
936.000000	60.676254
935.000000	60.896284
934.000000	61.128348
933.000000	61.384265
932.000000	61.623989
931.000000	61.854850
930.000000	62.104531
929.000000	62.363292
928.000000	62.604329
927.000000	62.834971
926.000000	63.082573
925.000000	63.336192
924.000000	63.588170
923.000000	63.845947
922.000000	64.117838
921.000000	64.371457
920.000000	64.626936
919.000000	64.892700
918.000000	65.174001
917.000000	65.431559
916.000000	65.684959
915.000000	65.955647
914.000000	66.224693
913.000000	66.487941
912.000000	66.756768
911.000000	67.023627
910.000000	67.289391
909.000000	67.571567
908.000000	67.831860
907.000000	68.116115
906.000000	68.386365
905.000000	68.653113
904.000000	68.917893
903.000000	69.188143
902.000000	69.462113
901.000000	69.716388
900.000000	69.977448
899.000000	70.244853
898.000000	70.513352
897.000000	70.761610
896.000000	71.007899
895.000000	71.246747
894.000000	71.488878
893.000000	71.746655
892.000000	71.978938
891.000000	72.179930
890.000000	72.422170
889.000000	72.653360
888.000000	72.847896
887.000000	73.063986
886.000000	73.283140
885.000000	73.476473
884.000000	73.678668
883.000000	73.845523
882.000000	74.065662
881.000000	74.272343
880.000000	74.461299
879.000000	74.657695
878.000000	74.865908
877.000000	75.037905
876.000000	75.246555
875.000000	75.402907
874.000000	75.511335
873.000000	75.594489
872.000000	75.651383
871.000000	75.711123
870.000000	75.863535
869.000000	76.138490
868.000000	76.509400
867.000000	76.900988
866.000000	77.304503
865.000000	77.684604
864.000000	78.062954
863.000000	78.460670
862.000000	78.860793
861.000000	79.245598
860.000000	79.682375
859.000000	80.085671
858.000000	80.521900
857.000000	79.283500
856.000000	80.973200
855.000000	81.309000
854.000000	81.998900
853.000000	82.477800
852.000000	82.481900
851.000000	83.688900
850.000000	83.662300
849.000000	83.706600
848.000000	84.730300
847.000000	84.958100
846.000000	85.371900
845.000000	85.522700
844.000000	85.474000
843.000000	85.957200
842.000000	86.265900
841.000000	86.603900
840.000000	87.005900
839.000000	87.264100
838.000000	87.054200
837.000000	87.512300
836.000000	87.537300
835.000000	87.645800
834.000000	88.206500
833.000000	88.149300
832.000000	88.261200
831.000000	88.381500
830.000000	88.457400
829.000000	88.588000
828.000000	88.723700
827.000000	88.628900
826.000000	88.246900
825.000000	88.520800
824.000000	88.818400
823.000000	88.651300
822.000000	88.739200
821.000000	88.831500
820.000000	89.297400
819.000000	89.139900
818.000000	89.032100
817.000000	89.184000
816.000000	89.525500
815.000000	89.507100
814.000000	89.740400
813.000000	89.971500
812.000000	90.197100
811.000000	89.984400
810.000000	90.323500
809.000000	90.524200
808.000000	90.707400
807.000000	90.816000
806.000000	90.880900
805.000000	90.948300
804.000000	90.978900
803.000000	90.895900
802.000000	91.309700
801.000000	91.473600
800.000000	91.406200
799.000000	91.367200
798.000000	91.540700
797.000000	91.437300
796.000000	91.537000
795.000000	91.483100
794.000000	91.470200
793.000000	91.302500
792.000000	91.377400
791.000000	91.197700
790.000000	91.257900
789.000000	91.313500
788.000000	91.098800
787.000000	91.055800
786.000000	91.298000
785.000000	90.510400
784.000000	90.994700
783.000000	90.658500
782.000000	90.636900
781.000000	90.656400
780.000000	90.559300
779.000000	90.506600
778.000000	90.382100
777.000000	90.070100
776.000000	90.128900
775.000000	90.168500
774.000000	90.002500
773.000000	89.738000
772.000000	89.414000
771.000000	89.322400
770.000000	89.224500
769.000000	89.035700
768.000000	88.794800
767.000000	88.536000
766.000000	88.226100
765.000000	88.016600
764.000000	87.613000
763.000000	87.392300
762.000000	86.978200
761.000000	86.449000
760.000000	86.100600
759.000000	85.620100
758.000000	85.076500
757.000000	84.573600
756.000000	84.137100
755.000000	83.517500
754.000000	82.942500
753.000000	82.259400
752.000000	81.678800
751.000000	81.010500
750.000000	80.246500
749.000000	79.590600
748.000000	79.043800
747.000000	78.339200
746.000000	77.905500
745.000000	77.280400
744.000000	76.747600
743.000000	76.195900
742.000000	75.785200
741.000000	75.285300
740.000000	74.834500
739.000000	74.454200
738.000000	74.109700
737.000000	73.746400
736.000000	73.549400
735.000000	73.273200
734.000000	73.047200
733.000000	72.990200
732.000000	72.910100
731.000000	72.933100
730.000000	72.850300
729.000000	72.942500
728.000000	73.048300
727.000000	73.192700
726.000000	73.209300
725.000000	73.444900
724.000000	73.638900
723.000000	73.838800
722.000000	74.041200
721.000000	74.298700
720.000000	74.538100
719.000000	74.747400
718.000000	75.007200
717.000000	75.224000
716.000000	75.466500
715.000000	75.652900
714.000000	75.816400
713.000000	75.967900
712.000000	76.146400
711.000000	76.353000
710.000000	76.413300
709.000000	76.488900
708.000000	76.485400
707.000000	76.520800
706.000000	76.476700
705.000000	76.440100
704.000000	76.294800
703.000000	76.236600
702.000000	76.077600
701.000000	75.872600
700.000000	75.700100
699.000000	75.448900
698.000000	75.292100
697.000000	75.111800
696.000000	74.876500
695.000000	74.625900
694.000000	74.385500
693.000000	74.153200
692.000000	73.896900
691.000000	73.611200
690.000000	73.382800
689.000000	73.083900
688.000000	72.820300
687.000000	72.524700
686.000000	72.281800
685.000000	72.053600
684.000000	71.756400
683.000000	71.460400
682.000000	71.110500
681.000000	70.765000
680.000000	70.423700
679.000000	70.041000
678.000000	69.628500
677.000000	69.237200
676.000000	68.706600
675.000000	68.117400
674.000000	67.518700
673.000000	66.868200
672.000000	66.202500
671.000000	65.480200
670.000000	64.663900
669.000000	63.808800
668.000000	62.965600
667.000000	62.158700
666.000000	61.334300
665.000000	60.443700
664.000000	59.611600
663.000000	58.849300
662.000000	58.098100
661.000000	57.345600
660.000000	56.690900
659.000000	56.108700
658.000000	55.597800
657.000000	55.187000
656.000000	54.847300
655.000000	54.588600
654.000000	54.417400
653.000000	54.337300
652.000000	54.357300
651.000000	54.466900
650.000000	54.689300
649.000000	55.023300
648.000000	55.462000
647.000000	55.967700
646.000000	56.542200
645.000000	57.216700
644.000000	57.981400
643.000000	58.823600
642.000000	59.727100
641.000000	60.697700
640.000000	61.619300
639.000000	62.544500
638.000000	63.519200
637.000000	64.532100
636.000000	65.553100
635.000000	66.506500
634.000000	67.501900
633.000000	68.549600
632.000000	69.575100
631.000000	70.586800
630.000000	71.617800
629.000000	72.644100
628.000000	73.604000
627.000000	74.534200
626.000000	75.442800
625.000000	76.286800
624.000000	77.122200
623.000000	77.936200
622.000000	78.709400
621.000000	79.475900
620.000000	80.179800
619.000000	80.893700
618.000000	81.627300
617.000000	82.301400
616.000000	82.940700
615.000000	83.552300
614.000000	84.141500
613.000000	84.742300
612.000000	85.285900
611.000000	85.809400
610.000000	86.283900
609.000000	86.750400
608.000000	87.179100
607.000000	87.560000
606.000000	87.913500
605.000000	88.259900
604.000000	88.572300
603.000000	88.877900
602.000000	89.133300
601.000000	89.342600
600.000000	89.572700
599.000000	89.780900
598.000000	89.921800
597.000000	90.054700
596.000000	90.187100
595.000000	90.268200
594.000000	90.319200
593.000000	90.358500
592.000000	90.415700
591.000000	90.458000
590.000000	90.459800
589.000000	90.409400
588.000000	90.373500
587.000000	90.346700
586.000000	90.266800
585.000000	90.179800
584.000000	90.125900
583.000000	90.054200
582.000000	89.926000
581.000000	89.846100
580.000000	89.744300
579.000000	89.652300
578.000000	89.498500
577.000000	89.383600
576.000000	89.266700
575.000000	89.100900
574.000000	88.931800
573.000000	88.772900
572.000000	88.558400
571.000000	88.346100
570.000000	88.106900
569.000000	87.815200
568.000000	87.513500
567.000000	87.280500
566.000000	86.930700
565.000000	86.617700
564.000000	86.233800
563.000000	85.967600
562.000000	85.584100
561.000000	85.182700
560.000000	84.766400
559.000000	84.358300
558.000000	83.970700
557.000000	83.506700
556.000000	83.040800
555.000000	82.579600
554.000000	82.057000
553.000000	81.535700
552.000000	80.945500
551.000000	80.351600
550.000000	79.714000
549.000000	79.025600
548.000000	78.315600
547.000000	77.599000
546.000000	76.808500
545.000000	76.016700
544.000000	75.164600
543.000000	74.307000
542.000000	73.374800
541.000000	72.369700
540.000000	71.345100
539.000000	70.255100
538.000000	69.091900
537.000000	67.892800
536.000000	66.642900
535.000000	65.379900
534.000000	64.070000
533.000000	62.760300
532.000000	61.393900
531.000000	60.058300
530.000000	58.708200
529.000000	57.394800
528.000000	56.078100
527.000000	54.801700
526.000000	53.519900
525.000000	52.266100
524.000000	51.059300
523.000000	49.850800
522.000000	48.697200
521.000000	47.561200
520.000000	46.460300
519.000000	45.421200
518.000000	44.440900
517.000000	43.461200
516.000000	42.512300
515.000000	41.604800
514.000000	40.743100
513.000000	39.874500
512.000000	39.037100
511.000000	38.217300
510.000000	37.431500
509.000000	36.678100
508.000000	35.886900
507.000000	35.208400
506.000000	34.475700
505.000000	33.818700
504.000000	33.132100
503.000000	32.493900
502.000000	31.904400
501.000000	31.371800
500.000000	30.885000
499.000000	30.434800
498.000000	29.992800
497.000000	29.637100
496.000000	29.337500
495.000000	29.098800
494.000000	28.932500
493.000000	28.780300
492.000000	28.655500
491.000000	28.585700
490.000000	28.562700
489.000000	28.553400
488.000000	28.554600
487.000000	28.551300
486.000000	28.599600
485.000000	28.616000
484.000000	28.620900
483.000000	28.579000
482.000000	28.518100
481.000000	28.406500
480.000000	28.261500
479.000000	28.091200
478.000000	27.873400
477.000000	27.619000
476.000000	27.360000
475.000000	27.043300
474.000000	26.676400
473.000000	26.293200
472.000000	25.875100
471.000000	25.424200
470.000000	24.990500
469.000000	24.529500
468.000000	24.078200
467.000000	23.625700
466.000000	23.213300
465.000000	22.816900
464.000000	22.423800
463.000000	22.072400
462.000000	21.777200
461.000000	21.548900
460.000000	21.356600
459.000000	21.193600
458.000000	21.106200
457.000000	21.073000
456.000000	21.082300
455.000000	21.121900
454.000000	21.195100
453.000000	21.301200
452.000000	21.474100
451.000000	21.649400
450.000000	21.798100
449.000000	21.971500
448.000000	22.130900
447.000000	22.297500
446.000000	22.454900
445.000000	22.623200
444.000000	22.747600
443.000000	22.842900
442.000000	22.904200
441.000000	22.979100
440.000000	23.034500
439.000000	23.021300
438.000000	23.049500
437.000000	23.047900
436.000000	23.005200
435.000000	22.940700
434.000000	22.903500
433.000000	22.794200
432.000000	22.694400
431.000000	22.575700
430.000000	22.455700
429.000000	22.342700
428.000000	22.204500
427.000000	22.040900
426.000000	21.876200
425.000000	21.717200
424.000000	21.495300
423.000000	21.318100
422.000000	21.074500
421.000000	20.837500
420.000000	20.602000
419.000000	20.358000
418.000000	20.095700
417.000000	19.847900
416.000000	19.554900
415.000000	19.257900
414.000000	18.902300
413.000000	18.581500
412.000000	18.249100
411.000000	17.893500
410.000000	17.500200
409.000000	17.105300
408.000000	16.747900
407.000000	16.368800
406.000000	15.967600
405.000000	15.493200
404.000000	15.067600
403.000000	14.665700
402.000000	14.239900
401.000000	13.822800
400.000000	13.402900
399.000000	12.994300
398.000000	12.568500
397.000000	12.181700
396.000000	11.837400
395.000000	11.486100
394.000000	11.126500
393.000000	10.759700
392.000000	10.449700
391.000000	10.105900
390.000000	9.824700
389.000000	9.551700
388.000000	9.302300
387.000000	9.063500
386.000000	8.851100
385.000000	8.612300
384.000000	8.401200
383.000000	8.242900
382.000000	8.103900
381.000000	7.943500
380.000000	7.781200
379.000000	7.658000
378.000000	7.534900
377.000000	7.432500
376.000000	7.353100
375.000000	7.152900
374.000000	6.995800
373.000000	6.943300
372.000000	6.761900
371.000000	6.680200
370.000000	6.661900
369.000000	6.668800
368.000000	6.693800
367.000000	6.697700
366.000000	6.692700
365.000000	6.735100
364.000000	6.612900
363.000000	6.498100
362.000000	6.377900
361.000000	6.334500
360.000000	6.440300
359.000000	6.370200
358.000000	6.303900
357.000000	6.251100
356.000000	6.150500
355.000000	6.187700
354.000000	6.228400
353.000000	6.129600
352.000000	6.088900
351.000000	6.024300
350.000000	5.866000
349.000000	5.758700
348.000000	5.918100
347.000000	5.858800
346.000000	5.798800
345.000000	5.870400
344.000000	5.790900
343.000000	5.748300
342.000000	5.778100
341.000000	5.917100
340.000000	6.186100
339.000000	6.045800
338.000000	5.716800
337.000000	5.649200
336.000000	5.751600
335.000000	5.811200
334.000000	5.920100
333.000000	5.891100
332.000000	5.629300
331.000000	5.666200
330.000000	5.776500
329.000000	5.893700
328.000000	6.016400
327.000000	5.766800
326.000000	5.797800
325.000000	5.548200
324.000000	5.380200
323.000000	6.009500
322.000000	6.397300
321.000000	5.966900
320.000000	6.412700
319.000000	6.699200
318.000000	6.800400
317.000000	7.115900
316.000000	6.229700
315.000000	5.511900
314.000000	5.533100
313.000000	5.548500
312.000000	5.507800
311.000000	5.518300
310.000000	5.550800
309.000000	5.546000
308.000000	5.566600
307.000000	5.534900
306.000000	5.532300
305.000000	5.543700
304.000000	5.590600
303.000000	5.563300
302.000000	5.535700
301.000000	5.515400
300.000000	5.564500
299.000000	5.599500
298.000000	5.513400
297.000000	5.547200
296.000000	5.617100
295.000000	5.598700
294.000000	5.614900
293.000000	5.594300
292.000000	5.611400
291.000000	5.608700
290.000000	5.641800
289.000000	5.682500
288.000000	5.659500
287.000000	5.624800
286.000000	5.637700
285.000000	5.673200
284.000000	5.659700
283.000000	5.647200
282.000000	5.675700
281.000000	5.702400
280.000000	5.704200
279.000000	5.698200
278.000000	5.716700
277.000000	5.753500
276.000000	5.749200
275.000000	5.752800
274.000000	5.779600
273.000000	5.836600
272.000000	5.805400
271.000000	5.842100
270.000000	5.856800
269.000000	5.883200
268.000000	5.900500
267.000000	5.931400
266.000000	5.944100
265.000000	5.960100
264.000000	5.986300
263.000000	6.029100
262.000000	6.063500
261.000000	6.075900
260.000000	6.097200
259.000000	6.075400
258.000000	6.113100
257.000000	6.146500
256.000000	6.135600
255.000000	6.192100
254.000000	6.237100
253.000000	6.198700
252.000000	6.194400
251.000000	6.223500
250.000000	6.222300
