PE UV       SUBTECH     SPECTRUM    ASCII       PEDS        4.00        
   -1
CICIMAUCR0240-3.Sample.ASC
24/06/20
12:39:27.00
24/06/20
12:39:27.00
Vinicio Soto Monge
C. resplendens. Sex M. Dorsal.
250,000000
1
Lambda 1050
1050L1511233
PerkinElmer UV WinLab 6.3.2.0749 / 2.02.05 Lambda 900 UV/VIS/NIR, Aug  7 2015 09:38:08

0
0
3350/servo 860,8/2
0
0
UV/VIS
1
1
1
DoubleDePol,CommonBeamDepol,RBeamAtt,SBeamAtt,60mm sphere, WB InGaAs Detector
0
0
0
0
Program
Program
3350/servo 860,8/2
3350/0,2 860,8/0,2
3350/0,2 860,8/0,2
0
15.00
 
 
 
0
 
860,8
319,2
860,8
Front
100
on
S:100 R:100
0
0
0
0
 
0
 
 
 
0
 
 
0
0
0
0
0
 
 
 
 
0
0


0
0
#HDR
-1
-1
#GR
nm
%R
1.0
0.0
2500,000000
-1,000000
2251
8
89,336400
5,668900
#DATA
2482.000000	10.825356
2481.000000	10.816655
2480.000000	10.814790
2479.000000	10.842965
2478.000000	10.859952
2477.000000	10.846694
2476.000000	10.819659
2475.000000	10.920548
2474.000000	10.925003
2473.000000	10.897864
2472.000000	10.884502
2471.000000	10.931528
2470.000000	10.937950
2469.000000	10.983734
2468.000000	11.014809
2467.000000	11.026617
2466.000000	11.054688
2465.000000	11.052099
2464.000000	11.088353
2463.000000	11.104305
2462.000000	11.140766
2461.000000	11.239998
2460.000000	11.228294
2459.000000	11.291479
2458.000000	11.354768
2457.000000	11.382321
2456.000000	11.445611
2455.000000	11.510039
2454.000000	11.567631
2453.000000	11.642418
2452.000000	11.705915
2451.000000	11.784949
2450.000000	11.849170
2449.000000	11.932658
2448.000000	12.026918
2447.000000	12.091865
2446.000000	12.184572
2445.000000	12.253454
2444.000000	12.318608
2443.000000	12.410693
2442.000000	12.497703
2441.000000	12.589788
2440.000000	12.658671
2439.000000	12.752207
2438.000000	12.820986
2437.000000	12.893287
2436.000000	12.986615
2435.000000	13.062334
2434.000000	13.132978
2433.000000	13.196371
2432.000000	13.261835
2431.000000	13.338383
2430.000000	13.405090
2429.000000	13.477909
2428.000000	13.538920
2427.000000	13.582942
2426.000000	13.642088
2425.000000	13.711800
2424.000000	13.777782
2423.000000	13.832784
2422.000000	13.877429
2421.000000	13.924352
2420.000000	13.977076
2419.000000	14.038811
2418.000000	14.082523
2417.000000	14.128721
2416.000000	14.184034
2415.000000	14.224535
2414.000000	14.265451
2413.000000	14.291036
2412.000000	14.335058
2411.000000	14.400109
2410.000000	14.420825
2409.000000	14.459462
2408.000000	14.490537
2407.000000	14.529380
2406.000000	14.574024
2405.000000	14.595155
2404.000000	14.627577
2403.000000	14.655855
2402.000000	14.689209
2401.000000	14.706714
2400.000000	14.734992
2399.000000	14.749805
2398.000000	14.768864
2397.000000	14.795485
2396.000000	14.832464
2395.000000	14.852766
2394.000000	14.879491
2393.000000	14.911084
2392.000000	14.927657
2391.000000	14.949513
2390.000000	14.986803
2389.000000	15.003790
2388.000000	14.996436
2387.000000	15.011041
2386.000000	15.019846
2385.000000	15.028754
2384.000000	15.041494
2383.000000	15.052371
2382.000000	15.051438
2381.000000	15.047192
2380.000000	15.040873
2379.000000	15.032379
2378.000000	15.031654
2377.000000	15.045327
2376.000000	15.040044
2375.000000	15.007416
2374.000000	14.995296
2373.000000	14.988564
2372.000000	14.962771
2371.000000	14.946095
2370.000000	14.940605
2369.000000	14.923203
2368.000000	14.904040
2367.000000	14.883427
2366.000000	14.857117
2365.000000	14.833811
2364.000000	14.794656
2363.000000	14.768760
2362.000000	14.739343
2361.000000	14.688794
2360.000000	14.655751
2359.000000	14.612039
2358.000000	14.577235
2357.000000	14.548854
2356.000000	14.518504
2355.000000	14.482043
2354.000000	14.451382
2353.000000	14.428283
2352.000000	14.409535
2351.000000	14.402284
2350.000000	14.402387
2349.000000	14.407877
2348.000000	14.403941
2347.000000	14.416268
2346.000000	14.428490
2345.000000	14.444649
2344.000000	14.480282
2343.000000	14.517779
2342.000000	14.534249
2341.000000	14.555897
2340.000000	14.592048
2339.000000	14.602510
2338.000000	14.614525
2337.000000	14.632549
2336.000000	14.654508
2335.000000	14.665592
2334.000000	14.672428
2333.000000	14.662691
2332.000000	14.664349
2331.000000	14.639489
2330.000000	14.612764
2329.000000	14.604892
2328.000000	14.579204
2327.000000	14.551133
2326.000000	14.514050
2325.000000	14.471167
2324.000000	14.421965
2323.000000	14.375041
2322.000000	14.329776
2321.000000	14.261411
2320.000000	14.196050
2319.000000	14.102204
2318.000000	14.014987
2317.000000	13.930878
2316.000000	13.821805
2315.000000	13.723815
2314.000000	13.618886
2313.000000	13.521932
2312.000000	13.427361
2311.000000	13.336933
2310.000000	13.268050
2309.000000	13.195645
2308.000000	13.100453
2307.000000	13.034470
2306.000000	13.011889
2305.000000	12.991794
2304.000000	12.981643
2303.000000	12.996559
2302.000000	13.011682
2301.000000	13.034574
2300.000000	13.071139
2299.000000	13.116819
2298.000000	13.200617
2297.000000	13.269189
2296.000000	13.345323
2295.000000	13.426014
2294.000000	13.487957
2293.000000	13.558807
2292.000000	13.616503
2291.000000	13.670263
2290.000000	13.723608
2289.000000	13.764213
2288.000000	13.787208
2287.000000	13.809582
2286.000000	13.831749
2285.000000	13.834235
2284.000000	13.836721
2283.000000	13.840346
2282.000000	13.816833
2281.000000	13.792180
2280.000000	13.771671
2279.000000	13.738524
2278.000000	13.728580
2277.000000	13.687665
2276.000000	13.640431
2275.000000	13.616192
2274.000000	13.595061
2273.000000	13.564712
2272.000000	13.559533
2271.000000	13.553110
2270.000000	13.546377
2269.000000	13.561915
2268.000000	13.624272
2267.000000	13.683003
2266.000000	13.728062
2265.000000	13.817454
2264.000000	13.925698
2263.000000	14.054452
2262.000000	14.213970
2261.000000	14.364994
2260.000000	14.526791
2259.000000	14.734267
2258.000000	14.929003
2257.000000	15.158854
2256.000000	15.356490
2255.000000	15.585512
2254.000000	15.811220
2253.000000	16.055676
2252.000000	16.290809
2251.000000	16.483370
2250.000000	16.679452
2249.000000	16.886618
2248.000000	17.072136
2247.000000	17.258999
2246.000000	17.422350
2245.000000	17.556593
2244.000000	17.712382
2243.000000	17.830156
2242.000000	17.964503
2241.000000	18.071401
2240.000000	18.160275
2239.000000	18.262201
2238.000000	18.327872
2237.000000	18.403384
2236.000000	18.476100
2235.000000	18.525509
2234.000000	18.570257
2233.000000	18.611068
2232.000000	18.649083
2231.000000	18.685234
2230.000000	18.690102
2229.000000	18.702014
2228.000000	18.676222
2227.000000	18.712890
2226.000000	18.680987
2225.000000	18.650533
2224.000000	18.638828
2223.000000	18.623602
2222.000000	18.583308
2221.000000	18.512872
2220.000000	18.482107
2219.000000	18.436945
2218.000000	18.377281
2217.000000	18.337713
2216.000000	18.286646
2215.000000	18.234233
2214.000000	18.186792
2213.000000	18.125264
2212.000000	18.064668
2211.000000	18.055863
2210.000000	17.999825
2209.000000	17.941922
2208.000000	17.918719
2207.000000	17.878426
2206.000000	17.843829
2205.000000	17.814204
2204.000000	17.779400
2203.000000	17.749568
2202.000000	17.727816
2201.000000	17.693219
2200.000000	17.679028
2199.000000	17.655515
2198.000000	17.640910
2197.000000	17.605899
2196.000000	17.609731
2195.000000	17.581039
2194.000000	17.564673
2193.000000	17.533701
2192.000000	17.528522
2191.000000	17.509359
2190.000000	17.492165
2189.000000	17.463369
2188.000000	17.453321
2187.000000	17.445552
2186.000000	17.417792
2185.000000	17.400183
2184.000000	17.394486
2183.000000	17.375737
2182.000000	17.355539
2181.000000	17.326639
2180.000000	17.315866
2179.000000	17.314313
2178.000000	17.291421
2177.000000	17.280855
2176.000000	17.275883
2175.000000	17.278266
2174.000000	17.278266
2173.000000	17.280130
2172.000000	17.275573
2171.000000	17.286345
2170.000000	17.308823
2169.000000	17.323324
2168.000000	17.325500
2167.000000	17.363204
2166.000000	17.393139
2165.000000	17.423800
2164.000000	17.439855
2163.000000	17.474245
2162.000000	17.506873
2161.000000	17.539088
2160.000000	17.586218
2159.000000	17.632520
2158.000000	17.689697
2157.000000	17.728023
2156.000000	17.804053
2155.000000	17.868792
2154.000000	17.924624
2153.000000	17.993506
2152.000000	18.049027
2151.000000	18.124332
2150.000000	18.192800
2149.000000	18.244074
2148.000000	18.318446
2147.000000	18.391265
2146.000000	18.455797
2145.000000	18.526441
2144.000000	18.592423
2143.000000	18.656956
2142.000000	18.711854
2141.000000	18.780530
2140.000000	18.852106
2139.000000	18.902136
2138.000000	18.941498
2137.000000	19.017010
2136.000000	19.081128
2135.000000	19.115725
2134.000000	19.143071
2133.000000	19.203977
2132.000000	19.244168
2131.000000	19.267681
2130.000000	19.301967
2129.000000	19.320301
2128.000000	19.346611
2127.000000	19.366085
2126.000000	19.380586
2125.000000	19.410625
2124.000000	19.424920
2123.000000	19.424816
2122.000000	19.447605
2121.000000	19.455063
2120.000000	19.427613
2119.000000	19.421087
2118.000000	19.419223
2117.000000	19.413526
2116.000000	19.404618
2115.000000	19.382244
2114.000000	19.371160
2113.000000	19.362459
2112.000000	19.348268
2111.000000	19.336874
2110.000000	19.316261
2109.000000	19.282182
2108.000000	19.258255
2107.000000	19.228734
2106.000000	19.213403
2105.000000	19.191547
2104.000000	19.155293
2103.000000	19.124943
2102.000000	19.113964
2101.000000	19.078849
2100.000000	19.048810
2099.000000	19.020739
2098.000000	18.997433
2097.000000	18.987489
2096.000000	18.955482
2095.000000	18.937251
2094.000000	18.903172
2093.000000	18.887531
2092.000000	18.894264
2091.000000	18.887013
2090.000000	18.859150
2089.000000	18.845580
2088.000000	18.834186
2087.000000	18.825796
2086.000000	18.810051
2085.000000	18.784052
2084.000000	18.757535
2083.000000	18.727185
2082.000000	18.701496
2081.000000	18.671768
2080.000000	18.626502
2079.000000	18.594495
2078.000000	18.553269
2077.000000	18.484179
2076.000000	18.428141
2075.000000	18.377385
2074.000000	18.322279
2073.000000	18.258575
2072.000000	18.184721
2071.000000	18.113248
2070.000000	18.036804
2069.000000	17.962431
2068.000000	17.895206
2067.000000	17.820316
2066.000000	17.733513
2065.000000	17.642464
2064.000000	17.568091
2063.000000	17.496204
2062.000000	17.428565
2061.000000	17.345180
2060.000000	17.265111
2059.000000	17.209383
2058.000000	17.149409
2057.000000	17.098964
2056.000000	17.060327
2055.000000	17.015890
2054.000000	16.994552
2053.000000	16.991444
2052.000000	16.997659
2051.000000	17.011229
2050.000000	17.029252
2049.000000	17.070685
2048.000000	17.131696
2047.000000	17.195192
2046.000000	17.265318
2045.000000	17.343316
2044.000000	17.436644
2043.000000	17.532148
2042.000000	17.634177
2041.000000	17.734756
2040.000000	17.823112
2039.000000	17.908258
2038.000000	18.011426
2037.000000	18.108794
2036.000000	18.200258
2035.000000	18.267587
2034.000000	18.351800
2033.000000	18.430109
2032.000000	18.490394
2031.000000	18.544775
2030.000000	18.599881
2029.000000	18.666278
2028.000000	18.701807
2027.000000	18.738786
2026.000000	18.774937
2025.000000	18.796585
2024.000000	18.828696
2023.000000	18.861532
2022.000000	18.885356
2021.000000	18.900376
2020.000000	18.912495
2019.000000	18.918192
2018.000000	18.917777
2017.000000	18.922024
2016.000000	18.929897
2015.000000	18.918295
2014.000000	18.932176
2013.000000	18.913013
2012.000000	18.902551
2011.000000	18.868472
2010.000000	18.837294
2009.000000	18.814609
2008.000000	18.791821
2007.000000	18.766546
2006.000000	18.736818
2005.000000	18.699735
2004.000000	18.646701
2003.000000	18.607754
2002.000000	18.544361
2001.000000	18.483247
2000.000000	18.425240
1999.000000	18.367130
1998.000000	18.304255
1997.000000	18.235166
1996.000000	18.151574
1995.000000	18.081759
1994.000000	18.015880
1993.000000	17.936846
1992.000000	17.850562
1991.000000	17.757130
1990.000000	17.693116
1989.000000	17.607245
1988.000000	17.520857
1987.000000	17.408677
1986.000000	17.324982
1985.000000	17.220156
1984.000000	17.146301
1983.000000	17.028838
1982.000000	16.944832
1981.000000	16.870977
1980.000000	16.766566
1979.000000	16.676138
1978.000000	16.577216
1977.000000	16.476948
1976.000000	16.396982
1975.000000	16.294745
1974.000000	16.218612
1973.000000	16.142375
1972.000000	16.025533
1971.000000	15.938316
1970.000000	15.846542
1969.000000	15.762639
1968.000000	15.689303
1967.000000	15.609337
1966.000000	15.506789
1965.000000	15.432727
1964.000000	15.376896
1963.000000	15.295480
1962.000000	15.207227
1961.000000	15.132337
1960.000000	15.036419
1959.000000	14.976134
1958.000000	14.885395
1957.000000	14.831946
1956.000000	14.743383
1955.000000	14.666731
1954.000000	14.588112
1953.000000	14.537045
1952.000000	14.446514
1951.000000	14.400212
1950.000000	14.304605
1949.000000	14.247220
1948.000000	14.207444
1947.000000	14.148816
1946.000000	14.090395
1945.000000	14.050309
1944.000000	14.022341
1943.000000	13.981012
1942.000000	13.937921
1941.000000	13.903221
1940.000000	13.904878
1939.000000	13.905914
1938.000000	13.887166
1937.000000	13.883022
1936.000000	13.861995
1935.000000	13.895349
1934.000000	13.898974
1933.000000	13.926424
1932.000000	13.961642
1931.000000	14.004422
1930.000000	14.062635
1929.000000	14.133797
1928.000000	14.202887
1927.000000	14.274048
1926.000000	14.375145
1925.000000	14.466091
1924.000000	14.546161
1923.000000	14.687344
1922.000000	14.782951
1921.000000	14.937394
1920.000000	15.086450
1919.000000	15.225872
1918.000000	15.381765
1917.000000	15.542836
1916.000000	15.708051
1915.000000	15.889943
1914.000000	16.079810
1913.000000	16.316083
1912.000000	16.550595
1911.000000	16.782103
1910.000000	17.019619
1909.000000	17.234554
1908.000000	17.474866
1907.000000	17.722223
1906.000000	18.031003
1905.000000	18.358947
1904.000000	18.716930
1903.000000	19.049224
1902.000000	19.370850
1901.000000	19.738362
1900.000000	20.080393
1899.000000	20.496693
1898.000000	20.920140
1897.000000	21.317692
1896.000000	21.733681
1895.000000	22.108652
1894.000000	22.501956
1893.000000	22.957514
1892.000000	23.397535
1891.000000	23.932645
1890.000000	24.455117
1889.000000	24.943926
1888.000000	25.449618
1887.000000	25.962457
1886.000000	26.471568
1885.000000	27.013203
1884.000000	27.551110
1883.000000	28.131071
1882.000000	28.679750
1881.000000	29.182853
1880.000000	29.720656
1879.000000	30.219511
1878.000000	30.679938
1877.000000	31.147615
1876.000000	31.611460
1875.000000	32.054484
1874.000000	32.471509
1873.000000	32.868647
1872.000000	33.276556
1871.000000	33.641790
1870.000000	33.974292
1869.000000	34.253448
1868.000000	34.548038
1867.000000	34.773331
1866.000000	34.973246
1865.000000	35.132039
1864.000000	35.311444
1863.000000	35.472930
1862.000000	35.614735
1861.000000	35.791759
1860.000000	35.959667
1859.000000	36.103544
1858.000000	36.212409
1857.000000	36.316614
1856.000000	36.404659
1855.000000	36.482140
1854.000000	36.550815
1853.000000	36.598152
1852.000000	36.599085
1851.000000	36.645076
1850.000000	36.698421
1849.000000	36.742236
1848.000000	36.787399
1847.000000	36.802729
1846.000000	36.753838
1845.000000	36.703600
1844.000000	36.709815
1843.000000	36.694278
1842.000000	36.717791
1841.000000	36.781184
1840.000000	36.771033
1839.000000	36.735193
1838.000000	36.717791
1837.000000	36.691895
1836.000000	36.664238
1835.000000	36.622598
1834.000000	36.559412
1833.000000	36.500163
1832.000000	36.455208
1831.000000	36.415328
1830.000000	36.387154
1829.000000	36.354525
1828.000000	36.317753
1827.000000	36.253635
1826.000000	36.200290
1825.000000	36.160618
1824.000000	36.116181
1823.000000	36.083863
1822.000000	36.091528
1821.000000	36.115870
1820.000000	36.109862
1819.000000	36.074333
1818.000000	36.024096
1817.000000	35.991674
1816.000000	35.985148
1815.000000	35.979348
1814.000000	35.961739
1813.000000	35.927453
1812.000000	35.912329
1811.000000	35.900210
1810.000000	35.865510
1809.000000	35.826977
1808.000000	35.789791
1807.000000	35.752604
1806.000000	35.724533
1805.000000	35.675849
1804.000000	35.626958
1803.000000	35.603652
1802.000000	35.574752
1801.000000	35.539949
1800.000000	35.488882
1799.000000	35.425800
1798.000000	35.382917
1797.000000	35.347388
1796.000000	35.308648
1795.000000	35.272290
1794.000000	35.223088
1793.000000	35.186213
1792.000000	35.152755
1791.000000	35.108111
1790.000000	35.060774
1789.000000	35.026798
1788.000000	35.006185
1787.000000	34.983811
1786.000000	34.950872
1785.000000	34.910578
1784.000000	34.868834
1783.000000	34.825847
1782.000000	34.781825
1781.000000	34.730447
1780.000000	34.688082
1779.000000	34.637637
1778.000000	34.587503
1777.000000	34.531050
1776.000000	34.467761
1775.000000	34.394631
1774.000000	34.322020
1773.000000	34.251169
1772.000000	34.173171
1771.000000	34.085333
1770.000000	34.016864
1769.000000	33.938141
1768.000000	33.848438
1767.000000	33.761532
1766.000000	33.679080
1765.000000	33.619831
1764.000000	33.560477
1763.000000	33.514797
1762.000000	33.503092
1761.000000	33.515730
1760.000000	33.542247
1759.000000	33.564828
1758.000000	33.596317
1757.000000	33.649041
1756.000000	33.708187
1755.000000	33.761428
1754.000000	33.807316
1753.000000	33.839116
1752.000000	33.868533
1751.000000	33.894843
1750.000000	33.900023
1749.000000	33.882724
1748.000000	33.871952
1747.000000	33.842948
1746.000000	33.784320
1745.000000	33.729836
1744.000000	33.640651
1743.000000	33.547737
1742.000000	33.423851
1741.000000	33.304627
1740.000000	33.154639
1739.000000	32.992014
1738.000000	32.839540
1737.000000	32.692245
1736.000000	32.530966
1735.000000	32.389161
1734.000000	32.279984
1733.000000	32.210480
1732.000000	32.149988
1731.000000	32.104308
1730.000000	32.102961
1729.000000	32.126682
1728.000000	32.161485
1727.000000	32.174123
1726.000000	32.231300
1725.000000	32.287442
1724.000000	32.309920
1723.000000	32.365130
1722.000000	32.417335
1721.000000	32.474513
1720.000000	32.574057
1719.000000	32.680229
1718.000000	32.792202
1717.000000	32.931521
1716.000000	33.067630
1715.000000	33.201355
1714.000000	33.338913
1713.000000	33.476886
1712.000000	33.609990
1711.000000	33.738122
1710.000000	33.824718
1709.000000	33.891943
1708.000000	33.950260
1707.000000	33.986825
1706.000000	34.010753
1705.000000	34.014067
1704.000000	34.015621
1703.000000	34.001534
1702.000000	33.975742
1701.000000	33.918564
1700.000000	33.847713
1699.000000	33.754488
1698.000000	33.656395
1697.000000	33.574875
1696.000000	33.487555
1695.000000	33.445915
1694.000000	33.398163
1693.000000	33.366881
1692.000000	33.391016
1691.000000	33.436592
1690.000000	33.486519
1689.000000	33.549601
1688.000000	33.627910
1687.000000	33.699486
1686.000000	33.767643
1685.000000	33.826479
1684.000000	33.936691
1683.000000	34.076114
1682.000000	34.274061
1681.000000	34.505569
1680.000000	34.784518
1679.000000	35.128724
1678.000000	35.487328
1677.000000	35.838475
1676.000000	36.192936
1675.000000	36.524298
1674.000000	36.805940
1673.000000	37.068005
1672.000000	37.307178
1671.000000	37.519730
1670.000000	37.720060
1669.000000	37.910238
1668.000000	38.085086
1667.000000	38.216637
1666.000000	38.331200
1665.000000	38.447005
1664.000000	38.541887
1663.000000	38.662251
1662.000000	38.738384
1661.000000	38.825394
1660.000000	38.906810
1659.000000	38.955494
1658.000000	39.028313
1657.000000	39.060010
1656.000000	39.106311
1655.000000	39.139561
1654.000000	39.151370
1653.000000	39.170533
1652.000000	39.175194
1651.000000	39.171879
1650.000000	39.153959
1649.000000	39.142255
1648.000000	39.118638
1647.000000	39.080519
1646.000000	39.062806
1645.000000	39.020441
1644.000000	38.986880
1643.000000	38.957566
1642.000000	38.911161
1641.000000	38.880915
1640.000000	38.820940
1639.000000	38.776814
1638.000000	38.734966
1637.000000	38.707206
1636.000000	38.664426
1635.000000	38.589743
1634.000000	38.529458
1633.000000	38.499211
1632.000000	38.421524
1631.000000	38.359685
1630.000000	38.294117
1629.000000	38.211561
1628.000000	38.143404
1627.000000	38.073174
1626.000000	37.993001
1625.000000	37.932509
1624.000000	37.853578
1623.000000	37.774130
1622.000000	37.717160
1621.000000	37.647034
1620.000000	37.583330
1619.000000	37.513101
1618.000000	37.434274
1617.000000	37.371503
1616.000000	37.297752
1615.000000	37.249897
1614.000000	37.188990
1613.000000	37.126840
1612.000000	37.039209
1611.000000	36.959036
1610.000000	36.904758
1609.000000	36.842298
1608.000000	36.759431
1607.000000	36.679362
1606.000000	36.610479
1605.000000	36.525541
1604.000000	36.452618
1603.000000	36.385600
1602.000000	36.315992
1601.000000	36.230226
1600.000000	36.138969
1599.000000	36.061178
1598.000000	35.975619
1597.000000	35.898242
1596.000000	35.831224
1595.000000	35.756851
1594.000000	35.697913
1593.000000	35.639699
1592.000000	35.559940
1591.000000	35.512706
1590.000000	35.445170
1589.000000	35.382606
1588.000000	35.327396
1587.000000	35.286067
1586.000000	35.225574
1585.000000	35.150166
1584.000000	35.082733
1583.000000	35.056941
1582.000000	35.002560
1581.000000	34.939271
1580.000000	34.906124
1579.000000	34.862309
1578.000000	34.790008
1577.000000	34.756861
1576.000000	34.733866
1575.000000	34.691086
1574.000000	34.662911
1573.000000	34.641055
1572.000000	34.628315
1571.000000	34.609462
1570.000000	34.592164
1569.000000	34.574348
1568.000000	34.569065
1567.000000	34.554771
1566.000000	34.558292
1565.000000	34.560778
1564.000000	34.547002
1563.000000	34.556532
1562.000000	34.550938
1561.000000	34.515098
1560.000000	34.491171
1559.000000	34.481848
1558.000000	34.454502
1557.000000	34.423427
1556.000000	34.395253
1555.000000	34.365421
1554.000000	34.321502
1553.000000	34.270539
1552.000000	34.221751
1551.000000	34.180629
1550.000000	34.105842
1549.000000	34.047318
1548.000000	33.998426
1547.000000	33.929958
1546.000000	33.869880
1545.000000	33.813945
1544.000000	33.754385
1543.000000	33.694100
1542.000000	33.649248
1541.000000	33.611130
1540.000000	33.571250
1539.000000	33.521012
1538.000000	33.482894
1537.000000	33.435038
1536.000000	33.391430
1535.000000	33.360252
1534.000000	33.313432
1533.000000	33.273138
1532.000000	33.221657
1531.000000	33.168934
1530.000000	33.128018
1529.000000	33.083581
1528.000000	33.017495
1527.000000	32.962078
1526.000000	32.895785
1525.000000	32.821206
1524.000000	32.746108
1523.000000	32.671632
1522.000000	32.607721
1521.000000	32.546711
1520.000000	32.482075
1519.000000	32.419304
1518.000000	32.364301
1517.000000	32.298837
1516.000000	32.220839
1515.000000	32.145534
1514.000000	32.063496
1513.000000	31.988502
1512.000000	31.913715
1511.000000	31.819247
1510.000000	31.731927
1509.000000	31.660247
1508.000000	31.594058
1507.000000	31.508602
1506.000000	31.431225
1505.000000	31.334893
1504.000000	31.232139
1503.000000	31.166156
1502.000000	31.090023
1501.000000	31.003531
1500.000000	30.950704
1499.000000	30.889693
1498.000000	30.822779
1497.000000	30.757004
1496.000000	30.687603
1495.000000	30.630218
1494.000000	30.584745
1493.000000	30.542380
1492.000000	30.499082
1491.000000	30.450501
1490.000000	30.410622
1489.000000	30.379133
1488.000000	30.351062
1487.000000	30.308800
1486.000000	30.265399
1485.000000	30.230906
1484.000000	30.193408
1483.000000	30.152493
1482.000000	30.127633
1481.000000	30.123490
1480.000000	30.100495
1479.000000	30.080710
1478.000000	30.050360
1477.000000	30.035859
1476.000000	30.053261
1475.000000	30.040002
1474.000000	30.035444
1473.000000	30.061237
1472.000000	30.089100
1471.000000	30.110749
1470.000000	30.123076
1469.000000	30.137784
1468.000000	30.156740
1467.000000	30.182739
1466.000000	30.208117
1465.000000	30.240228
1464.000000	30.260737
1463.000000	30.299892
1462.000000	30.330138
1461.000000	30.395706
1460.000000	30.436414
1459.000000	30.474533
1458.000000	30.535957
1457.000000	30.603804
1456.000000	30.653835
1455.000000	30.722303
1454.000000	30.797505
1453.000000	30.883582
1452.000000	30.966759
1451.000000	31.051801
1450.000000	31.135082
1449.000000	31.209972
1448.000000	31.270361
1447.000000	31.367418
1446.000000	31.470794
1445.000000	31.577795
1444.000000	31.655793
1443.000000	31.732963
1442.000000	31.839239
1441.000000	31.945515
1440.000000	32.054173
1439.000000	32.175573
1438.000000	32.275841
1437.000000	32.409567
1436.000000	32.520193
1435.000000	32.636517
1434.000000	32.783916
1433.000000	32.929450
1432.000000	33.057478
1431.000000	33.205084
1430.000000	33.341192
1429.000000	33.506304
1428.000000	33.671829
1427.000000	33.862629
1426.000000	34.055915
1425.000000	34.253033
1424.000000	34.465379
1423.000000	34.690464
1422.000000	34.925287
1421.000000	35.134525
1420.000000	35.403115
1419.000000	35.691801
1418.000000	35.935221
1417.000000	36.172841
1416.000000	36.419783
1415.000000	36.733225
1414.000000	37.061479
1413.000000	37.397813
1412.000000	37.686292
1411.000000	37.969591
1410.000000	38.372219
1409.000000	38.784582
1408.000000	39.157067
1407.000000	39.539392
1406.000000	39.936011
1405.000000	40.327451
1404.000000	40.755560
1403.000000	41.114682
1402.000000	41.537197
1401.000000	41.947696
1400.000000	42.457532
1399.000000	42.861506
1398.000000	43.196182
1397.000000	43.503927
1396.000000	43.923957
1395.000000	44.368846
1394.000000	44.754174
1393.000000	45.058708
1392.000000	45.382923
1391.000000	45.777885
1390.000000	46.167254
1389.000000	46.532176
1388.000000	47.005551
1387.000000	47.486176
1386.000000	47.917703
1385.000000	48.363110
1384.000000	48.874188
1383.000000	49.330989
1382.000000	49.823837
1381.000000	50.231125
1380.000000	50.557205
1379.000000	50.797206
1378.000000	51.035137
1377.000000	51.220136
1376.000000	51.430513
1375.000000	51.608986
1374.000000	51.809730
1373.000000	52.019589
1372.000000	52.253687
1371.000000	52.532015
1370.000000	52.780510
1369.000000	53.012432
1368.000000	53.254092
1367.000000	53.464987
1366.000000	53.659723
1365.000000	53.817894
1364.000000	53.996885
1363.000000	54.137965
1362.000000	54.297069
1361.000000	54.473056
1360.000000	54.568767
1359.000000	54.582958
1358.000000	54.706325
1357.000000	54.782148
1356.000000	54.906551
1355.000000	55.060890
1354.000000	55.281625
1353.000000	55.493867
1352.000000	55.697407
1351.000000	56.038403
1350.000000	56.350705
1349.000000	56.637423
1348.000000	56.942786
1347.000000	57.208994
1346.000000	57.473442
1345.000000	57.724423
1344.000000	58.016942
1343.000000	58.273206
1342.000000	58.490937
1341.000000	58.728142
1340.000000	58.989379
1339.000000	59.204003
1338.000000	59.443694
1337.000000	59.670644
1336.000000	59.886822
1335.000000	60.116051
1334.000000	60.318452
1333.000000	60.502105
1332.000000	60.721908
1331.000000	60.947305
1330.000000	61.134375
1329.000000	61.291614
1328.000000	61.500231
1327.000000	61.682537
1326.000000	61.848269
1325.000000	62.005094
1324.000000	62.154668
1323.000000	62.314497
1322.000000	62.469975
1321.000000	62.608983
1320.000000	62.750995
1319.000000	62.874363
1318.000000	62.995969
1317.000000	63.133527
1316.000000	63.283205
1315.000000	63.393106
1314.000000	63.487678
1313.000000	63.615188
1312.000000	63.733376
1311.000000	63.829709
1310.000000	63.912161
1309.000000	64.006318
1308.000000	64.104929
1307.000000	64.168839
1306.000000	64.239276
1305.000000	64.320589
1304.000000	64.388332
1303.000000	64.455764
1302.000000	64.490257
1301.000000	64.550854
1300.000000	64.601402
1299.000000	64.634652
1298.000000	64.671321
1297.000000	64.708196
1296.000000	64.745279
1295.000000	64.782362
1294.000000	64.793859
1293.000000	64.819859
1292.000000	64.855388
1291.000000	64.856009
1290.000000	64.856734
1289.000000	64.873100
1288.000000	64.862224
1287.000000	64.864399
1286.000000	64.850726
1285.000000	64.833635
1284.000000	64.813540
1283.000000	64.785987
1282.000000	64.745900
1281.000000	64.721558
1280.000000	64.699288
1279.000000	64.668524
1278.000000	64.643146
1277.000000	64.610207
1276.000000	64.582964
1275.000000	64.567634
1274.000000	64.545053
1273.000000	64.529619
1272.000000	64.509938
1271.000000	64.501444
1270.000000	64.475859
1269.000000	64.456282
1268.000000	64.443749
1267.000000	64.434426
1266.000000	64.422929
1265.000000	64.409152
1264.000000	64.390507
1263.000000	64.365233
1262.000000	64.335401
1261.000000	64.310127
1260.000000	64.279673
1259.000000	64.252431
1258.000000	64.223738
1257.000000	64.207372
1256.000000	64.172154
1255.000000	64.119327
1254.000000	64.096849
1253.000000	64.045058
1252.000000	64.000517
1251.000000	63.952972
1250.000000	63.881293
1249.000000	63.806299
1248.000000	63.753264
1247.000000	63.683346
1246.000000	63.590846
1245.000000	63.506323
1244.000000	63.430293
1243.000000	63.329714
1242.000000	63.230792
1241.000000	63.135288
1240.000000	63.057497
1239.000000	62.976081
1238.000000	62.872602
1237.000000	62.773576
1236.000000	62.680041
1235.000000	62.589613
1234.000000	62.495249
1233.000000	62.385865
1232.000000	62.275135
1231.000000	62.172588
1230.000000	62.078327
1229.000000	61.969876
1228.000000	61.851688
1227.000000	61.745722
1226.000000	61.637789
1225.000000	61.512971
1224.000000	61.399237
1223.000000	61.292340
1222.000000	61.174151
1221.000000	61.059485
1220.000000	60.939950
1219.000000	60.824248
1218.000000	60.718800
1217.000000	60.607967
1216.000000	60.505109
1215.000000	60.419342
1214.000000	60.328810
1213.000000	60.230096
1212.000000	60.122680
1211.000000	60.024898
1210.000000	59.951354
1209.000000	59.884129
1208.000000	59.761694
1207.000000	59.648063
1206.000000	59.564782
1205.000000	59.497039
1204.000000	59.439343
1203.000000	59.385894
1202.000000	59.348605
1201.000000	59.268949
1200.000000	59.231970
1199.000000	59.184943
1198.000000	59.114196
1197.000000	59.044899
1196.000000	58.952400
1195.000000	58.843845
1194.000000	58.714055
1193.000000	58.558784
1192.000000	58.376996
1191.000000	58.166930
1190.000000	57.925788
1189.000000	57.706193
1188.000000	57.502652
1187.000000	57.351317
1186.000000	57.234993
1185.000000	57.175330
1184.000000	57.179680
1183.000000	57.244937
1182.000000	57.398862
1181.000000	57.628712
1180.000000	57.873375
1179.000000	58.146006
1178.000000	58.423090
1177.000000	58.663921
1176.000000	58.883620
1175.000000	59.100523
1174.000000	59.307482
1173.000000	59.507812
1172.000000	59.694883
1171.000000	59.883818
1170.000000	60.064881
1169.000000	60.291313
1168.000000	60.503348
1167.000000	60.719940
1166.000000	60.940986
1165.000000	61.160271
1164.000000	61.391158
1163.000000	61.648147
1162.000000	61.895503
1161.000000	62.160261
1160.000000	62.414351
1159.000000	62.670304
1158.000000	62.918593
1157.000000	63.158387
1156.000000	63.390724
1155.000000	63.601930
1154.000000	63.813860
1153.000000	63.979386
1152.000000	64.146983
1151.000000	64.266518
1150.000000	64.379009
1149.000000	64.509938
1148.000000	64.615489
1147.000000	64.710579
1146.000000	64.853316
1145.000000	64.997918
1144.000000	65.149253
1143.000000	65.321304
1142.000000	65.549808
1141.000000	65.791467
1140.000000	66.050321
1139.000000	66.322641
1138.000000	66.609669
1137.000000	66.890483
1136.000000	67.205271
1135.000000	67.539016
1134.000000	67.897413
1133.000000	68.175223
1132.000000	68.438945
1131.000000	68.688891
1130.000000	68.944326
1129.000000	69.169619
1128.000000	69.366531
1127.000000	69.523252
1126.000000	69.645583
1125.000000	69.776512
1124.000000	69.860414
1123.000000	69.949185
1122.000000	69.991343
1121.000000	70.046346
1120.000000	70.064680
1119.000000	70.108185
1118.000000	70.134495
1117.000000	70.162048
1116.000000	70.163084
1115.000000	70.157076
1114.000000	70.162048
1113.000000	70.167538
1112.000000	70.163084
1111.000000	70.176032
1110.000000	70.168367
1109.000000	70.160805
1108.000000	70.176343
1107.000000	70.160909
1106.000000	70.165777
1105.000000	70.184319
1104.000000	70.165881
1103.000000	70.160598
1102.000000	70.164431
1101.000000	70.180693
1100.000000	70.162980
1099.000000	70.166606
1098.000000	70.169610
1097.000000	70.151483
1096.000000	70.148582
1095.000000	70.157905
1094.000000	70.118440
1093.000000	70.094201
1092.000000	70.108289
1091.000000	70.081771
1090.000000	70.056601
1089.000000	70.047693
1088.000000	69.991758
1087.000000	70.001909
1086.000000	69.966380
1085.000000	69.938516
1084.000000	69.899362
1083.000000	69.864351
1082.000000	69.828718
1081.000000	69.802097
1080.000000	69.751859
1079.000000	69.710219
1078.000000	69.681527
1077.000000	69.638540
1076.000000	69.580015
1075.000000	69.523459
1074.000000	69.462449
1073.000000	69.433549
1072.000000	69.353065
1071.000000	69.309974
1070.000000	69.255075
1069.000000	69.191890
1068.000000	69.108195
1067.000000	69.066140
1066.000000	68.995704
1065.000000	68.939354
1064.000000	68.873372
1063.000000	68.824377
1062.000000	68.744722
1061.000000	68.674596
1060.000000	68.602295
1059.000000	68.527198
1058.000000	68.452618
1057.000000	68.376381
1056.000000	68.306980
1055.000000	68.230122
1054.000000	68.168801
1053.000000	68.095982
1052.000000	68.033003
1051.000000	67.968575
1050.000000	67.908186
1049.000000	67.852769
1048.000000	67.789169
1047.000000	67.752397
1046.000000	67.694494
1045.000000	67.641977
1044.000000	67.602616
1043.000000	67.566362
1042.000000	67.509391
1041.000000	67.480802
1040.000000	67.438230
1039.000000	67.402390
1038.000000	67.369865
1037.000000	67.335682
1036.000000	67.322113
1035.000000	67.284720
1034.000000	67.249605
1033.000000	67.208483
1032.000000	67.162492
1031.000000	67.127999
1030.000000	67.112668
1029.000000	67.048654
1028.000000	66.951079
1027.000000	66.993755
1026.000000	66.918139
1025.000000	66.863965
1024.000000	66.829472
1023.000000	66.802230
1022.000000	66.742359
1021.000000	66.699476
1020.000000	66.646027
1019.000000	66.595478
1018.000000	66.555910
1017.000000	66.499146
1016.000000	66.472318
1015.000000	66.430263
1014.000000	66.394527
1013.000000	66.360863
1012.000000	66.322019
1011.000000	66.271471
1010.000000	66.241328
1009.000000	66.196477
1008.000000	66.157840
1007.000000	66.146342
1006.000000	66.120654
1005.000000	66.073316
1004.000000	66.035612
1003.000000	65.992107
1002.000000	65.966315
1001.000000	65.930061
1000.000000	65.886142
999.000000	65.835283
998.000000	65.798718
997.000000	65.768886
996.000000	65.749930
995.000000	65.721963
994.000000	65.683326
993.000000	65.677526
992.000000	65.645415
991.000000	65.614029
990.000000	65.613615
989.000000	65.633607
988.000000	65.622834
987.000000	65.621695
986.000000	65.625424
985.000000	65.630188
984.000000	65.647694
983.000000	65.653805
982.000000	65.677733
981.000000	65.690267
980.000000	65.707461
979.000000	65.725174
978.000000	65.751173
977.000000	65.773547
976.000000	65.808040
975.000000	65.841705
974.000000	65.868740
973.000000	65.905098
972.000000	65.953885
971.000000	66.011581
970.000000	66.062440
969.000000	66.128837
968.000000	66.195752
967.000000	66.255726
966.000000	66.296331
965.000000	66.365524
964.000000	66.436893
963.000000	66.493863
962.000000	66.544308
961.000000	66.592578
960.000000	66.655867
959.000000	66.708177
958.000000	66.783378
957.000000	66.861065
956.000000	66.904777
955.000000	66.970242
954.000000	67.045339
953.000000	67.113186
952.000000	67.195224
951.000000	67.273533
950.000000	67.339101
949.000000	67.417720
948.000000	67.493543
947.000000	67.569262
946.000000	67.640527
945.000000	67.711378
944.000000	67.792276
943.000000	67.853701
942.000000	67.923620
941.000000	67.983180
940.000000	68.018502
939.000000	68.062110
938.000000	68.103232
937.000000	68.159789
936.000000	68.210027
935.000000	68.256328
934.000000	68.301283
933.000000	68.367058
932.000000	68.444331
931.000000	68.505031
930.000000	68.566559
929.000000	68.630988
928.000000	68.726595
927.000000	68.805214
926.000000	68.863428
925.000000	68.950127
924.000000	69.059821
923.000000	69.132951
922.000000	69.197483
921.000000	69.286047
920.000000	69.383104
919.000000	69.466178
918.000000	69.555052
917.000000	69.656667
916.000000	69.777134
915.000000	69.881856
914.000000	70.000666
913.000000	70.121444
912.000000	70.221401
911.000000	70.367039
910.000000	70.503147
909.000000	70.629104
908.000000	70.754129
907.000000	70.888683
906.000000	71.036703
905.000000	71.171050
904.000000	71.298457
903.000000	71.404423
902.000000	71.542292
901.000000	71.686168
900.000000	71.800731
899.000000	71.915605
898.000000	72.026646
897.000000	72.133854
896.000000	72.247588
895.000000	72.352725
894.000000	72.472363
893.000000	72.581126
892.000000	72.677665
891.000000	72.779591
890.000000	72.884831
889.000000	72.992039
888.000000	73.080810
887.000000	73.185947
886.000000	73.295537
885.000000	73.393113
884.000000	73.472250
883.000000	73.587642
882.000000	73.708730
881.000000	73.811277
880.000000	73.938684
879.000000	74.046411
878.000000	74.152065
877.000000	74.256995
876.000000	74.354881
875.000000	74.473794
874.000000	74.563083
873.000000	74.615910
872.000000	74.634451
871.000000	74.662937
870.000000	74.739174
869.000000	74.924173
868.000000	75.161585
867.000000	75.421371
866.000000	75.706846
865.000000	75.930378
864.000000	76.174420
863.000000	76.405410
862.000000	76.651834
861.000000	76.895150
860.000000	77.159391
859.000000	77.413272
858.000000	77.659800
857.000000	76.776700
856.000000	78.085400
855.000000	78.117300
854.000000	77.879000
853.000000	78.835500
852.000000	79.077700
851.000000	79.735500
850.000000	79.814000
849.000000	80.114500
848.000000	80.283800
847.000000	80.525100
846.000000	81.057200
845.000000	81.007600
844.000000	81.432200
843.000000	81.430800
842.000000	81.923300
841.000000	82.135300
840.000000	82.152800
839.000000	82.741400
838.000000	82.688900
837.000000	82.976600
836.000000	83.242300
835.000000	83.380600
834.000000	83.391300
833.000000	83.717000
832.000000	83.812400
831.000000	83.944700
830.000000	84.061300
829.000000	84.292300
828.000000	84.397300
827.000000	84.667800
826.000000	84.455100
825.000000	84.462100
824.000000	84.746000
823.000000	84.756900
822.000000	84.924700
821.000000	84.664900
820.000000	84.755400
819.000000	84.586900
818.000000	84.528300
817.000000	84.629500
816.000000	84.653000
815.000000	85.086700
814.000000	84.995000
813.000000	84.900100
812.000000	85.109400
811.000000	85.298600
810.000000	85.267700
809.000000	85.390700
808.000000	85.523200
807.000000	85.499000
806.000000	85.784500
805.000000	86.189200
804.000000	86.058000
803.000000	86.194000
802.000000	86.250100
801.000000	86.178700
800.000000	86.704200
799.000000	86.760900
798.000000	86.844700
797.000000	87.030600
796.000000	87.108500
795.000000	87.298900
794.000000	87.313100
793.000000	87.390200
792.000000	87.362500
791.000000	87.528800
790.000000	87.697500
789.000000	87.677400
788.000000	87.770000
787.000000	87.775000
786.000000	87.691700
785.000000	87.784800
784.000000	87.588200
783.000000	87.675200
782.000000	87.636600
781.000000	87.503200
780.000000	87.456900
779.000000	87.317000
778.000000	87.387300
777.000000	87.354900
776.000000	87.258000
775.000000	87.197600
774.000000	87.418600
773.000000	87.272100
772.000000	87.178800
771.000000	87.265600
770.000000	87.231800
769.000000	87.275300
768.000000	87.221200
767.000000	87.166500
766.000000	87.180400
765.000000	87.141600
764.000000	87.143900
763.000000	87.078000
762.000000	87.138200
761.000000	86.992300
760.000000	86.820100
759.000000	86.793600
758.000000	86.703600
757.000000	86.700000
756.000000	86.620200
755.000000	86.441600
754.000000	86.415200
753.000000	86.243100
752.000000	86.093500
751.000000	85.949000
750.000000	85.718400
749.000000	85.469700
748.000000	85.190100
747.000000	84.995900
746.000000	84.636100
745.000000	84.381000
744.000000	83.985500
743.000000	83.618900
742.000000	83.168100
741.000000	82.840000
740.000000	82.561000
739.000000	82.157700
738.000000	81.649600
737.000000	81.451000
736.000000	81.075100
735.000000	80.762900
734.000000	80.456100
733.000000	80.300800
732.000000	80.040800
731.000000	79.846300
730.000000	79.598900
729.000000	79.335100
728.000000	79.142200
727.000000	79.043600
726.000000	78.914800
725.000000	78.732300
724.000000	78.464800
723.000000	78.385800
722.000000	78.228800
721.000000	78.135500
720.000000	77.965900
719.000000	77.845100
718.000000	77.805800
717.000000	77.747600
716.000000	77.689900
715.000000	77.694700
714.000000	77.599100
713.000000	77.525700
712.000000	77.567700
711.000000	77.566600
710.000000	77.640800
709.000000	77.653200
708.000000	77.680300
707.000000	77.690000
706.000000	77.654500
705.000000	77.661300
704.000000	77.709000
703.000000	77.634600
702.000000	77.643600
701.000000	77.622200
700.000000	77.506600
699.000000	77.451600
698.000000	77.448000
697.000000	77.370300
696.000000	77.272800
695.000000	77.225900
694.000000	77.081400
693.000000	76.982500
692.000000	76.902600
691.000000	76.791100
690.000000	76.637100
689.000000	76.416400
688.000000	76.193700
687.000000	75.986400
686.000000	75.673400
685.000000	75.304800
684.000000	74.913500
683.000000	74.443100
682.000000	73.918900
681.000000	73.325400
680.000000	72.653700
679.000000	72.002700
678.000000	71.296400
677.000000	70.515600
676.000000	69.717800
675.000000	68.894600
674.000000	68.129900
673.000000	67.353800
672.000000	66.538800
671.000000	65.785900
670.000000	64.979100
669.000000	64.199700
668.000000	63.491800
667.000000	62.766200
666.000000	62.088700
665.000000	61.523200
664.000000	60.932400
663.000000	60.378200
662.000000	59.915100
661.000000	59.538600
660.000000	59.208000
659.000000	58.921400
658.000000	58.749700
657.000000	58.667000
656.000000	58.642900
655.000000	58.741900
654.000000	59.011500
653.000000	59.371600
652.000000	59.806800
651.000000	60.329700
650.000000	61.003300
649.000000	61.730300
648.000000	62.494900
647.000000	63.346200
646.000000	64.262300
645.000000	65.174400
644.000000	66.107600
643.000000	67.045500
642.000000	67.950900
641.000000	68.867500
640.000000	69.753900
639.000000	70.568900
638.000000	71.375100
637.000000	72.149900
636.000000	72.886400
635.000000	73.598100
634.000000	74.276600
633.000000	74.932700
632.000000	75.576100
631.000000	76.174200
630.000000	76.791500
629.000000	77.424500
628.000000	78.022800
627.000000	78.604000
626.000000	79.207200
625.000000	79.790000
624.000000	80.391900
623.000000	81.053400
622.000000	81.640800
621.000000	82.182700
620.000000	82.749700
619.000000	83.287300
618.000000	83.798500
617.000000	84.277200
616.000000	84.703500
615.000000	85.111600
614.000000	85.449100
613.000000	85.797800
612.000000	86.124300
611.000000	86.349600
610.000000	86.577900
609.000000	86.799200
608.000000	86.984100
607.000000	87.139900
606.000000	87.287900
605.000000	87.464100
604.000000	87.601700
603.000000	87.739100
602.000000	87.893200
601.000000	88.061600
600.000000	88.208500
599.000000	88.358400
598.000000	88.526200
597.000000	88.693200
596.000000	88.823800
595.000000	88.929300
594.000000	89.062100
593.000000	89.176000
592.000000	89.250300
591.000000	89.295800
590.000000	89.336400
589.000000	89.312500
588.000000	89.327800
587.000000	89.307000
586.000000	89.218200
585.000000	89.103400
584.000000	89.024700
583.000000	88.860400
582.000000	88.702800
581.000000	88.546500
580.000000	88.323700
579.000000	88.111400
578.000000	87.880500
577.000000	87.640500
576.000000	87.382400
575.000000	87.103000
574.000000	86.856000
573.000000	86.591500
572.000000	86.307200
571.000000	86.047200
570.000000	85.777900
569.000000	85.515900
568.000000	85.215500
567.000000	84.973500
566.000000	84.687600
565.000000	84.361000
564.000000	84.044900
563.000000	83.752700
562.000000	83.350100
561.000000	82.991200
560.000000	82.563500
559.000000	82.119900
558.000000	81.627900
557.000000	81.133000
556.000000	80.628000
555.000000	80.041600
554.000000	79.377900
553.000000	78.709800
552.000000	77.962200
551.000000	77.097800
550.000000	76.247900
549.000000	75.297400
548.000000	74.321400
547.000000	73.244900
546.000000	72.118100
545.000000	70.917000
544.000000	69.657400
543.000000	68.352800
542.000000	67.062600
541.000000	65.677500
540.000000	64.311800
539.000000	62.966400
538.000000	61.653100
537.000000	60.356100
536.000000	59.037400
535.000000	57.803500
534.000000	56.562400
533.000000	55.368300
532.000000	54.239500
531.000000	53.123600
530.000000	52.074900
529.000000	51.048100
528.000000	50.097300
527.000000	49.209500
526.000000	48.388400
525.000000	47.581500
524.000000	46.838800
523.000000	46.104100
522.000000	45.402700
521.000000	44.765500
520.000000	44.129000
519.000000	43.593900
518.000000	43.027900
517.000000	42.463700
516.000000	41.938200
515.000000	41.398000
514.000000	40.834400
513.000000	40.299300
512.000000	39.728600
511.000000	39.145000
510.000000	38.551100
509.000000	37.975900
508.000000	37.330400
507.000000	36.678500
506.000000	36.053300
505.000000	35.442400
504.000000	34.790200
503.000000	34.146400
502.000000	33.561900
501.000000	32.976200
500.000000	32.470800
499.000000	32.002900
498.000000	31.633800
497.000000	31.246200
496.000000	30.929900
495.000000	30.714000
494.000000	30.555700
493.000000	30.417400
492.000000	30.324300
491.000000	30.321900
490.000000	30.291600
489.000000	30.294400
488.000000	30.347200
487.000000	30.366100
486.000000	30.426700
485.000000	30.469700
484.000000	30.555000
483.000000	30.625000
482.000000	30.685900
481.000000	30.695400
480.000000	30.713500
479.000000	30.727800
478.000000	30.724800
477.000000	30.733700
476.000000	30.731600
475.000000	30.685300
474.000000	30.656200
473.000000	30.606800
472.000000	30.587600
471.000000	30.500900
470.000000	30.440900
469.000000	30.361700
468.000000	30.295100
467.000000	30.189000
466.000000	30.081000
465.000000	29.956000
464.000000	29.846300
463.000000	29.724700
462.000000	29.574200
461.000000	29.427700
460.000000	29.303800
459.000000	29.138300
458.000000	28.949400
457.000000	28.781300
456.000000	28.613300
455.000000	28.369300
454.000000	28.181000
453.000000	27.931200
452.000000	27.692000
451.000000	27.443100
450.000000	27.193500
449.000000	26.884200
448.000000	26.617900
447.000000	26.293000
446.000000	25.976700
445.000000	25.616800
444.000000	25.277000
443.000000	24.922400
442.000000	24.532800
441.000000	24.164100
440.000000	23.702300
439.000000	23.238200
438.000000	22.828400
437.000000	22.354000
436.000000	21.854800
435.000000	21.368400
434.000000	20.869900
433.000000	20.349100
432.000000	19.798300
431.000000	19.224900
430.000000	18.696100
429.000000	18.171000
428.000000	17.606900
427.000000	17.044900
426.000000	16.532100
425.000000	15.993100
424.000000	15.450500
423.000000	14.928000
422.000000	14.408500
421.000000	13.900200
420.000000	13.488300
419.000000	13.023200
418.000000	12.583100
417.000000	12.158400
416.000000	11.804700
415.000000	11.411000
414.000000	11.086300
413.000000	10.734200
412.000000	10.415800
411.000000	10.135600
410.000000	9.867700
409.000000	9.646900
408.000000	9.417000
407.000000	9.209600
406.000000	9.025100
405.000000	8.852200
404.000000	8.678000
403.000000	8.519800
402.000000	8.383500
401.000000	8.246800
400.000000	8.117100
399.000000	8.009800
398.000000	7.931900
397.000000	7.828700
396.000000	7.714900
395.000000	7.623600
394.000000	7.547900
393.000000	7.490300
392.000000	7.424600
391.000000	7.342500
390.000000	7.289500
389.000000	7.225600
388.000000	7.155800
387.000000	7.116700
386.000000	7.069300
385.000000	7.026000
384.000000	6.961900
383.000000	6.932100
382.000000	6.883500
381.000000	6.853400
380.000000	6.831900
379.000000	6.772000
378.000000	6.739300
377.000000	6.735600
376.000000	6.662900
375.000000	6.458800
374.000000	6.401100
373.000000	6.595400
372.000000	6.535000
371.000000	6.546300
370.000000	6.693900
369.000000	6.615800
368.000000	6.511600
367.000000	6.420500
366.000000	6.488900
365.000000	6.544800
364.000000	6.471300
363.000000	6.378500
362.000000	6.288700
361.000000	6.340700
360.000000	6.313800
359.000000	6.339800
358.000000	6.326400
357.000000	6.341400
356.000000	6.277700
355.000000	6.207900
354.000000	6.277700
353.000000	6.187000
352.000000	6.130400
351.000000	6.174100
350.000000	6.207600
349.000000	6.212000
348.000000	6.108700
347.000000	6.071200
346.000000	6.066900
345.000000	6.099200
344.000000	6.193800
343.000000	6.173700
342.000000	6.042200
341.000000	6.088900
340.000000	6.137200
339.000000	6.141400
338.000000	5.997300
337.000000	5.819500
336.000000	5.951400
335.000000	6.025300
334.000000	5.953800
333.000000	6.037300
332.000000	5.960700
331.000000	5.793400
330.000000	5.803600
329.000000	5.705800
328.000000	5.914100
327.000000	6.109200
326.000000	6.004200
325.000000	5.880400
324.000000	6.236300
323.000000	6.115900
322.000000	6.281900
321.000000	6.573300
320.000000	6.310900
319.000000	5.995700
318.000000	6.180600
317.000000	6.457100
316.000000	6.045300
315.000000	5.745100
314.000000	5.704400
313.000000	5.688800
312.000000	5.690600
311.000000	5.673100
310.000000	5.682400
309.000000	5.685600
308.000000	5.723400
307.000000	5.717200
306.000000	5.720600
305.000000	5.743400
304.000000	5.700600
303.000000	5.668900
302.000000	5.720500
301.000000	5.741900
300.000000	5.735100
299.000000	5.725900
298.000000	5.733600
297.000000	5.755000
296.000000	5.752200
295.000000	5.722700
294.000000	5.764300
293.000000	5.775300
292.000000	5.769900
291.000000	5.778400
290.000000	5.739600
289.000000	5.736200
288.000000	5.740400
287.000000	5.752100
286.000000	5.762700
285.000000	5.798100
284.000000	5.818200
283.000000	5.807100
282.000000	5.796000
281.000000	5.801800
280.000000	5.827100
279.000000	5.838000
278.000000	5.823300
277.000000	5.858100
276.000000	5.845200
275.000000	5.858900
274.000000	5.866500
273.000000	5.882000
272.000000	5.857400
271.000000	5.894700
270.000000	5.940700
269.000000	5.935600
268.000000	5.984700
267.000000	5.983500
266.000000	5.972600
265.000000	6.002700
264.000000	6.098400
263.000000	6.113600
262.000000	6.131300
261.000000	6.167000
260.000000	6.180100
259.000000	6.150500
258.000000	6.166900
257.000000	6.185700
256.000000	6.238000
255.000000	6.216000
254.000000	6.242300
253.000000	6.268100
252.000000	6.276300
251.000000	6.250500
250.000000	6.290300
