PE UV       SUBTECH     SPECTRUM    ASCII       PEDS        4.00        
   -1
CICIMAUCR0234-1.ASC
24/06/14
15:10:23.00
24/06/14
15:10:23.00
Vinicio Soto Monge
C. resplendens. Sex M. Dorsal.
250,000000
1
Lambda 1050
1050L1511233
PerkinElmer UV WinLab 6.3.2.0749 / 2.02.05 Lambda 900 UV/VIS/NIR, Aug  7 2015 09:38:08

0
0
3350/servo 860,8/2
0
0
UV/VIS
1
1
1
DoubleDePol,CommonBeamDepol,RBeamAtt,SBeamAtt,60mm sphere, WB InGaAs Detector
0
0
0
0
Program
Program
3350/servo 860,8/2
3350/0,2 860,8/0,2
3350/0,2 860,8/0,2
0
15.00
 
 
 
0
 
860,8
319,2
860,8
Front
100
on
S:100 R:100
0
0
0
0
 
0
 
 
 
0
 
 
0
0
0
0
0
 
 
 
 
0
0


0
0
#HDR
-1
-1
#GR
nm
%R
1.0
0.0
2500,000000
-1,000000
2251
8
92,850900
5,313300
#DATA
2500.000000	7.338709
2499.000000	7.537618
2498.000000	7.293119
2497.000000	7.158698
2496.000000	7.180585
2495.000000	7.249130
2494.000000	7.211548
2493.000000	7.179945
2492.000000	7.083106
2491.000000	7.159765
2490.000000	7.193611
2489.000000	7.164997
2488.000000	7.177169
2487.000000	7.136276
2486.000000	7.204501
2485.000000	7.086736
2484.000000	7.049794
2483.000000	7.090793
2482.000000	7.132753
2481.000000	7.132112
2480.000000	7.073604
2479.000000	7.057268
2478.000000	7.072216
2477.000000	7.044349
2476.000000	7.070294
2475.000000	7.115884
2474.000000	7.022995
2473.000000	7.021607
2472.000000	7.037089
2471.000000	7.042107
2470.000000	7.036875
2469.000000	7.068372
2468.000000	7.053211
2467.000000	7.062073
2466.000000	7.080543
2465.000000	7.060258
2464.000000	7.092608
2463.000000	7.092715
2462.000000	7.123891
2461.000000	7.140654
2460.000000	7.159979
2459.000000	7.148875
2458.000000	7.178770
2457.000000	7.224253
2456.000000	7.257031
2455.000000	7.304436
2454.000000	7.328139
2453.000000	7.343834
2452.000000	7.382377
2451.000000	7.419639
2450.000000	7.455086
2449.000000	7.515517
2448.000000	7.551391
2447.000000	7.591643
2446.000000	7.644813
2445.000000	7.662750
2444.000000	7.693820
2443.000000	7.738983
2442.000000	7.777526
2441.000000	7.828988
2440.000000	7.892729
2439.000000	7.888138
2438.000000	7.932340
2437.000000	7.976969
2436.000000	8.039749
2435.000000	8.059394
2434.000000	8.084378
2433.000000	8.114593
2432.000000	8.157407
2431.000000	8.183245
2430.000000	8.228835
2429.000000	8.254032
2428.000000	8.263108
2427.000000	8.287344
2426.000000	8.316278
2425.000000	8.335390
2424.000000	8.350337
2423.000000	8.377349
2422.000000	8.416854
2421.000000	8.427851
2420.000000	8.451874
2419.000000	8.467675
2418.000000	8.484545
2417.000000	8.521059
2416.000000	8.525757
2415.000000	8.531843
2414.000000	8.569212
2413.000000	8.584480
2412.000000	8.588323
2411.000000	8.613307
2410.000000	8.624091
2409.000000	8.652064
2408.000000	8.666051
2407.000000	8.685269
2406.000000	8.693063
2405.000000	8.707049
2404.000000	8.739934
2403.000000	8.765345
2402.000000	8.781787
2401.000000	8.818409
2400.000000	8.837413
2399.000000	8.869978
2398.000000	8.889303
2397.000000	8.923469
2396.000000	8.946744
2395.000000	8.957848
2394.000000	8.975785
2393.000000	9.018919
2392.000000	9.051056
2391.000000	9.061733
2390.000000	9.073157
2389.000000	9.080631
2388.000000	9.097074
2387.000000	9.107110
2386.000000	9.119068
2385.000000	9.134976
2384.000000	9.133695
2383.000000	9.142877
2382.000000	9.154088
2381.000000	9.159853
2380.000000	9.161348
2379.000000	9.157611
2378.000000	9.149817
2377.000000	9.141809
2376.000000	9.143624
2375.000000	9.127823
2374.000000	9.119815
2373.000000	9.108177
2372.000000	9.090347
2371.000000	9.077962
2370.000000	9.056822
2369.000000	9.026179
2368.000000	8.994149
2367.000000	8.977600
2366.000000	8.961798
2365.000000	8.920372
2364.000000	8.876384
2363.000000	8.846489
2362.000000	8.815526
2361.000000	8.765879
2360.000000	8.714737
2359.000000	8.679183
2358.000000	8.649822
2357.000000	8.607221
2356.000000	8.573269
2355.000000	8.545616
2354.000000	8.533978
2353.000000	8.535580
2352.000000	8.519031
2351.000000	8.526398
2350.000000	8.532911
2349.000000	8.538142
2348.000000	8.568998
2347.000000	8.597185
2346.000000	8.635408
2345.000000	8.661993
2344.000000	8.670535
2343.000000	8.716445
2342.000000	8.775808
2341.000000	8.805490
2340.000000	8.808479
2339.000000	8.830367
2338.000000	8.866988
2337.000000	8.882149
2336.000000	8.909375
2335.000000	8.916956
2334.000000	8.885779
2333.000000	8.872754
2332.000000	8.865387
2331.000000	8.853749
2330.000000	8.820544
2329.000000	8.797909
2328.000000	8.757871
2327.000000	8.709719
2326.000000	8.654092
2325.000000	8.595156
2324.000000	8.549033
2323.000000	8.485826
2322.000000	8.417174
2321.000000	8.347988
2320.000000	8.278269
2319.000000	8.201182
2318.000000	8.118971
2317.000000	8.048717
2316.000000	7.973873
2315.000000	7.881625
2314.000000	7.806353
2313.000000	7.744641
2312.000000	7.661789
2311.000000	7.601359
2310.000000	7.544131
2309.000000	7.498114
2308.000000	7.474838
2307.000000	7.448039
2306.000000	7.430423
2305.000000	7.428928
2304.000000	7.446545
2303.000000	7.464375
2302.000000	7.505374
2301.000000	7.542422
2300.000000	7.579151
2299.000000	7.630933
2298.000000	7.687947
2297.000000	7.764287
2296.000000	7.819166
2295.000000	7.871055
2294.000000	7.939173
2293.000000	7.984976
2292.000000	8.051279
2291.000000	8.064732
2290.000000	8.093453
2289.000000	8.107546
2288.000000	8.131569
2287.000000	8.127405
2286.000000	8.115234
2285.000000	8.116835
2284.000000	8.077651
2283.000000	8.060675
2282.000000	8.025121
2281.000000	7.977609
2280.000000	7.954548
2279.000000	7.918033
2278.000000	7.893369
2277.000000	7.845644
2276.000000	7.828988
2275.000000	7.802083
2274.000000	7.775818
2273.000000	7.769625
2272.000000	7.746990
2271.000000	7.730334
2270.000000	7.708020
2269.000000	7.748592
2268.000000	7.795997
2267.000000	7.840412
2266.000000	7.886429
2265.000000	7.956469
2264.000000	8.045728
2263.000000	8.150360
2262.000000	8.250295
2261.000000	8.377456
2260.000000	8.511237
2259.000000	8.650356
2258.000000	8.837627
2257.000000	8.994256
2256.000000	9.175228
2255.000000	9.381290
2254.000000	9.530979
2253.000000	9.688142
2252.000000	9.890361
2251.000000	10.054677
2250.000000	10.225399
2249.000000	10.367508
2248.000000	10.546131
2247.000000	10.666138
2246.000000	10.797783
2245.000000	10.922275
2244.000000	11.040254
2243.000000	11.170404
2242.000000	11.263506
2241.000000	11.364616
2240.000000	11.460707
2239.000000	11.548043
2238.000000	11.630041
2237.000000	11.704779
2236.000000	11.755494
2235.000000	11.839520
2234.000000	11.894292
2233.000000	11.956965
2232.000000	11.989316
2231.000000	12.069392
2230.000000	12.099074
2229.000000	12.126406
2228.000000	12.169968
2227.000000	12.167832
2226.000000	12.195806
2225.000000	12.217266
2224.000000	12.224633
2223.000000	12.214276
2222.000000	12.226768
2221.000000	12.245880
2220.000000	12.225594
2219.000000	12.229224
2218.000000	12.228904
2217.000000	12.211500
2216.000000	12.216946
2215.000000	12.182566
2214.000000	12.182460
2213.000000	12.154700
2212.000000	12.170288
2211.000000	12.129289
2210.000000	12.144023
2209.000000	12.120107
2208.000000	12.107722
2207.000000	12.113808
2206.000000	12.092134
2205.000000	12.073876
2204.000000	12.065335
2203.000000	12.075478
2202.000000	12.072061
2201.000000	12.066616
2200.000000	12.066082
2199.000000	12.051135
2198.000000	12.035333
2197.000000	12.041632
2196.000000	12.037362
2195.000000	12.018143
2194.000000	12.024122
2193.000000	12.028393
2192.000000	11.994868
2191.000000	11.998071
2190.000000	12.010456
2189.000000	11.987181
2188.000000	11.985366
2187.000000	11.974689
2186.000000	11.947463
2185.000000	11.944473
2184.000000	11.954403
2183.000000	11.939989
2182.000000	11.909880
2181.000000	11.916287
2180.000000	11.897175
2179.000000	11.899097
2178.000000	11.907211
2177.000000	11.896107
2176.000000	11.879345
2175.000000	11.894399
2174.000000	11.902727
2173.000000	11.895574
2172.000000	11.900698
2171.000000	11.919169
2170.000000	11.903047
2169.000000	11.905183
2168.000000	11.919703
2167.000000	11.926750
2166.000000	11.949598
2165.000000	11.971272
2164.000000	12.004264
2163.000000	12.009282
2162.000000	12.019318
2161.000000	12.055405
2160.000000	12.062025
2159.000000	12.090319
2158.000000	12.110284
2157.000000	12.140820
2156.000000	12.171035
2155.000000	12.169968
2154.000000	12.220255
2153.000000	12.258265
2152.000000	12.276416
2151.000000	12.288374
2150.000000	12.322646
2149.000000	12.343359
2148.000000	12.345174
2147.000000	12.375176
2146.000000	12.395035
2145.000000	12.413826
2144.000000	12.435927
2143.000000	12.468385
2142.000000	12.495611
2141.000000	12.508102
2140.000000	12.527855
2139.000000	12.532339
2138.000000	12.551344
2137.000000	12.558177
2136.000000	12.567038
2135.000000	12.577715
2134.000000	12.594051
2133.000000	12.591702
2132.000000	12.586043
2131.000000	12.593197
2130.000000	12.582306
2129.000000	12.581239
2128.000000	12.582520
2127.000000	12.573124
2126.000000	12.549956
2125.000000	12.558817
2124.000000	12.561486
2123.000000	12.548888
2122.000000	12.502764
2121.000000	12.485681
2120.000000	12.463260
2119.000000	12.454185
2118.000000	12.423329
2117.000000	12.408274
2116.000000	12.383824
2115.000000	12.347203
2114.000000	12.328198
2113.000000	12.307485
2112.000000	12.280152
2111.000000	12.246307
2110.000000	12.206589
2109.000000	12.187478
2108.000000	12.156408
2107.000000	12.126300
2106.000000	12.103344
2105.000000	12.070353
2104.000000	12.048038
2103.000000	12.017930
2102.000000	11.983978
2101.000000	11.948744
2100.000000	11.931875
2099.000000	11.914792
2098.000000	11.875074
2097.000000	11.845820
2096.000000	11.816885
2095.000000	11.785496
2094.000000	11.763928
2093.000000	11.732645
2092.000000	11.717271
2091.000000	11.699013
2090.000000	11.664848
2089.000000	11.649473
2088.000000	11.633778
2087.000000	11.607193
2086.000000	11.591284
2085.000000	11.568970
2084.000000	11.557225
2083.000000	11.532775
2082.000000	11.500745
2081.000000	11.499357
2080.000000	11.482381
2079.000000	11.448962
2078.000000	11.421630
2077.000000	11.388318
2076.000000	11.374225
2075.000000	11.345077
2074.000000	11.302583
2073.000000	11.285287
2072.000000	11.266389
2071.000000	11.244395
2070.000000	11.224109
2069.000000	11.196456
2068.000000	11.176490
2067.000000	11.149051
2066.000000	11.127804
2065.000000	11.100578
2064.000000	11.083602
2063.000000	11.069508
2062.000000	11.047514
2061.000000	11.028296
2060.000000	11.015697
2059.000000	11.003419
2058.000000	10.997547
2057.000000	10.994130
2056.000000	11.002458
2055.000000	11.022957
2054.000000	11.041535
2053.000000	11.043670
2052.000000	11.066305
2051.000000	11.102393
2050.000000	11.136025
2049.000000	11.180974
2048.000000	11.220265
2047.000000	11.264894
2046.000000	11.313367
2045.000000	11.354366
2044.000000	11.414476
2043.000000	11.486545
2042.000000	11.542278
2041.000000	11.613812
2040.000000	11.671254
2039.000000	11.713854
2038.000000	11.750476
2037.000000	11.813149
2036.000000	11.886819
2035.000000	11.924828
2034.000000	11.966468
2033.000000	12.019425
2032.000000	12.066723
2031.000000	12.095550
2030.000000	12.126620
2029.000000	12.144023
2028.000000	12.168473
2027.000000	12.207870
2026.000000	12.254955
2025.000000	12.263176
2024.000000	12.278551
2023.000000	12.301399
2022.000000	12.323500
2021.000000	12.321472
2020.000000	12.339195
2019.000000	12.355637
2018.000000	12.370585
2017.000000	12.370799
2016.000000	12.398238
2015.000000	12.388095
2014.000000	12.384892
2013.000000	12.376671
2012.000000	12.378272
2011.000000	12.374856
2010.000000	12.347737
2009.000000	12.348377
2008.000000	12.318802
2007.000000	12.297556
2006.000000	12.286665
2005.000000	12.278017
2004.000000	12.237018
2003.000000	12.207443
2002.000000	12.186944
2001.000000	12.147440
2000.000000	12.106868
1999.000000	12.070887
1998.000000	12.037468
1997.000000	12.011417
1996.000000	11.961983
1995.000000	11.937854
1994.000000	11.862902
1993.000000	11.808024
1992.000000	11.762327
1991.000000	11.711826
1990.000000	11.667303
1989.000000	11.612104
1988.000000	11.551887
1987.000000	11.490388
1986.000000	11.420028
1985.000000	11.370061
1984.000000	11.298740
1983.000000	11.248025
1982.000000	11.207560
1981.000000	11.148303
1980.000000	11.072391
1979.000000	11.026160
1978.000000	10.933059
1977.000000	10.896437
1976.000000	10.843373
1975.000000	10.765860
1974.000000	10.723473
1973.000000	10.675534
1972.000000	10.594817
1971.000000	10.525525
1970.000000	10.480789
1969.000000	10.429327
1968.000000	10.376370
1967.000000	10.327683
1966.000000	10.270776
1965.000000	10.210772
1964.000000	10.157068
1963.000000	10.108702
1962.000000	10.047097
1961.000000	9.992645
1960.000000	9.940542
1959.000000	9.915985
1958.000000	9.854807
1957.000000	9.808576
1956.000000	9.755833
1955.000000	9.711738
1954.000000	9.672020
1953.000000	9.612870
1952.000000	9.571978
1951.000000	9.530339
1950.000000	9.488913
1949.000000	9.438198
1948.000000	9.410865
1947.000000	9.365062
1946.000000	9.347445
1945.000000	9.301641
1944.000000	9.287975
1943.000000	9.245481
1942.000000	9.223594
1941.000000	9.202454
1940.000000	9.193272
1939.000000	9.194339
1938.000000	9.200745
1937.000000	9.191030
1936.000000	9.177683
1935.000000	9.186225
1934.000000	9.196261
1933.000000	9.215052
1932.000000	9.233416
1931.000000	9.239502
1930.000000	9.271426
1929.000000	9.298545
1928.000000	9.374457
1927.000000	9.404032
1926.000000	9.465851
1925.000000	9.510693
1924.000000	9.569523
1923.000000	9.630487
1922.000000	9.725084
1921.000000	9.787436
1920.000000	9.890147
1919.000000	10.034071
1918.000000	10.128240
1917.000000	10.190379
1916.000000	10.275901
1915.000000	10.365799
1914.000000	10.479294
1913.000000	10.628236
1912.000000	10.773547
1911.000000	10.956761
1910.000000	11.054774
1909.000000	11.174782
1908.000000	11.278240
1907.000000	11.403052
1906.000000	11.569077
1905.000000	11.775246
1904.000000	11.962304
1903.000000	12.148614
1902.000000	12.328198
1901.000000	12.517391
1900.000000	12.696655
1899.000000	12.897913
1898.000000	13.118389
1897.000000	13.346019
1896.000000	13.575250
1895.000000	13.758571
1894.000000	13.922994
1893.000000	14.133114
1892.000000	14.392347
1891.000000	14.699625
1890.000000	14.966226
1889.000000	15.254393
1888.000000	15.568825
1887.000000	15.859021
1886.000000	16.171424
1885.000000	16.537426
1884.000000	16.942184
1883.000000	17.375235
1882.000000	17.858254
1881.000000	18.339459
1880.000000	18.832087
1879.000000	19.286706
1878.000000	19.734278
1877.000000	20.207901
1876.000000	20.677788
1875.000000	21.108704
1874.000000	21.555315
1873.000000	21.979078
1872.000000	22.383623
1871.000000	22.769803
1870.000000	23.144452
1869.000000	23.482694
1868.000000	23.807269
1867.000000	24.024863
1866.000000	24.211173
1865.000000	24.361930
1864.000000	24.487702
1863.000000	24.606429
1862.000000	24.706791
1861.000000	24.841746
1860.000000	24.985776
1859.000000	25.099591
1858.000000	25.233478
1857.000000	25.312593
1856.000000	25.370355
1855.000000	25.400784
1854.000000	25.413596
1853.000000	25.472532
1852.000000	25.462602
1851.000000	25.446267
1850.000000	25.425554
1849.000000	25.384875
1848.000000	25.398435
1847.000000	25.432494
1846.000000	25.435910
1845.000000	25.404948
1844.000000	25.329890
1843.000000	25.256113
1842.000000	25.216288
1841.000000	25.229848
1840.000000	25.249066
1839.000000	25.251629
1838.000000	25.230595
1837.000000	25.204117
1836.000000	25.175610
1835.000000	25.146035
1834.000000	25.099804
1833.000000	25.011400
1832.000000	24.917871
1831.000000	24.833845
1830.000000	24.771279
1829.000000	24.730280
1828.000000	24.669422
1827.000000	24.592976
1826.000000	24.528061
1825.000000	24.470299
1824.000000	24.393213
1823.000000	24.305876
1822.000000	24.248862
1821.000000	24.224626
1820.000000	24.222597
1819.000000	24.213629
1818.000000	24.167825
1817.000000	24.121488
1816.000000	24.091486
1815.000000	24.065968
1814.000000	24.054544
1813.000000	24.043867
1812.000000	24.032123
1811.000000	24.024863
1810.000000	23.996676
1809.000000	23.937847
1808.000000	23.888840
1807.000000	23.838979
1806.000000	23.804173
1805.000000	23.773637
1804.000000	23.717050
1803.000000	23.660890
1802.000000	23.606438
1801.000000	23.552841
1800.000000	23.506396
1799.000000	23.458564
1798.000000	23.393009
1797.000000	23.330015
1796.000000	23.274176
1795.000000	23.212357
1794.000000	23.162176
1793.000000	23.109219
1792.000000	23.057543
1791.000000	22.996899
1790.000000	22.935721
1789.000000	22.890878
1788.000000	22.825536
1787.000000	22.759233
1786.000000	22.686417
1785.000000	22.609864
1784.000000	22.534272
1783.000000	22.458360
1782.000000	22.395687
1781.000000	22.312728
1780.000000	22.223470
1779.000000	22.160477
1778.000000	22.085633
1777.000000	21.997122
1776.000000	21.912348
1775.000000	21.817751
1774.000000	21.714613
1773.000000	21.610621
1772.000000	21.503426
1771.000000	21.384486
1770.000000	21.265653
1769.000000	21.142336
1768.000000	21.028521
1767.000000	20.928586
1766.000000	20.830466
1765.000000	20.741849
1764.000000	20.677467
1763.000000	20.623656
1762.000000	20.587889
1761.000000	20.611485
1760.000000	20.642020
1759.000000	20.692522
1758.000000	20.766726
1757.000000	20.834310
1756.000000	20.901467
1755.000000	20.965421
1754.000000	21.024784
1753.000000	21.065783
1752.000000	21.083400
1751.000000	21.103686
1750.000000	21.096746
1749.000000	21.077101
1748.000000	21.050195
1747.000000	20.992434
1746.000000	20.924315
1745.000000	20.843492
1744.000000	20.739607
1743.000000	20.615649
1742.000000	20.460835
1741.000000	20.298547
1740.000000	20.101667
1739.000000	19.908950
1738.000000	19.696482
1737.000000	19.476539
1736.000000	19.286172
1735.000000	19.149722
1734.000000	19.061104
1733.000000	18.989997
1732.000000	18.967896
1731.000000	18.999179
1730.000000	19.072315
1729.000000	19.150363
1728.000000	19.272505
1727.000000	19.390698
1726.000000	19.508570
1725.000000	19.598682
1724.000000	19.703422
1723.000000	19.760543
1722.000000	19.802823
1721.000000	19.855139
1720.000000	19.869339
1719.000000	19.882258
1718.000000	19.890266
1717.000000	19.927421
1716.000000	19.973118
1715.000000	20.002372
1714.000000	20.060881
1713.000000	20.125583
1712.000000	20.163806
1711.000000	20.208755
1710.000000	20.254772
1709.000000	20.262139
1708.000000	20.252103
1707.000000	20.238757
1706.000000	20.196263
1705.000000	20.174696
1704.000000	20.118963
1703.000000	20.086399
1702.000000	19.996393
1701.000000	19.896992
1700.000000	19.787341
1699.000000	19.642030
1698.000000	19.484440
1697.000000	19.327384
1696.000000	19.211220
1695.000000	19.105520
1694.000000	19.100715
1693.000000	19.156021
1692.000000	19.249443
1691.000000	19.386213
1690.000000	19.524051
1689.000000	19.714739
1688.000000	19.864321
1687.000000	19.938098
1686.000000	20.006857
1685.000000	20.045293
1684.000000	20.062696
1683.000000	20.130494
1682.000000	20.291821
1681.000000	20.567603
1680.000000	20.927946
1679.000000	21.389825
1678.000000	21.873484
1677.000000	22.408713
1676.000000	22.904971
1675.000000	23.345604
1674.000000	23.761466
1673.000000	24.099493
1672.000000	24.416915
1671.000000	24.658959
1670.000000	24.886482
1669.000000	25.092331
1668.000000	25.245223
1667.000000	25.364162
1666.000000	25.456090
1665.000000	25.554637
1664.000000	25.643147
1663.000000	25.728028
1662.000000	25.778102
1661.000000	25.820169
1660.000000	25.861168
1659.000000	25.910068
1658.000000	25.946262
1657.000000	25.938575
1656.000000	25.962064
1655.000000	25.958754
1654.000000	25.932276
1653.000000	25.942205
1652.000000	25.948077
1651.000000	25.919463
1650.000000	25.863197
1649.000000	25.820810
1648.000000	25.805435
1647.000000	25.735395
1646.000000	25.703044
1645.000000	25.646884
1644.000000	25.606312
1643.000000	25.535739
1642.000000	25.489722
1641.000000	25.431960
1640.000000	25.363415
1639.000000	25.289104
1638.000000	25.242019
1637.000000	25.166321
1636.000000	25.109200
1635.000000	25.032113
1634.000000	24.945311
1633.000000	24.873563
1632.000000	24.801174
1631.000000	24.731347
1630.000000	24.643904
1629.000000	24.560518
1628.000000	24.486742
1627.000000	24.401220
1626.000000	24.334704
1625.000000	24.248862
1624.000000	24.154799
1623.000000	24.079848
1622.000000	24.008207
1621.000000	23.923219
1620.000000	23.838872
1619.000000	23.757195
1618.000000	23.684165
1617.000000	23.639643
1616.000000	23.554869
1615.000000	23.477996
1614.000000	23.402618
1613.000000	23.336528
1612.000000	23.279301
1611.000000	23.222500
1610.000000	23.139541
1609.000000	23.083808
1608.000000	23.016117
1607.000000	22.948640
1606.000000	22.875930
1605.000000	22.807172
1604.000000	22.756564
1603.000000	22.695172
1602.000000	22.625666
1601.000000	22.589365
1600.000000	22.514307
1599.000000	22.461563
1598.000000	22.399958
1597.000000	22.336217
1596.000000	22.280698
1595.000000	22.240660
1594.000000	22.180977
1593.000000	22.109442
1592.000000	22.059581
1591.000000	22.014312
1590.000000	21.976089
1589.000000	21.945980
1588.000000	21.889500
1587.000000	21.851917
1586.000000	21.826720
1585.000000	21.771627
1584.000000	21.743334
1583.000000	21.708848
1582.000000	21.668703
1581.000000	21.644787
1580.000000	21.629519
1579.000000	21.598236
1578.000000	21.567060
1577.000000	21.539834
1576.000000	21.527556
1575.000000	21.525527
1574.000000	21.521576
1573.000000	21.513996
1572.000000	21.520616
1571.000000	21.519548
1570.000000	21.495312
1569.000000	21.501077
1568.000000	21.522324
1567.000000	21.523498
1566.000000	21.515277
1565.000000	21.523925
1564.000000	21.524246
1563.000000	21.532894
1562.000000	21.544745
1561.000000	21.535243
1560.000000	21.549763
1559.000000	21.559799
1558.000000	21.560333
1557.000000	21.557451
1556.000000	21.543677
1555.000000	21.552646
1554.000000	21.561294
1553.000000	21.537698
1552.000000	21.513462
1551.000000	21.487838
1550.000000	21.481218
1549.000000	21.470968
1548.000000	21.454099
1547.000000	21.440006
1546.000000	21.419933
1545.000000	21.399434
1544.000000	21.382458
1543.000000	21.363666
1542.000000	21.345409
1541.000000	21.326191
1540.000000	21.330995
1539.000000	21.308681
1538.000000	21.298324
1537.000000	21.292879
1536.000000	21.252521
1535.000000	21.240456
1534.000000	21.228178
1533.000000	21.201699
1532.000000	21.173406
1531.000000	21.154614
1530.000000	21.127175
1529.000000	21.093863
1528.000000	21.060979
1527.000000	21.028308
1526.000000	20.992861
1525.000000	20.962218
1524.000000	20.925276
1523.000000	20.886413
1522.000000	20.861643
1521.000000	20.832815
1520.000000	20.790215
1519.000000	20.743237
1518.000000	20.712274
1517.000000	20.688465
1516.000000	20.639885
1515.000000	20.592587
1514.000000	20.553083
1513.000000	20.497777
1512.000000	20.460301
1511.000000	20.424854
1510.000000	20.362608
1509.000000	20.319367
1508.000000	20.289045
1507.000000	20.243348
1506.000000	20.199466
1505.000000	20.161991
1504.000000	20.114372
1503.000000	20.068996
1502.000000	20.023726
1501.000000	19.974933
1500.000000	19.932119
1499.000000	19.898380
1498.000000	19.866563
1497.000000	19.833999
1496.000000	19.808375
1495.000000	19.771433
1494.000000	19.739936
1493.000000	19.708867
1492.000000	19.696909
1491.000000	19.672139
1490.000000	19.651319
1489.000000	19.627509
1488.000000	19.605836
1487.000000	19.573165
1486.000000	19.555975
1485.000000	19.532913
1484.000000	19.509210
1483.000000	19.501523
1482.000000	19.501310
1481.000000	19.490312
1480.000000	19.479529
1479.000000	19.469706
1478.000000	19.465008
1477.000000	19.472696
1476.000000	19.471628
1475.000000	19.458709
1474.000000	19.455399
1473.000000	19.464368
1472.000000	19.475472
1471.000000	19.471201
1470.000000	19.494049
1469.000000	19.506221
1468.000000	19.489672
1467.000000	19.501843
1466.000000	19.523624
1465.000000	19.535796
1464.000000	19.547220
1463.000000	19.561206
1462.000000	19.579891
1461.000000	19.606476
1460.000000	19.639895
1459.000000	19.662529
1458.000000	19.708547
1457.000000	19.764173
1456.000000	19.804638
1455.000000	19.869019
1454.000000	19.915890
1453.000000	19.974506
1452.000000	20.058533
1451.000000	20.138929
1450.000000	20.207154
1449.000000	20.271749
1448.000000	20.347981
1447.000000	20.414818
1446.000000	20.511657
1445.000000	20.608068
1444.000000	20.692308
1443.000000	20.781246
1442.000000	20.855770
1441.000000	20.960083
1440.000000	21.057349
1439.000000	21.161448
1438.000000	21.248677
1437.000000	21.350000
1436.000000	21.454633
1435.000000	21.557024
1434.000000	21.641050
1433.000000	21.771200
1432.000000	21.894304
1431.000000	22.001606
1430.000000	22.132611
1429.000000	22.254220
1428.000000	22.407112
1427.000000	22.551676
1426.000000	22.700510
1425.000000	22.865681
1424.000000	23.043663
1423.000000	23.242466
1422.000000	23.432193
1421.000000	23.611990
1420.000000	23.811006
1419.000000	24.060203
1418.000000	24.266052
1417.000000	24.503824
1416.000000	24.690028
1415.000000	24.919473
1414.000000	25.179667
1413.000000	25.455556
1412.000000	25.716924
1411.000000	25.934411
1410.000000	26.217240
1409.000000	26.541495
1408.000000	26.898634
1407.000000	27.264101
1406.000000	27.626686
1405.000000	27.994502
1404.000000	28.421895
1403.000000	28.807328
1402.000000	29.188170
1401.000000	29.553317
1400.000000	29.991067
1399.000000	30.432233
1398.000000	30.758089
1397.000000	30.986360
1396.000000	31.287766
1395.000000	31.663163
1394.000000	32.005889
1393.000000	32.229141
1392.000000	32.495314
1391.000000	32.778249
1390.000000	33.075172
1389.000000	33.352876
1388.000000	33.706598
1387.000000	34.125450
1386.000000	34.572061
1385.000000	35.026253
1384.000000	35.523579
1383.000000	36.075677
1382.000000	36.655962
1381.000000	37.182115
1380.000000	37.628833
1379.000000	37.936646
1378.000000	38.157336
1377.000000	38.327311
1376.000000	38.496111
1375.000000	38.686158
1374.000000	38.913147
1373.000000	39.188609
1372.000000	39.532189
1371.000000	39.857618
1370.000000	40.251059
1369.000000	40.595066
1368.000000	40.907683
1367.000000	41.234073
1366.000000	41.509962
1365.000000	41.738446
1364.000000	41.950274
1363.000000	42.141069
1362.000000	42.343822
1361.000000	42.541129
1360.000000	42.716015
1359.000000	42.777407
1358.000000	42.825132
1357.000000	42.917807
1356.000000	43.047958
1355.000000	43.292243
1354.000000	43.625573
1353.000000	44.057450
1352.000000	44.466052
1351.000000	44.982276
1350.000000	45.485688
1349.000000	45.953760
1348.000000	46.399303
1347.000000	46.791676
1346.000000	47.186078
1345.000000	47.488125
1344.000000	47.840673
1343.000000	48.195037
1342.000000	48.514487
1341.000000	48.811836
1340.000000	49.141536
1339.000000	49.457570
1338.000000	49.741573
1337.000000	50.062091
1336.000000	50.323353
1335.000000	50.583547
1334.000000	50.872889
1333.000000	51.151767
1332.000000	51.406623
1331.000000	51.648452
1330.000000	51.923594
1329.000000	52.148021
1328.000000	52.377465
1327.000000	52.597087
1326.000000	52.810090
1325.000000	52.982627
1324.000000	53.182070
1323.000000	53.380979
1322.000000	53.551915
1321.000000	53.742069
1320.000000	53.874462
1319.000000	54.035361
1318.000000	54.191456
1317.000000	54.337408
1316.000000	54.485389
1315.000000	54.621732
1314.000000	54.736508
1313.000000	54.858010
1312.000000	54.975241
1311.000000	55.094928
1310.000000	55.187283
1309.000000	55.300671
1308.000000	55.383202
1307.000000	55.472674
1306.000000	55.542927
1305.000000	55.619267
1304.000000	55.667206
1303.000000	55.738100
1302.000000	55.787747
1301.000000	55.814973
1300.000000	55.835579
1299.000000	55.884372
1298.000000	55.908822
1297.000000	55.930389
1296.000000	55.951209
1295.000000	55.965409
1294.000000	55.986442
1293.000000	55.987297
1292.000000	55.986229
1291.000000	55.986336
1290.000000	55.976086
1289.000000	55.958042
1288.000000	55.956013
1287.000000	55.922061
1286.000000	55.871667
1285.000000	55.822767
1284.000000	55.789028
1283.000000	55.746641
1282.000000	55.686531
1281.000000	55.629089
1280.000000	55.570794
1279.000000	55.514634
1278.000000	55.462531
1277.000000	55.404983
1276.000000	55.354268
1275.000000	55.296613
1274.000000	55.233834
1273.000000	55.199668
1272.000000	55.155893
1271.000000	55.107634
1270.000000	55.072614
1269.000000	55.032255
1268.000000	54.983569
1267.000000	54.938299
1266.000000	54.884061
1265.000000	54.839219
1264.000000	54.794056
1263.000000	54.752630
1262.000000	54.707253
1261.000000	54.649278
1260.000000	54.609881
1259.000000	54.559059
1258.000000	54.501191
1257.000000	54.457736
1256.000000	54.403071
1255.000000	54.343708
1254.000000	54.294915
1253.000000	54.240890
1252.000000	54.167006
1251.000000	54.102305
1250.000000	54.034187
1249.000000	53.942900
1248.000000	53.867308
1247.000000	53.801325
1246.000000	53.694984
1245.000000	53.582557
1244.000000	53.493620
1243.000000	53.374253
1242.000000	53.245277
1241.000000	53.124629
1240.000000	52.994799
1239.000000	52.844469
1238.000000	52.696702
1237.000000	52.545518
1236.000000	52.396043
1235.000000	52.247956
1234.000000	52.081824
1233.000000	51.921245
1232.000000	51.759385
1231.000000	51.578199
1230.000000	51.398188
1229.000000	51.225651
1228.000000	51.036030
1227.000000	50.842673
1226.000000	50.658818
1225.000000	50.461404
1224.000000	50.264524
1223.000000	50.079815
1222.000000	49.886031
1221.000000	49.686374
1220.000000	49.494085
1219.000000	49.305639
1218.000000	49.123599
1217.000000	48.951382
1216.000000	48.782048
1215.000000	48.619974
1214.000000	48.473168
1213.000000	48.315791
1212.000000	48.175178
1211.000000	48.048657
1210.000000	47.925127
1209.000000	47.793695
1208.000000	47.663545
1207.000000	47.562328
1206.000000	47.479476
1205.000000	47.397799
1204.000000	47.334378
1203.000000	47.286333
1202.000000	47.252594
1201.000000	47.228358
1200.000000	47.187145
1199.000000	47.144545
1198.000000	47.079630
1197.000000	46.972007
1196.000000	46.848690
1195.000000	46.690887
1194.000000	46.482902
1193.000000	46.199860
1192.000000	45.861298
1191.000000	45.451842
1190.000000	45.005018
1189.000000	44.580935
1188.000000	44.194647
1187.000000	43.885447
1186.000000	43.685043
1185.000000	43.610626
1184.000000	43.658138
1183.000000	43.828326
1182.000000	44.128878
1181.000000	44.529899
1180.000000	45.046978
1179.000000	45.556689
1178.000000	46.058606
1177.000000	46.517709
1176.000000	46.932823
1175.000000	47.302455
1174.000000	47.649131
1173.000000	47.970290
1172.000000	48.288245
1171.000000	48.616984
1170.000000	48.948926
1169.000000	49.301048
1168.000000	49.653383
1167.000000	50.008387
1166.000000	50.356024
1165.000000	50.708039
1164.000000	51.085571
1163.000000	51.460327
1162.000000	51.848963
1161.000000	52.234396
1160.000000	52.604881
1159.000000	52.974299
1158.000000	53.331652
1157.000000	53.686229
1156.000000	53.995537
1155.000000	54.278793
1154.000000	54.555963
1153.000000	54.764694
1152.000000	54.924740
1151.000000	55.038661
1150.000000	55.117990
1149.000000	55.196999
1148.000000	55.259351
1147.000000	55.344339
1146.000000	55.447370
1145.000000	55.601650
1144.000000	55.812517
1143.000000	56.070149
1142.000000	56.394297
1141.000000	56.755173
1140.000000	57.112526
1139.000000	57.500201
1138.000000	57.885955
1137.000000	58.286015
1136.000000	58.713621
1135.000000	59.136850
1134.000000	59.598943
1133.000000	60.023880
1132.000000	60.369595
1131.000000	60.733568
1130.000000	61.077682
1129.000000	61.364461
1128.000000	61.625723
1127.000000	61.837657
1126.000000	62.004109
1125.000000	62.169172
1124.000000	62.281065
1123.000000	62.391037
1122.000000	62.470365
1121.000000	62.557061
1120.000000	62.637244
1119.000000	62.677816
1118.000000	62.720843
1117.000000	62.762376
1116.000000	62.781167
1115.000000	62.794727
1114.000000	62.798357
1113.000000	62.801667
1112.000000	62.805938
1111.000000	62.809141
1110.000000	62.815760
1109.000000	62.805938
1108.000000	62.795047
1107.000000	62.805938
1106.000000	62.816401
1105.000000	62.815227
1104.000000	62.805724
1103.000000	62.797396
1102.000000	62.791417
1101.000000	62.805831
1100.000000	62.790777
1099.000000	62.767074
1098.000000	62.773160
1097.000000	62.760134
1096.000000	62.735257
1095.000000	62.740169
1094.000000	62.702586
1093.000000	62.669915
1092.000000	62.651978
1091.000000	62.620161
1090.000000	62.611086
1089.000000	62.574998
1088.000000	62.546811
1087.000000	62.529622
1086.000000	62.501542
1085.000000	62.478587
1084.000000	62.471113
1083.000000	62.425843
1082.000000	62.432036
1081.000000	62.397763
1080.000000	62.380253
1079.000000	62.400646
1078.000000	62.377477
1077.000000	62.383456
1076.000000	62.382816
1075.000000	62.387620
1074.000000	62.390076
1073.000000	62.389969
1072.000000	62.411536
1071.000000	62.413138
1070.000000	62.410041
1069.000000	62.447090
1068.000000	62.464600
1067.000000	62.458728
1066.000000	62.479227
1065.000000	62.493641
1064.000000	62.511578
1063.000000	62.484886
1062.000000	62.474209
1061.000000	62.471860
1060.000000	62.458194
1059.000000	62.453816
1058.000000	62.450507
1057.000000	62.413244
1056.000000	62.406518
1055.000000	62.382495
1054.000000	62.358579
1053.000000	62.337332
1052.000000	62.339254
1051.000000	62.296547
1050.000000	62.307864
1049.000000	62.291422
1048.000000	62.282133
1047.000000	62.279144
1046.000000	62.271883
1045.000000	62.254907
1044.000000	62.253199
1043.000000	62.255975
1042.000000	62.231952
1041.000000	62.234087
1040.000000	62.220208
1039.000000	62.181558
1038.000000	62.187003
1037.000000	62.193195
1036.000000	62.178461
1035.000000	62.156254
1034.000000	62.151342
1033.000000	62.137035
1032.000000	62.138210
1031.000000	62.130095
1030.000000	62.121020
1029.000000	62.135754
1028.000000	62.151129
1027.000000	62.158282
1026.000000	62.192448
1025.000000	62.230030
1024.000000	62.254694
1023.000000	62.304234
1022.000000	62.365839
1021.000000	62.421252
1020.000000	62.485526
1019.000000	62.546278
1018.000000	62.620588
1017.000000	62.696927
1016.000000	62.763230
1015.000000	62.830494
1014.000000	62.899894
1013.000000	62.983813
1012.000000	63.059619
1011.000000	63.124107
1010.000000	63.223081
1009.000000	63.316930
1008.000000	63.412381
1007.000000	63.500465
1006.000000	63.604030
1005.000000	63.700441
1004.000000	63.797921
1003.000000	63.896468
1002.000000	63.998538
1001.000000	64.103491
1000.000000	64.196700
999.000000	64.300585
998.000000	64.406926
997.000000	64.517111
996.000000	64.635517
995.000000	64.745274
994.000000	64.854498
993.000000	64.958170
992.000000	65.075722
991.000000	65.190391
990.000000	65.294276
989.000000	65.407878
988.000000	65.522547
987.000000	65.631770
986.000000	65.746012
985.000000	65.876163
984.000000	65.978233
983.000000	66.063114
982.000000	66.168387
981.000000	66.291811
980.000000	66.401996
979.000000	66.510579
978.000000	66.641904
977.000000	66.781663
976.000000	66.899322
975.000000	67.020610
974.000000	67.169659
973.000000	67.306749
972.000000	67.436579
971.000000	67.571641
970.000000	67.692502
969.000000	67.806744
968.000000	67.938603
967.000000	68.061280
966.000000	68.164845
965.000000	68.283784
964.000000	68.398987
963.000000	68.534476
962.000000	68.674983
961.000000	68.804493
960.000000	68.959307
959.000000	69.099386
958.000000	69.235409
957.000000	69.392678
956.000000	69.552617
955.000000	69.704121
954.000000	69.856159
953.000000	70.028483
952.000000	70.184898
951.000000	70.347933
950.000000	70.527090
949.000000	70.680729
948.000000	70.833408
947.000000	71.004557
946.000000	71.167485
945.000000	71.320271
944.000000	71.457895
943.000000	71.595519
942.000000	71.760583
941.000000	71.901944
940.000000	72.025474
939.000000	72.162885
938.000000	72.318980
937.000000	72.455750
936.000000	72.575757
935.000000	72.710819
934.000000	72.845667
933.000000	72.996958
932.000000	73.120275
931.000000	73.221384
930.000000	73.330822
929.000000	73.458730
928.000000	73.571370
927.000000	73.653689
926.000000	73.744335
925.000000	73.830603
924.000000	73.920929
923.000000	74.000472
922.000000	74.066668
921.000000	74.123362
920.000000	74.175358
919.000000	74.241020
918.000000	74.305401
917.000000	74.382274
916.000000	74.424448
915.000000	74.449005
914.000000	74.490217
913.000000	74.529935
912.000000	74.595063
911.000000	74.656562
910.000000	74.703647
909.000000	74.764932
908.000000	74.826750
907.000000	74.893053
906.000000	74.970887
905.000000	75.099223
904.000000	75.191897
903.000000	75.288309
902.000000	75.396038
901.000000	75.525334
900.000000	75.657193
899.000000	75.798447
898.000000	75.940022
897.000000	76.073696
896.000000	76.213028
895.000000	76.368376
894.000000	76.539098
893.000000	76.691563
892.000000	76.842640
891.000000	76.991688
890.000000	77.141163
889.000000	77.305800
888.000000	77.472785
887.000000	77.610303
886.000000	77.759244
885.000000	77.890462
884.000000	78.031610
883.000000	78.153432
882.000000	78.306111
881.000000	78.420887
880.000000	78.565984
879.000000	78.690263
878.000000	78.821054
877.000000	78.947147
876.000000	79.066193
875.000000	79.157160
874.000000	79.209583
873.000000	79.236809
872.000000	79.289445
871.000000	79.273537
870.000000	79.256668
869.000000	79.370803
868.000000	79.604945
867.000000	79.852541
866.000000	80.124266
865.000000	80.378587
864.000000	80.640490
863.000000	80.920329
862.000000	81.224084
861.000000	81.501788
860.000000	81.817502
859.000000	82.123392
858.000000	82.404833
857.000000	81.196100
856.000000	82.717200
855.000000	83.301200
854.000000	83.397200
853.000000	83.538300
852.000000	84.363200
851.000000	84.273600
850.000000	84.803500
849.000000	85.023600
848.000000	85.732500
847.000000	85.356100
846.000000	86.090600
845.000000	86.305900
844.000000	86.988300
843.000000	87.414800
842.000000	87.281900
841.000000	87.397600
840.000000	87.800200
839.000000	88.016600
838.000000	88.415100
837.000000	88.508900
836.000000	89.204500
835.000000	89.334500
834.000000	89.645500
833.000000	89.640300
832.000000	89.946200
831.000000	90.156100
830.000000	90.240700
829.000000	90.373700
828.000000	90.604700
827.000000	90.790600
826.000000	90.943700
825.000000	91.092100
824.000000	91.105400
823.000000	91.206600
822.000000	91.408000
821.000000	91.571200
820.000000	91.306800
819.000000	91.712100
818.000000	91.739800
817.000000	91.805400
816.000000	91.769600
815.000000	92.134900
814.000000	92.450900
813.000000	92.388500
812.000000	92.325800
811.000000	92.622200
810.000000	92.547100
809.000000	92.566000
808.000000	92.719800
807.000000	92.714200
806.000000	92.850900
805.000000	92.538600
804.000000	92.641800
803.000000	92.584800
802.000000	92.414800
801.000000	92.437200
800.000000	92.306500
799.000000	92.337200
798.000000	92.554700
797.000000	92.467800
796.000000	92.569300
795.000000	92.171700
794.000000	92.269900
793.000000	92.258500
792.000000	92.082700
791.000000	92.132700
790.000000	91.830200
789.000000	91.821000
788.000000	91.961800
787.000000	91.622200
786.000000	91.743800
785.000000	91.287600
784.000000	91.394500
783.000000	91.304800
782.000000	91.327200
781.000000	90.978200
780.000000	90.932600
779.000000	90.752200
778.000000	90.682100
777.000000	90.430400
776.000000	90.338900
775.000000	90.206900
774.000000	90.171600
773.000000	89.841500
772.000000	89.733000
771.000000	89.532400
770.000000	89.538200
769.000000	89.218400
768.000000	89.099700
767.000000	88.909700
766.000000	88.938200
765.000000	88.742200
764.000000	88.414400
763.000000	88.310600
762.000000	88.105600
761.000000	88.003900
760.000000	87.798300
759.000000	87.599700
758.000000	87.369200
757.000000	87.154500
756.000000	86.839200
755.000000	86.798800
754.000000	86.456500
753.000000	86.296800
752.000000	86.132000
751.000000	85.858500
750.000000	85.572400
749.000000	85.286400
748.000000	85.106500
747.000000	84.884000
746.000000	84.419600
745.000000	84.184600
744.000000	83.876600
743.000000	83.589300
742.000000	83.333800
741.000000	82.905800
740.000000	82.670100
739.000000	82.307500
738.000000	82.043200
737.000000	81.693200
736.000000	81.391200
735.000000	80.948800
734.000000	80.602200
733.000000	80.260200
732.000000	79.813400
731.000000	79.401300
730.000000	78.953400
729.000000	78.522500
728.000000	78.157600
727.000000	77.640300
726.000000	77.086500
725.000000	76.667100
724.000000	76.182000
723.000000	75.566500
722.000000	75.038000
721.000000	74.529900
720.000000	74.053100
719.000000	73.623900
718.000000	73.061400
717.000000	72.549200
716.000000	72.043700
715.000000	71.488900
714.000000	70.957300
713.000000	70.323700
712.000000	69.704500
711.000000	69.084200
710.000000	68.349800
709.000000	67.623500
708.000000	66.841200
707.000000	66.026000
706.000000	65.217100
705.000000	64.348100
704.000000	63.444900
703.000000	62.471100
702.000000	61.441600
701.000000	60.442000
700.000000	59.460200
699.000000	58.575100
698.000000	57.647500
697.000000	56.837100
696.000000	56.060900
695.000000	55.377200
694.000000	54.775500
693.000000	54.224700
692.000000	53.734900
691.000000	53.390800
690.000000	53.136000
689.000000	52.946600
688.000000	52.812600
687.000000	52.778600
686.000000	52.780400
685.000000	52.810600
684.000000	52.904600
683.000000	53.039700
682.000000	53.218100
681.000000	53.427500
680.000000	53.631100
679.000000	53.924100
678.000000	54.295000
677.000000	54.659300
676.000000	55.094000
675.000000	55.615000
674.000000	56.205800
673.000000	56.887200
672.000000	57.613000
671.000000	58.437200
670.000000	59.332100
669.000000	60.256700
668.000000	61.178900
667.000000	62.137000
666.000000	63.106100
665.000000	64.109300
664.000000	65.126800
663.000000	66.086600
662.000000	66.980900
661.000000	67.808900
660.000000	68.603600
659.000000	69.377500
658.000000	70.048900
657.000000	70.629300
656.000000	71.134500
655.000000	71.642800
654.000000	72.104600
653.000000	72.601600
652.000000	73.108500
651.000000	73.622300
650.000000	74.173300
649.000000	74.734300
648.000000	75.359600
647.000000	76.046800
646.000000	76.754100
645.000000	77.513900
644.000000	78.314900
643.000000	79.103700
642.000000	79.892200
641.000000	80.658100
640.000000	81.375800
639.000000	82.060000
638.000000	82.715400
637.000000	83.282500
636.000000	83.793300
635.000000	84.256100
634.000000	84.656000
633.000000	85.076100
632.000000	85.440300
631.000000	85.709300
630.000000	85.997400
629.000000	86.300100
628.000000	86.608500
627.000000	86.915300
626.000000	87.210100
625.000000	87.506300
624.000000	87.807600
623.000000	88.114400
622.000000	88.445900
621.000000	88.771600
620.000000	89.056500
619.000000	89.336700
618.000000	89.611000
617.000000	89.837700
616.000000	90.059000
615.000000	90.274900
614.000000	90.472300
613.000000	90.620600
612.000000	90.710500
611.000000	90.794900
610.000000	90.834400
609.000000	90.868100
608.000000	90.874900
607.000000	90.883100
606.000000	90.826600
605.000000	90.780600
604.000000	90.669400
603.000000	90.546900
602.000000	90.439800
601.000000	90.338400
600.000000	90.204700
599.000000	90.036400
598.000000	89.889100
597.000000	89.706800
596.000000	89.529100
595.000000	89.347200
594.000000	89.174200
593.000000	88.975600
592.000000	88.763400
591.000000	88.573000
590.000000	88.373900
589.000000	88.109100
588.000000	87.877900
587.000000	87.658800
586.000000	87.381300
585.000000	87.104300
584.000000	86.792000
583.000000	86.500600
582.000000	86.153700
581.000000	85.796400
580.000000	85.409200
579.000000	85.051100
578.000000	84.634600
577.000000	84.177600
576.000000	83.718400
575.000000	83.184900
574.000000	82.634200
573.000000	82.111100
572.000000	81.581500
571.000000	80.959800
570.000000	80.322600
569.000000	79.638000
568.000000	78.933300
567.000000	78.211000
566.000000	77.413900
565.000000	76.579900
564.000000	75.760900
563.000000	74.848600
562.000000	73.880900
561.000000	72.850300
560.000000	71.802600
559.000000	70.594200
558.000000	69.460100
557.000000	68.254700
556.000000	66.994000
555.000000	65.730100
554.000000	64.416900
553.000000	63.061400
552.000000	61.728700
551.000000	60.375400
550.000000	59.005300
549.000000	57.667700
548.000000	56.372600
547.000000	55.102900
546.000000	53.904200
545.000000	52.765200
544.000000	51.678300
543.000000	50.638100
542.000000	49.634600
541.000000	48.736900
540.000000	47.883400
539.000000	47.082700
538.000000	46.350900
537.000000	45.673000
536.000000	45.050400
535.000000	44.437900
534.000000	43.892400
533.000000	43.347900
532.000000	42.845400
531.000000	42.301100
530.000000	41.846800
529.000000	41.385100
528.000000	40.952600
527.000000	40.505100
526.000000	40.052500
525.000000	39.578100
524.000000	39.109000
523.000000	38.621200
522.000000	38.122900
521.000000	37.615100
520.000000	37.066000
519.000000	36.503200
518.000000	35.887600
517.000000	35.250100
516.000000	34.628900
515.000000	33.938400
514.000000	33.246700
513.000000	32.480900
512.000000	31.733400
511.000000	30.921200
510.000000	30.171500
509.000000	29.384800
508.000000	28.574100
507.000000	27.841200
506.000000	27.085100
505.000000	26.379700
504.000000	25.710600
503.000000	25.131000
502.000000	24.591200
501.000000	24.150200
500.000000	23.820000
499.000000	23.577100
498.000000	23.362700
497.000000	23.288100
496.000000	23.292200
495.000000	23.379200
494.000000	23.523200
493.000000	23.745900
492.000000	24.018800
491.000000	24.293000
490.000000	24.663500
489.000000	25.011800
488.000000	25.350700
487.000000	25.718000
486.000000	26.094700
485.000000	26.441500
484.000000	26.780100
483.000000	27.076000
482.000000	27.346900
481.000000	27.604000
480.000000	27.814100
479.000000	27.997300
478.000000	28.180500
477.000000	28.318900
476.000000	28.429700
475.000000	28.511100
474.000000	28.595200
473.000000	28.624100
472.000000	28.675700
471.000000	28.672100
470.000000	28.673600
469.000000	28.634900
468.000000	28.586600
467.000000	28.550100
466.000000	28.483400
465.000000	28.397900
464.000000	28.291200
463.000000	28.217600
462.000000	28.103500
461.000000	27.948600
460.000000	27.794600
459.000000	27.693300
458.000000	27.523700
457.000000	27.315500
456.000000	27.163900
455.000000	26.972700
454.000000	26.736300
453.000000	26.516500
452.000000	26.305900
451.000000	26.047500
450.000000	25.790300
449.000000	25.544900
448.000000	25.288100
447.000000	24.974300
446.000000	24.692200
445.000000	24.342300
444.000000	24.006300
443.000000	23.620700
442.000000	23.279800
441.000000	22.904400
440.000000	22.499300
439.000000	22.085300
438.000000	21.685600
437.000000	21.292300
436.000000	20.860300
435.000000	20.411400
434.000000	19.978000
433.000000	19.485600
432.000000	19.047500
431.000000	18.523500
430.000000	18.052800
429.000000	17.560700
428.000000	17.057200
427.000000	16.583100
426.000000	16.102900
425.000000	15.604000
424.000000	15.123300
423.000000	14.650900
422.000000	14.142400
421.000000	13.696500
420.000000	13.240000
419.000000	12.787600
418.000000	12.357000
417.000000	11.948700
416.000000	11.571400
415.000000	11.165300
414.000000	10.821800
413.000000	10.463900
412.000000	10.145500
411.000000	9.827900
410.000000	9.514800
409.000000	9.250800
408.000000	8.988000
407.000000	8.773700
406.000000	8.555900
405.000000	8.319900
404.000000	8.148400
403.000000	7.988700
402.000000	7.850700
401.000000	7.677100
400.000000	7.541700
399.000000	7.428100
398.000000	7.313700
397.000000	7.227000
396.000000	7.126200
395.000000	7.035900
394.000000	6.973600
393.000000	6.882100
392.000000	6.811300
391.000000	6.777900
390.000000	6.712600
389.000000	6.667900
388.000000	6.584400
387.000000	6.524300
386.000000	6.492700
385.000000	6.456600
384.000000	6.390600
383.000000	6.356200
382.000000	6.311400
381.000000	6.262000
380.000000	6.230700
379.000000	6.193700
378.000000	6.161700
377.000000	6.140600
376.000000	6.121300
375.000000	6.060200
374.000000	5.972800
373.000000	5.963300
372.000000	5.862900
371.000000	5.935800
370.000000	5.924500
369.000000	5.901100
368.000000	5.908100
367.000000	5.822200
366.000000	5.769400
365.000000	5.807200
364.000000	5.803600
363.000000	5.794200
362.000000	5.780400
361.000000	5.776200
360.000000	5.769200
359.000000	5.735300
358.000000	5.737100
357.000000	5.830300
356.000000	5.801900
355.000000	5.617900
354.000000	5.514300
353.000000	5.533100
352.000000	5.600700
351.000000	5.544200
350.000000	5.435900
349.000000	5.441000
348.000000	5.526800
347.000000	5.492100
346.000000	5.423200
345.000000	5.393300
344.000000	5.535200
343.000000	5.571700
342.000000	5.600600
341.000000	5.540900
340.000000	5.456300
339.000000	5.497900
338.000000	5.468000
337.000000	5.433000
336.000000	5.360500
335.000000	5.502500
334.000000	5.617400
333.000000	5.629300
332.000000	5.487000
331.000000	5.325100
330.000000	5.395400
329.000000	5.708500
328.000000	5.760000
327.000000	5.642200
326.000000	5.463900
325.000000	5.566200
324.000000	5.586300
323.000000	5.454100
322.000000	5.445200
321.000000	5.609600
320.000000	5.924300
319.000000	5.906000
318.000000	5.756300
317.000000	5.650000
316.000000	5.469300
315.000000	5.333800
314.000000	5.313300
313.000000	5.344300
312.000000	5.352300
311.000000	5.343000
310.000000	5.343700
309.000000	5.368000
308.000000	5.390200
307.000000	5.373700
306.000000	5.361100
305.000000	5.375600
304.000000	5.372700
303.000000	5.352300
302.000000	5.390300
301.000000	5.387700
300.000000	5.376000
299.000000	5.397600
298.000000	5.410200
297.000000	5.419200
296.000000	5.420800
295.000000	5.432800
294.000000	5.441500
293.000000	5.453400
292.000000	5.438900
291.000000	5.430100
290.000000	5.460000
289.000000	5.489200
288.000000	5.510000
287.000000	5.531900
286.000000	5.498200
285.000000	5.482600
284.000000	5.523200
283.000000	5.542200
282.000000	5.523400
281.000000	5.572600
280.000000	5.577600
279.000000	5.590900
278.000000	5.583900
277.000000	5.581600
276.000000	5.606000
275.000000	5.601100
274.000000	5.605700
273.000000	5.617100
272.000000	5.644700
271.000000	5.636000
270.000000	5.637400
269.000000	5.684200
268.000000	5.677300
267.000000	5.723700
266.000000	5.752100
265.000000	5.755600
264.000000	5.723000
263.000000	5.813400
262.000000	5.824400
261.000000	5.781300
260.000000	5.855200
259.000000	5.905900
258.000000	5.907400
257.000000	5.896900
256.000000	5.899300
255.000000	5.946200
254.000000	5.952500
253.000000	5.952100
252.000000	5.932900
251.000000	5.947500
250.000000	5.952100
