PE UV       SUBTECH     SPECTRUM    ASCII       PEDS        4.00        
   -1
CICIMAUCR0245-2.Sample.ASC
24/06/21
11:18:08.00
24/06/21
11:18:08.00
Vinicio Soto Monge
C. resplendens. Sex M. Dorsal
250,000000
1
Lambda 1050
1050L1511233
PerkinElmer UV WinLab 6.3.2.0749 / 2.02.05 Lambda 900 UV/VIS/NIR, Aug  7 2015 09:38:08

0
0
3350/servo 860,8/2
0
0
UV/VIS
1
1
1
DoubleDePol,CommonBeamDepol,RBeamAtt,SBeamAtt,60mm sphere, WB InGaAs Detector
0
0
0
0
Program
Program
3350/servo 860,8/2
3350/0,2 860,8/0,2
3350/0,2 860,8/0,2
0
15.00
 
 
 
0
 
860,8
319,2
860,8
Front
100
on
S:100 R:100
0
0
0
0
 
0
 
 
 
0
 
 
0
0
0
0
0
 
 
 
 
0
0


0
0
#HDR
-1
-1
#GR
nm
%R
1.0
0.0
2500,000000
-1,000000
2251
8
92,026400
5,872100
#DATA
2500.000000	7.458435
2499.000000	7.350612
2498.000000	7.415886
2497.000000	7.376141
2496.000000	7.390958
2495.000000	7.308263
2494.000000	7.216759
2493.000000	7.254902
2492.000000	7.317073
2491.000000	7.295349
2490.000000	7.283335
2489.000000	7.244290
2488.000000	7.222966
2487.000000	7.224367
2486.000000	7.256003
2485.000000	7.223566
2484.000000	7.168003
2483.000000	7.234479
2482.000000	7.222665
2481.000000	7.187625
2480.000000	7.148781
2479.000000	7.125955
2478.000000	7.241287
2477.000000	7.221965
2476.000000	7.170406
2475.000000	7.194333
2474.000000	7.179616
2473.000000	7.214055
2472.000000	7.204745
2471.000000	7.169304
2470.000000	7.182619
2469.000000	7.140371
2468.000000	7.186124
2467.000000	7.183521
2466.000000	7.161295
2465.000000	7.200240
2464.000000	7.208449
2463.000000	7.221965
2462.000000	7.237382
2461.000000	7.267917
2460.000000	7.309465
2459.000000	7.304559
2458.000000	7.325883
2457.000000	7.326384
2456.000000	7.342102
2455.000000	7.382048
2454.000000	7.387254
2453.000000	7.443118
2452.000000	7.469448
2451.000000	7.492074
2450.000000	7.514499
2449.000000	7.564056
2448.000000	7.603401
2447.000000	7.619219
2446.000000	7.647752
2445.000000	7.700512
2444.000000	7.708521
2443.000000	7.741259
2442.000000	7.780504
2441.000000	7.813642
2440.000000	7.840873
2439.000000	7.871608
2438.000000	7.910452
2437.000000	7.943791
2436.000000	7.956906
2435.000000	7.998053
2434.000000	8.044906
2433.000000	8.053216
2432.000000	8.066531
2431.000000	8.087054
2430.000000	8.117790
2429.000000	8.133307
2428.000000	8.165444
2427.000000	8.171451
2426.000000	8.195278
2425.000000	8.223310
2424.000000	8.235825
2423.000000	8.272066
2422.000000	8.289186
2421.000000	8.277973
2420.000000	8.304303
2419.000000	8.319721
2418.000000	8.333537
2417.000000	8.366174
2416.000000	8.378188
2415.000000	8.387398
2414.000000	8.400313
2413.000000	8.415130
2412.000000	8.437956
2411.000000	8.451171
2410.000000	8.469292
2409.000000	8.477201
2408.000000	8.482307
2407.000000	8.489815
2406.000000	8.515645
2405.000000	8.540073
2404.000000	8.549884
2403.000000	8.567204
2402.000000	8.575013
2401.000000	8.573912
2400.000000	8.572510
2399.000000	8.580119
2398.000000	8.579518
2397.000000	8.592333
2396.000000	8.603045
2395.000000	8.621566
2394.000000	8.626372
2393.000000	8.634881
2392.000000	8.655004
2391.000000	8.656606
2390.000000	8.658508
2389.000000	8.666918
2388.000000	8.665817
2387.000000	8.674927
2386.000000	8.677530
2385.000000	8.688042
2384.000000	8.700957
2383.000000	8.685139
2382.000000	8.677430
2381.000000	8.686440
2380.000000	8.671724
2379.000000	8.666017
2378.000000	8.669020
2377.000000	8.652602
2376.000000	8.638986
2375.000000	8.637184
2374.000000	8.612556
2373.000000	8.593234
2372.000000	8.592933
2371.000000	8.582021
2370.000000	8.559896
2369.000000	8.548883
2368.000000	8.510539
2367.000000	8.471194
2366.000000	8.452673
2365.000000	8.423239
2364.000000	8.390402
2363.000000	8.346051
2362.000000	8.309509
2361.000000	8.283279
2360.000000	8.239028
2359.000000	8.208393
2358.000000	8.180361
2357.000000	8.153631
2356.000000	8.125398
2355.000000	8.084752
2354.000000	8.066030
2353.000000	8.051714
2352.000000	8.041903
2351.000000	8.039500
2350.000000	8.031391
2349.000000	8.047109
2348.000000	8.060724
2347.000000	8.061025
2346.000000	8.076442
2345.000000	8.096565
2344.000000	8.127401
2343.000000	8.148525
2342.000000	8.169349
2341.000000	8.189271
2340.000000	8.208694
2339.000000	8.224111
2338.000000	8.241631
2337.000000	8.239629
2336.000000	8.255347
2335.000000	8.260153
2334.000000	8.248639
2333.000000	8.226414
2332.000000	8.217103
2331.000000	8.204789
2330.000000	8.176857
2329.000000	8.136611
2328.000000	8.102672
2327.000000	8.055418
2326.000000	8.026685
2325.000000	7.980633
2324.000000	7.910753
2323.000000	7.852686
2322.000000	7.805032
2321.000000	7.747065
2320.000000	7.684093
2319.000000	7.615915
2318.000000	7.536825
2317.000000	7.469848
2316.000000	7.405675
2315.000000	7.335695
2314.000000	7.244691
2313.000000	7.186524
2312.000000	7.143375
2311.000000	7.086209
2310.000000	7.030345
2309.000000	6.996507
2308.000000	6.969976
2307.000000	6.948652
2306.000000	6.925726
2305.000000	6.927327
2304.000000	6.952756
2303.000000	6.955159
2302.000000	6.978786
2301.000000	7.029044
2300.000000	7.068189
2299.000000	7.098123
2298.000000	7.162196
2297.000000	7.208449
2296.000000	7.255703
2295.000000	7.308363
2294.000000	7.345606
2293.000000	7.385752
2292.000000	7.430503
2291.000000	7.456233
2290.000000	7.479960
2289.000000	7.497380
2288.000000	7.513598
2287.000000	7.512697
2286.000000	7.513198
2285.000000	7.513298
2284.000000	7.500784
2283.000000	7.481762
2282.000000	7.473653
2281.000000	7.452528
2280.000000	7.440715
2279.000000	7.424897
2278.000000	7.399167
2277.000000	7.392660
2276.000000	7.382849
2275.000000	7.344204
2274.000000	7.349811
2273.000000	7.362225
2272.000000	7.345005
2271.000000	7.357820
2270.000000	7.384551
2269.000000	7.422194
2268.000000	7.454130
2267.000000	7.488670
2266.000000	7.532720
2265.000000	7.595592
2264.000000	7.670378
2263.000000	7.771193
2262.000000	7.868404
2261.000000	7.984737
2260.000000	8.106877
2259.000000	8.222810
2258.000000	8.344850
2257.000000	8.491617
2256.000000	8.649498
2255.000000	8.788157
2254.000000	8.946738
2253.000000	9.090603
2252.000000	9.219651
2251.000000	9.362314
2250.000000	9.493063
2249.000000	9.630621
2248.000000	9.747755
2247.000000	9.884712
2246.000000	9.985026
2245.000000	10.086443
2244.000000	10.190662
2243.000000	10.277661
2242.000000	10.369466
2241.000000	10.465576
2240.000000	10.542965
2239.000000	10.619753
2238.000000	10.665205
2237.000000	10.733383
2236.000000	10.785543
2235.000000	10.831195
2234.000000	10.886959
2233.000000	10.925703
2232.000000	10.974359
2231.000000	11.015606
2230.000000	11.033927
2229.000000	11.070068
2228.000000	11.090992
2227.000000	11.128635
2226.000000	11.126333
2225.000000	11.153263
2224.000000	11.151061
2223.000000	11.140048
2222.000000	11.159671
2221.000000	11.126132
2220.000000	11.149459
2219.000000	11.119525
2218.000000	11.131739
2217.000000	11.111415
2216.000000	11.100203
2215.000000	11.098401
2214.000000	11.073672
2213.000000	11.040034
2212.000000	11.035328
2211.000000	11.021312
2210.000000	11.031824
2209.000000	11.009098
2208.000000	11.005394
2207.000000	10.983269
2206.000000	10.963346
2205.000000	10.977863
2204.000000	10.967250
2203.000000	10.955737
2202.000000	10.936215
2201.000000	10.916192
2200.000000	10.894667
2199.000000	10.908884
2198.000000	10.904879
2197.000000	10.884356
2196.000000	10.893466
2195.000000	10.871040
2194.000000	10.846813
2193.000000	10.838003
2192.000000	10.823586
2191.000000	10.812573
2190.000000	10.806466
2189.000000	10.801561
2188.000000	10.777633
2187.000000	10.768123
2186.000000	10.747199
2185.000000	10.770325
2184.000000	10.756209
2183.000000	10.735285
2182.000000	10.727476
2181.000000	10.704250
2180.000000	10.685328
2179.000000	10.681724
2178.000000	10.666106
2177.000000	10.655494
2176.000000	10.652490
2175.000000	10.647785
2174.000000	10.657896
2173.000000	10.669710
2172.000000	10.661701
2171.000000	10.673915
2170.000000	10.689533
2169.000000	10.690133
2168.000000	10.701046
2167.000000	10.699044
2166.000000	10.719167
2165.000000	10.721269
2164.000000	10.754006
2163.000000	10.763317
2162.000000	10.787845
2161.000000	10.784441
2160.000000	10.798758
2159.000000	10.826690
2158.000000	10.851418
2157.000000	10.884256
2156.000000	10.885157
2155.000000	10.901475
2154.000000	10.940320
2153.000000	10.966550
2152.000000	10.985171
2151.000000	10.989075
2150.000000	11.029021
2149.000000	11.042637
2148.000000	11.052748
2147.000000	11.072271
2146.000000	11.088189
2145.000000	11.111215
2144.000000	11.127334
2143.000000	11.143452
2142.000000	11.143752
2141.000000	11.168180
2140.000000	11.189805
2139.000000	11.191707
2138.000000	11.193610
2137.000000	11.199717
2136.000000	11.209728
2135.000000	11.214934
2134.000000	11.203120
2133.000000	11.222943
2132.000000	11.222843
2131.000000	11.220140
2130.000000	11.217937
2129.000000	11.196813
2128.000000	11.186201
2127.000000	11.190106
2126.000000	11.186601
2125.000000	11.175088
2124.000000	11.167279
2123.000000	11.143953
2122.000000	11.124631
2121.000000	11.114319
2120.000000	11.100803
2119.000000	11.072571
2118.000000	11.042236
2117.000000	11.019711
2116.000000	11.000288
2115.000000	10.969053
2114.000000	10.947928
2113.000000	10.930408
2112.000000	10.895268
2111.000000	10.885056
2110.000000	10.853921
2109.000000	10.827290
2108.000000	10.802862
2107.000000	10.789747
2106.000000	10.764418
2105.000000	10.739890
2104.000000	10.714161
2103.000000	10.685728
2102.000000	10.665806
2101.000000	10.645282
2100.000000	10.619653
2099.000000	10.600230
2098.000000	10.579907
2097.000000	10.563689
2096.000000	10.536257
2095.000000	10.509326
2094.000000	10.486000
2093.000000	10.494610
2092.000000	10.481795
2091.000000	10.443251
2090.000000	10.425631
2089.000000	10.413216
2088.000000	10.406208
2087.000000	10.390490
2086.000000	10.366863
2085.000000	10.358354
2084.000000	10.343036
2083.000000	10.326417
2082.000000	10.309498
2081.000000	10.291477
2080.000000	10.273356
2079.000000	10.254835
2078.000000	10.223900
2077.000000	10.211185
2076.000000	10.204578
2075.000000	10.175344
2074.000000	10.138802
2073.000000	10.107467
2072.000000	10.092950
2071.000000	10.071525
2070.000000	10.039589
2069.000000	10.010055
2068.000000	9.994237
2067.000000	9.977117
2066.000000	9.945581
2065.000000	9.921153
2064.000000	9.893622
2063.000000	9.865590
2062.000000	9.838359
2061.000000	9.799014
2060.000000	9.769380
2059.000000	9.757066
2058.000000	9.738544
2057.000000	9.721825
2056.000000	9.713316
2055.000000	9.691190
2054.000000	9.674171
2053.000000	9.674071
2052.000000	9.674471
2051.000000	9.676774
2050.000000	9.703004
2049.000000	9.722126
2048.000000	9.742849
2047.000000	9.774185
2046.000000	9.811228
2045.000000	9.856680
2044.000000	9.909840
2043.000000	9.951889
2042.000000	9.989432
2041.000000	10.051803
2040.000000	10.110971
2039.000000	10.165032
2038.000000	10.214689
2037.000000	10.251331
2036.000000	10.303090
2035.000000	10.360056
2034.000000	10.401303
2033.000000	10.461171
2032.000000	10.487201
2031.000000	10.514032
2030.000000	10.540162
2029.000000	10.570797
2028.000000	10.593323
2027.000000	10.592922
2026.000000	10.620153
2025.000000	10.636872
2024.000000	10.644781
2023.000000	10.669109
2022.000000	10.680122
2021.000000	10.685728
2020.000000	10.692836
2019.000000	10.695139
2018.000000	10.682224
2017.000000	10.677118
2016.000000	10.678921
2015.000000	10.688832
2014.000000	10.685828
2013.000000	10.666707
2012.000000	10.653992
2011.000000	10.632467
2010.000000	10.628863
2009.000000	10.615848
2008.000000	10.626561
2007.000000	10.606738
2006.000000	10.570897
2005.000000	10.527447
2004.000000	10.515734
2003.000000	10.498814
2002.000000	10.459970
2001.000000	10.427032
2000.000000	10.410613
1999.000000	10.379077
1998.000000	10.335327
1997.000000	10.293279
1996.000000	10.269953
1995.000000	10.233711
1994.000000	10.189460
1993.000000	10.145911
1992.000000	10.113674
1991.000000	10.060913
1990.000000	10.019666
1989.000000	9.963402
1988.000000	9.906036
1987.000000	9.860184
1986.000000	9.824443
1985.000000	9.768979
1984.000000	9.713616
1983.000000	9.672369
1982.000000	9.628218
1981.000000	9.565947
1980.000000	9.510283
1979.000000	9.452817
1978.000000	9.409768
1977.000000	9.357308
1976.000000	9.293235
1975.000000	9.257694
1974.000000	9.212542
1973.000000	9.154776
1972.000000	9.103618
1971.000000	9.047554
1970.000000	9.017519
1969.000000	8.967162
1968.000000	8.931521
1967.000000	8.880162
1966.000000	8.825399
1965.000000	8.787156
1964.000000	8.753818
1963.000000	8.707464
1962.000000	8.671523
1961.000000	8.617962
1960.000000	8.591332
1959.000000	8.549784
1958.000000	8.512642
1957.000000	8.485611
1956.000000	8.452272
1955.000000	8.416031
1954.000000	8.409223
1953.000000	8.365773
1952.000000	8.307707
1951.000000	8.279475
1950.000000	8.280876
1949.000000	8.243333
1948.000000	8.208193
1947.000000	8.191274
1946.000000	8.171051
1945.000000	8.132206
1944.000000	8.117489
1943.000000	8.119492
1942.000000	8.102272
1941.000000	8.069735
1940.000000	8.095965
1939.000000	8.086954
1938.000000	8.076042
1937.000000	8.077143
1936.000000	8.073839
1935.000000	8.063728
1934.000000	8.091159
1933.000000	8.096665
1932.000000	8.125098
1931.000000	8.159037
1930.000000	8.187369
1929.000000	8.197681
1928.000000	8.232621
1927.000000	8.271766
1926.000000	8.333937
1925.000000	8.349955
1924.000000	8.405919
1923.000000	8.475299
1922.000000	8.525356
1921.000000	8.591332
1920.000000	8.664916
1919.000000	8.737899
1918.000000	8.783351
1917.000000	8.868148
1916.000000	8.963858
1915.000000	9.021924
1914.000000	9.131149
1913.000000	9.230263
1912.000000	9.334182
1911.000000	9.435598
1910.000000	9.521596
1909.000000	9.624914
1908.000000	9.751059
1907.000000	9.884411
1906.000000	10.011457
1905.000000	10.171440
1904.000000	10.320610
1903.000000	10.449758
1902.000000	10.627462
1901.000000	10.769024
1900.000000	10.946427
1899.000000	11.128435
1898.000000	11.312446
1897.000000	11.490950
1896.000000	11.653436
1895.000000	11.844955
1894.000000	12.034171
1893.000000	12.237304
1892.000000	12.463463
1891.000000	12.757900
1890.000000	13.049433
1889.000000	13.314437
1888.000000	13.618585
1887.000000	13.914924
1886.000000	14.229684
1885.000000	14.595102
1884.000000	15.022091
1883.000000	15.455286
1882.000000	15.907404
1881.000000	16.369733
1880.000000	16.812139
1879.000000	17.268962
1878.000000	17.725284
1877.000000	18.181807
1876.000000	18.628918
1875.000000	19.053704
1874.000000	19.464074
1873.000000	19.877046
1872.000000	20.256381
1871.000000	20.612488
1870.000000	20.935157
1869.000000	21.239105
1868.000000	21.525833
1867.000000	21.732370
1866.000000	21.906669
1865.000000	22.070256
1864.000000	22.226235
1863.000000	22.364493
1862.000000	22.500148
1861.000000	22.636705
1860.000000	22.785074
1859.000000	22.883487
1858.000000	22.978396
1857.000000	23.043270
1856.000000	23.095029
1855.000000	23.122260
1854.000000	23.176522
1853.000000	23.204154
1852.000000	23.217469
1851.000000	23.209260
1850.000000	23.225378
1849.000000	23.224077
1848.000000	23.209260
1847.000000	23.180427
1846.000000	23.142984
1845.000000	23.089423
1844.000000	23.053281
1843.000000	23.029554
1842.000000	23.031656
1841.000000	23.037463
1840.000000	23.006328
1839.000000	22.985704
1838.000000	22.960475
1837.000000	22.918427
1836.000000	22.883287
1835.000000	22.826221
1834.000000	22.760346
1833.000000	22.691968
1832.000000	22.649820
1831.000000	22.596358
1830.000000	22.530984
1829.000000	22.471916
1828.000000	22.405740
1827.000000	22.323947
1826.000000	22.256069
1825.000000	22.188792
1824.000000	22.135531
1823.000000	22.087876
1822.000000	22.064450
1821.000000	22.038120
1820.000000	21.992668
1819.000000	21.952722
1818.000000	21.900762
1817.000000	21.864120
1816.000000	21.849003
1815.000000	21.829080
1814.000000	21.805553
1813.000000	21.806154
1812.000000	21.788834
1811.000000	21.750290
1810.000000	21.718554
1809.000000	21.683914
1808.000000	21.653880
1807.000000	21.616837
1806.000000	21.561574
1805.000000	21.505610
1804.000000	21.457856
1803.000000	21.402392
1802.000000	21.364949
1801.000000	21.322801
1800.000000	21.262932
1799.000000	21.204966
1798.000000	21.147901
1797.000000	21.103049
1796.000000	21.066908
1795.000000	21.036573
1794.000000	20.984113
1793.000000	20.927749
1792.000000	20.886001
1791.000000	20.822328
1790.000000	20.762059
1789.000000	20.717608
1788.000000	20.661845
1787.000000	20.604179
1786.000000	20.543009
1785.000000	20.482239
1784.000000	20.417665
1783.000000	20.342880
1782.000000	20.265291
1781.000000	20.191707
1780.000000	20.119124
1779.000000	20.048443
1778.000000	19.965047
1777.000000	19.871340
1776.000000	19.788445
1775.000000	19.700745
1774.000000	19.611543
1773.000000	19.513430
1772.000000	19.399100
1771.000000	19.274857
1770.000000	19.166033
1769.000000	19.044394
1768.000000	18.915046
1767.000000	18.808524
1766.000000	18.714316
1765.000000	18.627717
1764.000000	18.567248
1763.000000	18.527102
1762.000000	18.520094
1761.000000	18.550729
1760.000000	18.599985
1759.000000	18.649642
1758.000000	18.720923
1757.000000	18.806221
1756.000000	18.882809
1755.000000	18.943278
1754.000000	18.999943
1753.000000	19.046396
1752.000000	19.071024
1751.000000	19.096253
1750.000000	19.113773
1749.000000	19.101259
1748.000000	19.061013
1747.000000	19.026373
1746.000000	18.983524
1745.000000	18.911141
1744.000000	18.818836
1743.000000	18.689487
1742.000000	18.544221
1741.000000	18.383437
1740.000000	18.180004
1739.000000	17.976271
1738.000000	17.767933
1737.000000	17.573110
1736.000000	17.405118
1735.000000	17.246136
1734.000000	17.129102
1733.000000	17.068032
1732.000000	17.045406
1731.000000	17.047508
1730.000000	17.109780
1729.000000	17.218404
1728.000000	17.307706
1727.000000	17.429546
1726.000000	17.538270
1725.000000	17.643991
1724.000000	17.733293
1723.000000	17.797567
1722.000000	17.835510
1721.000000	17.873554
1720.000000	17.914200
1719.000000	17.953245
1718.000000	17.975971
1717.000000	18.030433
1716.000000	18.082793
1715.000000	18.155476
1714.000000	18.209238
1713.000000	18.274813
1712.000000	18.358809
1711.000000	18.411770
1710.000000	18.441103
1709.000000	18.466232
1708.000000	18.488958
1707.000000	18.475342
1706.000000	18.487356
1705.000000	18.462828
1704.000000	18.424584
1703.000000	18.368120
1702.000000	18.315159
1701.000000	18.253388
1700.000000	18.143763
1699.000000	18.017919
1698.000000	17.909595
1697.000000	17.806877
1696.000000	17.720579
1695.000000	17.681033
1694.000000	17.689944
1693.000000	17.752816
1692.000000	17.867747
1691.000000	18.038242
1690.000000	18.173297
1689.000000	18.319865
1688.000000	18.451115
1687.000000	18.522997
1686.000000	18.563043
1685.000000	18.604290
1684.000000	18.654948
1683.000000	18.761670
1682.000000	18.938673
1681.000000	19.220495
1680.000000	19.593622
1679.000000	20.021011
1678.000000	20.501661
1677.000000	20.968195
1676.000000	21.400690
1675.000000	21.813362
1674.000000	22.153452
1673.000000	22.468112
1672.000000	22.721602
1671.000000	22.988107
1670.000000	23.167112
1669.000000	23.314480
1668.000000	23.469658
1667.000000	23.571074
1666.000000	23.665282
1665.000000	23.745774
1664.000000	23.833374
1663.000000	23.888437
1662.000000	23.956014
1661.000000	24.001366
1660.000000	24.037708
1659.000000	24.079856
1658.000000	24.083760
1657.000000	24.125008
1656.000000	24.135219
1655.000000	24.155142
1654.000000	24.126009
1653.000000	24.128311
1652.000000	24.117299
1651.000000	24.088666
1650.000000	24.053025
1649.000000	24.026195
1648.000000	23.998163
1647.000000	23.954913
1646.000000	23.913265
1645.000000	23.862207
1644.000000	23.802839
1643.000000	23.759489
1642.000000	23.694916
1641.000000	23.652367
1640.000000	23.586992
1639.000000	23.534432
1638.000000	23.455842
1637.000000	23.393170
1636.000000	23.318585
1635.000000	23.247804
1634.000000	23.183630
1633.000000	23.127867
1632.000000	23.061891
1631.000000	22.980198
1630.000000	22.895300
1629.000000	22.828023
1628.000000	22.731513
1627.000000	22.651521
1626.000000	22.584044
1625.000000	22.507457
1624.000000	22.423360
1623.000000	22.335560
1622.000000	22.253366
1621.000000	22.174476
1620.000000	22.121715
1619.000000	22.037619
1618.000000	21.953022
1617.000000	21.875734
1616.000000	21.796343
1615.000000	21.727564
1614.000000	21.650876
1613.000000	21.604223
1612.000000	21.531139
1611.000000	21.457755
1610.000000	21.400490
1609.000000	21.329709
1608.000000	21.261631
1607.000000	21.204866
1606.000000	21.122271
1605.000000	21.076319
1604.000000	21.012446
1603.000000	20.937860
1602.000000	20.861673
1601.000000	20.794596
1600.000000	20.729422
1599.000000	20.661744
1598.000000	20.616993
1597.000000	20.556624
1596.000000	20.497857
1595.000000	20.432282
1594.000000	20.373415
1593.000000	20.318452
1592.000000	20.280809
1591.000000	20.238160
1590.000000	20.174086
1589.000000	20.131738
1588.000000	20.080279
1587.000000	20.051346
1586.000000	19.999487
1585.000000	19.949329
1584.000000	19.911486
1583.000000	19.871340
1582.000000	19.830093
1581.000000	19.797055
1580.000000	19.753805
1579.000000	19.714460
1578.000000	19.695939
1577.000000	19.672312
1576.000000	19.645682
1575.000000	19.609640
1574.000000	19.590719
1573.000000	19.577303
1572.000000	19.578705
1571.000000	19.562887
1570.000000	19.551374
1569.000000	19.539761
1568.000000	19.540762
1567.000000	19.538259
1566.000000	19.537558
1565.000000	19.532052
1564.000000	19.532552
1563.000000	19.522641
1562.000000	19.518036
1561.000000	19.525845
1560.000000	19.529549
1559.000000	19.522441
1558.000000	19.505021
1557.000000	19.500616
1556.000000	19.507424
1555.000000	19.490504
1554.000000	19.473485
1553.000000	19.465375
1552.000000	19.441048
1551.000000	19.418221
1550.000000	19.389489
1549.000000	19.375473
1548.000000	19.349242
1547.000000	19.312500
1546.000000	19.283067
1545.000000	19.259740
1544.000000	19.228304
1543.000000	19.204377
1542.000000	19.184654
1541.000000	19.150815
1540.000000	19.140904
1539.000000	19.122583
1538.000000	19.085641
1537.000000	19.060412
1536.000000	19.034983
1535.000000	19.018364
1534.000000	18.999843
1533.000000	18.970109
1532.000000	18.938072
1531.000000	18.905735
1530.000000	18.881607
1529.000000	18.845166
1528.000000	18.805721
1527.000000	18.772182
1526.000000	18.737142
1525.000000	18.692391
1524.000000	18.655649
1523.000000	18.620408
1522.000000	18.571152
1521.000000	18.528603
1520.000000	18.489759
1519.000000	18.453117
1518.000000	18.408866
1517.000000	18.368120
1516.000000	18.317462
1515.000000	18.264301
1514.000000	18.225857
1513.000000	18.171595
1512.000000	18.110925
1511.000000	18.062770
1510.000000	18.023025
1509.000000	17.971866
1508.000000	17.908494
1507.000000	17.844821
1506.000000	17.795064
1505.000000	17.752715
1504.000000	17.695550
1503.000000	17.635782
1502.000000	17.589329
1501.000000	17.549483
1500.000000	17.509537
1499.000000	17.459280
1498.000000	17.412626
1497.000000	17.354360
1496.000000	17.304102
1495.000000	17.265358
1494.000000	17.220406
1493.000000	17.178659
1492.000000	17.136410
1491.000000	17.114886
1490.000000	17.076041
1489.000000	17.031590
1488.000000	17.008063
1487.000000	16.967317
1486.000000	16.925669
1485.000000	16.897337
1484.000000	16.850583
1483.000000	16.820248
1482.000000	16.799124
1481.000000	16.778401
1480.000000	16.750469
1479.000000	16.720234
1478.000000	16.711924
1477.000000	16.698609
1476.000000	16.685494
1475.000000	16.662468
1474.000000	16.661367
1473.000000	16.656861
1472.000000	16.652557
1471.000000	16.652757
1470.000000	16.644347
1469.000000	16.647751
1468.000000	16.643046
1467.000000	16.636638
1466.000000	16.623824
1465.000000	16.624124
1464.000000	16.638941
1463.000000	16.641043
1462.000000	16.659464
1461.000000	16.684093
1460.000000	16.717231
1459.000000	16.733649
1458.000000	16.768389
1457.000000	16.800726
1456.000000	16.843675
1455.000000	16.896936
1454.000000	16.959808
1453.000000	17.000755
1452.000000	17.060323
1451.000000	17.132806
1450.000000	17.204488
1449.000000	17.260953
1448.000000	17.322223
1447.000000	17.406019
1446.000000	17.483808
1445.000000	17.551285
1444.000000	17.623968
1443.000000	17.700656
1442.000000	17.786154
1441.000000	17.873654
1440.000000	17.972667
1439.000000	18.059767
1438.000000	18.162084
1437.000000	18.268406
1436.000000	18.357508
1435.000000	18.443206
1434.000000	18.566747
1433.000000	18.672868
1432.000000	18.796410
1431.000000	18.905535
1430.000000	19.029276
1429.000000	19.153118
1428.000000	19.302689
1427.000000	19.436342
1426.000000	19.614346
1425.000000	19.771225
1424.000000	19.954735
1423.000000	20.137845
1422.000000	20.317050
1421.000000	20.526690
1420.000000	20.742036
1419.000000	20.979909
1418.000000	21.186545
1417.000000	21.393682
1416.000000	21.608728
1415.000000	21.867224
1414.000000	22.117510
1413.000000	22.358987
1412.000000	22.623690
1411.000000	22.889394
1410.000000	23.195544
1409.000000	23.538336
1408.000000	23.889338
1407.000000	24.274979
1406.000000	24.643000
1405.000000	25.039855
1404.000000	25.411480
1403.000000	25.836566
1402.000000	26.186367
1401.000000	26.618661
1400.000000	27.064271
1399.000000	27.425785
1398.000000	27.728732
1397.000000	28.038286
1396.000000	28.388387
1395.000000	28.741691
1394.000000	29.033725
1393.000000	29.296225
1392.000000	29.597570
1391.000000	29.915534
1390.000000	30.232197
1389.000000	30.561974
1388.000000	31.013491
1387.000000	31.473117
1386.000000	31.912119
1385.000000	32.446731
1384.000000	33.006571
1383.000000	33.586435
1382.000000	34.147577
1381.000000	34.643545
1380.000000	34.978328
1379.000000	35.289684
1378.000000	35.525854
1377.000000	35.711967
1376.000000	35.931919
1375.000000	36.146164
1374.000000	36.354703
1373.000000	36.689286
1372.000000	37.044492
1371.000000	37.411512
1370.000000	37.767420
1369.000000	38.106007
1368.000000	38.449901
1367.000000	38.758754
1366.000000	39.011743
1365.000000	39.243709
1364.000000	39.472170
1363.000000	39.647972
1362.000000	39.849803
1361.000000	40.036416
1360.000000	40.164563
1359.000000	40.263376
1358.000000	40.339263
1357.000000	40.475018
1356.000000	40.654023
1355.000000	40.924632
1354.000000	41.302565
1353.000000	41.725649
1352.000000	42.197789
1351.000000	42.685247
1350.000000	43.195631
1349.000000	43.631330
1348.000000	44.048908
1347.000000	44.443459
1346.000000	44.822994
1345.000000	45.159679
1344.000000	45.540715
1343.000000	45.865887
1342.000000	46.183951
1341.000000	46.524541
1340.000000	46.867433
1339.000000	47.156564
1338.000000	47.473627
1337.000000	47.755149
1336.000000	48.051688
1335.000000	48.336514
1334.000000	48.631352
1333.000000	48.910571
1332.000000	49.179879
1331.000000	49.440878
1330.000000	49.674946
1329.000000	49.929738
1328.000000	50.168511
1327.000000	50.377650
1326.000000	50.594598
1325.000000	50.796329
1324.000000	50.992454
1323.000000	51.179067
1322.000000	51.368985
1321.000000	51.539179
1320.000000	51.715781
1319.000000	51.861148
1318.000000	52.017627
1317.000000	52.155385
1316.000000	52.321775
1315.000000	52.465339
1314.000000	52.591584
1313.000000	52.721332
1312.000000	52.844073
1311.000000	52.944588
1310.000000	53.052711
1309.000000	53.149722
1308.000000	53.232417
1307.000000	53.325123
1306.000000	53.413024
1305.000000	53.478298
1304.000000	53.543373
1303.000000	53.596133
1302.000000	53.646791
1301.000000	53.684434
1300.000000	53.714569
1299.000000	53.747707
1298.000000	53.767229
1297.000000	53.810078
1296.000000	53.840413
1295.000000	53.846920
1294.000000	53.859134
1293.000000	53.863840
1292.000000	53.871248
1291.000000	53.881260
1290.000000	53.872750
1289.000000	53.848822
1288.000000	53.828900
1287.000000	53.804472
1286.000000	53.767329
1285.000000	53.729186
1284.000000	53.703256
1283.000000	53.648693
1282.000000	53.583719
1281.000000	53.543473
1280.000000	53.496219
1279.000000	53.434849
1278.000000	53.375681
1277.000000	53.325123
1276.000000	53.277469
1275.000000	53.230715
1274.000000	53.194073
1273.000000	53.156530
1272.000000	53.109576
1271.000000	53.067228
1270.000000	53.049007
1269.000000	53.007460
1268.000000	52.970217
1267.000000	52.945789
1266.000000	52.911249
1265.000000	52.852783
1264.000000	52.803726
1263.000000	52.768186
1262.000000	52.742857
1261.000000	52.692399
1260.000000	52.640940
1259.000000	52.600694
1258.000000	52.552639
1257.000000	52.506687
1256.000000	52.453325
1255.000000	52.400465
1254.000000	52.346003
1253.000000	52.276323
1252.000000	52.202138
1251.000000	52.134160
1250.000000	52.047761
1249.000000	51.969572
1248.000000	51.875765
1247.000000	51.775149
1246.000000	51.677638
1245.000000	51.569214
1244.000000	51.439265
1243.000000	51.320930
1242.000000	51.190580
1241.000000	51.050120
1240.000000	50.902250
1239.000000	50.744570
1238.000000	50.596601
1237.000000	50.447430
1236.000000	50.278036
1235.000000	50.105238
1234.000000	49.937847
1233.000000	49.764749
1232.000000	49.582540
1231.000000	49.394525
1230.000000	49.196799
1229.000000	49.005680
1228.000000	48.808955
1227.000000	48.604922
1226.000000	48.393379
1225.000000	48.178734
1224.000000	47.969394
1223.000000	47.761657
1222.000000	47.559525
1221.000000	47.344279
1220.000000	47.147053
1219.000000	46.958938
1218.000000	46.761812
1217.000000	46.579704
1216.000000	46.403602
1215.000000	46.245121
1214.000000	46.087441
1213.000000	45.928058
1212.000000	45.792403
1211.000000	45.658950
1210.000000	45.515686
1209.000000	45.394748
1208.000000	45.276713
1207.000000	45.166387
1206.000000	45.096006
1205.000000	45.022021
1204.000000	44.967759
1203.000000	44.918803
1202.000000	44.884264
1201.000000	44.848923
1200.000000	44.812882
1199.000000	44.779344
1198.000000	44.700353
1197.000000	44.591529
1196.000000	44.463783
1195.000000	44.291686
1194.000000	44.054514
1193.000000	43.743158
1192.000000	43.382745
1191.000000	42.992299
1190.000000	42.574020
1189.000000	42.157543
1188.000000	41.805841
1187.000000	41.538635
1186.000000	41.392067
1185.000000	41.353824
1184.000000	41.472159
1183.000000	41.696215
1182.000000	42.034903
1181.000000	42.493928
1180.000000	42.973878
1179.000000	43.475652
1178.000000	43.967014
1177.000000	44.410421
1176.000000	44.803371
1175.000000	45.145463
1174.000000	45.467331
1173.000000	45.790401
1172.000000	46.096451
1171.000000	46.403502
1170.000000	46.756006
1169.000000	47.093492
1168.000000	47.422969
1167.000000	47.764059
1166.000000	48.125072
1165.000000	48.492993
1164.000000	48.857310
1163.000000	49.230638
1162.000000	49.615878
1161.000000	49.974088
1160.000000	50.359029
1159.000000	50.709029
1158.000000	51.064436
1157.000000	51.415238
1156.000000	51.725292
1155.000000	52.003511
1154.000000	52.255299
1153.000000	52.448320
1152.000000	52.582673
1151.000000	52.680586
1150.000000	52.764482
1149.000000	52.820946
1148.000000	52.887923
1147.000000	52.964510
1146.000000	53.096161
1145.000000	53.277068
1144.000000	53.504929
1143.000000	53.795061
1142.000000	54.104915
1141.000000	54.467731
1140.000000	54.845263
1139.000000	55.231104
1138.000000	55.628559
1137.000000	56.050442
1136.000000	56.479333
1135.000000	56.907523
1134.000000	57.347326
1133.000000	57.735470
1132.000000	58.099186
1131.000000	58.438775
1130.000000	58.771756
1129.000000	59.048573
1128.000000	59.284142
1127.000000	59.482369
1126.000000	59.622129
1125.000000	59.764392
1124.000000	59.861904
1123.000000	59.952607
1122.000000	60.025791
1121.000000	60.092367
1120.000000	60.131212
1119.000000	60.173260
1118.000000	60.199190
1117.000000	60.222817
1116.000000	60.219012
1115.000000	60.220614
1114.000000	60.229024
1113.000000	60.221715
1112.000000	60.208901
1111.000000	60.215208
1110.000000	60.213206
1109.000000	60.192582
1108.000000	60.194784
1107.000000	60.173360
1106.000000	60.167153
1105.000000	60.159844
1104.000000	60.153537
1103.000000	60.153637
1102.000000	60.145028
1101.000000	60.123603
1100.000000	60.127307
1099.000000	60.092467
1098.000000	60.075748
1097.000000	60.053823
1096.000000	60.039006
1095.000000	59.998560
1094.000000	59.949604
1093.000000	59.928880
1092.000000	59.903251
1091.000000	59.841981
1090.000000	59.827364
1089.000000	59.776806
1088.000000	59.742367
1087.000000	59.689306
1086.000000	59.631440
1085.000000	59.593196
1084.000000	59.557755
1083.000000	59.490178
1082.000000	59.433413
1081.000000	59.377850
1080.000000	59.306368
1079.000000	59.277735
1078.000000	59.194440
1077.000000	59.150389
1076.000000	59.090421
1075.000000	59.040964
1074.000000	58.976390
1073.000000	58.924631
1072.000000	58.864262
1071.000000	58.787774
1070.000000	58.745426
1069.000000	58.693667
1068.000000	58.617680
1067.000000	58.574931
1066.000000	58.504650
1065.000000	58.427862
1064.000000	58.367894
1063.000000	58.300617
1062.000000	58.236243
1061.000000	58.188589
1060.000000	58.100688
1059.000000	58.025702
1058.000000	57.956123
1057.000000	57.891749
1056.000000	57.811858
1055.000000	57.729363
1054.000000	57.665290
1053.000000	57.589203
1052.000000	57.528133
1051.000000	57.449042
1050.000000	57.377961
1049.000000	57.334311
1048.000000	57.266133
1047.000000	57.198956
1046.000000	57.155306
1045.000000	57.070209
1044.000000	57.012643
1043.000000	56.971996
1042.000000	56.901716
1041.000000	56.836441
1040.000000	56.790088
1039.000000	56.734224
1038.000000	56.663343
1037.000000	56.626201
1036.000000	56.566532
1035.000000	56.489144
1034.000000	56.423769
1033.000000	56.349885
1032.000000	56.289415
1031.000000	56.231049
1030.000000	56.157064
1029.000000	56.093892
1028.000000	56.009195
1027.000000	55.957536
1026.000000	55.867332
1025.000000	55.801857
1024.000000	55.728774
1023.000000	55.661897
1022.000000	55.581405
1021.000000	55.522137
1020.000000	55.458164
1019.000000	55.410910
1018.000000	55.352243
1017.000000	55.294377
1016.000000	55.267846
1015.000000	55.226299
1014.000000	55.191259
1013.000000	55.171035
1012.000000	55.156419
1011.000000	55.133192
1010.000000	55.151713
1009.000000	55.145206
1008.000000	55.175240
1007.000000	55.205875
1006.000000	55.210280
1005.000000	55.255732
1004.000000	55.277758
1003.000000	55.309694
1002.000000	55.320507
1001.000000	55.347738
1000.000000	55.369262
999.000000	55.397695
998.000000	55.437841
997.000000	55.465272
996.000000	55.483693
995.000000	55.513327
994.000000	55.543061
993.000000	55.563585
992.000000	55.576499
991.000000	55.593919
990.000000	55.616846
989.000000	55.634566
988.000000	55.649383
987.000000	55.653287
986.000000	55.672710
985.000000	55.702143
984.000000	55.706148
983.000000	55.712455
982.000000	55.726371
981.000000	55.755204
980.000000	55.771723
979.000000	55.784738
978.000000	55.812870
977.000000	55.822681
976.000000	55.834295
975.000000	55.848611
974.000000	55.881248
973.000000	55.920193
972.000000	55.938013
971.000000	55.968248
970.000000	56.009996
969.000000	56.072167
968.000000	56.127230
967.000000	56.190102
966.000000	56.260282
965.000000	56.336069
964.000000	56.424870
963.000000	56.530691
962.000000	56.638915
961.000000	56.749642
960.000000	56.873784
959.000000	57.012443
958.000000	57.166519
957.000000	57.306079
956.000000	57.433424
955.000000	57.584497
954.000000	57.753491
953.000000	57.900459
952.000000	58.052333
951.000000	58.202304
950.000000	58.344467
949.000000	58.481724
948.000000	58.617379
947.000000	58.755437
946.000000	58.888189
945.000000	59.008127
944.000000	59.126562
943.000000	59.231682
942.000000	59.336502
941.000000	59.430710
940.000000	59.531425
939.000000	59.640951
938.000000	59.721743
937.000000	59.797129
936.000000	59.884229
935.000000	59.977336
934.000000	60.066838
933.000000	60.140522
932.000000	60.218111
931.000000	60.307614
930.000000	60.398518
929.000000	60.475305
928.000000	60.550492
927.000000	60.632485
926.000000	60.724991
925.000000	60.812091
924.000000	60.902094
923.000000	61.007114
922.000000	61.104726
921.000000	61.222961
920.000000	61.342598
919.000000	61.475750
918.000000	61.598491
917.000000	61.726437
916.000000	61.866397
915.000000	62.018071
914.000000	62.164539
913.000000	62.335534
912.000000	62.488309
911.000000	62.641985
910.000000	62.812480
909.000000	62.999094
908.000000	63.179700
907.000000	63.363310
906.000000	63.542415
905.000000	63.740142
904.000000	63.946778
903.000000	64.157619
902.000000	64.360451
901.000000	64.575297
900.000000	64.789042
899.000000	64.994878
898.000000	65.218634
897.000000	65.458708
896.000000	65.678260
895.000000	65.893506
894.000000	66.101444
893.000000	66.309482
892.000000	66.511313
891.000000	66.723356
890.000000	66.937601
889.000000	67.137329
888.000000	67.334455
887.000000	67.541692
886.000000	67.731009
885.000000	67.923028
884.000000	68.098529
883.000000	68.286945
882.000000	68.465749
881.000000	68.647758
880.000000	68.812046
879.000000	68.985244
878.000000	69.167753
877.000000	69.317024
876.000000	69.463992
875.000000	69.602250
874.000000	69.702365
873.000000	69.790565
872.000000	69.923418
871.000000	70.127451
870.000000	70.338192
869.000000	70.555341
868.000000	70.778897
867.000000	70.999949
866.000000	71.243328
865.000000	71.503726
864.000000	71.758117
863.000000	72.018415
862.000000	72.283819
861.000000	72.551825
860.000000	72.842058
859.000000	73.141700
858.000000	73.432633
857.000000	73.298700
856.000000	73.288700
855.000000	73.710500
854.000000	74.535100
853.000000	74.836100
852.000000	74.944700
851.000000	75.301400
850.000000	76.001500
849.000000	77.088700
848.000000	77.047800
847.000000	77.231300
846.000000	77.723300
845.000000	78.048100
844.000000	78.317500
843.000000	78.561000
842.000000	78.903300
841.000000	78.886100
840.000000	78.915600
839.000000	79.255700
838.000000	79.465700
837.000000	79.520600
836.000000	79.989700
835.000000	80.184000
834.000000	80.345300
833.000000	80.792100
832.000000	80.752200
831.000000	80.972300
830.000000	81.090200
829.000000	81.195400
828.000000	81.301800
827.000000	81.756100
826.000000	82.205200
825.000000	82.309300
824.000000	82.430700
823.000000	82.654400
822.000000	82.905600
821.000000	83.329900
820.000000	83.352200
819.000000	83.704300
818.000000	83.903400
817.000000	84.272200
816.000000	84.592000
815.000000	84.568600
814.000000	84.928100
813.000000	85.035500
812.000000	85.211800
811.000000	85.444900
810.000000	85.586200
809.000000	85.693000
808.000000	85.646100
807.000000	85.402300
806.000000	85.774400
805.000000	85.718800
804.000000	85.468700
803.000000	85.356400
802.000000	85.444300
801.000000	85.398000
800.000000	85.235800
799.000000	85.167500
798.000000	85.087700
797.000000	85.138100
796.000000	84.932600
795.000000	85.104400
794.000000	85.212400
793.000000	85.163800
792.000000	85.243800
791.000000	85.107800
790.000000	85.333400
789.000000	85.749700
788.000000	85.415200
787.000000	85.657700
786.000000	85.956500
785.000000	85.966700
784.000000	86.357300
783.000000	86.442600
782.000000	86.339200
781.000000	86.666800
780.000000	86.793400
779.000000	86.976700
778.000000	87.106800
777.000000	87.095200
776.000000	87.302300
775.000000	87.382900
774.000000	87.680300
773.000000	87.681100
772.000000	87.643600
771.000000	87.856800
770.000000	88.039300
769.000000	87.990300
768.000000	88.032700
767.000000	88.091100
766.000000	88.028000
765.000000	88.041700
764.000000	87.852500
763.000000	87.921100
762.000000	87.627800
761.000000	87.484200
760.000000	87.327300
759.000000	87.141900
758.000000	86.843300
757.000000	86.645600
756.000000	86.445300
755.000000	86.077000
754.000000	86.046400
753.000000	85.754200
752.000000	85.496400
751.000000	85.444500
750.000000	85.253800
749.000000	84.988800
748.000000	84.741800
747.000000	84.521500
746.000000	84.293100
745.000000	84.029000
744.000000	83.761100
743.000000	83.452200
742.000000	83.183500
741.000000	82.785300
740.000000	82.457200
739.000000	82.080200
738.000000	81.717800
737.000000	81.194400
736.000000	80.819700
735.000000	80.349900
734.000000	79.979100
733.000000	79.557400
732.000000	79.191400
731.000000	78.759300
730.000000	78.470600
729.000000	78.161700
728.000000	77.852500
727.000000	77.566900
726.000000	77.201000
725.000000	77.043200
724.000000	76.751300
723.000000	76.592300
722.000000	76.355600
721.000000	76.166700
720.000000	75.973300
719.000000	75.683700
718.000000	75.527000
717.000000	75.280300
716.000000	75.142800
715.000000	74.995300
714.000000	74.843800
713.000000	74.684400
712.000000	74.693200
711.000000	74.600400
710.000000	74.528600
709.000000	74.491600
708.000000	74.531300
707.000000	74.518400
706.000000	74.550500
705.000000	74.473100
704.000000	74.476300
703.000000	74.444200
702.000000	74.438000
701.000000	74.324900
700.000000	74.229600
699.000000	74.116200
698.000000	73.927000
697.000000	73.681600
696.000000	73.497100
695.000000	73.256900
694.000000	72.957500
693.000000	72.719000
692.000000	72.444500
691.000000	72.126000
690.000000	71.889500
689.000000	71.615400
688.000000	71.494600
687.000000	71.294700
686.000000	71.044800
685.000000	70.900700
684.000000	70.707000
683.000000	70.536300
682.000000	70.321800
681.000000	70.004400
680.000000	69.692900
679.000000	69.298000
678.000000	68.803000
677.000000	68.288800
676.000000	67.764400
675.000000	67.097000
674.000000	66.385100
673.000000	65.718700
672.000000	64.968300
671.000000	64.131000
670.000000	63.306400
669.000000	62.614600
668.000000	61.924300
667.000000	61.213600
666.000000	60.539600
665.000000	59.881600
664.000000	59.236700
663.000000	58.673000
662.000000	58.103100
661.000000	57.539700
660.000000	57.047800
659.000000	56.512300
658.000000	56.063500
657.000000	55.703300
656.000000	55.398500
655.000000	55.183700
654.000000	55.086700
653.000000	55.106500
652.000000	55.304700
651.000000	55.679100
650.000000	56.159000
649.000000	56.791700
648.000000	57.597100
647.000000	58.533300
646.000000	59.522000
645.000000	60.610600
644.000000	61.805200
643.000000	63.031500
642.000000	64.294700
641.000000	65.547300
640.000000	66.787200
639.000000	67.970200
638.000000	69.125000
637.000000	70.257000
636.000000	71.298900
635.000000	72.311500
634.000000	73.311100
633.000000	74.323800
632.000000	75.264500
631.000000	76.181100
630.000000	77.044000
629.000000	77.876700
628.000000	78.723400
627.000000	79.544800
626.000000	80.337500
625.000000	81.071100
624.000000	81.805200
623.000000	82.500200
622.000000	83.191600
621.000000	83.875400
620.000000	84.513300
619.000000	85.090000
618.000000	85.656600
617.000000	86.199800
616.000000	86.690400
615.000000	87.129100
614.000000	87.589900
613.000000	88.040900
612.000000	88.464500
611.000000	88.833900
610.000000	89.206200
609.000000	89.535900
608.000000	89.835300
607.000000	90.142300
606.000000	90.351900
605.000000	90.566200
604.000000	90.806900
603.000000	90.959400
602.000000	91.134200
601.000000	91.278400
600.000000	91.383300
599.000000	91.479400
598.000000	91.596100
597.000000	91.683800
596.000000	91.735900
595.000000	91.841300
594.000000	91.912200
593.000000	91.943200
592.000000	91.928800
591.000000	91.944300
590.000000	91.962600
589.000000	91.983300
588.000000	92.026400
587.000000	92.000800
586.000000	91.976500
585.000000	92.006600
584.000000	91.947900
583.000000	91.880900
582.000000	91.816400
581.000000	91.723300
580.000000	91.620100
579.000000	91.526900
578.000000	91.372600
577.000000	91.199900
576.000000	90.981800
575.000000	90.799100
574.000000	90.488400
573.000000	90.219100
572.000000	89.905500
571.000000	89.620900
570.000000	89.258200
569.000000	88.938900
568.000000	88.557600
567.000000	88.184900
566.000000	87.805600
565.000000	87.435500
564.000000	86.983900
563.000000	86.599000
562.000000	86.178900
561.000000	85.764400
560.000000	85.287500
559.000000	84.737200
558.000000	84.223600
557.000000	83.727700
556.000000	83.188700
555.000000	82.686000
554.000000	82.099700
553.000000	81.516700
552.000000	80.825100
551.000000	80.087300
550.000000	79.313300
549.000000	78.541500
548.000000	77.682300
547.000000	76.781800
546.000000	75.805000
545.000000	74.779800
544.000000	73.649700
543.000000	72.522200
542.000000	71.269500
541.000000	69.982400
540.000000	68.630000
539.000000	67.244700
538.000000	65.807100
537.000000	64.314900
536.000000	62.787700
535.000000	61.249300
534.000000	59.667700
533.000000	58.050700
532.000000	56.467600
531.000000	54.916700
530.000000	53.471900
529.000000	52.035200
528.000000	50.674700
527.000000	49.409300
526.000000	48.214500
525.000000	47.107800
524.000000	46.090300
523.000000	45.168300
522.000000	44.346000
521.000000	43.579800
520.000000	42.910300
519.000000	42.333700
518.000000	41.824000
517.000000	41.350800
516.000000	40.948500
515.000000	40.576400
514.000000	40.229300
513.000000	39.929600
512.000000	39.601100
511.000000	39.341800
510.000000	39.073700
509.000000	38.788200
508.000000	38.567500
507.000000	38.275800
506.000000	37.944000
505.000000	37.634800
504.000000	37.297300
503.000000	36.837300
502.000000	36.433600
501.000000	35.977500
500.000000	35.493300
499.000000	34.989800
498.000000	34.399600
497.000000	33.832100
496.000000	33.245200
495.000000	32.596800
494.000000	31.988700
493.000000	31.367300
492.000000	30.722600
491.000000	30.141900
490.000000	29.576400
489.000000	29.085800
488.000000	28.616400
487.000000	28.229100
486.000000	27.910200
485.000000	27.614500
484.000000	27.406600
483.000000	27.215400
482.000000	27.111800
481.000000	27.079900
480.000000	27.087600
479.000000	27.118400
478.000000	27.214200
477.000000	27.309500
476.000000	27.463600
475.000000	27.608900
474.000000	27.768900
473.000000	27.997400
472.000000	28.176900
471.000000	28.375900
470.000000	28.534100
469.000000	28.735600
468.000000	28.890700
467.000000	29.079400
466.000000	29.206800
465.000000	29.337600
464.000000	29.420800
463.000000	29.498200
462.000000	29.580500
461.000000	29.657600
460.000000	29.689200
459.000000	29.682800
458.000000	29.698700
457.000000	29.658600
456.000000	29.613400
455.000000	29.573300
454.000000	29.449500
453.000000	29.373800
452.000000	29.285000
451.000000	29.141900
450.000000	28.984400
449.000000	28.787000
448.000000	28.637900
447.000000	28.470700
446.000000	28.261000
445.000000	27.988600
444.000000	27.757400
443.000000	27.477900
442.000000	27.205200
441.000000	26.926400
440.000000	26.549700
439.000000	26.246800
438.000000	25.901400
437.000000	25.552400
436.000000	25.190600
435.000000	24.813800
434.000000	24.406800
433.000000	23.970800
432.000000	23.584600
431.000000	23.159600
430.000000	22.656300
429.000000	22.181900
428.000000	21.725300
427.000000	21.258600
426.000000	20.751300
425.000000	20.217400
424.000000	19.742100
423.000000	19.209600
422.000000	18.648400
421.000000	18.092700
420.000000	17.595800
419.000000	17.040200
418.000000	16.504300
417.000000	16.015000
416.000000	15.470400
415.000000	14.982100
414.000000	14.489200
413.000000	14.018800
412.000000	13.558300
411.000000	13.109400
410.000000	12.714400
409.000000	12.295100
408.000000	11.926200
407.000000	11.568900
406.000000	11.231600
405.000000	10.937300
404.000000	10.610700
403.000000	10.334800
402.000000	10.071500
401.000000	9.841600
400.000000	9.633500
399.000000	9.411300
398.000000	9.211900
397.000000	9.021900
396.000000	8.868000
395.000000	8.744600
394.000000	8.605600
393.000000	8.461400
392.000000	8.338600
391.000000	8.209900
390.000000	8.099400
389.000000	8.005700
388.000000	7.910200
387.000000	7.826500
386.000000	7.744000
385.000000	7.648000
384.000000	7.582600
383.000000	7.524400
382.000000	7.468400
381.000000	7.374300
380.000000	7.320200
379.000000	7.293900
378.000000	7.247300
377.000000	7.165000
376.000000	6.985800
375.000000	6.648900
374.000000	6.624100
373.000000	6.679400
372.000000	6.709300
371.000000	6.660000
370.000000	6.618800
369.000000	6.688800
368.000000	6.725000
367.000000	6.798900
366.000000	6.720300
365.000000	6.656100
364.000000	6.656800
363.000000	6.506300
362.000000	6.458100
361.000000	6.574900
360.000000	6.533300
359.000000	6.434100
358.000000	6.495700
357.000000	6.496700
356.000000	6.434900
355.000000	6.358400
354.000000	6.369800
353.000000	6.294600
352.000000	6.282900
351.000000	6.256800
350.000000	6.204400
349.000000	6.185400
348.000000	6.137300
347.000000	6.140100
346.000000	6.130900
345.000000	6.126400
344.000000	6.150500
343.000000	6.157200
342.000000	6.135500
341.000000	6.148600
340.000000	6.269500
339.000000	6.267100
338.000000	6.082500
337.000000	6.173700
336.000000	6.362200
335.000000	6.152600
334.000000	6.001600
333.000000	6.222500
332.000000	6.139000
331.000000	6.069200
330.000000	6.149900
329.000000	6.237300
328.000000	6.463800
327.000000	6.843800
326.000000	6.816000
325.000000	6.434400
324.000000	6.451100
323.000000	6.555100
322.000000	6.310000
321.000000	6.309700
320.000000	6.559500
319.000000	6.517200
318.000000	6.450600
317.000000	6.596900
316.000000	6.239400
315.000000	5.899400
314.000000	5.879600
313.000000	5.880300
312.000000	5.887600
311.000000	5.872100
310.000000	5.910700
309.000000	5.938100
308.000000	5.948700
307.000000	5.949200
306.000000	5.950600
305.000000	5.940100
304.000000	5.911600
303.000000	5.894600
302.000000	5.927500
301.000000	5.928700
300.000000	5.975200
299.000000	6.000600
298.000000	6.011100
297.000000	5.978800
296.000000	5.981700
295.000000	5.995800
294.000000	6.024200
293.000000	6.006500
292.000000	6.029100
291.000000	6.047300
290.000000	6.081200
289.000000	6.083400
288.000000	6.102700
287.000000	6.117500
286.000000	6.106300
285.000000	6.108300
284.000000	6.141900
283.000000	6.148600
282.000000	6.173700
281.000000	6.163200
280.000000	6.150500
279.000000	6.151400
278.000000	6.170900
277.000000	6.220600
276.000000	6.293700
275.000000	6.257500
274.000000	6.274500
273.000000	6.284200
272.000000	6.290700
271.000000	6.338600
270.000000	6.337200
269.000000	6.309400
268.000000	6.344700
267.000000	6.366800
266.000000	6.410400
265.000000	6.430600
264.000000	6.458900
263.000000	6.486800
262.000000	6.537000
261.000000	6.561200
260.000000	6.645100
259.000000	6.594200
258.000000	6.606600
257.000000	6.648000
256.000000	6.662000
255.000000	6.649800
254.000000	6.700400
253.000000	6.745200
252.000000	6.772300
251.000000	6.767600
250.000000	6.779400
