PE UV       SUBTECH     SPECTRUM    ASCII       PEDS        4.00        
   -1
CICIMAUCR0240-2.Sample.ASC
24/06/20
11:56:04.00
24/06/20
11:56:04.00
Vinicio Soto Monge
C. resplendens. Sex M. Dorsal.
250,000000
1
Lambda 1050
1050L1511233
PerkinElmer UV WinLab 6.3.2.0749 / 2.02.05 Lambda 900 UV/VIS/NIR, Aug  7 2015 09:38:08

0
0
3350/servo 860,8/2
0
0
UV/VIS
1
1
1
DoubleDePol,CommonBeamDepol,RBeamAtt,SBeamAtt,60mm sphere, WB InGaAs Detector
0
0
0
0
Program
Program
3350/servo 860,8/2
3350/0,2 860,8/0,2
3350/0,2 860,8/0,2
0
15.00
 
 
 
0
 
860,8
319,2
860,8
Front
100
on
S:100 R:100
0
0
0
0
 
0
 
 
 
0
 
 
0
0
0
0
0
 
 
 
 
0
0


0
0
#HDR
-1
-1
#GR
nm
%R
1.0
0.0
2500,000000
-1,000000
2251
8
89,301500
5,619700
#DATA
2500.000000	11.255066
2499.000000	11.021859
2498.000000	11.079978
2497.000000	10.963635
2496.000000	11.056543
2495.000000	10.977071
2494.000000	11.023421
2493.000000	10.977801
2492.000000	10.931347
2491.000000	10.977488
2490.000000	10.847084
2489.000000	10.963323
2488.000000	10.842813
2487.000000	10.877498
2486.000000	10.876456
2485.000000	10.858020
2484.000000	10.879893
2483.000000	10.778132
2482.000000	10.907182
2481.000000	10.910411
2480.000000	10.864582
2479.000000	10.878018
2478.000000	10.872706
2477.000000	10.882081
2476.000000	10.893954
2475.000000	10.938846
2474.000000	10.936763
2473.000000	10.970510
2472.000000	10.976446
2471.000000	10.968218
2470.000000	10.968114
2469.000000	10.981238
2468.000000	11.009985
2467.000000	11.034045
2466.000000	11.077062
2465.000000	11.091748
2464.000000	11.092581
2463.000000	11.142785
2462.000000	11.180594
2461.000000	11.225589
2460.000000	11.288604
2459.000000	11.330058
2458.000000	11.349536
2457.000000	11.405989
2456.000000	11.489210
2455.000000	11.538268
2454.000000	11.595345
2453.000000	11.678358
2452.000000	11.738873
2451.000000	11.826157
2450.000000	11.896775
2449.000000	11.975517
2448.000000	12.088840
2447.000000	12.146647
2446.000000	12.225389
2445.000000	12.288196
2444.000000	12.356106
2443.000000	12.439744
2442.000000	12.531922
2441.000000	12.626913
2440.000000	12.729195
2439.000000	12.785752
2438.000000	12.898866
2437.000000	12.961360
2436.000000	13.038228
2435.000000	13.103951
2434.000000	13.179464
2433.000000	13.238521
2432.000000	13.317055
2431.000000	13.391111
2430.000000	13.461104
2429.000000	13.519952
2428.000000	13.587238
2427.000000	13.664105
2426.000000	13.726912
2425.000000	13.770345
2424.000000	13.850025
2423.000000	13.892312
2422.000000	13.950849
2421.000000	14.013863
2420.000000	14.065108
2419.000000	14.121770
2418.000000	14.168536
2417.000000	14.215094
2416.000000	14.246653
2415.000000	14.285504
2414.000000	14.346540
2413.000000	14.379557
2412.000000	14.412992
2411.000000	14.468611
2410.000000	14.499858
2409.000000	14.555478
2408.000000	14.579017
2407.000000	14.615160
2406.000000	14.661509
2405.000000	14.690153
2404.000000	14.709109
2403.000000	14.742960
2402.000000	14.777748
2401.000000	14.815245
2400.000000	14.839930
2399.000000	14.862844
2398.000000	14.864511
2397.000000	14.889092
2396.000000	14.934087
2395.000000	14.960335
2394.000000	14.985333
2393.000000	15.019913
2392.000000	15.036578
2391.000000	15.060742
2390.000000	15.088968
2389.000000	15.106988
2388.000000	15.115737
2387.000000	15.139068
2386.000000	15.150942
2385.000000	15.170419
2384.000000	15.176460
2383.000000	15.166982
2382.000000	15.167503
2381.000000	15.178439
2380.000000	15.177502
2379.000000	15.187292
2378.000000	15.191979
2377.000000	15.170731
2376.000000	15.152192
2375.000000	15.146255
2374.000000	15.128444
2373.000000	15.129173
2372.000000	15.128652
2371.000000	15.097405
2370.000000	15.081261
2369.000000	15.065637
2368.000000	15.050743
2367.000000	15.028766
2366.000000	14.999290
2365.000000	14.972521
2364.000000	14.948669
2363.000000	14.910548
2362.000000	14.879405
2361.000000	14.858991
2360.000000	14.818265
2359.000000	14.780040
2358.000000	14.742231
2357.000000	14.692340
2356.000000	14.658176
2355.000000	14.621930
2354.000000	14.599120
2353.000000	14.573185
2352.000000	14.554541
2351.000000	14.549333
2350.000000	14.537563
2349.000000	14.536730
2348.000000	14.541417
2347.000000	14.546104
2346.000000	14.576622
2345.000000	14.619638
2344.000000	14.643490
2343.000000	14.661822
2342.000000	14.684111
2341.000000	14.716921
2340.000000	14.738169
2339.000000	14.761083
2338.000000	14.792330
2337.000000	14.795663
2336.000000	14.822119
2335.000000	14.845346
2334.000000	14.839201
2333.000000	14.828264
2332.000000	14.818265
2331.000000	14.807850
2330.000000	14.795455
2329.000000	14.790455
2328.000000	14.751709
2327.000000	14.719421
2326.000000	14.690673
2325.000000	14.649011
2324.000000	14.595266
2323.000000	14.541729
2322.000000	14.484131
2321.000000	14.427053
2320.000000	14.333208
2319.000000	14.244674
2318.000000	14.181347
2317.000000	14.081773
2316.000000	13.963660
2315.000000	13.874710
2314.000000	13.769928
2313.000000	13.669834
2312.000000	13.570573
2311.000000	13.478186
2310.000000	13.387465
2309.000000	13.309348
2308.000000	13.256332
2307.000000	13.209045
2306.000000	13.155404
2305.000000	13.105930
2304.000000	13.083015
2303.000000	13.114783
2302.000000	13.131760
2301.000000	13.164778
2300.000000	13.208524
2299.000000	13.278517
2298.000000	13.331116
2297.000000	13.375070
2296.000000	13.469957
2295.000000	13.544533
2294.000000	13.625359
2293.000000	13.691603
2292.000000	13.759617
2291.000000	13.818986
2290.000000	13.865648
2289.000000	13.898874
2288.000000	13.932413
2287.000000	13.961993
2286.000000	13.993449
2285.000000	14.014384
2284.000000	14.018550
2283.000000	14.001052
2282.000000	13.994178
2281.000000	13.977929
2280.000000	13.956160
2279.000000	13.920539
2278.000000	13.894708
2277.000000	13.869919
2276.000000	13.841067
2275.000000	13.812841
2274.000000	13.794197
2273.000000	13.783156
2272.000000	13.758679
2271.000000	13.728891
2270.000000	13.754201
2269.000000	13.807633
2268.000000	13.833151
2267.000000	13.857837
2266.000000	13.934704
2265.000000	14.027091
2264.000000	14.156245
2263.000000	14.279671
2262.000000	14.431532
2261.000000	14.597349
2260.000000	14.784206
2259.000000	14.974813
2258.000000	15.169377
2257.000000	15.392481
2256.000000	15.616418
2255.000000	15.869623
2254.000000	16.081269
2253.000000	16.324683
2252.000000	16.560910
2251.000000	16.772557
2250.000000	17.015034
2249.000000	17.179393
2248.000000	17.372291
2247.000000	17.567376
2246.000000	17.738610
2245.000000	17.868910
2244.000000	18.042331
2243.000000	18.184713
2242.000000	18.305326
2241.000000	18.412399
2240.000000	18.516973
2239.000000	18.595611
2238.000000	18.694456
2237.000000	18.778823
2236.000000	18.847462
2235.000000	18.889333
2234.000000	18.931725
2233.000000	18.964117
2232.000000	19.008592
2231.000000	19.050151
2230.000000	19.030361
2229.000000	19.055150
2228.000000	19.063170
2227.000000	19.044526
2226.000000	19.039527
2225.000000	19.013383
2224.000000	18.984949
2223.000000	18.975470
2222.000000	18.927454
2221.000000	18.867147
2220.000000	18.834442
2219.000000	18.780385
2218.000000	18.735702
2217.000000	18.687477
2216.000000	18.656439
2215.000000	18.591757
2214.000000	18.541866
2213.000000	18.485309
2212.000000	18.435001
2211.000000	18.371778
2210.000000	18.341990
2209.000000	18.299910
2208.000000	18.268142
2207.000000	18.189296
2206.000000	18.160549
2205.000000	18.153570
2204.000000	18.134093
2203.000000	18.098784
2202.000000	18.077432
2201.000000	18.058788
2200.000000	18.020145
2199.000000	18.011084
2198.000000	17.985461
2197.000000	17.954839
2196.000000	17.935362
2195.000000	17.907865
2194.000000	17.888283
2193.000000	17.895157
2192.000000	17.882971
2191.000000	17.844225
2190.000000	17.818706
2189.000000	17.809436
2188.000000	17.795480
2187.000000	17.784543
2186.000000	17.763399
2185.000000	17.745797
2184.000000	17.725903
2183.000000	17.699030
2182.000000	17.681845
2181.000000	17.682365
2180.000000	17.672470
2179.000000	17.647785
2178.000000	17.628621
2177.000000	17.631120
2176.000000	17.630391
2175.000000	17.631120
2174.000000	17.614559
2173.000000	17.620913
2172.000000	17.625600
2171.000000	17.630287
2170.000000	17.633828
2169.000000	17.677782
2168.000000	17.696531
2167.000000	17.706634
2166.000000	17.726632
2165.000000	17.751005
2164.000000	17.784543
2163.000000	17.827976
2162.000000	17.856932
2161.000000	17.905156
2160.000000	17.939945
2159.000000	17.987336
2158.000000	18.030353
2157.000000	18.098263
2156.000000	18.140134
2155.000000	18.204294
2154.000000	18.278871
2153.000000	18.349489
2152.000000	18.410941
2151.000000	18.488330
2150.000000	18.542387
2149.000000	18.620504
2148.000000	18.684561
2147.000000	18.762782
2146.000000	18.817256
2145.000000	18.892562
2144.000000	18.962867
2143.000000	19.027236
2142.000000	19.101188
2141.000000	19.156495
2140.000000	19.204407
2139.000000	19.258568
2138.000000	19.326791
2137.000000	19.384494
2136.000000	19.439280
2135.000000	19.483651
2134.000000	19.511252
2133.000000	19.569372
2132.000000	19.612493
2131.000000	19.653114
2130.000000	19.689673
2129.000000	19.720191
2128.000000	19.749146
2127.000000	19.759041
2126.000000	19.780185
2125.000000	19.791850
2124.000000	19.806120
2123.000000	19.816327
2122.000000	19.833096
2121.000000	19.845387
2120.000000	19.847783
2119.000000	19.844450
2118.000000	19.831951
2117.000000	19.839138
2116.000000	19.843200
2115.000000	19.824139
2114.000000	19.799662
2113.000000	19.780081
2112.000000	19.766749
2111.000000	19.751854
2110.000000	19.741959
2109.000000	19.724774
2108.000000	19.697693
2107.000000	19.692381
2106.000000	19.672174
2105.000000	19.640823
2104.000000	19.615097
2103.000000	19.583329
2102.000000	19.547915
2101.000000	19.533125
2100.000000	19.525938
2099.000000	19.494171
2098.000000	19.473652
2097.000000	19.449175
2096.000000	19.420324
2095.000000	19.410325
2094.000000	19.401992
2093.000000	19.394805
2092.000000	19.380536
2091.000000	19.368454
2090.000000	19.371057
2089.000000	19.352622
2088.000000	19.336477
2087.000000	19.332311
2086.000000	19.310647
2085.000000	19.289294
2084.000000	19.265338
2083.000000	19.230758
2082.000000	19.206490
2081.000000	19.177326
2080.000000	19.141913
2079.000000	19.095146
2078.000000	19.053171
2077.000000	19.021508
2076.000000	18.975366
2075.000000	18.908810
2074.000000	18.840588
2073.000000	18.775906
2072.000000	18.703622
2071.000000	18.632483
2070.000000	18.560719
2069.000000	18.479893
2068.000000	18.394589
2067.000000	18.315534
2066.000000	18.226167
2065.000000	18.145550
2064.000000	18.071599
2063.000000	17.982962
2062.000000	17.890783
2061.000000	17.808395
2060.000000	17.741526
2059.000000	17.677470
2058.000000	17.614247
2057.000000	17.570501
2056.000000	17.519777
2055.000000	17.478947
2054.000000	17.457283
2053.000000	17.442076
2052.000000	17.443222
2051.000000	17.458429
2050.000000	17.502487
2049.000000	17.549982
2048.000000	17.602581
2047.000000	17.679032
2046.000000	17.757254
2045.000000	17.855474
2044.000000	17.957027
2043.000000	18.057538
2042.000000	18.168673
2041.000000	18.269392
2040.000000	18.374591
2039.000000	18.490517
2038.000000	18.594778
2037.000000	18.700393
2036.000000	18.786322
2035.000000	18.876938
2034.000000	18.968284
2033.000000	19.038798
2032.000000	19.110145
2031.000000	19.205761
2030.000000	19.270130
2029.000000	19.304085
2028.000000	19.350226
2027.000000	19.396472
2026.000000	19.442092
2025.000000	19.484276
2024.000000	19.533021
2023.000000	19.568643
2022.000000	19.580517
2021.000000	19.608326
2020.000000	19.620825
2019.000000	19.652593
2018.000000	19.650926
2017.000000	19.645927
2016.000000	19.664988
2015.000000	19.669883
2014.000000	19.661967
2013.000000	19.650822
2012.000000	19.637594
2011.000000	19.619054
2010.000000	19.604681
2009.000000	19.585829
2008.000000	19.556560
2007.000000	19.536458
2006.000000	19.512815
2005.000000	19.472298
2004.000000	19.429802
2003.000000	19.399909
2002.000000	19.353767
2001.000000	19.306689
2000.000000	19.252944
1999.000000	19.179097
1998.000000	19.129935
1997.000000	19.060671
1996.000000	18.991511
1995.000000	18.919434
1994.000000	18.859857
1993.000000	18.753408
1992.000000	18.699559
1991.000000	18.615088
1990.000000	18.521243
1989.000000	18.444688
1988.000000	18.345218
1987.000000	18.257102
1986.000000	18.169610
1985.000000	18.085556
1984.000000	17.985253
1983.000000	17.903282
1982.000000	17.796000
1981.000000	17.701739
1980.000000	17.617892
1979.000000	17.525089
1978.000000	17.422703
1977.000000	17.328962
1976.000000	17.217202
1975.000000	17.130231
1974.000000	17.049926
1973.000000	16.977641
1972.000000	16.862965
1971.000000	16.769120
1970.000000	16.689856
1969.000000	16.590283
1968.000000	16.501750
1967.000000	16.412383
1966.000000	16.328537
1965.000000	16.257710
1964.000000	16.157199
1963.000000	16.086164
1962.000000	16.028566
1961.000000	15.922222
1960.000000	15.839626
1959.000000	15.774215
1958.000000	15.694639
1957.000000	15.620376
1956.000000	15.530801
1955.000000	15.445497
1954.000000	15.367588
1953.000000	15.295511
1952.000000	15.240204
1951.000000	15.172294
1950.000000	15.110112
1949.000000	15.035640
1948.000000	14.961585
1947.000000	14.922109
1946.000000	14.841596
1945.000000	14.829202
1944.000000	14.781706
1943.000000	14.727961
1942.000000	14.689944
1941.000000	14.684736
1940.000000	14.666926
1939.000000	14.623076
1938.000000	14.615576
1937.000000	14.620368
1936.000000	14.609119
1935.000000	14.604119
1934.000000	14.650990
1933.000000	14.662655
1932.000000	14.709317
1931.000000	14.747751
1930.000000	14.795142
1929.000000	14.863990
1928.000000	14.928567
1927.000000	15.007726
1926.000000	15.111675
1925.000000	15.212082
1924.000000	15.307593
1923.000000	15.410708
1922.000000	15.531843
1921.000000	15.688286
1920.000000	15.846812
1919.000000	16.035857
1918.000000	16.172198
1917.000000	16.342181
1916.000000	16.509561
1915.000000	16.688190
1914.000000	16.909939
1913.000000	17.153770
1912.000000	17.415308
1911.000000	17.670283
1910.000000	17.909844
1909.000000	18.130864
1908.000000	18.366258
1907.000000	18.639357
1906.000000	18.933912
1905.000000	19.284191
1904.000000	19.654259
1903.000000	20.018704
1902.000000	20.360337
1901.000000	20.694472
1900.000000	21.085060
1899.000000	21.522309
1898.000000	21.949664
1897.000000	22.415765
1896.000000	22.834788
1895.000000	23.234437
1894.000000	23.638044
1893.000000	24.072794
1892.000000	24.545665
1891.000000	25.116131
1890.000000	25.651080
1889.000000	26.149157
1888.000000	26.669107
1887.000000	27.214263
1886.000000	27.740462
1885.000000	28.277182
1884.000000	28.828171
1883.000000	29.425301
1882.000000	29.991288
1881.000000	30.495927
1880.000000	31.035980
1879.000000	31.507705
1878.000000	31.969848
1877.000000	32.435116
1876.000000	32.875074
1875.000000	33.271598
1874.000000	33.669373
1873.000000	34.064022
1872.000000	34.458880
1871.000000	34.812075
1870.000000	35.151001
1869.000000	35.425871
1868.000000	35.746048
1867.000000	35.988317
1866.000000	36.191735
1865.000000	36.353698
1864.000000	36.531390
1863.000000	36.693145
1862.000000	36.842401
1861.000000	37.007073
1860.000000	37.164037
1859.000000	37.291733
1858.000000	37.398494
1857.000000	37.513379
1856.000000	37.593371
1855.000000	37.669301
1854.000000	37.724608
1853.000000	37.798455
1852.000000	37.811475
1851.000000	37.837410
1850.000000	37.891363
1849.000000	37.927610
1848.000000	37.943962
1847.000000	37.970939
1846.000000	37.944379
1845.000000	37.887301
1844.000000	37.902300
1843.000000	37.881052
1842.000000	37.896988
1841.000000	37.944483
1840.000000	37.918027
1839.000000	37.886051
1838.000000	37.828973
1837.000000	37.805017
1836.000000	37.788665
1835.000000	37.770437
1834.000000	37.732941
1833.000000	37.662739
1832.000000	37.624618
1831.000000	37.600349
1830.000000	37.582539
1829.000000	37.544938
1828.000000	37.497859
1827.000000	37.434324
1826.000000	37.362351
1825.000000	37.325376
1824.000000	37.278193
1823.000000	37.253612
1822.000000	37.274235
1821.000000	37.281109
1820.000000	37.259132
1819.000000	37.242780
1818.000000	37.195493
1817.000000	37.153205
1816.000000	37.147268
1815.000000	37.144664
1814.000000	37.135602
1813.000000	37.123104
1812.000000	37.108938
1811.000000	37.077275
1810.000000	37.033321
1809.000000	37.001553
1808.000000	36.966556
1807.000000	36.935205
1806.000000	36.906458
1805.000000	36.855629
1804.000000	36.801468
1803.000000	36.764596
1802.000000	36.735328
1801.000000	36.705852
1800.000000	36.659294
1799.000000	36.601487
1798.000000	36.552742
1797.000000	36.520557
1796.000000	36.487435
1795.000000	36.449002
1794.000000	36.406818
1793.000000	36.362968
1792.000000	36.333179
1791.000000	36.288288
1790.000000	36.246104
1789.000000	36.215274
1788.000000	36.176840
1787.000000	36.151009
1786.000000	36.134344
1785.000000	36.106743
1784.000000	36.057581
1783.000000	35.997066
1782.000000	35.943738
1781.000000	35.899471
1780.000000	35.850830
1779.000000	35.797502
1778.000000	35.726571
1777.000000	35.665743
1776.000000	35.608770
1775.000000	35.531381
1774.000000	35.449410
1773.000000	35.372438
1772.000000	35.292446
1771.000000	35.193289
1770.000000	35.092882
1769.000000	35.007786
1768.000000	34.913837
1767.000000	34.818429
1766.000000	34.720418
1765.000000	34.643550
1764.000000	34.586368
1763.000000	34.550955
1762.000000	34.535227
1761.000000	34.537623
1760.000000	34.570640
1759.000000	34.594700
1758.000000	34.622719
1757.000000	34.689275
1756.000000	34.752185
1755.000000	34.807076
1754.000000	34.849155
1753.000000	34.890193
1752.000000	34.930502
1751.000000	34.948000
1750.000000	34.956332
1749.000000	34.951437
1748.000000	34.933939
1747.000000	34.891755
1746.000000	34.839677
1745.000000	34.770934
1744.000000	34.693753
1743.000000	34.598138
1742.000000	34.479816
1741.000000	34.328580
1740.000000	34.182865
1739.000000	34.007882
1738.000000	33.831232
1737.000000	33.649166
1736.000000	33.471058
1735.000000	33.328989
1734.000000	33.194210
1733.000000	33.090366
1732.000000	33.039329
1731.000000	33.002457
1730.000000	32.998083
1729.000000	33.003187
1728.000000	33.034329
1727.000000	33.067139
1726.000000	33.111822
1725.000000	33.177545
1724.000000	33.237018
1723.000000	33.272536
1722.000000	33.344300
1721.000000	33.422938
1720.000000	33.523449
1719.000000	33.651666
1718.000000	33.792277
1717.000000	33.935805
1716.000000	34.083916
1715.000000	34.246401
1714.000000	34.403469
1713.000000	34.545539
1712.000000	34.695420
1711.000000	34.819575
1710.000000	34.928002
1709.000000	35.002682
1708.000000	35.087986
1707.000000	35.140169
1706.000000	35.192039
1705.000000	35.202038
1704.000000	35.219849
1703.000000	35.210787
1702.000000	35.187248
1701.000000	35.152772
1700.000000	35.096944
1699.000000	35.048719
1698.000000	34.962998
1697.000000	34.878215
1696.000000	34.820512
1695.000000	34.770621
1694.000000	34.741457
1693.000000	34.749686
1692.000000	34.768017
1691.000000	34.808534
1690.000000	34.874986
1689.000000	34.927377
1688.000000	34.980184
1687.000000	35.053719
1686.000000	35.130274
1685.000000	35.229952
1684.000000	35.334942
1683.000000	35.494093
1682.000000	35.687721
1681.000000	35.938009
1680.000000	36.221211
1679.000000	36.552742
1678.000000	36.918019
1677.000000	37.294129
1676.000000	37.619618
1675.000000	37.920423
1674.000000	38.220498
1673.000000	38.470787
1672.000000	38.700973
1671.000000	38.912932
1670.000000	39.121974
1669.000000	39.299249
1668.000000	39.452047
1667.000000	39.590888
1666.000000	39.727958
1665.000000	39.837947
1664.000000	39.951790
1663.000000	40.052614
1662.000000	40.146668
1661.000000	40.231243
1660.000000	40.296653
1659.000000	40.371438
1658.000000	40.446430
1657.000000	40.482885
1656.000000	40.544650
1655.000000	40.568190
1654.000000	40.560899
1653.000000	40.589333
1652.000000	40.586313
1651.000000	40.598499
1650.000000	40.576730
1649.000000	40.550379
1648.000000	40.533818
1647.000000	40.511424
1646.000000	40.482573
1645.000000	40.456430
1644.000000	40.406851
1643.000000	40.370188
1642.000000	40.336858
1641.000000	40.291550
1640.000000	40.254574
1639.000000	40.196663
1638.000000	40.165624
1637.000000	40.116775
1636.000000	40.065217
1635.000000	40.018867
1634.000000	39.942625
1633.000000	39.895233
1632.000000	39.836801
1631.000000	39.762329
1630.000000	39.718688
1629.000000	39.637029
1628.000000	39.564015
1627.000000	39.482981
1626.000000	39.421529
1625.000000	39.335391
1624.000000	39.252274
1623.000000	39.169574
1622.000000	39.096560
1621.000000	39.024379
1620.000000	38.964906
1619.000000	38.901162
1618.000000	38.856375
1617.000000	38.792318
1616.000000	38.717951
1615.000000	38.643791
1614.000000	38.587651
1613.000000	38.517657
1612.000000	38.438707
1611.000000	38.361526
1610.000000	38.313719
1609.000000	38.227998
1608.000000	38.165295
1607.000000	38.096239
1606.000000	38.002082
1605.000000	37.935005
1604.000000	37.846680
1603.000000	37.757105
1602.000000	37.686279
1601.000000	37.618473
1600.000000	37.532543
1599.000000	37.452968
1598.000000	37.374434
1597.000000	37.290067
1596.000000	37.228718
1595.000000	37.147893
1594.000000	37.082170
1593.000000	37.026134
1592.000000	36.962390
1591.000000	36.904791
1590.000000	36.842922
1589.000000	36.779699
1588.000000	36.723142
1587.000000	36.667939
1586.000000	36.599612
1585.000000	36.536493
1584.000000	36.493477
1583.000000	36.438274
1582.000000	36.383175
1581.000000	36.329638
1580.000000	36.287351
1579.000000	36.228190
1578.000000	36.192880
1577.000000	36.153926
1576.000000	36.110284
1575.000000	36.079141
1574.000000	36.053206
1573.000000	36.027896
1572.000000	36.010398
1571.000000	35.994983
1570.000000	35.982588
1569.000000	35.977068
1568.000000	35.970610
1567.000000	35.956653
1566.000000	35.962590
1565.000000	35.954570
1564.000000	35.953945
1563.000000	35.960194
1562.000000	35.937801
1561.000000	35.924885
1560.000000	35.918428
1559.000000	35.896034
1558.000000	35.880410
1557.000000	35.830832
1556.000000	35.797710
1555.000000	35.766151
1554.000000	35.725529
1553.000000	35.675743
1552.000000	35.623664
1551.000000	35.558879
1550.000000	35.504509
1549.000000	35.443161
1548.000000	35.367647
1547.000000	35.298591
1546.000000	35.244326
1545.000000	35.181207
1544.000000	35.123296
1543.000000	35.067884
1542.000000	35.014973
1541.000000	34.975393
1540.000000	34.933105
1539.000000	34.879881
1538.000000	34.830303
1537.000000	34.802076
1536.000000	34.754998
1535.000000	34.691983
1534.000000	34.650216
1533.000000	34.607408
1532.000000	34.570119
1531.000000	34.521582
1530.000000	34.463984
1529.000000	34.412947
1528.000000	34.362327
1527.000000	34.296812
1526.000000	34.240672
1525.000000	34.178386
1524.000000	34.104539
1523.000000	34.044545
1522.000000	33.971114
1521.000000	33.902059
1520.000000	33.840814
1519.000000	33.779883
1518.000000	33.705827
1517.000000	33.626668
1516.000000	33.560946
1515.000000	33.502826
1514.000000	33.429500
1513.000000	33.331801
1512.000000	33.240664
1511.000000	33.168379
1510.000000	33.096928
1509.000000	33.019643
1508.000000	32.935276
1507.000000	32.850180
1506.000000	32.770605
1505.000000	32.698528
1504.000000	32.614474
1503.000000	32.522087
1502.000000	32.449177
1501.000000	32.382100
1500.000000	32.306691
1499.000000	32.233573
1498.000000	32.174099
1497.000000	32.121396
1496.000000	32.064527
1495.000000	32.008907
1494.000000	31.963495
1493.000000	31.914854
1492.000000	31.862983
1491.000000	31.822258
1490.000000	31.787157
1489.000000	31.743307
1488.000000	31.711956
1487.000000	31.676439
1486.000000	31.644359
1485.000000	31.624777
1484.000000	31.580198
1483.000000	31.534578
1482.000000	31.507705
1481.000000	31.488540
1480.000000	31.474062
1479.000000	31.453960
1478.000000	31.436358
1477.000000	31.436045
1476.000000	31.442503
1475.000000	31.448752
1474.000000	31.474583
1473.000000	31.491561
1472.000000	31.498748
1471.000000	31.520621
1470.000000	31.556763
1469.000000	31.568533
1468.000000	31.580198
1467.000000	31.616445
1466.000000	31.651754
1465.000000	31.680189
1464.000000	31.706853
1463.000000	31.743099
1462.000000	31.788824
1461.000000	31.833091
1460.000000	31.883607
1459.000000	31.939122
1458.000000	31.988388
1457.000000	32.053799
1456.000000	32.133895
1455.000000	32.212846
1454.000000	32.282839
1453.000000	32.354707
1452.000000	32.430117
1451.000000	32.515629
1450.000000	32.620932
1449.000000	32.693320
1448.000000	32.755398
1447.000000	32.852055
1446.000000	32.954233
1445.000000	33.048182
1444.000000	33.136403
1443.000000	33.220978
1442.000000	33.321906
1441.000000	33.450123
1440.000000	33.547405
1439.000000	33.660103
1438.000000	33.768634
1437.000000	33.892893
1436.000000	34.013923
1435.000000	34.133807
1434.000000	34.299833
1433.000000	34.436486
1432.000000	34.574911
1431.000000	34.720834
1430.000000	34.881340
1429.000000	35.024659
1428.000000	35.186519
1427.000000	35.397957
1426.000000	35.575023
1425.000000	35.792398
1424.000000	36.010294
1423.000000	36.226523
1422.000000	36.442544
1421.000000	36.673043
1420.000000	36.937601
1419.000000	37.204867
1418.000000	37.477340
1417.000000	37.698882
1416.000000	37.962711
1415.000000	38.277576
1414.000000	38.624626
1413.000000	38.970114
1412.000000	39.239255
1411.000000	39.552870
1410.000000	39.920543
1409.000000	40.350919
1408.000000	40.715780
1407.000000	41.118033
1406.000000	41.519661
1405.000000	41.899312
1404.000000	42.348748
1403.000000	42.694548
1402.000000	43.109821
1401.000000	43.531447
1400.000000	44.013380
1399.000000	44.416987
1398.000000	44.704668
1397.000000	45.016096
1396.000000	45.426057
1395.000000	45.883513
1394.000000	46.233063
1393.000000	46.528243
1392.000000	46.839984
1391.000000	47.230988
1390.000000	47.620742
1389.000000	47.968729
1388.000000	48.431706
1387.000000	48.923117
1386.000000	49.353909
1385.000000	49.797929
1384.000000	50.234241
1383.000000	50.724507
1382.000000	51.178525
1381.000000	51.577966
1380.000000	51.898144
1379.000000	52.137913
1378.000000	52.374765
1377.000000	52.555372
1376.000000	52.758999
1375.000000	52.942627
1374.000000	53.151669
1373.000000	53.326340
1372.000000	53.608188
1371.000000	53.831083
1370.000000	54.093350
1369.000000	54.323849
1368.000000	54.535495
1367.000000	54.747037
1366.000000	54.942227
1365.000000	55.076068
1364.000000	55.285735
1363.000000	55.415723
1362.000000	55.592685
1361.000000	55.728818
1360.000000	55.830683
1359.000000	55.830579
1358.000000	55.962545
1357.000000	56.065036
1356.000000	56.171796
1355.000000	56.358862
1354.000000	56.573633
1353.000000	56.763614
1352.000000	56.990676
1351.000000	57.319499
1350.000000	57.628115
1349.000000	57.910692
1348.000000	58.204518
1347.000000	58.500010
1346.000000	58.753528
1345.000000	58.978506
1344.000000	59.254105
1343.000000	59.503664
1342.000000	59.732704
1341.000000	59.946017
1340.000000	60.191619
1339.000000	60.443678
1338.000000	60.644596
1337.000000	60.866033
1336.000000	61.092574
1335.000000	61.313803
1334.000000	61.508263
1333.000000	61.694391
1332.000000	61.895726
1331.000000	62.085499
1330.000000	62.263191
1329.000000	62.443903
1328.000000	62.621385
1327.000000	62.798973
1326.000000	62.960103
1325.000000	63.112484
1324.000000	63.258512
1323.000000	63.398915
1322.000000	63.535673
1321.000000	63.687533
1320.000000	63.838456
1319.000000	63.960215
1318.000000	64.087391
1317.000000	64.188527
1316.000000	64.313306
1315.000000	64.447669
1314.000000	64.553283
1313.000000	64.657336
1312.000000	64.748785
1311.000000	64.844401
1310.000000	64.932934
1309.000000	65.018760
1308.000000	65.117917
1307.000000	65.194472
1306.000000	65.253425
1305.000000	65.328834
1304.000000	65.391328
1303.000000	65.454968
1302.000000	65.498818
1301.000000	65.549750
1300.000000	65.591725
1299.000000	65.636825
1298.000000	65.657865
1297.000000	65.682029
1296.000000	65.720776
1295.000000	65.751606
1294.000000	65.770667
1293.000000	65.789102
1292.000000	65.810142
1291.000000	65.821287
1290.000000	65.818787
1289.000000	65.805663
1288.000000	65.811704
1287.000000	65.807330
1286.000000	65.785665
1285.000000	65.760876
1284.000000	65.740982
1283.000000	65.717963
1282.000000	65.693174
1281.000000	65.661719
1280.000000	65.620889
1279.000000	65.594538
1278.000000	65.576102
1277.000000	65.550063
1276.000000	65.518191
1275.000000	65.487777
1274.000000	65.474133
1273.000000	65.449239
1272.000000	65.429970
1271.000000	65.421950
1270.000000	65.406535
1269.000000	65.390182
1268.000000	65.370809
1267.000000	65.363414
1266.000000	65.353102
1265.000000	65.339875
1264.000000	65.323522
1263.000000	65.286338
1262.000000	65.264153
1261.000000	65.246029
1260.000000	65.217282
1259.000000	65.196867
1258.000000	65.170828
1257.000000	65.136144
1256.000000	65.113021
1255.000000	65.086461
1254.000000	65.035945
1253.000000	64.979180
1252.000000	64.934080
1251.000000	64.888876
1250.000000	64.815133
1249.000000	64.752848
1248.000000	64.688375
1247.000000	64.605466
1246.000000	64.532556
1245.000000	64.446419
1244.000000	64.363197
1243.000000	64.266540
1242.000000	64.179882
1241.000000	64.092286
1240.000000	63.995524
1239.000000	63.906366
1238.000000	63.814188
1237.000000	63.714822
1236.000000	63.615353
1235.000000	63.511925
1234.000000	63.419851
1233.000000	63.319964
1232.000000	63.204246
1231.000000	63.093215
1230.000000	62.987704
1229.000000	62.882298
1228.000000	62.767517
1227.000000	62.651383
1226.000000	62.539935
1225.000000	62.429633
1224.000000	62.304333
1223.000000	62.188615
1222.000000	62.064668
1221.000000	61.932181
1220.000000	61.816671
1219.000000	61.706265
1218.000000	61.598775
1217.000000	61.496910
1216.000000	61.396295
1215.000000	61.292242
1214.000000	61.186211
1213.000000	61.088199
1212.000000	60.999666
1211.000000	60.923736
1210.000000	60.835411
1209.000000	60.751773
1208.000000	60.669802
1207.000000	60.583352
1206.000000	60.510442
1205.000000	60.460864
1204.000000	60.409723
1203.000000	60.340459
1202.000000	60.289318
1201.000000	60.248176
1200.000000	60.193494
1199.000000	60.150998
1198.000000	60.097878
1197.000000	60.026322
1196.000000	59.943309
1195.000000	59.851131
1194.000000	59.730934
1193.000000	59.573657
1192.000000	59.390654
1191.000000	59.179841
1190.000000	58.967465
1189.000000	58.754882
1188.000000	58.553963
1187.000000	58.407102
1186.000000	58.310133
1185.000000	58.265866
1184.000000	58.284510
1183.000000	58.357836
1182.000000	58.511259
1181.000000	58.721864
1180.000000	58.953821
1179.000000	59.212650
1178.000000	59.470646
1177.000000	59.716664
1176.000000	59.945184
1175.000000	60.153497
1174.000000	60.328168
1173.000000	60.513150
1172.000000	60.702299
1171.000000	60.885615
1170.000000	61.071638
1169.000000	61.246205
1168.000000	61.447748
1167.000000	61.660540
1166.000000	61.890831
1165.000000	62.118830
1164.000000	62.341412
1163.000000	62.589826
1162.000000	62.841781
1161.000000	63.092069
1160.000000	63.336109
1159.000000	63.579106
1158.000000	63.826582
1157.000000	64.051665
1156.000000	64.276956
1155.000000	64.492352
1154.000000	64.686812
1153.000000	64.852421
1152.000000	65.016781
1151.000000	65.154580
1150.000000	65.242488
1149.000000	65.353207
1148.000000	65.443615
1147.000000	65.544230
1146.000000	65.690778
1145.000000	65.836181
1144.000000	65.987312
1143.000000	66.164379
1142.000000	66.375608
1141.000000	66.625376
1140.000000	66.888059
1139.000000	67.145430
1138.000000	67.413426
1137.000000	67.692774
1136.000000	68.018992
1135.000000	68.332504
1134.000000	68.662056
1133.000000	68.930572
1132.000000	69.169507
1131.000000	69.402089
1130.000000	69.646336
1129.000000	69.871419
1128.000000	70.062234
1127.000000	70.205553
1126.000000	70.327937
1125.000000	70.426990
1124.000000	70.522919
1123.000000	70.608744
1122.000000	70.657698
1121.000000	70.698944
1120.000000	70.737273
1119.000000	70.761854
1118.000000	70.782165
1117.000000	70.804558
1116.000000	70.801850
1115.000000	70.804767
1114.000000	70.789872
1113.000000	70.784248
1112.000000	70.792372
1111.000000	70.776540
1110.000000	70.779457
1109.000000	70.770395
1108.000000	70.769353
1107.000000	70.755917
1106.000000	70.745710
1105.000000	70.752272
1104.000000	70.753834
1103.000000	70.755501
1102.000000	70.736023
1101.000000	70.741335
1100.000000	70.711338
1099.000000	70.726024
1098.000000	70.705610
1097.000000	70.688215
1096.000000	70.679883
1095.000000	70.653323
1094.000000	70.658010
1093.000000	70.646553
1092.000000	70.616451
1091.000000	70.601974
1090.000000	70.583225
1089.000000	70.568435
1088.000000	70.537397
1087.000000	70.489797
1086.000000	70.471257
1085.000000	70.458550
1084.000000	70.409284
1083.000000	70.390327
1082.000000	70.353248
1081.000000	70.300440
1080.000000	70.259298
1079.000000	70.223989
1078.000000	70.176285
1077.000000	70.131810
1076.000000	70.067962
1075.000000	70.041402
1074.000000	69.985783
1073.000000	69.929330
1072.000000	69.887876
1071.000000	69.820695
1070.000000	69.777053
1069.000000	69.726016
1068.000000	69.671334
1067.000000	69.617797
1066.000000	69.565927
1065.000000	69.486352
1064.000000	69.425628
1063.000000	69.362197
1062.000000	69.303348
1061.000000	69.245229
1060.000000	69.164091
1059.000000	69.096910
1058.000000	69.020563
1057.000000	68.962444
1056.000000	68.897866
1055.000000	68.803709
1054.000000	68.753818
1053.000000	68.684970
1052.000000	68.604770
1051.000000	68.544879
1050.000000	68.472386
1049.000000	68.420308
1048.000000	68.346461
1047.000000	68.287092
1046.000000	68.237617
1045.000000	68.196580
1044.000000	68.149501
1043.000000	68.105963
1042.000000	68.060551
1041.000000	68.012535
1040.000000	67.948478
1039.000000	67.916086
1038.000000	67.881401
1037.000000	67.829323
1036.000000	67.773703
1035.000000	67.748706
1034.000000	67.709126
1033.000000	67.663193
1032.000000	67.610698
1031.000000	67.570910
1030.000000	67.527060
1029.000000	67.467379
1028.000000	67.403114
1027.000000	67.372909
1026.000000	67.320518
1025.000000	67.261773
1024.000000	67.221361
1023.000000	67.171886
1022.000000	67.123870
1021.000000	67.080853
1020.000000	67.028671
1019.000000	66.979821
1018.000000	66.937325
1017.000000	66.878477
1016.000000	66.843689
1015.000000	66.802234
1014.000000	66.755884
1013.000000	66.708493
1012.000000	66.676517
1011.000000	66.645374
1010.000000	66.611836
1009.000000	66.577881
1008.000000	66.532260
1007.000000	66.507783
1006.000000	66.476224
1005.000000	66.448414
1004.000000	66.402064
1003.000000	66.367380
1002.000000	66.350090
1001.000000	66.298741
1000.000000	66.280826
999.000000	66.248329
998.000000	66.204167
997.000000	66.181044
996.000000	66.160837
995.000000	66.147297
994.000000	66.110113
993.000000	66.078345
992.000000	66.059181
991.000000	66.047932
990.000000	66.024913
989.000000	66.005019
988.000000	65.984084
987.000000	65.981584
986.000000	65.981063
985.000000	65.971064
984.000000	65.960857
983.000000	65.968252
982.000000	65.985021
981.000000	65.978876
980.000000	66.002415
979.000000	66.014601
978.000000	66.034079
977.000000	66.061680
976.000000	66.082928
975.000000	66.095635
974.000000	66.136152
973.000000	66.184481
972.000000	66.222915
971.000000	66.256662
970.000000	66.294366
969.000000	66.339154
968.000000	66.379358
967.000000	66.419250
966.000000	66.461225
965.000000	66.519865
964.000000	66.558716
963.000000	66.598712
962.000000	66.660269
961.000000	66.722138
960.000000	66.780361
959.000000	66.830252
958.000000	66.904724
957.000000	66.970864
956.000000	67.021901
955.000000	67.097935
954.000000	67.159700
953.000000	67.228027
952.000000	67.312081
951.000000	67.379575
950.000000	67.450609
949.000000	67.527373
948.000000	67.603303
947.000000	67.670484
946.000000	67.738811
945.000000	67.804117
944.000000	67.856300
943.000000	67.912648
942.000000	67.974622
941.000000	68.012014
940.000000	68.049719
939.000000	68.123774
938.000000	68.170957
937.000000	68.209599
936.000000	68.265844
935.000000	68.335004
934.000000	68.410622
933.000000	68.473636
932.000000	68.541338
931.000000	68.618622
930.000000	68.697990
929.000000	68.791418
928.000000	68.855891
927.000000	68.908595
926.000000	68.994524
925.000000	69.087952
924.000000	69.157425
923.000000	69.224606
922.000000	69.298661
921.000000	69.391569
920.000000	69.484268
919.000000	69.565407
918.000000	69.673938
917.000000	69.789448
916.000000	69.893500
915.000000	70.007552
914.000000	70.121291
913.000000	70.242425
912.000000	70.364913
911.000000	70.490422
910.000000	70.618743
909.000000	70.735607
908.000000	70.867886
907.000000	71.006727
906.000000	71.128902
905.000000	71.239621
904.000000	71.361797
903.000000	71.482098
902.000000	71.596878
901.000000	71.724783
900.000000	71.845813
899.000000	71.952052
898.000000	72.062146
897.000000	72.177447
896.000000	72.300561
895.000000	72.426069
894.000000	72.543246
893.000000	72.653652
892.000000	72.750309
891.000000	72.846654
890.000000	72.926542
889.000000	73.016429
888.000000	73.117982
887.000000	73.201412
886.000000	73.275259
885.000000	73.364729
884.000000	73.440451
883.000000	73.510132
882.000000	73.602102
881.000000	73.706363
880.000000	73.779169
879.000000	73.875722
878.000000	73.961547
877.000000	74.063621
876.000000	74.125490
875.000000	74.169340
874.000000	74.203815
873.000000	74.230167
872.000000	74.239958
871.000000	74.230480
870.000000	74.333074
869.000000	74.521181
868.000000	74.741056
867.000000	74.981657
866.000000	75.228405
865.000000	75.446717
864.000000	75.684403
863.000000	75.922192
862.000000	76.151129
861.000000	76.371941
860.000000	76.600877
859.000000	76.864602
858.000000	77.100100
857.000000	76.475600
856.000000	77.289900
855.000000	77.534800
854.000000	77.903600
853.000000	78.325100
852.000000	78.191700
851.000000	78.586400
850.000000	78.736000
849.000000	78.980400
848.000000	79.298500
847.000000	79.523600
846.000000	79.614600
845.000000	80.160600
844.000000	80.189900
843.000000	80.584900
842.000000	80.681500
841.000000	80.991700
840.000000	81.201200
839.000000	81.703300
838.000000	81.643500
837.000000	81.981500
836.000000	82.210600
835.000000	82.456100
834.000000	82.523400
833.000000	82.889500
832.000000	82.948300
831.000000	83.069600
830.000000	83.253700
829.000000	83.603100
828.000000	83.562800
827.000000	83.703000
826.000000	83.634600
825.000000	83.975800
824.000000	83.791300
823.000000	84.095400
822.000000	83.974300
821.000000	84.016000
820.000000	84.277400
819.000000	84.360300
818.000000	84.349500
817.000000	84.375300
816.000000	84.578600
815.000000	84.611700
814.000000	84.632300
813.000000	84.534800
812.000000	84.723000
811.000000	84.852000
810.000000	84.948100
809.000000	85.059900
808.000000	85.237400
807.000000	85.197500
806.000000	85.331400
805.000000	85.420700
804.000000	85.451300
803.000000	85.643100
802.000000	85.723200
801.000000	85.785600
800.000000	85.905500
799.000000	86.342000
798.000000	86.037500
797.000000	86.366700
796.000000	86.281800
795.000000	86.516700
794.000000	86.569000
793.000000	86.700600
792.000000	86.880700
791.000000	86.673400
790.000000	86.940000
789.000000	86.861000
788.000000	86.919000
787.000000	86.925800
786.000000	86.872500
785.000000	87.141100
784.000000	86.907800
783.000000	86.780800
782.000000	87.018200
781.000000	86.962600
780.000000	86.933500
779.000000	87.049400
778.000000	86.927200
777.000000	86.779600
776.000000	87.050800
775.000000	87.116600
774.000000	86.999000
773.000000	87.055900
772.000000	87.003300
771.000000	87.021200
770.000000	87.057900
769.000000	87.050700
768.000000	87.073100
767.000000	86.938900
766.000000	86.936500
765.000000	86.907600
764.000000	86.943000
763.000000	86.952400
762.000000	86.836200
761.000000	86.736100
760.000000	86.722300
759.000000	86.850400
758.000000	86.568200
757.000000	86.395200
756.000000	86.486500
755.000000	86.337500
754.000000	86.244600
753.000000	86.083700
752.000000	85.910900
751.000000	85.769900
750.000000	85.635000
749.000000	85.395600
748.000000	85.133900
747.000000	84.990500
746.000000	84.774000
745.000000	84.415500
744.000000	84.208000
743.000000	83.779200
742.000000	83.494600
741.000000	83.193100
740.000000	82.753100
739.000000	82.517100
738.000000	82.232600
737.000000	81.826200
736.000000	81.643000
735.000000	81.372000
734.000000	81.056200
733.000000	80.822000
732.000000	80.546800
731.000000	80.429300
730.000000	80.176500
729.000000	79.950700
728.000000	79.744900
727.000000	79.515300
726.000000	79.422300
725.000000	79.254700
724.000000	78.976300
723.000000	78.790200
722.000000	78.752700
721.000000	78.597100
720.000000	78.354200
719.000000	78.246100
718.000000	78.121500
717.000000	78.072500
716.000000	78.080300
715.000000	77.991300
714.000000	78.016600
713.000000	77.974400
712.000000	77.945400
711.000000	77.961000
710.000000	77.921100
709.000000	77.915800
708.000000	77.966200
707.000000	77.982800
706.000000	77.967500
705.000000	77.964300
704.000000	77.984800
703.000000	77.869100
702.000000	77.845900
701.000000	77.869100
700.000000	77.800100
699.000000	77.712000
698.000000	77.715600
697.000000	77.693600
696.000000	77.628100
695.000000	77.523900
694.000000	77.496200
693.000000	77.365100
692.000000	77.265700
691.000000	77.151700
690.000000	76.964000
689.000000	76.740100
688.000000	76.580900
687.000000	76.350800
686.000000	76.034900
685.000000	75.733900
684.000000	75.353100
683.000000	74.866000
682.000000	74.400000
681.000000	73.878300
680.000000	73.293200
679.000000	72.699000
678.000000	72.046700
677.000000	71.396000
676.000000	70.744800
675.000000	70.010400
674.000000	69.307000
673.000000	68.613900
672.000000	67.873000
671.000000	67.142300
670.000000	66.393700
669.000000	65.697700
668.000000	65.013700
667.000000	64.388800
666.000000	63.769800
665.000000	63.113400
664.000000	62.521400
663.000000	61.998100
662.000000	61.492900
661.000000	61.079300
660.000000	60.704800
659.000000	60.389000
658.000000	60.174200
657.000000	60.016300
656.000000	59.938800
655.000000	59.950400
654.000000	60.051200
653.000000	60.257800
652.000000	60.596400
651.000000	61.004200
650.000000	61.468700
649.000000	62.019500
648.000000	62.637800
647.000000	63.311800
646.000000	64.035100
645.000000	64.757800
644.000000	65.519100
643.000000	66.318300
642.000000	67.078700
641.000000	67.832800
640.000000	68.615000
639.000000	69.381700
638.000000	70.091200
637.000000	70.765100
636.000000	71.486200
635.000000	72.167000
634.000000	72.827200
633.000000	73.489700
632.000000	74.139000
631.000000	74.812500
630.000000	75.490300
629.000000	76.161000
628.000000	76.802400
627.000000	77.498800
626.000000	78.172400
625.000000	78.773300
624.000000	79.415600
623.000000	80.135800
622.000000	80.795300
621.000000	81.393700
620.000000	81.979900
619.000000	82.529700
618.000000	83.039400
617.000000	83.560500
616.000000	84.021200
615.000000	84.412600
614.000000	84.805700
613.000000	85.171300
612.000000	85.481200
611.000000	85.780300
610.000000	86.050300
609.000000	86.301400
608.000000	86.558500
607.000000	86.789500
606.000000	86.998600
605.000000	87.166900
604.000000	87.361000
603.000000	87.524600
602.000000	87.709800
601.000000	87.937200
600.000000	88.060700
599.000000	88.249200
598.000000	88.432100
597.000000	88.591100
596.000000	88.698800
595.000000	88.875400
594.000000	89.023300
593.000000	89.111900
592.000000	89.240200
591.000000	89.301500
590.000000	89.281700
589.000000	89.280000
588.000000	89.283400
587.000000	89.287800
586.000000	89.238300
585.000000	89.151900
584.000000	89.049500
583.000000	88.911400
582.000000	88.791600
581.000000	88.635500
580.000000	88.416000
579.000000	88.209800
578.000000	87.988800
577.000000	87.791000
576.000000	87.513100
575.000000	87.289200
574.000000	87.051900
573.000000	86.833500
572.000000	86.590800
571.000000	86.357100
570.000000	86.117900
569.000000	85.850800
568.000000	85.591200
567.000000	85.342900
566.000000	85.034100
565.000000	84.742100
564.000000	84.457300
563.000000	84.139300
562.000000	83.748000
561.000000	83.365000
560.000000	82.947100
559.000000	82.468700
558.000000	82.019700
557.000000	81.508700
556.000000	80.912500
555.000000	80.307500
554.000000	79.693500
553.000000	78.996900
552.000000	78.222800
551.000000	77.424200
550.000000	76.528800
549.000000	75.625200
548.000000	74.642000
547.000000	73.626800
546.000000	72.540900
545.000000	71.359300
544.000000	70.166700
543.000000	68.978300
542.000000	67.690900
541.000000	66.443300
540.000000	65.157400
539.000000	63.910600
538.000000	62.693700
537.000000	61.431600
536.000000	60.238600
535.000000	59.054900
534.000000	57.871000
533.000000	56.722100
532.000000	55.595000
531.000000	54.531300
530.000000	53.484800
529.000000	52.446700
528.000000	51.493200
527.000000	50.592400
526.000000	49.722700
525.000000	48.890800
524.000000	48.066000
523.000000	47.286600
522.000000	46.519900
521.000000	45.800900
520.000000	45.128900
519.000000	44.480800
518.000000	43.829600
517.000000	43.195100
516.000000	42.578900
515.000000	41.975400
514.000000	41.343800
513.000000	40.700400
512.000000	40.066900
511.000000	39.433800
510.000000	38.793700
509.000000	38.184100
508.000000	37.512500
507.000000	36.941700
506.000000	36.269500
505.000000	35.659800
504.000000	35.072100
503.000000	34.507000
502.000000	33.973800
501.000000	33.464200
500.000000	32.983500
499.000000	32.610200
498.000000	32.290200
497.000000	31.993700
496.000000	31.734800
495.000000	31.552400
494.000000	31.397300
493.000000	31.270400
492.000000	31.222400
491.000000	31.159700
490.000000	31.091500
489.000000	31.057700
488.000000	31.052800
487.000000	31.067500
486.000000	31.042900
485.000000	31.049200
484.000000	31.052200
483.000000	31.043200
482.000000	31.036400
481.000000	30.990500
480.000000	30.971500
479.000000	30.929000
478.000000	30.887000
477.000000	30.867000
476.000000	30.800000
475.000000	30.744300
474.000000	30.648400
473.000000	30.582500
472.000000	30.495200
471.000000	30.408800
470.000000	30.315400
469.000000	30.220200
468.000000	30.131000
467.000000	29.991300
466.000000	29.918200
465.000000	29.782000
464.000000	29.651300
463.000000	29.523400
462.000000	29.363900
461.000000	29.248600
460.000000	29.073100
459.000000	28.939400
458.000000	28.743800
457.000000	28.586800
456.000000	28.411800
455.000000	28.173900
454.000000	27.963000
453.000000	27.731100
452.000000	27.484700
451.000000	27.249300
450.000000	26.963800
449.000000	26.722400
448.000000	26.470800
447.000000	26.096800
446.000000	25.795100
445.000000	25.474900
444.000000	25.083200
443.000000	24.704600
442.000000	24.307700
441.000000	23.912500
440.000000	23.505200
439.000000	23.099700
438.000000	22.610800
437.000000	22.133000
436.000000	21.639100
435.000000	21.168400
434.000000	20.663100
433.000000	20.135100
432.000000	19.619000
431.000000	19.129500
430.000000	18.578700
429.000000	18.046200
428.000000	17.511700
427.000000	17.023800
426.000000	16.512500
425.000000	16.011400
424.000000	15.494000
423.000000	15.013900
422.000000	14.525800
421.000000	14.035400
420.000000	13.611100
419.000000	13.177900
418.000000	12.767500
417.000000	12.367000
416.000000	11.986600
415.000000	11.618700
414.000000	11.274900
413.000000	10.963500
412.000000	10.667200
411.000000	10.380800
410.000000	10.116800
409.000000	9.843500
408.000000	9.614700
407.000000	9.401400
406.000000	9.223600
405.000000	9.036200
404.000000	8.862800
403.000000	8.694300
402.000000	8.521500
401.000000	8.388200
400.000000	8.240000
399.000000	8.127500
398.000000	7.999500
397.000000	7.885700
396.000000	7.795000
395.000000	7.674700
394.000000	7.587700
393.000000	7.513600
392.000000	7.432400
391.000000	7.351800
390.000000	7.287300
389.000000	7.214400
388.000000	7.142900
387.000000	7.086400
386.000000	7.030600
385.000000	6.997300
384.000000	6.945900
383.000000	6.886600
382.000000	6.863900
381.000000	6.834700
380.000000	6.781600
379.000000	6.750200
378.000000	6.719800
377.000000	6.668800
376.000000	6.615200
375.000000	6.473800
374.000000	6.346500
373.000000	6.415200
372.000000	6.417600
371.000000	6.317000
370.000000	6.323700
369.000000	6.474900
368.000000	6.404500
367.000000	6.276500
366.000000	6.318500
365.000000	6.336600
364.000000	6.330500
363.000000	6.292000
362.000000	6.269900
361.000000	6.308200
360.000000	6.386600
359.000000	6.164200
358.000000	6.111500
357.000000	6.293800
356.000000	6.196100
355.000000	5.955800
354.000000	6.083600
353.000000	6.258100
352.000000	6.045900
351.000000	5.896700
350.000000	5.952900
349.000000	6.043300
348.000000	5.991700
347.000000	6.106800
346.000000	6.146400
345.000000	6.034300
344.000000	6.033800
343.000000	5.954900
342.000000	5.802800
341.000000	5.798400
340.000000	6.043100
339.000000	6.082200
338.000000	5.839400
337.000000	5.961800
336.000000	6.066900
335.000000	5.818800
334.000000	5.893600
333.000000	5.896100
332.000000	5.789700
331.000000	5.804100
330.000000	5.850500
329.000000	5.820900
328.000000	5.852700
327.000000	6.000900
326.000000	6.038700
325.000000	6.141200
324.000000	6.101400
323.000000	6.134100
322.000000	6.129100
321.000000	6.108500
320.000000	6.198900
319.000000	6.086000
318.000000	6.155200
317.000000	6.786000
316.000000	6.316700
315.000000	5.654600
314.000000	5.668300
313.000000	5.636800
312.000000	5.655500
311.000000	5.644700
310.000000	5.648700
309.000000	5.639400
308.000000	5.700300
307.000000	5.664400
306.000000	5.640200
305.000000	5.669900
304.000000	5.682500
303.000000	5.685700
302.000000	5.683200
301.000000	5.665400
300.000000	5.713500
299.000000	5.699000
298.000000	5.657800
297.000000	5.648800
296.000000	5.675100
295.000000	5.698500
294.000000	5.710100
293.000000	5.675900
292.000000	5.619700
291.000000	5.666700
290.000000	5.656600
289.000000	5.665400
288.000000	5.691200
287.000000	5.698200
286.000000	5.731500
285.000000	5.733300
284.000000	5.717600
283.000000	5.717200
282.000000	5.755600
281.000000	5.748200
280.000000	5.768500
279.000000	5.782400
278.000000	5.766100
277.000000	5.751800
276.000000	5.772200
275.000000	5.829300
274.000000	5.870300
273.000000	5.840000
272.000000	5.844200
271.000000	5.862400
270.000000	5.854900
269.000000	5.930700
268.000000	5.886100
267.000000	5.923500
266.000000	5.978000
265.000000	5.999900
264.000000	6.025300
263.000000	6.024500
262.000000	6.048800
261.000000	6.064300
260.000000	6.106200
259.000000	6.107200
258.000000	6.172500
257.000000	6.132000
256.000000	6.193000
255.000000	6.189400
254.000000	6.216200
253.000000	6.190200
252.000000	6.234200
251.000000	6.217700
250.000000	6.231900
