PE UV       SUBTECH     SPECTRUM    ASCII       PEDS        4.00        
   -1
CICIMAUCR0251-1.Sample.ASC
24/05/27
15:16:50.00
24/05/27
15:16:50.00
Vinicio Soto Monge
C. resplendens, F
250,000000
1
Lambda 1050
1050L1511233
PerkinElmer UV WinLab 6.3.2.0749 / 2.02.05 Lambda 900 UV/VIS/NIR, Aug  7 2015 09:38:08

0
0
3350/servo 860,8/2
0
0
UV/VIS
1
1
1
DoubleDePol,CommonBeamDepol,RBeamAtt,SBeamAtt,60mm sphere, WB InGaAs Detector
0
0
0
0
Program
Program
3350/servo 860,8/2
3350/0,2 860,8/0,2
3350/0,2 860,8/0,2
0
15.00
 
 
 
0
 
860,8
319,2
860,8
Front
100
on
S:100 R:100
0
0
0
0
 
0
 
 
 
0
 
 
0
0
0
0
0
 
 
 
 
0
0


0
0
#HDR
-1
-1
#GR
nm
%R
1.0
0.0
2500,000000
-1,000000
2251
8
91,306100
5,141100
#DATA
2500.000000	5.430845
2499.000000	5.489916
2498.000000	5.426726
2497.000000	5.539343
2496.000000	5.408241
2495.000000	5.422406
2494.000000	5.398195
2493.000000	5.438379
2492.000000	5.299843
2491.000000	5.256946
2490.000000	5.401510
2489.000000	5.417282
2488.000000	5.362330
2487.000000	5.335406
2486.000000	5.404725
2485.000000	5.349270
2484.000000	5.314309
2483.000000	5.246397
2482.000000	5.191345
2481.000000	5.254334
2480.000000	5.315917
2479.000000	5.246096
2478.000000	5.289696
2477.000000	5.262170
2476.000000	5.176175
2475.000000	5.250717
2474.000000	5.220880
2473.000000	5.233337
2472.000000	5.221784
2471.000000	5.230123
2470.000000	5.164823
2469.000000	5.219574
2468.000000	5.258855
2467.000000	5.225501
2466.000000	5.217063
2465.000000	5.212743
2464.000000	5.193756
2463.000000	5.221383
2462.000000	5.230525
2461.000000	5.220077
2460.000000	5.193555
2459.000000	5.213245
2458.000000	5.229821
2457.000000	5.255439
2456.000000	5.291706
2455.000000	5.276837
2454.000000	5.302154
2453.000000	5.294719
2452.000000	5.322346
2451.000000	5.318127
2450.000000	5.335105
2449.000000	5.342740
2448.000000	5.371974
2447.000000	5.373481
2446.000000	5.394679
2445.000000	5.440288
2444.000000	5.453147
2443.000000	5.444206
2442.000000	5.459577
2441.000000	5.472436
2440.000000	5.470226
2439.000000	5.496647
2438.000000	5.539243
2437.000000	5.533918
2436.000000	5.550695
2435.000000	5.564559
2434.000000	5.593693
2433.000000	5.612077
2432.000000	5.609666
2431.000000	5.622324
2430.000000	5.647942
2429.000000	5.655075
2428.000000	5.676071
2427.000000	5.678583
2426.000000	5.684711
2425.000000	5.702894
2424.000000	5.726503
2423.000000	5.729416
2422.000000	5.721982
2421.000000	5.739261
2420.000000	5.757947
2419.000000	5.774925
2418.000000	5.791602
2417.000000	5.803356
2416.000000	5.796725
2415.000000	5.820233
2414.000000	5.845248
2413.000000	5.829174
2412.000000	5.841330
2411.000000	5.843540
2410.000000	5.853285
2409.000000	5.869258
2408.000000	5.867350
2407.000000	5.883222
2406.000000	5.907233
2405.000000	5.915370
2404.000000	5.917178
2403.000000	5.923708
2402.000000	5.939380
2401.000000	5.948924
2400.000000	5.947920
2399.000000	5.944303
2398.000000	5.943198
2397.000000	5.951436
2396.000000	5.956559
2395.000000	5.977254
2394.000000	5.995840
2393.000000	6.011512
2392.000000	6.011512
2391.000000	6.010507
2390.000000	6.019950
2389.000000	6.030599
2388.000000	6.026480
2387.000000	6.032307
2386.000000	6.048080
2385.000000	6.056820
2384.000000	6.046171
2383.000000	6.038837
2382.000000	6.032106
2381.000000	6.038234
2380.000000	6.051897
2379.000000	6.056719
2378.000000	6.043057
2377.000000	6.015731
2376.000000	6.029896
2375.000000	6.040445
2374.000000	6.024371
2373.000000	6.023668
2372.000000	6.024572
2371.000000	5.999557
2370.000000	5.973537
2369.000000	5.969117
2368.000000	5.959171
2367.000000	5.943801
2366.000000	5.930339
2365.000000	5.923608
2364.000000	5.904420
2363.000000	5.884328
2362.000000	5.875989
2361.000000	5.861221
2360.000000	5.839522
2359.000000	5.815712
2358.000000	5.804963
2357.000000	5.800442
2356.000000	5.776633
2355.000000	5.759755
2354.000000	5.749609
2353.000000	5.739161
2352.000000	5.731124
2351.000000	5.729918
2350.000000	5.743380
2349.000000	5.755436
2348.000000	5.758851
2347.000000	5.780249
2346.000000	5.794113
2345.000000	5.808278
2344.000000	5.827065
2343.000000	5.822041
2342.000000	5.827768
2341.000000	5.844846
2340.000000	5.858208
2339.000000	5.861020
2338.000000	5.872774
2337.000000	5.870665
2336.000000	5.870464
2335.000000	5.864537
2334.000000	5.864738
2333.000000	5.860317
2332.000000	5.847961
2331.000000	5.834197
2330.000000	5.810991
2329.000000	5.795218
2328.000000	5.791200
2327.000000	5.752623
2326.000000	5.713543
2325.000000	5.726603
2324.000000	5.695460
2323.000000	5.651960
2322.000000	5.639101
2321.000000	5.607054
2320.000000	5.557627
2319.000000	5.533717
2318.000000	5.510611
2317.000000	5.465403
2316.000000	5.427429
2315.000000	5.388450
2314.000000	5.355097
2313.000000	5.339626
2312.000000	5.312200
2311.000000	5.285176
2310.000000	5.250717
2309.000000	5.232534
2308.000000	5.223291
2307.000000	5.213346
2306.000000	5.191144
2305.000000	5.201290
2304.000000	5.213346
2303.000000	5.209930
2302.000000	5.220780
2301.000000	5.226707
2300.000000	5.258654
2299.000000	5.276737
2298.000000	5.291404
2297.000000	5.309889
2296.000000	5.334502
2295.000000	5.355097
2294.000000	5.368056
2293.000000	5.388852
2292.000000	5.413063
2291.000000	5.430041
2290.000000	5.421703
2289.000000	5.428936
2288.000000	5.406834
2287.000000	5.417282
2286.000000	5.409346
2285.000000	5.407939
2284.000000	5.380915
2283.000000	5.367755
2282.000000	5.352786
2281.000000	5.331086
2280.000000	5.314410
2279.000000	5.293715
2278.000000	5.264581
2277.000000	5.251220
2276.000000	5.236552
2275.000000	5.211638
2274.000000	5.206514
2273.000000	5.196468
2272.000000	5.190340
2271.000000	5.191445
2270.000000	5.177682
2269.000000	5.180997
2268.000000	5.193153
2267.000000	5.198276
2266.000000	5.208825
2265.000000	5.234141
2264.000000	5.280353
2263.000000	5.326968
2262.000000	5.369563
2261.000000	5.422908
2260.000000	5.490117
2259.000000	5.548284
2258.000000	5.608561
2257.000000	5.695962
2256.000000	5.768897
2255.000000	5.846956
2254.000000	5.940988
2253.000000	6.013420
2252.000000	6.114887
2251.000000	6.195457
2250.000000	6.292301
2249.000000	6.351071
2248.000000	6.456656
2247.000000	6.506988
2246.000000	6.575201
2245.000000	6.651049
2244.000000	6.707006
2243.000000	6.774014
2242.000000	6.834492
2241.000000	6.873169
2240.000000	6.936661
2239.000000	7.007486
2238.000000	7.023761
2237.000000	7.074896
2236.000000	7.111665
2235.000000	7.156772
2234.000000	7.171038
2233.000000	7.205194
2232.000000	7.251708
2231.000000	7.265672
2230.000000	7.268284
2229.000000	7.281545
2228.000000	7.325748
2227.000000	7.327757
2226.000000	7.339411
2225.000000	7.357896
2224.000000	7.360106
2223.000000	7.344534
2222.000000	7.362216
2221.000000	7.345941
2220.000000	7.329867
2219.000000	7.330470
2218.000000	7.337000
2217.000000	7.297418
2216.000000	7.343932
2215.000000	7.327757
2214.000000	7.304149
2213.000000	7.295509
2212.000000	7.286367
2211.000000	7.290084
2210.000000	7.272001
2209.000000	7.266878
2208.000000	7.260448
2207.000000	7.261252
2206.000000	7.248292
2205.000000	7.245379
2204.000000	7.239251
2203.000000	7.233022
2202.000000	7.229506
2201.000000	7.228803
2200.000000	7.230209
2199.000000	7.222574
2198.000000	7.208711
2197.000000	7.217853
2196.000000	7.212327
2195.000000	7.200774
2194.000000	7.206701
2193.000000	7.200674
2192.000000	7.191431
2191.000000	7.214638
2190.000000	7.187815
2189.000000	7.177869
2188.000000	7.174453
2187.000000	7.172243
2186.000000	7.191230
2185.000000	7.194043
2184.000000	7.176764
2183.000000	7.179979
2182.000000	7.177869
2181.000000	7.194646
2180.000000	7.161594
2179.000000	7.170937
2178.000000	7.175860
2177.000000	7.155366
2176.000000	7.164407
2175.000000	7.187915
2174.000000	7.174252
2173.000000	7.172042
2172.000000	7.181486
2171.000000	7.196153
2170.000000	7.198966
2169.000000	7.227899
2168.000000	7.209313
2167.000000	7.213030
2166.000000	7.227597
2165.000000	7.249699
2164.000000	7.257033
2163.000000	7.253818
2162.000000	7.282449
2161.000000	7.298322
2160.000000	7.312387
2159.000000	7.312387
2158.000000	7.329867
2157.000000	7.354279
2156.000000	7.365129
2155.000000	7.376079
2154.000000	7.396172
2153.000000	7.427315
2152.000000	7.444795
2151.000000	7.452731
2150.000000	7.466495
2149.000000	7.489500
2148.000000	7.501154
2147.000000	7.514515
2146.000000	7.532699
2145.000000	7.544553
2144.000000	7.564746
2143.000000	7.578811
2142.000000	7.589459
2141.000000	7.600410
2140.000000	7.614876
2139.000000	7.628539
2138.000000	7.648531
2137.000000	7.659481
2136.000000	7.663700
2135.000000	7.669226
2134.000000	7.663299
2133.000000	7.656869
2132.000000	7.674852
2131.000000	7.670833
2130.000000	7.660586
2129.000000	7.671235
2128.000000	7.668824
2127.000000	7.658979
2126.000000	7.666714
2125.000000	7.658979
2124.000000	7.653252
2123.000000	7.644613
2122.000000	7.633160
2121.000000	7.618794
2120.000000	7.600309
2119.000000	7.591871
2118.000000	7.578911
2117.000000	7.562737
2116.000000	7.545759
2115.000000	7.534708
2114.000000	7.520141
2113.000000	7.510899
2112.000000	7.496934
2111.000000	7.472120
2110.000000	7.451928
2109.000000	7.426411
2108.000000	7.424502
2107.000000	7.407423
2106.000000	7.390948
2105.000000	7.362015
2104.000000	7.333182
2103.000000	7.315099
2102.000000	7.307766
2101.000000	7.287071
2100.000000	7.267380
2099.000000	7.250101
2098.000000	7.228401
2097.000000	7.218857
2096.000000	7.193440
2095.000000	7.179275
2094.000000	7.163905
2093.000000	7.150443
2092.000000	7.140095
2091.000000	7.122314
2090.000000	7.099710
2089.000000	7.093984
2088.000000	7.091673
2087.000000	7.083636
2086.000000	7.071983
2085.000000	7.049982
2084.000000	7.040237
2083.000000	7.035816
2082.000000	7.015925
2081.000000	7.003769
2080.000000	6.991111
2079.000000	6.972626
2078.000000	6.953639
2077.000000	6.928222
2076.000000	6.917875
2075.000000	6.900696
2074.000000	6.877087
2073.000000	6.860913
2072.000000	6.841625
2071.000000	6.820829
2070.000000	6.802846
2069.000000	6.782654
2068.000000	6.779037
2067.000000	6.771904
2066.000000	6.741766
2065.000000	6.721171
2064.000000	6.715545
2063.000000	6.704897
2062.000000	6.680585
2061.000000	6.663205
2060.000000	6.655771
2059.000000	6.641807
2058.000000	6.641405
2057.000000	6.644017
2056.000000	6.624628
2055.000000	6.616290
2054.000000	6.636482
2053.000000	6.644017
2052.000000	6.642811
2051.000000	6.651953
2050.000000	6.664411
2049.000000	6.696960
2048.000000	6.720569
2047.000000	6.738752
2046.000000	6.771000
2045.000000	6.812993
2044.000000	6.837907
2043.000000	6.859205
2042.000000	6.888841
2041.000000	6.915363
2040.000000	6.944999
2039.000000	6.983878
2038.000000	7.021852
2037.000000	7.045059
2036.000000	7.062439
2035.000000	7.097701
2034.000000	7.120706
2033.000000	7.147228
2032.000000	7.173951
2031.000000	7.176161
2030.000000	7.192235
2029.000000	7.211323
2028.000000	7.222775
2027.000000	7.246384
2026.000000	7.269088
2025.000000	7.259645
2024.000000	7.277728
2023.000000	7.302743
2022.000000	7.307565
2021.000000	7.313191
2020.000000	7.319821
2019.000000	7.325346
2018.000000	7.321227
2017.000000	7.321931
2016.000000	7.319620
2015.000000	7.329666
2014.000000	7.325346
2013.000000	7.325949
2012.000000	7.325045
2011.000000	7.319218
2010.000000	7.310980
2009.000000	7.294605
2008.000000	7.271097
2007.000000	7.281847
2006.000000	7.274011
2005.000000	7.255526
2004.000000	7.242667
2003.000000	7.217350
2002.000000	7.199870
2001.000000	7.173549
2000.000000	7.156571
1999.000000	7.143109
1998.000000	7.135776
1997.000000	7.105436
1996.000000	7.093984
1995.000000	7.059324
1994.000000	7.028684
1993.000000	7.008089
1992.000000	6.994527
1991.000000	6.942086
1990.000000	6.949420
1989.000000	6.937867
1988.000000	6.875480
1987.000000	6.866439
1986.000000	6.850164
1985.000000	6.806664
1984.000000	6.762662
1983.000000	6.741063
1982.000000	6.728505
1981.000000	6.690631
1980.000000	6.680585
1979.000000	6.621112
1978.000000	6.604335
1977.000000	6.560132
1976.000000	6.554104
1975.000000	6.541747
1974.000000	6.522157
1973.000000	6.470319
1972.000000	6.452136
1971.000000	6.441989
1970.000000	6.406124
1969.000000	6.369757
1968.000000	6.366241
1967.000000	6.346149
1966.000000	6.342231
1965.000000	6.288183
1964.000000	6.281251
1963.000000	6.266583
1962.000000	6.249706
1961.000000	6.228006
1960.000000	6.179785
1959.000000	6.175264
1958.000000	6.159692
1957.000000	6.149646
1956.000000	6.122923
1955.000000	6.128750
1954.000000	6.082136
1953.000000	6.068574
1952.000000	6.069177
1951.000000	6.018544
1950.000000	6.027586
1949.000000	5.997146
1948.000000	5.984488
1947.000000	5.992625
1946.000000	5.978560
1945.000000	5.950431
1944.000000	5.935864
1943.000000	5.944102
1942.000000	5.924813
1941.000000	5.946513
1940.000000	5.931544
1939.000000	5.931343
1938.000000	5.929334
1937.000000	5.937170
1936.000000	5.924512
1935.000000	5.908237
1934.000000	5.929033
1933.000000	5.920092
1932.000000	5.957664
1931.000000	5.922804
1930.000000	5.967510
1929.000000	5.979264
1928.000000	6.016133
1927.000000	6.023768
1926.000000	6.058327
1925.000000	6.076410
1924.000000	6.103936
1923.000000	6.139701
1922.000000	6.174058
1921.000000	6.219668
1920.000000	6.249304
1919.000000	6.321536
1918.000000	6.335902
1917.000000	6.381712
1916.000000	6.445204
1915.000000	6.506887
1914.000000	6.562543
1913.000000	6.609056
1912.000000	6.701782
1911.000000	6.779740
1910.000000	6.820427
1909.000000	6.891554
1908.000000	6.979156
1907.000000	7.050584
1906.000000	7.137483
1905.000000	7.267179
1904.000000	7.324241
1903.000000	7.460869
1902.000000	7.551184
1901.000000	7.654759
1900.000000	7.785661
1899.000000	7.924398
1898.000000	8.051582
1897.000000	8.187908
1896.000000	8.344226
1895.000000	8.469301
1894.000000	8.599700
1893.000000	8.762548
1892.000000	8.932026
1891.000000	9.132045
1890.000000	9.339397
1889.000000	9.546649
1888.000000	9.764148
1887.000000	9.990488
1886.000000	10.241139
1885.000000	10.518212
1884.000000	10.800207
1883.000000	11.162471
1882.000000	11.519611
1881.000000	11.871025
1880.000000	12.250167
1879.000000	12.612531
1878.000000	12.973389
1877.000000	13.362275
1876.000000	13.728356
1875.000000	14.084593
1874.000000	14.441231
1873.000000	14.780790
1872.000000	15.115226
1871.000000	15.416309
1870.000000	15.732863
1869.000000	16.005114
1868.000000	16.284597
1867.000000	16.499685
1866.000000	16.675091
1865.000000	16.851903
1864.000000	17.000887
1863.000000	17.146456
1862.000000	17.275951
1861.000000	17.408660
1860.000000	17.537954
1859.000000	17.650471
1858.000000	17.728128
1857.000000	17.818342
1856.000000	17.867166
1855.000000	17.915589
1854.000000	17.954668
1853.000000	17.985610
1852.000000	17.992040
1851.000000	17.998369
1850.000000	18.007611
1849.000000	18.015447
1848.000000	18.013036
1847.000000	18.011730
1846.000000	17.971948
1845.000000	17.933270
1844.000000	17.918703
1843.000000	17.893286
1842.000000	17.885953
1841.000000	17.889469
1840.000000	17.878418
1839.000000	17.877514
1838.000000	17.834516
1837.000000	17.819347
1836.000000	17.801866
1835.000000	17.766906
1834.000000	17.716173
1833.000000	17.669760
1832.000000	17.624251
1831.000000	17.578440
1830.000000	17.534036
1829.000000	17.484308
1828.000000	17.420314
1827.000000	17.354110
1826.000000	17.297550
1825.000000	17.252845
1824.000000	17.193673
1823.000000	17.157406
1822.000000	17.132191
1821.000000	17.114509
1820.000000	17.100847
1819.000000	17.074224
1818.000000	17.029117
1817.000000	17.012742
1816.000000	17.011637
1815.000000	16.987124
1814.000000	16.978786
1813.000000	16.982302
1812.000000	16.982603
1811.000000	16.961507
1810.000000	16.926847
1809.000000	16.906956
1808.000000	16.882243
1807.000000	16.844569
1806.000000	16.815134
1805.000000	16.777059
1804.000000	16.729541
1803.000000	16.687950
1802.000000	16.647163
1801.000000	16.606777
1800.000000	16.560264
1799.000000	16.507722
1798.000000	16.450962
1797.000000	16.419819
1796.000000	16.384155
1795.000000	16.339349
1794.000000	16.307503
1793.000000	16.261190
1792.000000	16.218494
1791.000000	16.171679
1790.000000	16.126873
1789.000000	16.077948
1788.000000	16.019580
1787.000000	15.962418
1786.000000	15.914397
1785.000000	15.869893
1784.000000	15.811826
1783.000000	15.740197
1782.000000	15.678815
1781.000000	15.617634
1780.000000	15.554946
1779.000000	15.500898
1778.000000	15.433287
1777.000000	15.357941
1776.000000	15.286614
1775.000000	15.207349
1774.000000	15.131300
1773.000000	15.047113
1772.000000	14.954589
1771.000000	14.858949
1770.000000	14.762808
1769.000000	14.670885
1768.000000	14.589713
1767.000000	14.520595
1766.000000	14.438920
1765.000000	14.367994
1764.000000	14.323490
1763.000000	14.292246
1762.000000	14.274364
1761.000000	14.292648
1760.000000	14.329317
1759.000000	14.362268
1758.000000	14.417421
1757.000000	14.482822
1756.000000	14.525719
1755.000000	14.590315
1754.000000	14.629093
1753.000000	14.662346
1752.000000	14.689169
1751.000000	14.694393
1750.000000	14.689772
1749.000000	14.660940
1748.000000	14.644765
1747.000000	14.612718
1746.000000	14.557364
1745.000000	14.491260
1744.000000	14.411594
1743.000000	14.299881
1742.000000	14.179930
1741.000000	14.036873
1740.000000	13.877341
1739.000000	13.724840
1738.000000	13.555663
1737.000000	13.405875
1736.000000	13.255283
1735.000000	13.135131
1734.000000	13.066114
1733.000000	13.037282
1732.000000	12.999609
1731.000000	13.020806
1730.000000	13.070736
1729.000000	13.126492
1728.000000	13.210879
1727.000000	13.301998
1726.000000	13.375737
1725.000000	13.454900
1724.000000	13.506839
1723.000000	13.571335
1722.000000	13.598560
1721.000000	13.624178
1720.000000	13.642160
1719.000000	13.648188
1718.000000	13.686263
1717.000000	13.719415
1716.000000	13.741617
1715.000000	13.803903
1714.000000	13.850216
1713.000000	13.893716
1712.000000	13.956605
1711.000000	14.004424
1710.000000	14.033659
1709.000000	14.027530
1708.000000	14.039787
1707.000000	14.030745
1706.000000	14.019694
1705.000000	13.982825
1704.000000	13.940129
1703.000000	13.876235
1702.000000	13.839366
1701.000000	13.751462
1700.000000	13.639548
1699.000000	13.534968
1698.000000	13.434205
1697.000000	13.308528
1696.000000	13.222633
1695.000000	13.169690
1694.000000	13.165772
1693.000000	13.197518
1692.000000	13.269649
1691.000000	13.382367
1690.000000	13.489559
1689.000000	13.610415
1688.000000	13.698318
1687.000000	13.777683
1686.000000	13.821384
1685.000000	13.836654
1684.000000	13.868399
1683.000000	13.929982
1682.000000	14.072738
1681.000000	14.287324
1680.000000	14.586900
1679.000000	14.981412
1678.000000	15.399231
1677.000000	15.808109
1676.000000	16.217690
1675.000000	16.606777
1674.000000	16.965324
1673.000000	17.241493
1672.000000	17.473860
1671.000000	17.701003
1670.000000	17.904036
1669.000000	18.060253
1668.000000	18.190753
1667.000000	18.298347
1666.000000	18.399712
1665.000000	18.501179
1664.000000	18.559948
1663.000000	18.644838
1662.000000	18.699891
1661.000000	18.733546
1660.000000	18.783174
1659.000000	18.806883
1658.000000	18.831998
1657.000000	18.864648
1656.000000	18.851387
1655.000000	18.855305
1654.000000	18.869169
1653.000000	18.838628
1652.000000	18.840135
1651.000000	18.797741
1650.000000	18.794827
1649.000000	18.753337
1648.000000	18.726413
1647.000000	18.679899
1646.000000	18.648656
1645.000000	18.594306
1644.000000	18.531116
1643.000000	18.502485
1642.000000	18.430152
1641.000000	18.375501
1640.000000	18.308895
1639.000000	18.262382
1638.000000	18.223704
1637.000000	18.127161
1636.000000	18.057842
1635.000000	18.000579
1634.000000	17.925635
1633.000000	17.861842
1632.000000	17.806588
1631.000000	17.736265
1630.000000	17.648562
1629.000000	17.570303
1628.000000	17.513341
1627.000000	17.433977
1626.000000	17.351196
1625.000000	17.284088
1624.000000	17.221601
1623.000000	17.138721
1622.000000	17.058050
1621.000000	16.992549
1620.000000	16.937798
1619.000000	16.837537
1618.000000	16.773744
1617.000000	16.713869
1616.000000	16.657008
1615.000000	16.596932
1614.000000	16.523696
1613.000000	16.463117
1612.000000	16.388274
1611.000000	16.310416
1610.000000	16.275958
1609.000000	16.213873
1608.000000	16.167158
1607.000000	16.105274
1606.000000	16.055244
1605.000000	15.997780
1604.000000	15.934288
1603.000000	15.871801
1602.000000	15.819361
1601.000000	15.760691
1600.000000	15.690368
1599.000000	15.649581
1598.000000	15.596939
1597.000000	15.532543
1596.000000	15.486733
1595.000000	15.439918
1594.000000	15.389988
1593.000000	15.342972
1592.000000	15.295956
1591.000000	15.254868
1590.000000	15.210162
1589.000000	15.180225
1588.000000	15.143858
1587.000000	15.107491
1586.000000	15.059973
1585.000000	15.025414
1584.000000	14.998591
1583.000000	14.964032
1582.000000	14.932889
1581.000000	14.899837
1580.000000	14.872813
1579.000000	14.841168
1578.000000	14.813943
1577.000000	14.795859
1576.000000	14.780187
1575.000000	14.771548
1574.000000	14.755474
1573.000000	14.733071
1572.000000	14.728148
1571.000000	14.706147
1570.000000	14.713079
1569.000000	14.707654
1568.000000	14.718504
1567.000000	14.722824
1566.000000	14.693389
1565.000000	14.715189
1564.000000	14.723226
1563.000000	14.714385
1562.000000	14.714385
1561.000000	14.711271
1560.000000	14.692585
1559.000000	14.695097
1558.000000	14.695498
1557.000000	14.694192
1556.000000	14.690978
1555.000000	14.664456
1554.000000	14.644263
1553.000000	14.634217
1552.000000	14.612417
1551.000000	14.600562
1550.000000	14.584087
1549.000000	14.557464
1548.000000	14.542998
1547.000000	14.521801
1546.000000	14.496083
1545.000000	14.460921
1544.000000	14.439623
1543.000000	14.422042
1542.000000	14.404361
1541.000000	14.386178
1540.000000	14.374323
1539.000000	14.356843
1538.000000	14.333837
1537.000000	14.310832
1536.000000	14.285515
1535.000000	14.278483
1534.000000	14.265323
1533.000000	14.236992
1532.000000	14.197411
1531.000000	14.168779
1530.000000	14.141655
1529.000000	14.107297
1528.000000	14.073743
1527.000000	14.043805
1526.000000	14.013968
1525.000000	13.978807
1524.000000	13.937115
1523.000000	13.905570
1522.000000	13.880455
1521.000000	13.827813
1520.000000	13.780295
1519.000000	13.743225
1518.000000	13.698419
1517.000000	13.658837
1516.000000	13.624077
1515.000000	13.575153
1514.000000	13.523616
1513.000000	13.483230
1512.000000	13.442744
1511.000000	13.403163
1510.000000	13.365992
1509.000000	13.326711
1508.000000	13.283212
1507.000000	13.230972
1506.000000	13.189180
1505.000000	13.141762
1504.000000	13.111523
1503.000000	13.071841
1502.000000	13.016687
1501.000000	12.983435
1500.000000	12.938328
1499.000000	12.895330
1498.000000	12.864287
1497.000000	12.828423
1496.000000	12.795170
1495.000000	12.773370
1494.000000	12.751369
1493.000000	12.719121
1492.000000	12.691092
1491.000000	12.659848
1490.000000	12.633728
1489.000000	12.611024
1488.000000	12.585708
1487.000000	12.582694
1486.000000	12.554866
1485.000000	12.526134
1484.000000	12.515284
1483.000000	12.506243
1482.000000	12.477913
1481.000000	12.452998
1480.000000	12.443655
1479.000000	12.430395
1478.000000	12.418641
1477.000000	12.429691
1476.000000	12.421353
1475.000000	12.402064
1474.000000	12.411608
1473.000000	12.420951
1472.000000	12.418038
1471.000000	12.427481
1470.000000	12.451893
1469.000000	12.451793
1468.000000	12.433007
1467.000000	12.436523
1466.000000	12.439537
1465.000000	12.451391
1464.000000	12.461739
1463.000000	12.470780
1462.000000	12.482132
1461.000000	12.508554
1460.000000	12.542409
1459.000000	12.566922
1458.000000	12.591937
1457.000000	12.625089
1456.000000	12.662260
1455.000000	12.708874
1454.000000	12.752273
1453.000000	12.782813
1452.000000	12.838168
1451.000000	12.903267
1450.000000	12.957114
1449.000000	13.010258
1448.000000	13.060388
1447.000000	13.114336
1446.000000	13.174111
1445.000000	13.247246
1444.000000	13.318976
1443.000000	13.380860
1442.000000	13.446361
1441.000000	13.518090
1440.000000	13.606697
1439.000000	13.680135
1438.000000	13.772157
1437.000000	13.857349
1436.000000	13.932996
1435.000000	13.998397
1434.000000	14.099863
1433.000000	14.183447
1432.000000	14.290338
1431.000000	14.381255
1430.000000	14.495982
1429.000000	14.612216
1428.000000	14.721819
1427.000000	14.853022
1426.000000	14.977092
1425.000000	15.136524
1424.000000	15.312533
1423.000000	15.481810
1422.000000	15.646567
1421.000000	15.803689
1420.000000	16.000794
1419.000000	16.194684
1418.000000	16.399324
1417.000000	16.591909
1416.000000	16.804084
1415.000000	17.026103
1414.000000	17.256361
1413.000000	17.492546
1412.000000	17.728228
1411.000000	17.946129
1410.000000	18.228325
1409.000000	18.553519
1408.000000	18.880621
1407.000000	19.226912
1406.000000	19.547685
1405.000000	19.925420
1404.000000	20.293812
1403.000000	20.654770
1402.000000	21.020249
1401.000000	21.410943
1400.000000	21.830069
1399.000000	22.215740
1398.000000	22.528778
1397.000000	22.821322
1396.000000	23.153648
1395.000000	23.492203
1394.000000	23.825835
1393.000000	24.075783
1392.000000	24.359888
1391.000000	24.712508
1390.000000	25.044332
1389.000000	25.366914
1388.000000	25.766549
1387.000000	26.218927
1386.000000	26.670602
1385.000000	27.164269
1384.000000	27.701637
1383.000000	28.286022
1382.000000	28.873621
1381.000000	29.416615
1380.000000	29.847594
1379.000000	30.148878
1378.000000	30.430371
1377.000000	30.642746
1376.000000	30.859140
1375.000000	31.078046
1374.000000	31.317244
1373.000000	31.599742
1372.000000	31.966929
1371.000000	32.342855
1370.000000	32.751231
1369.000000	33.087475
1368.000000	33.435474
1367.000000	33.757654
1366.000000	34.060545
1365.000000	34.286081
1364.000000	34.522969
1363.000000	34.728312
1362.000000	34.924011
1361.000000	35.116595
1360.000000	35.288284
1359.000000	35.334195
1358.000000	35.476247
1357.000000	35.604034
1356.000000	35.770800
1355.000000	36.058220
1354.000000	36.433343
1353.000000	36.869246
1352.000000	37.327450
1351.000000	37.921881
1350.000000	38.465578
1349.000000	38.997220
1348.000000	39.477224
1347.000000	39.923675
1346.000000	40.350335
1345.000000	40.755697
1344.000000	41.149505
1343.000000	41.571142
1342.000000	41.949580
1341.000000	42.315863
1340.000000	42.691488
1339.000000	43.058775
1338.000000	43.411395
1337.000000	43.761101
1336.000000	44.106588
1335.000000	44.467043
1334.000000	44.800274
1333.000000	45.144756
1332.000000	45.466434
1331.000000	45.803482
1330.000000	46.087486
1329.000000	46.391483
1328.000000	46.694474
1327.000000	46.967428
1326.000000	47.231340
1325.000000	47.493042
1324.000000	47.746607
1323.000000	47.976061
1322.000000	48.214958
1321.000000	48.450741
1320.000000	48.675574
1319.000000	48.879912
1318.000000	49.081639
1317.000000	49.277237
1316.000000	49.467913
1315.000000	49.645127
1314.000000	49.830579
1313.000000	49.988705
1312.000000	50.148640
1311.000000	50.299633
1310.000000	50.438270
1309.000000	50.573692
1308.000000	50.690730
1307.000000	50.796917
1306.000000	50.922796
1305.000000	51.009293
1304.000000	51.118896
1303.000000	51.189018
1302.000000	51.251807
1301.000000	51.311983
1300.000000	51.368041
1299.000000	51.402599
1298.000000	51.451926
1297.000000	51.473927
1296.000000	51.516623
1295.000000	51.539327
1294.000000	51.553392
1293.000000	51.573283
1292.000000	51.579411
1291.000000	51.581923
1290.000000	51.565447
1289.000000	51.562333
1288.000000	51.528176
1287.000000	51.482667
1286.000000	51.436354
1285.000000	51.390946
1284.000000	51.335190
1283.000000	51.278027
1282.000000	51.212124
1281.000000	51.147327
1280.000000	51.079917
1279.000000	51.005274
1278.000000	50.934951
1277.000000	50.870355
1276.000000	50.803347
1275.000000	50.738348
1274.000000	50.674053
1273.000000	50.618096
1272.000000	50.568769
1271.000000	50.532201
1270.000000	50.462381
1269.000000	50.407931
1268.000000	50.363828
1267.000000	50.302547
1266.000000	50.241466
1265.000000	50.189728
1264.000000	50.122419
1263.000000	50.074700
1262.000000	50.023264
1261.000000	49.967809
1260.000000	49.903614
1259.000000	49.852680
1258.000000	49.802550
1257.000000	49.743378
1256.000000	49.671448
1255.000000	49.606751
1254.000000	49.546675
1253.000000	49.471530
1252.000000	49.386439
1251.000000	49.291101
1250.000000	49.218869
1249.000000	49.139304
1248.000000	49.038541
1247.000000	48.931549
1246.000000	48.809187
1245.000000	48.683410
1244.000000	48.566071
1243.000000	48.437179
1242.000000	48.292715
1241.000000	48.139210
1240.000000	47.977266
1239.000000	47.816528
1238.000000	47.662822
1237.000000	47.496759
1236.000000	47.324167
1235.000000	47.143035
1234.000000	46.955373
1233.000000	46.769418
1232.000000	46.577437
1231.000000	46.367171
1230.000000	46.153088
1229.000000	45.949452
1228.000000	45.741196
1227.000000	45.533441
1226.000000	45.305394
1225.000000	45.075940
1224.000000	44.854523
1223.000000	44.631197
1222.000000	44.403451
1221.000000	44.178920
1220.000000	43.964535
1219.000000	43.750050
1218.000000	43.533656
1217.000000	43.333035
1216.000000	43.139948
1215.000000	42.968360
1214.000000	42.788936
1213.000000	42.604890
1212.000000	42.447065
1211.000000	42.284418
1210.000000	42.125890
1209.000000	41.976604
1208.000000	41.837465
1207.000000	41.715003
1206.000000	41.599774
1205.000000	41.505139
1204.000000	41.434515
1203.000000	41.396841
1202.000000	41.341487
1201.000000	41.277895
1200.000000	41.238213
1199.000000	41.188083
1198.000000	41.102590
1197.000000	40.995900
1196.000000	40.847117
1195.000000	40.646495
1194.000000	40.388912
1193.000000	40.069545
1192.000000	39.674028
1191.000000	39.223057
1190.000000	38.746870
1189.000000	38.284044
1188.000000	37.865723
1187.000000	37.536109
1186.000000	37.332976
1185.000000	37.262251
1184.000000	37.315294
1183.000000	37.527871
1182.000000	37.889130
1181.000000	38.377875
1180.000000	38.921472
1179.000000	39.499426
1178.000000	40.068741
1177.000000	40.596666
1176.000000	41.065620
1175.000000	41.466863
1174.000000	41.838068
1173.000000	42.209675
1172.000000	42.580478
1171.000000	42.953994
1170.000000	43.348003
1169.000000	43.753767
1168.000000	44.157723
1167.000000	44.562582
1166.000000	44.970456
1165.000000	45.400531
1164.000000	45.839246
1163.000000	46.306995
1162.000000	46.756861
1161.000000	47.221595
1160.000000	47.673370
1159.000000	48.140315
1158.000000	48.582948
1157.000000	49.008704
1156.000000	49.402915
1155.000000	49.777133
1154.000000	50.083641
1153.000000	50.351070
1152.000000	50.562641
1151.000000	50.715242
1150.000000	50.848253
1149.000000	50.933846
1148.000000	51.029686
1147.000000	51.166214
1146.000000	51.307462
1145.000000	51.517025
1144.000000	51.812984
1143.000000	52.183888
1142.000000	52.612456
1141.000000	53.060715
1140.000000	53.545643
1139.000000	54.054580
1138.000000	54.575272
1137.000000	55.128613
1136.000000	55.700942
1135.000000	56.294770
1134.000000	56.865491
1133.000000	57.464643
1132.000000	57.948867
1131.000000	58.460015
1130.000000	58.913900
1129.000000	59.326897
1128.000000	59.658922
1127.000000	59.941821
1126.000000	60.175997
1125.000000	60.393094
1124.000000	60.539265
1123.000000	60.686542
1122.000000	60.833517
1121.000000	60.926544
1120.000000	61.035042
1119.000000	61.121037
1118.000000	61.188246
1117.000000	61.248322
1116.000000	61.302169
1115.000000	61.323166
1114.000000	61.339139
1113.000000	61.366264
1112.000000	61.375104
1111.000000	61.403133
1110.000000	61.415892
1109.000000	61.439098
1108.000000	61.442414
1107.000000	61.475465
1106.000000	61.494352
1105.000000	61.525897
1104.000000	61.516856
1103.000000	61.523285
1102.000000	61.555232
1101.000000	61.557141
1100.000000	61.556236
1099.000000	61.570201
1098.000000	61.577836
1097.000000	61.581251
1096.000000	61.597627
1095.000000	61.594814
1094.000000	61.602248
1093.000000	61.587580
1092.000000	61.583562
1091.000000	61.586274
1090.000000	61.573214
1089.000000	61.561460
1088.000000	61.549907
1087.000000	61.542373
1086.000000	61.539459
1085.000000	61.526500
1084.000000	61.515951
1083.000000	61.477073
1082.000000	61.482799
1081.000000	61.462707
1080.000000	61.459994
1079.000000	61.444825
1078.000000	61.416997
1077.000000	61.440806
1076.000000	61.432568
1075.000000	61.419307
1074.000000	61.409965
1073.000000	61.425335
1072.000000	61.426440
1071.000000	61.436989
1070.000000	61.443619
1069.000000	61.434276
1068.000000	61.438496
1067.000000	61.455072
1066.000000	61.455574
1065.000000	61.465520
1064.000000	61.460798
1063.000000	61.474260
1062.000000	61.500581
1061.000000	61.500882
1060.000000	61.519267
1059.000000	61.528509
1058.000000	61.531824
1057.000000	61.531121
1056.000000	61.547798
1055.000000	61.547295
1054.000000	61.544683
1053.000000	61.549706
1052.000000	61.569799
1051.000000	61.589489
1050.000000	61.601846
1049.000000	61.624852
1048.000000	61.642734
1047.000000	61.659310
1046.000000	61.713358
1045.000000	61.741085
1044.000000	61.797645
1043.000000	61.837930
1042.000000	61.880827
1041.000000	61.928747
1040.000000	61.962201
1039.000000	62.011427
1038.000000	62.052014
1037.000000	62.077531
1036.000000	62.113998
1035.000000	62.159809
1034.000000	62.182212
1033.000000	62.191454
1032.000000	62.224204
1031.000000	62.248416
1030.000000	62.262882
1029.000000	62.284481
1028.000000	62.303167
1027.000000	62.345160
1026.000000	62.372887
1025.000000	62.404030
1024.000000	62.422314
1023.000000	62.412570
1022.000000	62.459083
1021.000000	62.516045
1020.000000	62.562257
1019.000000	62.600433
1018.000000	62.644334
1017.000000	62.672966
1016.000000	62.731233
1015.000000	62.794323
1014.000000	62.865249
1013.000000	62.929444
1012.000000	63.003986
1011.000000	63.079031
1010.000000	63.181200
1009.000000	63.311197
1008.000000	63.422609
1007.000000	63.530404
1006.000000	63.650556
1005.000000	63.762369
1004.000000	63.888449
1003.000000	64.021158
1002.000000	64.170645
1001.000000	64.312597
1000.000000	64.441690
999.000000	64.585952
998.000000	64.722881
997.000000	64.854184
996.000000	64.989104
995.000000	65.122919
994.000000	65.276625
993.000000	65.408531
992.000000	65.496635
991.000000	65.599608
990.000000	65.733222
989.000000	65.853977
988.000000	65.946602
987.000000	66.054196
986.000000	66.152347
985.000000	66.260644
984.000000	66.361508
983.000000	66.460864
982.000000	66.565947
981.000000	66.683688
980.000000	66.790076
979.000000	66.912036
978.000000	67.013703
977.000000	67.125617
976.000000	67.199457
975.000000	67.318001
974.000000	67.432427
973.000000	67.514504
972.000000	67.584425
971.000000	67.668310
970.000000	67.750387
969.000000	67.814280
968.000000	67.882795
967.000000	67.959347
966.000000	68.043634
965.000000	68.137465
964.000000	68.210400
963.000000	68.286650
962.000000	68.382792
961.000000	68.504451
960.000000	68.643087
959.000000	68.753293
958.000000	68.834265
957.000000	68.931211
956.000000	69.058495
955.000000	69.187689
954.000000	69.274487
953.000000	69.355057
952.000000	69.449692
951.000000	69.523732
950.000000	69.611435
949.000000	69.723650
948.000000	69.785635
947.000000	69.816879
946.000000	69.857264
945.000000	69.900463
944.000000	69.966868
943.000000	70.023126
942.000000	70.048342
941.000000	70.066525
940.000000	70.122382
939.000000	70.158046
938.000000	70.167489
937.000000	70.190997
936.000000	70.234698
935.000000	70.252178
934.000000	70.247255
933.000000	70.254288
932.000000	70.257402
931.000000	70.298591
930.000000	70.305523
929.000000	70.265640
928.000000	70.233191
927.000000	70.230077
926.000000	70.207272
925.000000	70.167389
924.000000	70.138657
923.000000	70.090737
922.000000	70.083202
921.000000	70.059895
920.000000	70.009463
919.000000	69.970585
918.000000	69.940044
917.000000	69.904883
916.000000	69.880571
915.000000	69.864698
914.000000	69.850533
913.000000	69.850835
912.000000	69.839884
911.000000	69.827327
910.000000	69.833957
909.000000	69.855858
908.000000	69.868817
907.000000	69.898353
906.000000	69.916737
905.000000	69.964758
904.000000	70.022021
903.000000	70.074261
902.000000	70.127807
901.000000	70.186577
900.000000	70.255694
899.000000	70.337369
898.000000	70.405281
897.000000	70.473696
896.000000	70.552457
895.000000	70.635840
894.000000	70.715908
893.000000	70.791254
892.000000	70.872327
891.000000	70.941444
890.000000	70.997702
889.000000	71.065715
888.000000	71.135636
887.000000	71.182953
886.000000	71.220626
885.000000	71.273369
884.000000	71.317471
883.000000	71.357455
882.000000	71.400653
881.000000	71.433805
880.000000	71.472584
879.000000	71.541802
878.000000	71.595749
877.000000	71.644574
876.000000	71.694402
875.000000	71.732879
874.000000	71.768242
873.000000	71.770351
872.000000	71.759602
871.000000	71.750460
870.000000	71.788736
869.000000	71.863379
868.000000	71.969868
867.000000	72.068320
866.000000	72.155319
865.000000	72.239908
864.000000	72.349210
863.000000	72.457307
862.000000	72.580774
861.000000	72.701830
860.000000	72.821580
859.000000	72.963833
858.000000	73.130800
857.000000	72.964600
856.000000	73.485200
855.000000	72.942600
854.000000	73.395600
853.000000	73.744400
852.000000	74.060000
851.000000	74.467800
850.000000	74.836200
849.000000	75.265000
848.000000	75.610300
847.000000	75.673000
846.000000	76.208100
845.000000	76.593000
844.000000	76.227000
843.000000	77.120500
842.000000	77.307800
841.000000	77.527900
840.000000	77.590900
839.000000	78.258700
838.000000	78.367100
837.000000	78.523700
836.000000	78.973000
835.000000	79.472400
834.000000	79.876900
833.000000	80.269400
832.000000	80.734200
831.000000	80.850100
830.000000	81.256300
829.000000	81.945700
828.000000	81.920600
827.000000	82.195200
826.000000	82.518900
825.000000	82.894500
824.000000	83.141000
823.000000	83.231700
822.000000	83.433000
821.000000	83.272200
820.000000	83.384500
819.000000	83.309700
818.000000	83.100800
817.000000	83.236200
816.000000	82.926000
815.000000	82.581200
814.000000	82.561000
813.000000	82.431300
812.000000	82.314400
811.000000	82.206200
810.000000	82.207700
809.000000	82.201800
808.000000	82.130800
807.000000	82.129900
806.000000	82.512900
805.000000	82.484700
804.000000	82.715700
803.000000	83.050400
802.000000	83.207500
801.000000	83.458400
800.000000	83.772300
799.000000	83.917200
798.000000	84.324400
797.000000	84.575500
796.000000	84.660100
795.000000	84.981100
794.000000	85.300200
793.000000	85.482900
792.000000	85.615900
791.000000	85.817500
790.000000	85.986300
789.000000	86.103700
788.000000	86.341800
787.000000	86.363600
786.000000	86.595800
785.000000	86.672400
784.000000	86.609200
783.000000	86.534500
782.000000	86.603300
781.000000	86.412200
780.000000	86.240300
779.000000	86.004500
778.000000	85.795000
777.000000	85.573600
776.000000	85.276800
775.000000	85.017400
774.000000	84.873500
773.000000	84.652800
772.000000	84.380800
771.000000	84.227800
770.000000	84.187400
769.000000	83.967600
768.000000	84.011900
767.000000	83.902100
766.000000	83.928300
765.000000	83.939500
764.000000	83.796100
763.000000	83.879500
762.000000	83.862300
761.000000	83.844900
760.000000	83.821000
759.000000	83.900600
758.000000	83.760900
757.000000	83.819700
756.000000	83.676500
755.000000	83.562300
754.000000	83.396200
753.000000	83.186300
752.000000	82.933000
751.000000	82.717900
750.000000	82.491100
749.000000	82.276800
748.000000	82.067300
747.000000	81.861500
746.000000	81.491100
745.000000	81.247600
744.000000	81.021200
743.000000	80.550500
742.000000	80.202000
741.000000	79.785800
740.000000	79.377600
739.000000	78.961200
738.000000	78.569600
737.000000	78.166000
736.000000	77.691200
735.000000	77.280600
734.000000	76.949400
733.000000	76.487100
732.000000	75.996600
731.000000	75.583200
730.000000	75.208500
729.000000	74.903200
728.000000	74.591000
727.000000	74.334900
726.000000	74.115300
725.000000	73.872700
724.000000	73.707700
723.000000	73.586300
722.000000	73.437900
721.000000	73.306000
720.000000	73.188400
719.000000	73.161500
718.000000	73.036900
717.000000	72.879300
716.000000	72.761000
715.000000	72.509700
714.000000	72.466400
713.000000	72.383000
712.000000	72.328000
711.000000	72.275400
710.000000	72.253600
709.000000	72.262000
708.000000	72.334100
707.000000	72.462500
706.000000	72.551800
705.000000	72.700000
704.000000	72.913200
703.000000	73.125300
702.000000	73.239300
701.000000	73.382400
700.000000	73.617500
699.000000	73.834600
698.000000	73.959300
697.000000	73.964800
696.000000	73.908500
695.000000	73.814700
694.000000	73.633100
693.000000	73.476000
692.000000	73.324900
691.000000	73.060200
690.000000	72.751900
689.000000	72.387900
688.000000	72.116700
687.000000	71.820400
686.000000	71.473500
685.000000	71.157500
684.000000	70.805800
683.000000	70.389600
682.000000	69.987000
681.000000	69.508100
680.000000	68.951800
679.000000	68.365400
678.000000	67.687700
677.000000	66.984600
676.000000	66.199000
675.000000	65.377800
674.000000	64.495500
673.000000	63.542300
672.000000	62.571500
671.000000	61.638200
670.000000	60.691300
669.000000	59.753800
668.000000	58.860200
667.000000	58.025700
666.000000	57.228400
665.000000	56.448100
664.000000	55.717200
663.000000	55.013200
662.000000	54.276600
661.000000	53.518300
660.000000	52.805700
659.000000	52.169400
658.000000	51.557600
657.000000	51.020200
656.000000	50.536600
655.000000	50.086100
654.000000	49.769200
653.000000	49.617800
652.000000	49.654400
651.000000	49.838200
650.000000	50.242200
649.000000	50.822400
648.000000	51.571200
647.000000	52.509100
646.000000	53.538200
645.000000	54.637800
644.000000	55.840200
643.000000	57.097100
642.000000	58.332600
641.000000	59.519500
640.000000	60.659500
639.000000	61.728400
638.000000	62.721800
637.000000	63.704600
636.000000	64.672000
635.000000	65.568000
634.000000	66.508100
633.000000	67.506200
632.000000	68.506400
631.000000	69.588400
630.000000	70.728500
629.000000	71.844100
628.000000	72.948400
627.000000	74.094000
626.000000	75.160300
625.000000	76.195300
624.000000	77.155100
623.000000	78.035900
622.000000	78.925900
621.000000	79.740100
620.000000	80.437400
619.000000	81.143900
618.000000	81.782800
617.000000	82.372700
616.000000	82.979200
615.000000	83.556000
614.000000	84.154000
613.000000	84.784000
612.000000	85.347200
611.000000	85.850900
610.000000	86.367200
609.000000	86.830800
608.000000	87.307700
607.000000	87.749700
606.000000	88.120800
605.000000	88.468800
604.000000	88.802800
603.000000	89.059300
602.000000	89.299200
601.000000	89.577500
600.000000	89.748800
599.000000	89.930700
598.000000	90.167300
597.000000	90.342100
596.000000	90.491300
595.000000	90.613800
594.000000	90.728100
593.000000	90.852600
592.000000	90.922200
591.000000	90.982100
590.000000	91.066300
589.000000	91.114400
588.000000	91.218000
587.000000	91.265600
586.000000	91.277500
585.000000	91.289100
584.000000	91.306100
583.000000	91.302800
582.000000	91.300500
581.000000	91.242700
580.000000	91.194800
579.000000	91.133600
578.000000	91.031200
577.000000	90.918000
576.000000	90.799500
575.000000	90.660500
574.000000	90.535000
573.000000	90.380400
572.000000	90.240700
571.000000	90.032400
570.000000	89.818300
569.000000	89.609700
568.000000	89.397100
567.000000	89.119500
566.000000	88.847500
565.000000	88.594100
564.000000	88.261000
563.000000	87.949600
562.000000	87.573700
561.000000	87.250800
560.000000	86.843700
559.000000	86.342200
558.000000	85.893400
557.000000	85.422600
556.000000	84.870200
555.000000	84.334000
554.000000	83.802700
553.000000	83.114700
552.000000	82.466000
551.000000	81.714400
550.000000	80.970200
549.000000	80.140800
548.000000	79.304600
547.000000	78.469800
546.000000	77.452500
545.000000	76.538600
544.000000	75.484100
543.000000	74.406000
542.000000	73.251000
541.000000	72.026500
540.000000	70.780900
539.000000	69.399300
538.000000	68.001900
537.000000	66.548500
536.000000	65.023800
535.000000	63.424100
534.000000	61.802700
533.000000	60.079800
532.000000	58.352500
531.000000	56.586300
530.000000	54.834100
529.000000	53.093000
528.000000	51.374500
527.000000	49.701300
526.000000	48.034500
525.000000	46.466900
524.000000	44.979600
523.000000	43.490800
522.000000	42.143100
521.000000	40.863000
520.000000	39.721500
519.000000	38.682300
518.000000	37.744600
517.000000	36.919500
516.000000	36.234400
515.000000	35.653400
514.000000	35.182400
513.000000	34.750200
512.000000	34.404300
511.000000	34.187900
510.000000	33.993300
509.000000	33.851700
508.000000	33.776700
507.000000	33.727200
506.000000	33.674200
505.000000	33.660900
504.000000	33.661400
503.000000	33.629700
502.000000	33.625500
501.000000	33.513800
500.000000	33.464700
499.000000	33.328900
498.000000	33.124900
497.000000	32.912100
496.000000	32.620000
495.000000	32.310200
494.000000	31.937200
493.000000	31.549000
492.000000	31.109300
491.000000	30.620500
490.000000	30.090100
489.000000	29.586000
488.000000	29.040700
487.000000	28.510700
486.000000	27.942200
485.000000	27.393200
484.000000	26.846300
483.000000	26.344700
482.000000	25.861700
481.000000	25.446500
480.000000	25.091100
479.000000	24.733000
478.000000	24.463000
477.000000	24.260300
476.000000	24.116200
475.000000	24.032400
474.000000	23.960500
473.000000	24.018800
472.000000	24.052300
471.000000	24.134100
470.000000	24.275700
469.000000	24.383000
468.000000	24.604600
467.000000	24.783800
466.000000	25.009000
465.000000	25.169800
464.000000	25.413700
463.000000	25.604600
462.000000	25.810700
461.000000	25.998200
460.000000	26.180900
459.000000	26.342100
458.000000	26.490200
457.000000	26.628200
456.000000	26.727200
455.000000	26.840400
454.000000	26.875000
453.000000	26.942000
452.000000	26.970700
451.000000	27.008800
450.000000	26.993400
449.000000	26.949600
448.000000	26.915800
447.000000	26.830100
446.000000	26.714000
445.000000	26.648600
444.000000	26.493200
443.000000	26.337800
442.000000	26.207800
441.000000	26.038600
440.000000	25.847900
439.000000	25.627200
438.000000	25.376000
437.000000	25.138900
436.000000	24.890500
435.000000	24.619200
434.000000	24.320900
433.000000	24.028600
432.000000	23.672900
431.000000	23.363600
430.000000	23.009500
429.000000	22.674800
428.000000	22.283600
427.000000	21.877000
426.000000	21.474600
425.000000	21.082700
424.000000	20.649100
423.000000	20.204500
422.000000	19.713700
421.000000	19.263100
420.000000	18.790000
419.000000	18.314800
418.000000	17.836500
417.000000	17.335900
416.000000	16.875500
415.000000	16.381100
414.000000	15.895400
413.000000	15.411100
412.000000	14.950400
411.000000	14.473200
410.000000	14.044200
409.000000	13.603500
408.000000	13.180300
407.000000	12.763000
406.000000	12.381900
405.000000	11.999200
404.000000	11.664400
403.000000	11.310600
402.000000	10.978600
401.000000	10.692800
400.000000	10.426300
399.000000	10.172900
398.000000	9.919200
397.000000	9.647100
396.000000	9.414800
395.000000	9.231700
394.000000	9.040300
393.000000	8.844400
392.000000	8.686600
391.000000	8.513900
390.000000	8.355900
389.000000	8.228100
388.000000	8.092900
387.000000	7.981100
386.000000	7.875600
385.000000	7.762500
384.000000	7.660500
383.000000	7.551500
382.000000	7.484100
381.000000	7.419600
380.000000	7.331100
379.000000	7.256200
378.000000	7.202900
377.000000	7.143800
376.000000	7.052300
375.000000	7.009300
374.000000	7.011200
373.000000	6.878700
372.000000	6.931200
371.000000	6.817400
370.000000	6.777800
369.000000	6.785800
368.000000	6.682100
367.000000	6.671300
366.000000	6.682100
365.000000	6.604600
364.000000	6.569000
363.000000	6.552500
362.000000	6.463100
361.000000	6.445200
360.000000	6.457000
359.000000	6.371800
358.000000	6.293500
357.000000	6.356600
356.000000	6.301400
355.000000	6.181600
354.000000	6.174900
353.000000	6.186500
352.000000	6.156300
351.000000	6.124700
350.000000	6.036600
349.000000	5.991900
348.000000	5.995700
347.000000	6.010800
346.000000	6.028900
345.000000	6.141700
344.000000	6.112000
343.000000	5.982900
342.000000	5.930900
341.000000	5.954400
340.000000	5.903600
339.000000	5.865800
338.000000	5.944100
337.000000	5.975300
336.000000	6.013700
335.000000	6.004200
334.000000	6.058100
333.000000	5.984900
332.000000	5.939900
331.000000	6.054400
330.000000	5.980900
329.000000	5.878700
328.000000	5.885200
327.000000	5.875500
326.000000	5.958700
325.000000	5.971900
324.000000	5.935000
323.000000	5.906600
322.000000	5.848700
321.000000	5.889100
320.000000	5.990800
319.000000	6.175700
318.000000	6.030900
317.000000	5.933300
316.000000	5.991000
315.000000	5.972400
314.000000	5.947800
313.000000	5.919700
312.000000	5.974000
311.000000	6.011800
310.000000	5.973600
309.000000	5.984000
308.000000	6.004200
307.000000	6.015600
306.000000	6.040700
305.000000	6.045000
304.000000	6.030100
303.000000	6.017300
302.000000	6.042200
301.000000	6.086100
300.000000	6.076200
299.000000	6.079900
298.000000	6.107700
297.000000	6.099600
296.000000	6.106800
295.000000	6.101400
294.000000	6.119400
293.000000	6.151900
292.000000	6.137400
291.000000	6.146400
290.000000	6.170200
289.000000	6.175400
288.000000	6.187000
287.000000	6.207600
286.000000	6.214400
285.000000	6.220400
284.000000	6.202200
283.000000	6.210900
282.000000	6.228000
281.000000	6.225100
280.000000	6.257600
279.000000	6.267200
278.000000	6.260100
277.000000	6.255400
276.000000	6.284300
275.000000	6.317000
274.000000	6.320300
273.000000	6.299600
272.000000	6.332100
271.000000	6.344400
270.000000	6.367400
269.000000	6.390200
268.000000	6.389600
267.000000	6.423900
266.000000	6.441600
265.000000	6.495700
264.000000	6.490700
263.000000	6.518300
262.000000	6.569900
261.000000	6.603800
260.000000	6.608900
259.000000	6.660100
258.000000	6.655300
257.000000	6.676800
256.000000	6.697200
255.000000	6.724300
254.000000	6.746100
253.000000	6.755300
252.000000	6.762900
251.000000	6.804800
250.000000	6.832700
