PE UV       SUBTECH     SPECTRUM    ASCII       PEDS        4.00        
   -1
CICIMAUCR0254-1.Sample.ASC
24/06/26
16:33:48.00
24/06/26
16:33:48.00
Vinicio Soto Monge
C. resplendens. Sex F. Ventral
250,000000
1
Lambda 1050
1050L1511233
PerkinElmer UV WinLab 6.3.2.0749 / 2.02.05 Lambda 900 UV/VIS/NIR, Aug  7 2015 09:38:08

0
0
3350/servo 860,8/2
0
0
UV/VIS
1
1
1
DoubleDePol,CommonBeamDepol,RBeamAtt,SBeamAtt,60mm sphere, WB InGaAs Detector
0
0
0
0
Program
Program
3350/servo 860,8/2
3350/0,2 860,8/0,2
3350/0,2 860,8/0,2
0
15.00
 
 
 
0
 
860,8
319,2
860,8
Front
100
on
S:100 R:100
0
0
0
0
 
0
 
 
 
0
 
 
0
0
0
0
0
 
 
 
 
0
0


0
0
#HDR
-1
-1
#GR
nm
%R
1.0
0.0
2500,000000
-1,000000
2251
8
57,930800
4,246000
#DATA
2482.000000	5.254868
2481.000000	5.265141
2480.000000	5.281533
2479.000000	5.247655
2478.000000	5.220881
2477.000000	5.258256
2476.000000	5.220881
2475.000000	5.204926
2474.000000	5.224815
2473.000000	5.203396
2472.000000	5.264594
2471.000000	5.221100
2470.000000	5.248202
2469.000000	5.247546
2468.000000	5.210827
2467.000000	5.228750
2466.000000	5.241098
2465.000000	5.204270
2464.000000	5.201757
2463.000000	5.274976
2462.000000	5.243940
2461.000000	5.250278
2460.000000	5.223285
2459.000000	5.238476
2458.000000	5.256398
2457.000000	5.224815
2456.000000	5.233121
2455.000000	5.284921
2454.000000	5.291806
2453.000000	5.270168
2452.000000	5.288637
2451.000000	5.300439
2450.000000	5.318143
2449.000000	5.359561
2448.000000	5.367320
2447.000000	5.358031
2446.000000	5.400542
2445.000000	5.409722
2444.000000	5.411689
2443.000000	5.427098
2442.000000	5.449829
2441.000000	5.488406
2440.000000	5.484034
2439.000000	5.494526
2438.000000	5.538129
2437.000000	5.538129
2436.000000	5.564904
2435.000000	5.583591
2434.000000	5.582826
2433.000000	5.597470
2432.000000	5.612770
2431.000000	5.631457
2430.000000	5.658450
2429.000000	5.664679
2428.000000	5.666209
2427.000000	5.697901
2426.000000	5.709704
2425.000000	5.733527
2424.000000	5.738991
2423.000000	5.764017
2422.000000	5.760302
2421.000000	5.774180
2420.000000	5.782705
2419.000000	5.787950
2418.000000	5.800518
2417.000000	5.808277
2416.000000	5.812867
2415.000000	5.829696
2414.000000	5.850897
2413.000000	5.853629
2412.000000	5.873519
2411.000000	5.869257
2410.000000	5.879201
2409.000000	5.897342
2408.000000	5.897452
2407.000000	5.914500
2406.000000	5.924444
2405.000000	5.944115
2404.000000	5.943678
2403.000000	5.948924
2402.000000	5.952530
2401.000000	5.957885
2400.000000	5.969688
2399.000000	5.978649
2398.000000	5.984550
2397.000000	5.999850
2396.000000	6.002910
2395.000000	6.004221
2394.000000	6.007062
2393.000000	6.021815
2392.000000	6.024001
2391.000000	6.042470
2390.000000	6.060502
2389.000000	6.067059
2388.000000	6.071539
2387.000000	6.067059
2386.000000	6.073397
2385.000000	6.080938
2384.000000	6.072851
2383.000000	6.090664
2382.000000	6.086183
2381.000000	6.079408
2380.000000	6.092522
2379.000000	6.091210
2378.000000	6.093287
2377.000000	6.098751
2376.000000	6.100608
2375.000000	6.091866
2374.000000	6.098860
2373.000000	6.090664
2372.000000	6.081812
2371.000000	6.083997
2370.000000	6.066184
2369.000000	6.055802
2368.000000	6.067605
2367.000000	6.068589
2366.000000	6.068916
2365.000000	6.062032
2364.000000	6.047606
2363.000000	6.039410
2362.000000	6.030558
2361.000000	6.032197
2360.000000	6.036350
2359.000000	6.021051
2358.000000	6.013947
2357.000000	5.989905
2356.000000	5.980179
2355.000000	5.992309
2354.000000	5.983566
2353.000000	5.983566
2352.000000	5.978977
2351.000000	5.972857
2350.000000	5.980288
2349.000000	5.997555
2348.000000	5.991872
2347.000000	5.956136
2346.000000	5.978977
2345.000000	6.001489
2344.000000	5.988375
2343.000000	5.990998
2342.000000	6.002691
2341.000000	6.008046
2340.000000	6.018646
2339.000000	6.023236
2338.000000	6.035476
2337.000000	6.045202
2336.000000	6.053835
2335.000000	6.042251
2334.000000	6.034820
2333.000000	6.040503
2332.000000	6.046295
2331.000000	6.039629
2330.000000	6.028372
2329.000000	6.028045
2328.000000	6.016242
2327.000000	6.008374
2326.000000	6.002691
2325.000000	5.990014
2324.000000	5.970890
2323.000000	5.972092
2322.000000	5.972857
2321.000000	5.954716
2320.000000	5.944880
2319.000000	5.925100
2318.000000	5.906413
2317.000000	5.901932
2316.000000	5.880185
2315.000000	5.848821
2314.000000	5.837674
2313.000000	5.806747
2312.000000	5.776038
2311.000000	5.760957
2310.000000	5.751668
2309.000000	5.726096
2308.000000	5.716261
2307.000000	5.706206
2306.000000	5.697245
2305.000000	5.696262
2304.000000	5.692765
2303.000000	5.699759
2302.000000	5.711998
2301.000000	5.716916
2300.000000	5.729484
2299.000000	5.718993
2298.000000	5.731669
2297.000000	5.754072
2296.000000	5.773197
2295.000000	5.782705
2294.000000	5.817019
2293.000000	5.839750
2292.000000	5.840515
2291.000000	5.842919
2290.000000	5.857017
2289.000000	5.869475
2288.000000	5.890457
2287.000000	5.891550
2286.000000	5.904009
2285.000000	5.884119
2284.000000	5.886195
2283.000000	5.893408
2282.000000	5.891113
2281.000000	5.895047
2280.000000	5.891878
2279.000000	5.865104
2278.000000	5.836909
2277.000000	5.866743
2276.000000	5.848056
2275.000000	5.842810
2274.000000	5.837018
2273.000000	5.841389
2272.000000	5.826308
2271.000000	5.821391
2270.000000	5.827511
2269.000000	5.831991
2268.000000	5.836035
2267.000000	5.848711
2266.000000	5.847509
2265.000000	5.899200
2264.000000	5.912095
2263.000000	5.946847
2262.000000	5.981162
2261.000000	6.015368
2260.000000	6.072960
2259.000000	6.120279
2258.000000	6.184101
2257.000000	6.231639
2256.000000	6.311306
2255.000000	6.366166
2254.000000	6.414906
2253.000000	6.498835
2252.000000	6.556318
2251.000000	6.634565
2250.000000	6.705926
2249.000000	6.742099
2248.000000	6.828433
2247.000000	6.883402
2246.000000	6.948862
2245.000000	6.969626
2244.000000	7.024814
2243.000000	7.101203
2242.000000	7.143386
2241.000000	7.159888
2240.000000	7.190924
2239.000000	7.219447
2238.000000	7.244910
2237.000000	7.323484
2236.000000	7.340423
2235.000000	7.348510
2234.000000	7.374191
2233.000000	7.379109
2232.000000	7.418342
2231.000000	7.432658
2230.000000	7.451345
2229.000000	7.444460
2228.000000	7.439980
2227.000000	7.449815
2226.000000	7.442712
2225.000000	7.439652
2224.000000	7.455826
2223.000000	7.450143
2222.000000	7.458558
2221.000000	7.429161
2220.000000	7.442712
2219.000000	7.407086
2218.000000	7.370257
2217.000000	7.373645
2216.000000	7.357143
2215.000000	7.367197
2214.000000	7.337363
2213.000000	7.333210
2212.000000	7.292120
2211.000000	7.296163
2210.000000	7.299005
2209.000000	7.290262
2208.000000	7.261193
2207.000000	7.265673
2206.000000	7.264253
2205.000000	7.236386
2204.000000	7.251576
2203.000000	7.243052
2202.000000	7.231031
2201.000000	7.215075
2200.000000	7.209939
2199.000000	7.221632
2198.000000	7.188192
2197.000000	7.197262
2196.000000	7.183711
2195.000000	7.183821
2194.000000	7.174531
2193.000000	7.174969
2192.000000	7.161090
2191.000000	7.159123
2190.000000	7.171144
2189.000000	7.177264
2188.000000	7.179449
2187.000000	7.153221
2186.000000	7.140982
2185.000000	7.114644
2184.000000	7.157920
2183.000000	7.144588
2182.000000	7.130381
2181.000000	7.122294
2180.000000	7.112131
2179.000000	7.115737
2178.000000	7.102077
2177.000000	7.088963
2176.000000	7.098471
2175.000000	7.111475
2174.000000	7.116721
2173.000000	7.106995
2172.000000	7.101531
2171.000000	7.077707
2170.000000	7.104590
2169.000000	7.103935
2168.000000	7.099017
2167.000000	7.099126
2166.000000	7.102951
2165.000000	7.100984
2164.000000	7.114972
2163.000000	7.131693
2162.000000	7.161745
2161.000000	7.144479
2160.000000	7.149724
2159.000000	7.165242
2158.000000	7.176608
2157.000000	7.208737
2156.000000	7.219556
2155.000000	7.240211
2154.000000	7.254854
2153.000000	7.265455
2152.000000	7.270810
2151.000000	7.287311
2150.000000	7.300098
2149.000000	7.328620
2148.000000	7.348510
2147.000000	7.363482
2146.000000	7.393097
2145.000000	7.412440
2144.000000	7.406648
2143.000000	7.449487
2142.000000	7.480742
2141.000000	7.503036
2140.000000	7.518991
2139.000000	7.518008
2138.000000	7.539427
2137.000000	7.548060
2136.000000	7.562158
2135.000000	7.586419
2134.000000	7.590244
2133.000000	7.607620
2132.000000	7.615269
2131.000000	7.624449
2130.000000	7.625323
2129.000000	7.642481
2128.000000	7.649912
2127.000000	7.633301
2126.000000	7.644339
2125.000000	7.683462
2124.000000	7.680293
2123.000000	7.662370
2122.000000	7.665758
2121.000000	7.666523
2120.000000	7.677561
2119.000000	7.675812
2118.000000	7.651551
2117.000000	7.670676
2116.000000	7.666632
2115.000000	7.652972
2114.000000	7.661387
2113.000000	7.652644
2112.000000	7.644557
2111.000000	7.623356
2110.000000	7.614723
2109.000000	7.622919
2108.000000	7.609040
2107.000000	7.600298
2106.000000	7.603685
2105.000000	7.588932
2104.000000	7.578550
2103.000000	7.565655
2102.000000	7.556038
2101.000000	7.554071
2100.000000	7.551448
2099.000000	7.534072
2098.000000	7.531231
2097.000000	7.539427
2096.000000	7.523253
2095.000000	7.511669
2094.000000	7.514401
2093.000000	7.506752
2092.000000	7.497790
2091.000000	7.494512
2090.000000	7.484786
2089.000000	7.470579
2088.000000	7.460743
2087.000000	7.459323
2086.000000	7.469158
2085.000000	7.474513
2084.000000	7.465989
2083.000000	7.454296
2082.000000	7.444132
2081.000000	7.426975
2080.000000	7.411238
2079.000000	7.412987
2078.000000	7.401184
2077.000000	7.373864
2076.000000	7.376705
2075.000000	7.356269
2074.000000	7.324140
2073.000000	7.303048
2072.000000	7.295945
2071.000000	7.291027
2070.000000	7.264908
2069.000000	7.245347
2068.000000	7.216715
2067.000000	7.192782
2066.000000	7.182291
2065.000000	7.159450
2064.000000	7.122731
2063.000000	7.112240
2062.000000	7.089619
2061.000000	7.073336
2060.000000	7.050495
2059.000000	7.037709
2058.000000	7.032136
2057.000000	7.020661
2056.000000	7.013230
2055.000000	7.000990
2054.000000	6.991810
2053.000000	7.000444
2052.000000	7.011481
2051.000000	7.019568
2050.000000	7.025688
2049.000000	7.042736
2048.000000	7.059784
2047.000000	7.082406
2046.000000	7.103498
2045.000000	7.126228
2044.000000	7.162510
2043.000000	7.191907
2042.000000	7.214857
2041.000000	7.251357
2040.000000	7.280973
2039.000000	7.313430
2038.000000	7.337582
2037.000000	7.350040
2036.000000	7.370913
2035.000000	7.394081
2034.000000	7.415610
2033.000000	7.448067
2032.000000	7.472000
2031.000000	7.490359
2030.000000	7.496151
2029.000000	7.509046
2028.000000	7.532542
2027.000000	7.544673
2026.000000	7.530466
2025.000000	7.560847
2024.000000	7.568387
2023.000000	7.571884
2022.000000	7.582047
2021.000000	7.603248
2020.000000	7.599096
2019.000000	7.587621
2018.000000	7.598658
2017.000000	7.615051
2016.000000	7.607292
2015.000000	7.614504
2014.000000	7.612865
2013.000000	7.600626
2012.000000	7.592866
2011.000000	7.604888
2010.000000	7.591227
2009.000000	7.569480
2008.000000	7.553962
2007.000000	7.557787
2006.000000	7.545328
2005.000000	7.526750
2004.000000	7.528171
2003.000000	7.512434
2002.000000	7.494512
2001.000000	7.473202
2000.000000	7.456044
1999.000000	7.458448
1998.000000	7.399764
1997.000000	7.366323
1996.000000	7.368399
1995.000000	7.352772
1994.000000	7.335614
1993.000000	7.302392
1992.000000	7.258024
1991.000000	7.255729
1990.000000	7.251795
1989.000000	7.229938
1988.000000	7.187645
1987.000000	7.138031
1986.000000	7.134206
1985.000000	7.138359
1984.000000	7.097378
1983.000000	7.063172
1982.000000	7.025032
1981.000000	7.015416
1980.000000	6.985581
1979.000000	6.955638
1978.000000	6.920012
1977.000000	6.895423
1976.000000	6.860125
1975.000000	6.850071
1974.000000	6.828542
1973.000000	6.794992
1972.000000	6.779583
1971.000000	6.776086
1970.000000	6.743520
1969.000000	6.711172
1968.000000	6.700134
1967.000000	6.669972
1966.000000	6.644509
1965.000000	6.629756
1964.000000	6.616970
1963.000000	6.590633
1962.000000	6.556646
1961.000000	6.529872
1960.000000	6.506922
1959.000000	6.497961
1958.000000	6.474247
1957.000000	6.465832
1956.000000	6.448347
1955.000000	6.417747
1954.000000	6.413923
1953.000000	6.385728
1952.000000	6.371193
1951.000000	6.356877
1950.000000	6.326715
1949.000000	6.326496
1948.000000	6.321688
1947.000000	6.302673
1946.000000	6.278302
1945.000000	6.277428
1944.000000	6.247157
1943.000000	6.236229
1942.000000	6.234371
1941.000000	6.201149
1940.000000	6.211203
1939.000000	6.219508
1938.000000	6.222459
1937.000000	6.188253
1936.000000	6.212296
1935.000000	6.208689
1934.000000	6.191860
1933.000000	6.202679
1932.000000	6.214372
1931.000000	6.216776
1930.000000	6.233496
1929.000000	6.233059
1928.000000	6.242895
1927.000000	6.264861
1926.000000	6.279614
1925.000000	6.318956
1924.000000	6.336222
1923.000000	6.366057
1922.000000	6.349446
1921.000000	6.396328
1920.000000	6.414578
1919.000000	6.468018
1918.000000	6.520801
1917.000000	6.532276
1916.000000	6.586590
1915.000000	6.645493
1914.000000	6.662213
1913.000000	6.709751
1912.000000	6.750077
1911.000000	6.820455
1910.000000	6.889303
1909.000000	6.948534
1908.000000	7.013121
1907.000000	7.091804
1906.000000	7.165024
1905.000000	7.248079
1904.000000	7.331790
1903.000000	7.421620
1902.000000	7.510249
1901.000000	7.592211
1900.000000	7.701494
1899.000000	7.830229
1898.000000	7.940058
1897.000000	8.057647
1896.000000	8.209659
1895.000000	8.353803
1894.000000	8.489751
1893.000000	8.632038
1892.000000	8.790826
1891.000000	8.965678
1890.000000	9.146541
1889.000000	9.337021
1888.000000	9.548047
1887.000000	9.744210
1886.000000	9.982118
1885.000000	10.209973
1884.000000	10.452253
1883.000000	10.718904
1882.000000	10.989488
1881.000000	11.269034
1880.000000	11.525193
1879.000000	11.822880
1878.000000	12.071826
1877.000000	12.342301
1876.000000	12.632775
1875.000000	12.903687
1874.000000	13.154055
1873.000000	13.422672
1872.000000	13.675880
1871.000000	13.940017
1870.000000	14.193991
1869.000000	14.443921
1868.000000	14.677130
1867.000000	14.892090
1866.000000	15.076887
1865.000000	15.222343
1864.000000	15.388234
1863.000000	15.522215
1862.000000	15.659911
1861.000000	15.795204
1860.000000	15.899241
1859.000000	16.039014
1858.000000	16.165782
1857.000000	16.256487
1856.000000	16.343257
1855.000000	16.404893
1854.000000	16.449480
1853.000000	16.525650
1852.000000	16.557561
1851.000000	16.597449
1850.000000	16.640725
1849.000000	16.651217
1848.000000	16.668374
1847.000000	16.703891
1846.000000	16.716349
1845.000000	16.710229
1844.000000	16.721048
1843.000000	16.693728
1842.000000	16.687936
1841.000000	16.694493
1840.000000	16.709574
1839.000000	16.706732
1838.000000	16.685750
1837.000000	16.657555
1836.000000	16.650342
1835.000000	16.651763
1834.000000	16.616027
1833.000000	16.586521
1832.000000	16.562260
1831.000000	16.532317
1830.000000	16.499532
1829.000000	16.466638
1828.000000	16.435601
1827.000000	16.382381
1826.000000	16.349268
1825.000000	16.333750
1824.000000	16.308833
1823.000000	16.284572
1822.000000	16.247963
1821.000000	16.240094
1820.000000	16.237909
1819.000000	16.220533
1818.000000	16.190589
1817.000000	16.169498
1816.000000	16.151029
1815.000000	16.131686
1814.000000	16.128516
1813.000000	16.116714
1812.000000	16.088628
1811.000000	16.067974
1810.000000	16.063165
1809.000000	16.042401
1808.000000	16.011256
1807.000000	15.985793
1806.000000	15.966122
1805.000000	15.938364
1804.000000	15.908749
1803.000000	15.873559
1802.000000	15.846239
1801.000000	15.822634
1800.000000	15.785805
1799.000000	15.756190
1798.000000	15.707996
1797.000000	15.660021
1796.000000	15.641770
1795.000000	15.620460
1794.000000	15.588331
1793.000000	15.555000
1792.000000	15.524510
1791.000000	15.493364
1790.000000	15.461126
1789.000000	15.432712
1788.000000	15.406047
1787.000000	15.375776
1786.000000	15.340477
1785.000000	15.300589
1784.000000	15.269444
1783.000000	15.235238
1782.000000	15.207808
1781.000000	15.170980
1780.000000	15.128141
1779.000000	15.101366
1778.000000	15.060932
1777.000000	15.008804
1776.000000	14.939081
1775.000000	14.895368
1774.000000	14.844224
1773.000000	14.796139
1772.000000	14.766414
1771.000000	14.723029
1770.000000	14.652760
1769.000000	14.581945
1768.000000	14.520856
1767.000000	14.460422
1766.000000	14.408076
1765.000000	14.372231
1764.000000	14.329611
1763.000000	14.305350
1762.000000	14.288739
1761.000000	14.291799
1760.000000	14.304913
1759.000000	14.330376
1758.000000	14.363598
1757.000000	14.393213
1756.000000	14.432446
1755.000000	14.470476
1754.000000	14.509053
1753.000000	14.547849
1752.000000	14.562383
1751.000000	14.566536
1750.000000	14.581617
1749.000000	14.575825
1748.000000	14.545226
1747.000000	14.541182
1746.000000	14.509381
1745.000000	14.484465
1744.000000	14.439768
1743.000000	14.367204
1742.000000	14.304694
1741.000000	14.216175
1740.000000	14.140661
1739.000000	14.030503
1738.000000	13.925373
1737.000000	13.834996
1736.000000	13.728773
1735.000000	13.633041
1734.000000	13.590093
1733.000000	13.542992
1732.000000	13.507366
1731.000000	13.499061
1730.000000	13.502995
1729.000000	13.507475
1728.000000	13.522119
1727.000000	13.569111
1726.000000	13.586706
1725.000000	13.625064
1724.000000	13.677192
1723.000000	13.706807
1722.000000	13.743745
1721.000000	13.784398
1720.000000	13.836635
1719.000000	13.886250
1718.000000	13.933679
1717.000000	13.990178
1716.000000	14.050721
1715.000000	14.124924
1714.000000	14.195411
1713.000000	14.272019
1712.000000	14.349063
1711.000000	14.406109
1710.000000	14.451024
1709.000000	14.521293
1708.000000	14.525664
1707.000000	14.538778
1706.000000	14.545881
1705.000000	14.537795
1704.000000	14.522276
1703.000000	14.514189
1702.000000	14.486432
1701.000000	14.450587
1700.000000	14.367969
1699.000000	14.318464
1698.000000	14.254643
1697.000000	14.190494
1696.000000	14.113668
1695.000000	14.106674
1694.000000	14.028318
1693.000000	14.037497
1692.000000	14.062523
1691.000000	14.101974
1690.000000	14.154867
1689.000000	14.220765
1688.000000	14.283165
1687.000000	14.351795
1686.000000	14.393541
1685.000000	14.448510
1684.000000	14.536702
1683.000000	14.627407
1682.000000	14.740405
1681.000000	14.904439
1680.000000	15.094154
1679.000000	15.367907
1678.000000	15.621225
1677.000000	15.900880
1676.000000	16.204796
1675.000000	16.478440
1674.000000	16.711213
1673.000000	16.934041
1672.000000	17.144520
1671.000000	17.338387
1670.000000	17.506683
1669.000000	17.673777
1668.000000	17.809834
1667.000000	17.960753
1666.000000	18.043808
1665.000000	18.143256
1664.000000	18.238113
1663.000000	18.291444
1662.000000	18.387175
1661.000000	18.440396
1660.000000	18.521593
1659.000000	18.573503
1658.000000	18.621041
1657.000000	18.654263
1656.000000	18.683004
1655.000000	18.684862
1654.000000	18.699287
1653.000000	18.706063
1652.000000	18.719286
1651.000000	18.709560
1650.000000	18.711199
1649.000000	18.695572
1648.000000	18.659180
1647.000000	18.657432
1646.000000	18.603883
1645.000000	18.574814
1644.000000	18.556892
1643.000000	18.507605
1642.000000	18.492305
1641.000000	18.460067
1640.000000	18.405863
1639.000000	18.397557
1638.000000	18.338982
1637.000000	18.284340
1636.000000	18.248167
1635.000000	18.191887
1634.000000	18.150469
1633.000000	18.098450
1632.000000	18.033317
1631.000000	17.995833
1630.000000	17.950481
1629.000000	17.896277
1628.000000	17.814314
1627.000000	17.763279
1626.000000	17.718036
1625.000000	17.649188
1624.000000	17.588427
1623.000000	17.538157
1622.000000	17.472696
1621.000000	17.407345
1620.000000	17.360135
1619.000000	17.318061
1618.000000	17.264949
1617.000000	17.219488
1616.000000	17.161240
1615.000000	17.095233
1614.000000	17.054580
1613.000000	17.000157
1612.000000	16.948029
1611.000000	16.866722
1610.000000	16.838309
1609.000000	16.792301
1608.000000	16.731758
1607.000000	16.666407
1606.000000	16.636354
1605.000000	16.567178
1604.000000	16.509477
1603.000000	16.451120
1602.000000	16.392216
1601.000000	16.347191
1600.000000	16.302823
1599.000000	16.235504
1598.000000	16.155072
1597.000000	16.118025
1596.000000	16.057701
1595.000000	16.001639
1594.000000	15.947763
1593.000000	15.898367
1592.000000	15.836622
1591.000000	15.806897
1590.000000	15.757064
1589.000000	15.704062
1588.000000	15.665594
1587.000000	15.606800
1586.000000	15.554453
1585.000000	15.521887
1584.000000	15.484075
1583.000000	15.433149
1582.000000	15.409981
1581.000000	15.361350
1580.000000	15.332172
1579.000000	15.309988
1578.000000	15.271192
1577.000000	15.240702
1576.000000	15.220266
1575.000000	15.192618
1574.000000	15.156882
1573.000000	15.142238
1572.000000	15.137321
1571.000000	15.120928
1570.000000	15.099181
1569.000000	15.075029
1568.000000	15.078854
1567.000000	15.049457
1566.000000	15.036890
1565.000000	15.031425
1564.000000	15.034485
1563.000000	15.025743
1562.000000	15.017328
1561.000000	15.003995
1560.000000	14.994706
1559.000000	14.984871
1558.000000	14.940502
1557.000000	14.920503
1556.000000	14.908482
1555.000000	14.881271
1554.000000	14.848923
1553.000000	14.819854
1552.000000	14.796139
1551.000000	14.757235
1550.000000	14.705107
1549.000000	14.676693
1548.000000	14.655055
1547.000000	14.620850
1546.000000	14.573421
1545.000000	14.545881
1544.000000	14.509600
1543.000000	14.472771
1542.000000	14.450478
1541.000000	14.423703
1540.000000	14.389607
1539.000000	14.367969
1538.000000	14.346659
1537.000000	14.331141
1536.000000	14.295514
1535.000000	14.250490
1534.000000	14.224590
1533.000000	14.208525
1532.000000	14.185357
1531.000000	14.141972
1530.000000	14.121427
1529.000000	14.083178
1528.000000	14.042743
1527.000000	14.003183
1526.000000	13.958267
1525.000000	13.931712
1524.000000	13.903407
1523.000000	13.850842
1522.000000	13.805053
1521.000000	13.775874
1520.000000	13.735986
1519.000000	13.698939
1518.000000	13.648122
1517.000000	13.595230
1516.000000	13.552063
1515.000000	13.495126
1514.000000	13.462560
1513.000000	13.426825
1512.000000	13.373932
1511.000000	13.341803
1510.000000	13.299947
1509.000000	13.246945
1508.000000	13.207822
1507.000000	13.163016
1506.000000	13.105096
1505.000000	13.051766
1504.000000	13.003572
1503.000000	12.955269
1502.000000	12.914616
1501.000000	12.875165
1500.000000	12.832544
1499.000000	12.794623
1498.000000	12.751675
1497.000000	12.719874
1496.000000	12.677035
1495.000000	12.647638
1494.000000	12.621410
1493.000000	12.579882
1492.000000	12.561632
1491.000000	12.527864
1490.000000	12.508630
1489.000000	12.500652
1488.000000	12.464479
1487.000000	12.444699
1486.000000	12.427433
1485.000000	12.389184
1484.000000	12.377600
1483.000000	12.343613
1482.000000	12.333340
1481.000000	12.316838
1480.000000	12.290720
1479.000000	12.265366
1478.000000	12.257825
1477.000000	12.262634
1476.000000	12.246023
1475.000000	12.241105
1474.000000	12.245586
1473.000000	12.233018
1472.000000	12.252361
1471.000000	12.247006
1470.000000	12.239794
1469.000000	12.242854
1468.000000	12.227663
1467.000000	12.231488
1466.000000	12.249192
1465.000000	12.247006
1464.000000	12.257716
1463.000000	12.265366
1462.000000	12.285802
1461.000000	12.307331
1460.000000	12.326783
1459.000000	12.335307
1458.000000	12.356508
1457.000000	12.386124
1456.000000	12.421531
1455.000000	12.456283
1454.000000	12.485462
1453.000000	12.530268
1452.000000	12.560211
1451.000000	12.605236
1450.000000	12.639660
1449.000000	12.662609
1448.000000	12.691132
1447.000000	12.746101
1446.000000	12.806207
1445.000000	12.871886
1444.000000	12.905108
1443.000000	12.950788
1442.000000	12.989256
1441.000000	13.039526
1440.000000	13.099085
1439.000000	13.156677
1438.000000	13.234924
1437.000000	13.309236
1436.000000	13.359288
1435.000000	13.428245
1434.000000	13.495564
1433.000000	13.564958
1432.000000	13.654242
1431.000000	13.740248
1430.000000	13.842865
1429.000000	13.915319
1428.000000	14.000013
1427.000000	14.116509
1426.000000	14.215410
1425.000000	14.344801
1424.000000	14.475722
1423.000000	14.614948
1422.000000	14.722701
1421.000000	14.862474
1420.000000	15.029458
1419.000000	15.182782
1418.000000	15.330861
1417.000000	15.509429
1416.000000	15.673353
1415.000000	15.873778
1414.000000	16.078574
1413.000000	16.300528
1412.000000	16.521498
1411.000000	16.725638
1410.000000	16.963438
1409.000000	17.242328
1408.000000	17.526354
1407.000000	17.832565
1406.000000	18.140305
1405.000000	18.432528
1404.000000	18.800702
1403.000000	19.118606
1402.000000	19.484376
1401.000000	19.804575
1400.000000	20.210779
1399.000000	20.616984
1398.000000	20.979803
1397.000000	21.270495
1396.000000	21.592661
1395.000000	22.054491
1394.000000	22.476978
1393.000000	22.834334
1392.000000	23.169941
1391.000000	23.615269
1390.000000	24.078082
1389.000000	24.483959
1388.000000	24.947318
1387.000000	25.543129
1386.000000	26.061567
1385.000000	26.623718
1384.000000	27.136692
1383.000000	27.747146
1382.000000	28.358475
1381.000000	28.944668
1380.000000	29.467368
1379.000000	29.873901
1378.000000	30.211148
1377.000000	30.532767
1376.000000	30.819416
1375.000000	31.088908
1374.000000	31.355340
1373.000000	31.614012
1372.000000	31.947434
1371.000000	32.278015
1370.000000	32.672308
1369.000000	32.985840
1368.000000	33.318825
1367.000000	33.617605
1366.000000	33.928733
1365.000000	34.177680
1364.000000	34.417774
1363.000000	34.624756
1362.000000	34.846163
1361.000000	35.046151
1360.000000	35.261329
1359.000000	35.389081
1358.000000	35.552349
1357.000000	35.674309
1356.000000	35.855937
1355.000000	36.063247
1354.000000	36.360824
1353.000000	36.728780
1352.000000	37.051711
1351.000000	37.510043
1350.000000	37.964004
1349.000000	38.417200
1348.000000	38.842202
1347.000000	39.257367
1346.000000	39.681057
1345.000000	40.050215
1344.000000	40.407023
1343.000000	40.832243
1342.000000	41.203914
1341.000000	41.539522
1340.000000	41.915674
1339.000000	42.300131
1338.000000	42.656830
1337.000000	43.012765
1336.000000	43.357443
1335.000000	43.720153
1334.000000	44.053684
1333.000000	44.414646
1332.000000	44.773859
1331.000000	45.087610
1330.000000	45.422999
1329.000000	45.745930
1328.000000	46.072795
1327.000000	46.397584
1326.000000	46.698986
1325.000000	46.981264
1324.000000	47.254581
1323.000000	47.552814
1322.000000	47.809301
1321.000000	48.056826
1320.000000	48.302604
1319.000000	48.564008
1318.000000	48.789459
1317.000000	49.019609
1316.000000	49.276423
1315.000000	49.483952
1314.000000	49.684704
1313.000000	49.895511
1312.000000	50.091237
1311.000000	50.262592
1310.000000	50.450012
1309.000000	50.620822
1308.000000	50.766168
1307.000000	50.926486
1306.000000	51.047790
1305.000000	51.178602
1304.000000	51.305698
1303.000000	51.417603
1302.000000	51.520111
1301.000000	51.617591
1300.000000	51.700755
1299.000000	51.779657
1298.000000	51.833643
1297.000000	51.892765
1296.000000	51.948062
1295.000000	52.007184
1294.000000	52.054941
1293.000000	52.110020
1292.000000	52.143679
1291.000000	52.174278
1290.000000	52.186190
1289.000000	52.190015
1288.000000	52.202473
1287.000000	52.197774
1286.000000	52.189796
1285.000000	52.166082
1284.000000	52.129691
1283.000000	52.100075
1282.000000	52.063574
1281.000000	52.019861
1280.000000	51.985984
1279.000000	51.948281
1278.000000	51.896699
1277.000000	51.851128
1276.000000	51.819218
1275.000000	51.784794
1274.000000	51.747747
1273.000000	51.718240
1272.000000	51.694308
1271.000000	51.680866
1270.000000	51.679664
1269.000000	51.653217
1268.000000	51.622618
1267.000000	51.583713
1266.000000	51.556502
1265.000000	51.531913
1264.000000	51.486670
1263.000000	51.451590
1262.000000	51.411702
1261.000000	51.367989
1260.000000	51.309413
1259.000000	51.258050
1258.000000	51.211605
1257.000000	51.159477
1256.000000	51.100683
1255.000000	51.028119
1254.000000	50.955009
1253.000000	50.885833
1252.000000	50.803652
1251.000000	50.715023
1250.000000	50.626395
1249.000000	50.516347
1248.000000	50.397010
1247.000000	50.287837
1246.000000	50.183799
1245.000000	50.060747
1244.000000	49.910155
1243.000000	49.782622
1242.000000	49.655198
1241.000000	49.510617
1240.000000	49.367238
1239.000000	49.221017
1238.000000	49.070207
1237.000000	48.934149
1236.000000	48.784213
1235.000000	48.629578
1234.000000	48.481718
1233.000000	48.315827
1232.000000	48.144143
1231.000000	47.976285
1230.000000	47.793673
1229.000000	47.604832
1228.000000	47.405719
1227.000000	47.197316
1226.000000	47.000279
1225.000000	46.783134
1224.000000	46.557902
1223.000000	46.345893
1222.000000	46.132027
1221.000000	45.905592
1220.000000	45.678284
1219.000000	45.458079
1218.000000	45.233940
1217.000000	45.029581
1216.000000	44.832653
1215.000000	44.633321
1214.000000	44.435519
1213.000000	44.254109
1212.000000	44.085267
1211.000000	43.920578
1210.000000	43.784849
1209.000000	43.633601
1208.000000	43.500494
1207.000000	43.378098
1206.000000	43.236248
1205.000000	43.126856
1204.000000	43.031671
1203.000000	42.968505
1202.000000	42.898236
1201.000000	42.828186
1200.000000	42.766004
1199.000000	42.703057
1198.000000	42.632133
1197.000000	42.540226
1196.000000	42.441871
1195.000000	42.301880
1194.000000	42.103640
1193.000000	41.880485
1192.000000	41.634270
1191.000000	41.350135
1190.000000	41.023270
1189.000000	40.697060
1188.000000	40.396314
1187.000000	40.137095
1186.000000	39.972843
1185.000000	39.901590
1184.000000	39.916999
1183.000000	40.035024
1182.000000	40.279490
1181.000000	40.615754
1180.000000	41.022505
1179.000000	41.473187
1178.000000	41.906931
1177.000000	42.326140
1176.000000	42.741962
1175.000000	43.114835
1174.000000	43.437657
1173.000000	43.744851
1172.000000	44.037401
1171.000000	44.343393
1170.000000	44.658237
1169.000000	44.988818
1168.000000	45.327595
1167.000000	45.665061
1166.000000	46.001434
1165.000000	46.375837
1164.000000	46.761824
1163.000000	47.150762
1162.000000	47.563414
1161.000000	47.984700
1160.000000	48.400958
1159.000000	48.834265
1158.000000	49.278718
1157.000000	49.696507
1156.000000	50.080308
1155.000000	50.465531
1154.000000	50.808242
1153.000000	51.142320
1152.000000	51.438258
1151.000000	51.690046
1150.000000	51.918010
1149.000000	52.146957
1148.000000	52.368255
1147.000000	52.580592
1146.000000	52.841450
1145.000000	53.139137
1144.000000	53.472122
1143.000000	53.839094
1142.000000	54.257866
1141.000000	54.739257
1140.000000	55.238898
1139.000000	55.756462
1138.000000	56.292167
1137.000000	56.842953
1136.000000	57.415923
1135.000000	58.021350
1134.000000	58.661202
1133.000000	59.276683
1132.000000	59.784411
1131.000000	60.313887
1130.000000	60.746975
1129.000000	61.151977
1128.000000	61.525725
1127.000000	61.842755
1126.000000	62.098477
1125.000000	62.328408
1124.000000	62.501949
1123.000000	62.671337
1122.000000	62.787396
1121.000000	62.898318
1120.000000	62.990553
1119.000000	63.072515
1118.000000	63.150215
1117.000000	63.200813
1116.000000	63.237532
1115.000000	63.253160
1114.000000	63.263979
1113.000000	63.262449
1112.000000	63.283977
1111.000000	63.285398
1110.000000	63.274142
1109.000000	63.308457
1108.000000	63.288786
1107.000000	63.300807
1106.000000	63.295015
1105.000000	63.289114
1104.000000	63.291409
1103.000000	63.308457
1102.000000	63.294469
1101.000000	63.273158
1100.000000	63.278076
1099.000000	63.281136
1098.000000	63.262667
1097.000000	63.233161
1096.000000	63.250865
1095.000000	63.215785
1094.000000	63.178410
1093.000000	63.158958
1092.000000	63.117430
1091.000000	63.083771
1090.000000	63.045304
1089.000000	63.005197
1088.000000	62.935146
1087.000000	62.898755
1086.000000	62.829142
1085.000000	62.784555
1084.000000	62.733192
1083.000000	62.642596
1082.000000	62.594184
1081.000000	62.519871
1080.000000	62.474519
1079.000000	62.369170
1078.000000	62.348188
1077.000000	62.254423
1076.000000	62.180657
1075.000000	62.101427
1074.000000	62.034437
1073.000000	61.959359
1072.000000	61.898817
1071.000000	61.805489
1070.000000	61.700250
1069.000000	61.623642
1068.000000	61.547472
1067.000000	61.471630
1066.000000	61.369560
1065.000000	61.267926
1064.000000	61.205963
1063.000000	61.115586
1062.000000	61.014172
1061.000000	60.933193
1060.000000	60.827298
1059.000000	60.746319
1058.000000	60.653319
1057.000000	60.530158
1056.000000	60.425246
1055.000000	60.333448
1054.000000	60.224603
1053.000000	60.094337
1052.000000	60.006146
1051.000000	59.924184
1050.000000	59.820037
1049.000000	59.735452
1048.000000	59.624967
1047.000000	59.518417
1046.000000	59.426291
1045.000000	59.349575
1044.000000	59.260618
1043.000000	59.171771
1042.000000	59.068608
1041.000000	58.976592
1040.000000	58.887417
1039.000000	58.787751
1038.000000	58.701090
1037.000000	58.617270
1036.000000	58.507550
1035.000000	58.406791
1034.000000	58.286689
1033.000000	58.193143
1032.000000	58.085390
1031.000000	57.978402
1030.000000	57.883326
1029.000000	57.766502
1028.000000	57.634707
1027.000000	57.518649
1026.000000	57.420950
1025.000000	57.293198
1024.000000	57.161731
1023.000000	57.054743
1022.000000	56.937701
1021.000000	56.817271
1020.000000	56.711595
1019.000000	56.584280
1018.000000	56.456310
1017.000000	56.357518
1016.000000	56.249328
1015.000000	56.149116
1014.000000	56.057755
1013.000000	55.956013
1012.000000	55.885197
1011.000000	55.808153
1010.000000	55.731218
1009.000000	55.677123
1008.000000	55.610679
1007.000000	55.545874
1006.000000	55.501505
1005.000000	55.450361
1004.000000	55.411019
1003.000000	55.357798
1002.000000	55.288185
1001.000000	55.248515
1000.000000	55.216167
999.000000	55.155078
998.000000	55.100437
997.000000	55.040222
996.000000	54.995744
995.000000	54.959353
994.000000	54.920776
993.000000	54.868211
992.000000	54.826465
991.000000	54.797833
990.000000	54.767998
989.000000	54.720132
988.000000	54.671720
987.000000	54.643088
986.000000	54.632925
985.000000	54.602872
984.000000	54.554022
983.000000	54.528450
982.000000	54.530089
981.000000	54.514681
980.000000	54.500583
979.000000	54.507140
978.000000	54.483753
977.000000	54.463536
976.000000	54.447909
975.000000	54.452171
974.000000	54.451406
973.000000	54.445832
972.000000	54.445942
971.000000	54.446051
970.000000	54.447362
969.000000	54.448783
968.000000	54.448346
967.000000	54.440477
966.000000	54.441242
965.000000	54.461788
964.000000	54.475885
963.000000	54.488890
962.000000	54.496977
961.000000	54.527467
960.000000	54.558284
959.000000	54.579922
958.000000	54.606697
957.000000	54.622106
956.000000	54.650191
955.000000	54.684615
954.000000	54.704177
953.000000	54.737181
952.000000	54.769965
951.000000	54.803406
950.000000	54.848540
949.000000	54.873893
948.000000	54.884275
947.000000	54.916951
946.000000	54.940337
945.000000	54.945692
944.000000	54.954763
943.000000	54.966784
942.000000	54.969407
941.000000	54.954107
940.000000	54.947004
939.000000	54.948315
938.000000	54.930502
937.000000	54.908645
936.000000	54.888210
935.000000	54.867992
934.000000	54.869522
933.000000	54.856517
932.000000	54.839469
931.000000	54.815755
930.000000	54.795210
929.000000	54.776632
928.000000	54.747125
927.000000	54.711936
926.000000	54.695872
925.000000	54.672266
924.000000	54.645711
923.000000	54.620139
922.000000	54.571398
921.000000	54.542657
920.000000	54.514790
919.000000	54.474027
918.000000	54.452280
917.000000	54.408676
916.000000	54.352286
915.000000	54.303109
914.000000	54.248467
913.000000	54.197432
912.000000	54.156670
911.000000	54.110443
910.000000	54.083778
909.000000	54.044983
908.000000	54.009794
907.000000	53.964441
906.000000	53.930891
905.000000	53.924006
904.000000	53.917122
903.000000	53.918870
902.000000	53.914062
901.000000	53.912860
900.000000	53.916138
899.000000	53.932421
898.000000	53.945207
897.000000	53.924334
896.000000	53.921602
895.000000	53.922258
894.000000	53.933951
893.000000	53.913187
892.000000	53.897123
891.000000	53.893954
890.000000	53.887287
889.000000	53.879965
888.000000	53.854503
887.000000	53.846743
886.000000	53.829695
885.000000	53.800735
884.000000	53.780846
883.000000	53.776365
882.000000	53.726204
881.000000	53.690250
880.000000	53.667410
879.000000	53.622058
878.000000	53.568181
877.000000	53.492339
876.000000	53.431906
875.000000	53.380433
874.000000	53.281314
873.000000	53.176074
872.000000	53.081217
871.000000	53.042640
870.000000	53.051710
869.000000	53.096189
868.000000	53.139902
867.000000	53.148972
866.000000	53.194325
865.000000	53.209733
864.000000	53.219788
863.000000	53.251917
862.000000	53.289401
861.000000	53.324262
860.000000	53.332349
859.000000	53.350162
858.000000	53.363167
857.000000	52.580800
856.000000	53.702000
855.000000	53.806700
854.000000	53.700400
853.000000	53.498300
852.000000	54.130700
851.000000	54.052500
850.000000	53.403100
849.000000	53.785800
848.000000	53.889300
847.000000	53.912400
846.000000	53.758300
845.000000	53.572800
844.000000	53.788200
843.000000	53.509700
842.000000	53.707900
841.000000	53.642300
840.000000	53.646000
839.000000	53.729000
838.000000	53.661800
837.000000	53.619800
836.000000	53.398200
835.000000	53.335700
834.000000	53.544500
833.000000	53.394300
832.000000	53.362900
831.000000	53.396900
830.000000	53.198000
829.000000	53.129300
828.000000	53.181400
827.000000	53.051500
826.000000	53.072300
825.000000	53.065700
824.000000	53.046700
823.000000	52.800700
822.000000	52.690600
821.000000	52.667000
820.000000	52.668700
819.000000	52.500300
818.000000	52.639200
817.000000	52.457100
816.000000	52.305400
815.000000	52.204900
814.000000	52.203800
813.000000	51.988100
812.000000	51.994300
811.000000	51.956800
810.000000	51.868700
809.000000	51.608700
808.000000	51.577200
807.000000	51.535600
806.000000	51.440000
805.000000	51.391700
804.000000	51.280100
803.000000	51.141900
802.000000	51.100700
801.000000	50.960100
800.000000	50.752300
799.000000	50.652600
798.000000	50.486000
797.000000	50.355100
796.000000	50.136700
795.000000	50.068600
794.000000	49.904500
793.000000	49.974000
792.000000	49.712400
791.000000	49.489200
790.000000	49.419600
789.000000	49.418000
788.000000	49.154600
787.000000	49.123200
786.000000	49.055900
785.000000	48.700000
784.000000	48.652900
783.000000	48.466200
782.000000	48.273700
781.000000	48.216000
780.000000	48.118300
779.000000	47.899400
778.000000	47.639300
777.000000	47.576600
776.000000	47.319100
775.000000	47.277100
774.000000	47.137400
773.000000	46.928400
772.000000	46.750300
771.000000	46.669000
770.000000	46.416400
769.000000	46.358800
768.000000	46.129600
767.000000	45.927800
766.000000	45.763100
765.000000	45.565800
764.000000	45.498500
763.000000	45.242300
762.000000	45.044400
761.000000	44.895400
760.000000	44.686800
759.000000	44.445800
758.000000	44.239300
757.000000	44.088500
756.000000	43.856100
755.000000	43.588800
754.000000	43.430600
753.000000	43.181700
752.000000	43.031900
751.000000	42.876900
750.000000	42.669300
749.000000	42.418400
748.000000	42.285000
747.000000	41.980600
746.000000	41.729800
745.000000	41.587000
744.000000	41.282200
743.000000	41.083000
742.000000	40.867000
741.000000	40.532700
740.000000	40.335700
739.000000	40.102200
738.000000	39.833300
737.000000	39.676600
736.000000	39.358600
735.000000	39.082400
734.000000	38.915600
733.000000	38.693300
732.000000	38.529100
731.000000	38.226300
730.000000	37.964100
729.000000	37.727700
728.000000	37.504600
727.000000	37.253900
726.000000	37.018300
725.000000	36.831700
724.000000	36.593600
723.000000	36.313700
722.000000	36.065100
721.000000	35.813300
720.000000	35.561600
719.000000	35.332200
718.000000	35.070700
717.000000	34.916000
716.000000	34.699800
715.000000	34.436500
714.000000	34.180700
713.000000	33.926000
712.000000	33.701400
711.000000	33.485500
710.000000	33.256700
709.000000	32.991000
708.000000	32.821400
707.000000	32.617800
706.000000	32.379500
705.000000	32.173200
704.000000	31.965600
703.000000	31.765200
702.000000	31.517900
701.000000	31.308200
700.000000	31.145500
699.000000	30.973000
698.000000	30.775000
697.000000	30.553600
696.000000	30.369100
695.000000	30.198400
694.000000	30.022300
693.000000	29.844300
692.000000	29.684200
691.000000	29.509100
690.000000	29.379900
689.000000	29.207200
688.000000	29.017100
687.000000	28.838300
686.000000	28.721900
685.000000	28.563200
684.000000	28.422000
683.000000	28.281500
682.000000	28.122400
681.000000	27.976000
680.000000	27.862200
679.000000	27.742100
678.000000	27.600000
677.000000	27.476800
676.000000	27.353500
675.000000	27.213300
674.000000	27.079400
673.000000	26.981000
672.000000	26.866200
671.000000	26.727700
670.000000	26.612600
669.000000	26.487000
668.000000	26.388600
667.000000	26.282500
666.000000	26.182100
665.000000	26.084900
664.000000	25.999100
663.000000	25.897000
662.000000	25.817200
661.000000	25.742800
660.000000	25.641300
659.000000	25.548200
658.000000	25.445400
657.000000	25.362500
656.000000	25.285800
655.000000	25.197600
654.000000	25.128400
653.000000	25.062500
652.000000	24.991900
651.000000	24.916700
650.000000	24.833100
649.000000	24.768300
648.000000	24.707100
647.000000	24.650000
646.000000	24.587400
645.000000	24.527200
644.000000	24.461300
643.000000	24.386300
642.000000	24.315900
641.000000	24.252800
640.000000	24.201200
639.000000	24.152800
638.000000	24.112600
637.000000	24.069100
636.000000	24.026800
635.000000	23.983800
634.000000	23.953300
633.000000	23.927800
632.000000	23.895200
631.000000	23.861100
630.000000	23.839200
629.000000	23.825300
628.000000	23.814700
627.000000	23.802700
626.000000	23.803000
625.000000	23.806200
624.000000	23.802100
623.000000	23.815300
622.000000	23.824400
621.000000	23.831200
620.000000	23.858900
619.000000	23.881200
618.000000	23.882500
617.000000	23.926500
616.000000	23.962100
615.000000	23.994100
614.000000	24.043600
613.000000	24.084000
612.000000	24.119400
611.000000	24.174600
610.000000	24.230800
609.000000	24.261800
608.000000	24.292900
607.000000	24.344000
606.000000	24.398200
605.000000	24.446300
604.000000	24.485900
603.000000	24.538900
602.000000	24.578100
601.000000	24.623400
600.000000	24.683700
599.000000	24.718400
598.000000	24.755000
597.000000	24.789300
596.000000	24.831300
595.000000	24.871000
594.000000	24.888100
593.000000	24.902000
592.000000	24.911300
591.000000	24.946400
590.000000	24.971400
589.000000	24.974600
588.000000	24.974900
587.000000	24.981200
586.000000	24.981500
585.000000	24.950800
584.000000	24.960300
583.000000	24.934300
582.000000	24.903700
581.000000	24.893300
580.000000	24.869400
579.000000	24.828200
578.000000	24.797500
577.000000	24.773500
576.000000	24.711500
575.000000	24.667100
574.000000	24.615400
573.000000	24.542100
572.000000	24.463100
571.000000	24.393300
570.000000	24.331700
569.000000	24.251400
568.000000	24.163300
567.000000	24.080200
566.000000	23.977700
565.000000	23.871800
564.000000	23.765300
563.000000	23.656600
562.000000	23.510000
561.000000	23.386900
560.000000	23.269400
559.000000	23.123800
558.000000	22.980000
557.000000	22.842600
556.000000	22.685800
555.000000	22.545800
554.000000	22.387300
553.000000	22.184400
552.000000	22.007900
551.000000	21.826800
550.000000	21.631900
549.000000	21.447400
548.000000	21.257500
547.000000	21.059200
546.000000	20.864100
545.000000	20.653400
544.000000	20.434100
543.000000	20.212100
542.000000	19.998700
541.000000	19.792900
540.000000	19.577100
539.000000	19.350200
538.000000	19.127500
537.000000	18.901500
536.000000	18.679500
535.000000	18.445000
534.000000	18.215000
533.000000	17.972000
532.000000	17.737200
531.000000	17.507500
530.000000	17.265900
529.000000	17.039400
528.000000	16.803600
527.000000	16.578400
526.000000	16.348700
525.000000	16.120100
524.000000	15.895200
523.000000	15.664300
522.000000	15.458900
521.000000	15.227100
520.000000	15.032100
519.000000	14.843700
518.000000	14.634700
517.000000	14.449300
516.000000	14.255300
515.000000	14.053500
514.000000	13.895700
513.000000	13.723100
512.000000	13.557500
511.000000	13.395900
510.000000	13.251900
509.000000	13.087500
508.000000	12.956100
507.000000	12.803300
506.000000	12.677700
505.000000	12.537100
504.000000	12.440700
503.000000	12.311400
502.000000	12.190000
501.000000	12.089000
500.000000	11.949700
499.000000	11.866600
498.000000	11.764400
497.000000	11.689600
496.000000	11.602100
495.000000	11.515300
494.000000	11.415200
493.000000	11.362800
492.000000	11.282800
491.000000	11.213600
490.000000	11.144500
489.000000	11.087200
488.000000	11.036000
487.000000	10.953500
486.000000	10.894500
485.000000	10.834900
484.000000	10.795000
483.000000	10.737300
482.000000	10.669200
481.000000	10.611800
480.000000	10.552800
479.000000	10.486000
478.000000	10.430900
477.000000	10.361400
476.000000	10.279800
475.000000	10.242700
474.000000	10.187600
473.000000	10.124700
472.000000	10.071800
471.000000	10.010900
470.000000	9.960200
469.000000	9.896600
468.000000	9.859500
467.000000	9.830400
466.000000	9.763700
465.000000	9.715700
464.000000	9.679000
463.000000	9.642300
462.000000	9.605200
461.000000	9.553500
460.000000	9.517600
459.000000	9.452200
458.000000	9.418700
457.000000	9.393700
456.000000	9.321600
455.000000	9.299900
454.000000	9.255200
453.000000	9.202000
452.000000	9.160700
451.000000	9.094300
450.000000	9.068000
449.000000	9.005700
448.000000	8.949700
447.000000	8.896000
446.000000	8.862700
445.000000	8.801300
444.000000	8.730000
443.000000	8.675200
442.000000	8.612000
441.000000	8.534500
440.000000	8.473300
439.000000	8.415400
438.000000	8.347300
437.000000	8.305200
436.000000	8.218600
435.000000	8.142100
434.000000	8.085600
433.000000	7.998000
432.000000	7.906400
431.000000	7.846000
430.000000	7.757600
429.000000	7.698000
428.000000	7.639700
427.000000	7.562400
426.000000	7.478200
425.000000	7.417100
424.000000	7.341000
423.000000	7.272300
422.000000	7.192000
421.000000	7.117200
420.000000	7.065200
419.000000	6.999600
418.000000	6.926800
417.000000	6.845800
416.000000	6.767800
415.000000	6.705700
414.000000	6.634700
413.000000	6.579100
412.000000	6.499300
411.000000	6.435400
410.000000	6.385200
409.000000	6.319100
408.000000	6.245800
407.000000	6.191700
406.000000	6.139400
405.000000	6.063700
404.000000	6.006100
403.000000	5.949400
402.000000	5.910200
401.000000	5.857000
400.000000	5.782400
399.000000	5.748700
398.000000	5.686400
397.000000	5.623200
396.000000	5.577700
395.000000	5.525100
394.000000	5.483200
393.000000	5.434200
392.000000	5.390900
391.000000	5.347200
390.000000	5.291900
389.000000	5.252000
388.000000	5.225100
387.000000	5.181700
386.000000	5.133300
385.000000	5.098900
384.000000	5.060500
383.000000	5.053600
382.000000	5.040500
381.000000	4.996300
380.000000	4.938600
379.000000	4.910800
378.000000	4.885000
377.000000	4.869400
376.000000	4.839400
375.000000	4.657800
374.000000	4.328300
373.000000	4.246000
372.000000	4.340800
371.000000	4.506700
370.000000	4.621400
369.000000	4.682300
368.000000	4.576500
367.000000	4.674200
366.000000	4.639300
365.000000	4.502900
364.000000	4.511700
363.000000	4.463300
362.000000	4.555800
361.000000	4.618300
360.000000	4.636500
359.000000	4.454100
358.000000	4.454100
357.000000	4.602600
356.000000	4.576800
355.000000	4.637300
354.000000	4.639700
353.000000	4.543500
352.000000	4.541300
351.000000	4.594700
350.000000	4.708700
349.000000	4.703600
348.000000	4.488800
347.000000	4.423100
346.000000	4.491100
345.000000	4.547000
344.000000	4.646500
343.000000	4.513000
342.000000	4.453500
341.000000	4.641200
340.000000	4.692800
339.000000	4.785400
338.000000	4.839900
337.000000	4.619600
336.000000	4.461900
335.000000	4.461000
334.000000	4.498000
333.000000	4.727600
332.000000	5.083500
331.000000	4.792600
330.000000	4.549000
329.000000	4.819800
328.000000	4.840100
327.000000	4.994000
326.000000	5.248400
325.000000	5.146000
324.000000	4.831000
323.000000	4.931800
322.000000	5.585300
321.000000	5.723300
320.000000	5.552300
319.000000	5.038900
318.000000	5.069200
317.000000	5.727200
316.000000	5.116100
315.000000	4.457600
314.000000	4.468000
313.000000	4.466900
312.000000	4.436200
311.000000	4.452000
310.000000	4.433500
309.000000	4.479100
308.000000	4.537000
307.000000	4.520000
306.000000	4.495400
305.000000	4.462800
304.000000	4.469700
303.000000	4.500700
302.000000	4.463000
301.000000	4.500000
300.000000	4.516100
299.000000	4.480200
298.000000	4.486600
297.000000	4.483000
296.000000	4.468100
295.000000	4.490600
294.000000	4.532600
293.000000	4.540200
292.000000	4.532000
291.000000	4.538000
290.000000	4.544500
289.000000	4.531300
288.000000	4.507700
287.000000	4.515700
286.000000	4.526300
285.000000	4.560800
284.000000	4.554600
283.000000	4.545400
282.000000	4.543800
281.000000	4.574900
280.000000	4.599600
279.000000	4.636500
278.000000	4.614200
277.000000	4.614000
276.000000	4.634300
275.000000	4.663400
274.000000	4.629700
273.000000	4.671100
272.000000	4.705300
271.000000	4.659900
270.000000	4.693600
269.000000	4.709600
268.000000	4.713100
267.000000	4.739200
266.000000	4.780000
265.000000	4.764600
264.000000	4.785400
263.000000	4.843300
262.000000	4.867100
261.000000	4.835900
260.000000	4.841700
259.000000	4.899900
258.000000	4.874200
257.000000	4.947200
256.000000	4.976900
255.000000	4.957600
254.000000	4.985800
253.000000	4.981000
252.000000	4.975200
251.000000	5.020900
250.000000	5.031600
