PE UV       SUBTECH     SPECTRUM    ASCII       PEDS        4.00        
   -1
CICIMAUCR0018-3.Sample.ASC
24/04/17
10:35:40.00
24/04/17
10:35:40.00
Vinicio Soto Monge
C. cupreomarginata
250,000000
1
Lambda 1050
1050L1511233
PerkinElmer UV WinLab 6.3.2.0749 / 2.02.05 Lambda 900 UV/VIS/NIR, Aug  7 2015 09:38:08

0
0
3350/servo 860,8/2
0
0
UV/VIS
1
1
1
DoubleDePol,CommonBeamDepol,RBeamAtt,SBeamAtt,60mm sphere, WB InGaAs Detector
0
0
0
0
Program
Program
3350/servo 860,8/2
3350/0,2 860,8/0,2
3350/0,2 860,8/0,2
0
15.00
 
 
 
0
 
860,8
319,2
860,8
Front
100
on
S:100 R:100
0
0
0
0
 
0
 
 
 
0
 
 
0
0
0
0
0
 
 
 
 
0
0


0
0
#HDR
-1
-1
#GR
nm
%R
1.0
0.0
2500,000000
-1,000000
2251
8
67,966100
4,192900
#DATA
2482.000000	16.903258
2481.000000	16.899878
2480.000000	16.946069
2479.000000	16.914749
2478.000000	17.043293
2477.000000	16.973783
2476.000000	16.941675
2475.000000	17.003525
2474.000000	17.102665
2473.000000	17.106383
2472.000000	17.121591
2471.000000	17.184455
2470.000000	17.259486
2469.000000	17.290805
2468.000000	17.346234
2467.000000	17.418223
2466.000000	17.435460
2465.000000	17.488973
2464.000000	17.545528
2463.000000	17.589352
2462.000000	17.639711
2461.000000	17.728148
2460.000000	17.774902
2459.000000	17.825486
2458.000000	17.936567
2457.000000	18.004501
2456.000000	18.075363
2455.000000	18.159069
2454.000000	18.255618
2453.000000	18.374135
2452.000000	18.450293
2451.000000	18.584132
2450.000000	18.681019
2449.000000	18.788608
2448.000000	18.895634
2447.000000	19.004576
2446.000000	19.117798
2445.000000	19.248483
2444.000000	19.368464
2443.000000	19.453860
2442.000000	19.579700
2441.000000	19.699457
2440.000000	19.816284
2439.000000	19.913509
2438.000000	20.007354
2437.000000	20.135673
2436.000000	20.241347
2435.000000	20.342064
2434.000000	20.429263
2433.000000	20.549582
2432.000000	20.633288
2431.000000	20.715642
2430.000000	20.821542
2429.000000	20.928906
2428.000000	20.995600
2427.000000	21.085276
2426.000000	21.181713
2425.000000	21.259785
2424.000000	21.325916
2423.000000	21.385175
2422.000000	21.467641
2421.000000	21.524985
2420.000000	21.581540
2419.000000	21.646093
2418.000000	21.725067
2417.000000	21.777003
2416.000000	21.832319
2415.000000	21.906449
2414.000000	21.968411
2413.000000	22.020234
2412.000000	22.078366
2411.000000	22.136386
2410.000000	22.164438
2409.000000	22.200714
2408.000000	22.243299
2407.000000	22.284195
2406.000000	22.314500
2405.000000	22.343453
2404.000000	22.373871
2403.000000	22.406092
2402.000000	22.425694
2401.000000	22.449015
2400.000000	22.498697
2399.000000	22.526750
2398.000000	22.530693
2397.000000	22.561899
2396.000000	22.572827
2395.000000	22.584994
2394.000000	22.605386
2393.000000	22.611357
2392.000000	22.620257
2391.000000	22.640310
2390.000000	22.641662
2389.000000	22.648309
2388.000000	22.653378
2387.000000	22.640761
2386.000000	22.634226
2385.000000	22.637043
2384.000000	22.635804
2383.000000	22.612258
2382.000000	22.610005
2381.000000	22.619468
2380.000000	22.593782
2379.000000	22.547817
2378.000000	22.540494
2377.000000	22.543423
2376.000000	22.517850
2375.000000	22.477630
2374.000000	22.449916
2373.000000	22.433581
2372.000000	22.424680
2371.000000	22.406092
2370.000000	22.386827
2369.000000	22.392911
2368.000000	22.388292
2367.000000	22.384123
2366.000000	22.389193
2365.000000	22.375786
2364.000000	22.366323
2363.000000	22.367788
2362.000000	22.364408
2361.000000	22.351339
2360.000000	22.359451
2359.000000	22.362831
2358.000000	22.341989
2357.000000	22.317767
2356.000000	22.297263
2355.000000	22.293320
2354.000000	22.277210
2353.000000	22.266282
2352.000000	22.270788
2351.000000	22.256255
2350.000000	22.238793
2349.000000	22.219641
2348.000000	22.210853
2347.000000	22.215810
2346.000000	22.193955
2345.000000	22.196996
2344.000000	22.185280
2343.000000	22.172549
2342.000000	22.175141
2341.000000	22.170860
2340.000000	22.176830
2339.000000	22.170409
2338.000000	22.178633
2337.000000	22.178182
2336.000000	22.186519
2335.000000	22.208375
2334.000000	22.212881
2333.000000	22.221894
2332.000000	22.235976
2331.000000	22.268986
2330.000000	22.317091
2329.000000	22.351339
2328.000000	22.358550
2327.000000	22.394713
2326.000000	22.414091
2325.000000	22.436510
2324.000000	22.486530
2323.000000	22.513231
2322.000000	22.515822
2321.000000	22.536326
2320.000000	22.546916
2319.000000	22.540832
2318.000000	22.522469
2317.000000	22.511766
2316.000000	22.495430
2315.000000	22.489234
2314.000000	22.464111
2313.000000	22.427610
2312.000000	22.400797
2311.000000	22.361704
2310.000000	22.332075
2309.000000	22.328019
2308.000000	22.299291
2307.000000	22.254791
2306.000000	22.219190
2305.000000	22.201052
2304.000000	22.190350
2303.000000	22.164325
2302.000000	22.175704
2301.000000	22.196433
2300.000000	22.194067
2299.000000	22.191927
2298.000000	22.219641
2297.000000	22.241947
2296.000000	22.241271
2295.000000	22.282955
2294.000000	22.300755
2293.000000	22.343341
2292.000000	22.371618
2291.000000	22.403839
2290.000000	22.458253
2289.000000	22.502866
2288.000000	22.533509
2287.000000	22.568546
2286.000000	22.600767
2285.000000	22.663067
2284.000000	22.734831
2283.000000	22.770995
2282.000000	22.811890
2281.000000	22.847152
2280.000000	22.906636
2279.000000	22.931984
2278.000000	22.941222
2277.000000	22.993947
2276.000000	23.058050
2275.000000	23.064809
2274.000000	23.122153
2273.000000	23.149529
2272.000000	23.207549
2271.000000	23.228841
2270.000000	23.298126
2269.000000	23.361779
2268.000000	23.422389
2267.000000	23.517474
2266.000000	23.587097
2265.000000	23.702460
2264.000000	23.815682
2263.000000	23.964618
2262.000000	24.100147
2261.000000	24.233986
2260.000000	24.393623
2259.000000	24.637418
2258.000000	24.788381
2257.000000	24.963904
2256.000000	25.154185
2255.000000	25.348747
2254.000000	25.597724
2253.000000	25.802651
2252.000000	25.981103
2251.000000	26.184678
2250.000000	26.373832
2249.000000	26.596221
2248.000000	26.760591
2247.000000	26.917863
2246.000000	27.075473
2245.000000	27.202553
2244.000000	27.376048
2243.000000	27.513605
2242.000000	27.631671
2241.000000	27.699605
2240.000000	27.827811
2239.000000	27.875691
2238.000000	27.947680
2237.000000	27.993870
2236.000000	28.024514
2235.000000	28.043215
2234.000000	28.090306
2233.000000	28.101347
2232.000000	28.077463
2231.000000	28.074196
2230.000000	28.054481
2229.000000	27.992068
2228.000000	27.974606
2227.000000	27.931570
2226.000000	27.867917
2225.000000	27.804828
2224.000000	27.756385
2223.000000	27.663328
2222.000000	27.586720
2221.000000	27.473498
2220.000000	27.407818
2219.000000	27.323436
2218.000000	27.226549
2217.000000	27.170558
2216.000000	27.089781
2215.000000	26.987937
2214.000000	26.916286
2213.000000	26.821089
2212.000000	26.728596
2211.000000	26.662240
2210.000000	26.605347
2209.000000	26.528964
2208.000000	26.468241
2207.000000	26.408869
2206.000000	26.354455
2205.000000	26.308377
2204.000000	26.254526
2203.000000	26.227939
2202.000000	26.188959
2201.000000	26.116857
2200.000000	26.083510
2199.000000	26.035742
2198.000000	26.031123
2197.000000	25.989440
2196.000000	25.920492
2195.000000	25.896271
2194.000000	25.870134
2193.000000	25.879259
2192.000000	25.844447
2191.000000	25.817184
2190.000000	25.771895
2189.000000	25.725592
2188.000000	25.710834
2187.000000	25.662954
2186.000000	25.625213
2185.000000	25.591528
2184.000000	25.557167
2183.000000	25.532156
2182.000000	25.523820
2181.000000	25.493176
2180.000000	25.470081
2179.000000	25.416568
2178.000000	25.416906
2177.000000	25.385249
2176.000000	25.377137
2175.000000	25.376236
2174.000000	25.348409
2173.000000	25.328919
2172.000000	25.347283
2171.000000	25.388178
2170.000000	25.405077
2169.000000	25.396177
2168.000000	25.406203
2167.000000	25.435720
2166.000000	25.459829
2165.000000	25.488783
2164.000000	25.516271
2163.000000	25.583529
2162.000000	25.653040
2161.000000	25.713537
2160.000000	25.780795
2159.000000	25.871711
2158.000000	25.944263
2157.000000	26.047910
2156.000000	26.162709
2155.000000	26.260047
2154.000000	26.354568
2153.000000	26.463509
2152.000000	26.600052
2151.000000	26.739637
2150.000000	26.842494
2149.000000	26.936227
2148.000000	27.074797
2147.000000	27.193540
2146.000000	27.324112
2145.000000	27.447361
2144.000000	27.568695
2143.000000	27.675496
2142.000000	27.795365
2141.000000	27.914333
2140.000000	28.032625
2139.000000	28.158803
2138.000000	28.280475
2137.000000	28.391219
2136.000000	28.502639
2135.000000	28.620818
2134.000000	28.734491
2133.000000	28.811775
2132.000000	28.901001
2131.000000	28.998564
2130.000000	29.091057
2129.000000	29.160680
2128.000000	29.243147
2127.000000	29.337668
2126.000000	29.409995
2125.000000	29.454833
2124.000000	29.539553
2123.000000	29.625287
2122.000000	29.689840
2121.000000	29.755521
2120.000000	29.785263
2119.000000	29.824581
2118.000000	29.868968
2117.000000	29.895443
2116.000000	29.938028
2115.000000	29.974642
2114.000000	29.994470
2113.000000	30.031197
2112.000000	30.044266
2111.000000	30.063418
2110.000000	30.085048
2109.000000	30.109608
2108.000000	30.126169
2107.000000	30.126732
2106.000000	30.150278
2105.000000	30.149715
2104.000000	30.140927
2103.000000	30.162445
2102.000000	30.188469
2101.000000	30.200299
2100.000000	30.204354
2099.000000	30.201989
2098.000000	30.207959
2097.000000	30.233533
2096.000000	30.270823
2095.000000	30.294256
2094.000000	30.307888
2093.000000	30.318929
2092.000000	30.346530
2091.000000	30.372780
2090.000000	30.392608
2089.000000	30.408718
2088.000000	30.423927
2087.000000	30.434292
2086.000000	30.431475
2085.000000	30.420209
2084.000000	30.409732
2083.000000	30.401170
2082.000000	30.387651
2081.000000	30.343263
2080.000000	30.312394
2079.000000	30.267556
2078.000000	30.188131
2077.000000	30.114340
2076.000000	30.049786
2075.000000	29.958307
2074.000000	29.870996
2073.000000	29.776250
2072.000000	29.659197
2071.000000	29.557015
2070.000000	29.455509
2069.000000	29.327641
2068.000000	29.191211
2067.000000	29.057823
2066.000000	28.910352
2065.000000	28.785751
2064.000000	28.661150
2063.000000	28.535873
2062.000000	28.431889
2061.000000	28.333988
2060.000000	28.232144
2059.000000	28.138525
2058.000000	28.062705
2057.000000	27.988237
2056.000000	27.956355
2055.000000	27.967395
2054.000000	27.969085
2053.000000	27.990040
2052.000000	28.051552
2051.000000	28.148326
2050.000000	28.232820
2049.000000	28.358097
2048.000000	28.484726
2047.000000	28.646054
2046.000000	28.801185
2045.000000	28.962626
2044.000000	29.149302
2043.000000	29.351525
2042.000000	29.542370
2041.000000	29.732313
2040.000000	29.925748
2039.000000	30.087978
2038.000000	30.239842
2037.000000	30.430123
2036.000000	30.605421
2035.000000	30.761116
2034.000000	30.909713
2033.000000	31.041299
2032.000000	31.191023
2031.000000	31.334212
2030.000000	31.425917
2029.000000	31.546687
2028.000000	31.638505
2027.000000	31.784398
2026.000000	31.922969
2025.000000	31.999464
2024.000000	32.071792
2023.000000	32.133416
2022.000000	32.241907
2021.000000	32.347694
2020.000000	32.397827
2019.000000	32.454945
2018.000000	32.511049
2017.000000	32.554648
2016.000000	32.599937
2015.000000	32.651761
2014.000000	32.679024
2013.000000	32.713836
2012.000000	32.722285
2011.000000	32.752590
2010.000000	32.737607
2009.000000	32.761941
2008.000000	32.738057
2007.000000	32.710118
2006.000000	32.696937
2005.000000	32.650296
2004.000000	32.628665
2003.000000	32.590249
2002.000000	32.562985
2001.000000	32.519837
2000.000000	32.421711
1999.000000	32.326852
1998.000000	32.295195
1997.000000	32.264551
1996.000000	32.144795
1995.000000	32.033149
1994.000000	31.982904
1993.000000	31.861682
1992.000000	31.766260
1991.000000	31.677823
1990.000000	31.589047
1989.000000	31.465686
1988.000000	31.362603
1987.000000	31.238903
1986.000000	31.113063
1985.000000	31.028456
1984.000000	30.901714
1983.000000	30.788379
1982.000000	30.689352
1981.000000	30.559681
1980.000000	30.436432
1979.000000	30.336841
1978.000000	30.237138
1977.000000	30.145997
1976.000000	30.038971
1975.000000	29.912342
1974.000000	29.785713
1973.000000	29.690967
1972.000000	29.607148
1971.000000	29.522316
1970.000000	29.415177
1969.000000	29.298237
1968.000000	29.209575
1967.000000	29.113814
1966.000000	28.983693
1965.000000	28.910014
1964.000000	28.797017
1963.000000	28.667346
1962.000000	28.554687
1961.000000	28.450478
1960.000000	28.354943
1959.000000	28.215696
1958.000000	28.087377
1957.000000	27.969874
1956.000000	27.851920
1955.000000	27.749851
1954.000000	27.679213
1953.000000	27.585819
1952.000000	27.452994
1951.000000	27.349460
1950.000000	27.260234
1949.000000	27.144984
1948.000000	27.032100
1947.000000	26.913469
1946.000000	26.799571
1945.000000	26.733891
1944.000000	26.663930
1943.000000	26.588561
1942.000000	26.497307
1941.000000	26.453595
1940.000000	26.341049
1939.000000	26.338795
1938.000000	26.319305
1937.000000	26.322685
1936.000000	26.324375
1935.000000	26.290014
1934.000000	26.279762
1933.000000	26.313560
1932.000000	26.318629
1931.000000	26.361891
1930.000000	26.385662
1929.000000	26.458327
1928.000000	26.557917
1927.000000	26.724090
1926.000000	26.864913
1925.000000	27.004047
1924.000000	27.109271
1923.000000	27.174388
1922.000000	27.326590
1921.000000	27.640459
1920.000000	27.993870
1919.000000	28.214231
1918.000000	28.508272
1917.000000	28.667459
1916.000000	28.783498
1915.000000	28.969047
1914.000000	29.379690
1913.000000	29.867504
1912.000000	30.335377
1911.000000	30.756271
1910.000000	31.154521
1909.000000	31.338381
1908.000000	31.617775
1907.000000	32.026728
1906.000000	32.602641
1905.000000	33.315999
1904.000000	33.957254
1903.000000	34.497004
1902.000000	35.010391
1901.000000	35.479955
1900.000000	36.197931
1899.000000	37.070814
1898.000000	37.864610
1897.000000	38.622129
1896.000000	39.120421
1895.000000	39.508193
1894.000000	40.043324
1893.000000	40.664977
1892.000000	41.425200
1891.000000	42.229023
1890.000000	42.940353
1889.000000	43.531587
1888.000000	44.137243
1887.000000	44.614241
1886.000000	45.127066
1885.000000	45.690474
1884.000000	46.324068
1883.000000	46.865733
1882.000000	47.324707
1881.000000	47.745376
1880.000000	48.016884
1879.000000	48.272620
1878.000000	48.575786
1877.000000	48.847294
1876.000000	49.053010
1875.000000	49.307281
1874.000000	49.555244
1873.000000	49.867648
1872.000000	50.196049
1871.000000	50.595087
1870.000000	51.080648
1869.000000	51.484531
1868.000000	51.730917
1867.000000	51.951052
1866.000000	51.943730
1865.000000	51.997581
1864.000000	51.979780
1863.000000	51.927957
1862.000000	51.962544
1861.000000	52.037687
1860.000000	52.174793
1859.000000	52.340290
1858.000000	52.506912
1857.000000	52.552990
1856.000000	52.456103
1855.000000	52.505673
1854.000000	52.708122
1853.000000	52.777857
1852.000000	52.814472
1851.000000	52.746088
1850.000000	52.497111
1849.000000	52.394704
1848.000000	52.664184
1847.000000	53.053872
1846.000000	53.173629
1845.000000	52.959126
1844.000000	52.572818
1843.000000	52.353809
1842.000000	52.479086
1841.000000	52.719725
1840.000000	52.748115
1839.000000	52.619797
1838.000000	52.505448
1837.000000	52.589829
1836.000000	52.779097
1835.000000	52.876997
1834.000000	52.767042
1833.000000	52.527754
1832.000000	52.375214
1831.000000	52.363723
1830.000000	52.443936
1829.000000	52.458582
1828.000000	52.379270
1827.000000	52.365863
1826.000000	52.470861
1825.000000	52.479987
1824.000000	52.358202
1823.000000	52.146516
1822.000000	52.101227
1821.000000	52.305591
1820.000000	52.526064
1819.000000	52.545780
1818.000000	52.407096
1817.000000	52.310773
1816.000000	52.348401
1815.000000	52.400787
1814.000000	52.392676
1813.000000	52.328911
1812.000000	52.292409
1811.000000	52.348626
1810.000000	52.354034
1809.000000	52.258837
1808.000000	52.157106
1807.000000	52.159246
1806.000000	52.183243
1805.000000	52.171076
1804.000000	52.124547
1803.000000	52.053685
1802.000000	52.027548
1801.000000	52.036786
1800.000000	52.057628
1799.000000	52.057290
1798.000000	52.001411
1797.000000	51.968289
1796.000000	51.949588
1795.000000	51.934829
1794.000000	51.919846
1793.000000	51.877599
1792.000000	51.854616
1791.000000	51.853152
1790.000000	51.838393
1789.000000	51.826789
1788.000000	51.825212
1787.000000	51.832760
1786.000000	51.833098
1785.000000	51.822058
1784.000000	51.823522
1783.000000	51.820030
1782.000000	51.803582
1781.000000	51.783303
1780.000000	51.785106
1779.000000	51.787359
1778.000000	51.733508
1777.000000	51.680558
1776.000000	51.627833
1775.000000	51.591107
1774.000000	51.535791
1773.000000	51.475856
1772.000000	51.457042
1771.000000	51.402853
1770.000000	51.358240
1769.000000	51.307431
1768.000000	51.262705
1767.000000	51.220796
1766.000000	51.203334
1765.000000	51.184069
1764.000000	51.164692
1763.000000	51.132471
1762.000000	51.127965
1761.000000	51.106109
1760.000000	51.075579
1759.000000	51.065665
1758.000000	51.044823
1757.000000	51.037950
1756.000000	51.038063
1755.000000	51.024882
1754.000000	51.002688
1753.000000	51.024882
1752.000000	51.023755
1751.000000	50.984888
1750.000000	50.941852
1749.000000	50.876848
1748.000000	50.829869
1747.000000	50.784580
1746.000000	50.716647
1745.000000	50.604551
1744.000000	50.543152
1743.000000	50.466994
1742.000000	50.361433
1741.000000	50.277051
1740.000000	50.229509
1739.000000	50.167208
1738.000000	50.082038
1737.000000	50.025934
1736.000000	49.979180
1735.000000	49.943129
1734.000000	49.880040
1733.000000	49.849397
1732.000000	49.814360
1731.000000	49.767606
1730.000000	49.739554
1729.000000	49.695167
1728.000000	49.638386
1727.000000	49.575973
1726.000000	49.536881
1725.000000	49.516039
1724.000000	49.515588
1723.000000	49.563468
1722.000000	49.656525
1721.000000	49.816050
1720.000000	49.982447
1719.000000	50.169236
1718.000000	50.388696
1717.000000	50.619197
1716.000000	50.849922
1715.000000	51.098223
1714.000000	51.277238
1713.000000	51.452761
1712.000000	51.660054
1711.000000	51.830732
1710.000000	51.964121
1709.000000	52.081737
1708.000000	52.190904
1707.000000	52.261541
1706.000000	52.315054
1705.000000	52.364286
1704.000000	52.432107
1703.000000	52.497787
1702.000000	52.482578
1701.000000	52.479762
1700.000000	52.483254
1699.000000	52.454188
1698.000000	52.442584
1697.000000	52.439430
1696.000000	52.406646
1695.000000	52.365863
1694.000000	52.330601
1693.000000	52.253655
1692.000000	52.212421
1691.000000	52.143587
1690.000000	52.059092
1689.000000	52.044785
1688.000000	52.036561
1687.000000	52.112831
1686.000000	52.252415
1685.000000	52.432557
1684.000000	52.633541
1683.000000	52.861451
1682.000000	53.101414
1681.000000	53.357038
1680.000000	53.605789
1679.000000	53.838318
1678.000000	54.052595
1677.000000	54.267211
1676.000000	54.482840
1675.000000	54.673121
1674.000000	54.887624
1673.000000	55.070019
1672.000000	55.261991
1671.000000	55.426698
1670.000000	55.632301
1669.000000	55.818414
1668.000000	56.013427
1667.000000	56.234802
1666.000000	56.380695
1665.000000	56.520843
1664.000000	56.665160
1663.000000	56.823108
1662.000000	56.948948
1661.000000	57.064198
1660.000000	57.193305
1659.000000	57.275321
1658.000000	57.389107
1657.000000	57.451295
1656.000000	57.511117
1655.000000	57.559785
1654.000000	57.591781
1653.000000	57.606426
1652.000000	57.625916
1651.000000	57.673796
1650.000000	57.712551
1649.000000	57.677064
1648.000000	57.667150
1647.000000	57.664896
1646.000000	57.664671
1645.000000	57.628395
1644.000000	57.619607
1643.000000	57.601131
1642.000000	57.585810
1641.000000	57.581303
1640.000000	57.594034
1639.000000	57.579276
1638.000000	57.556631
1637.000000	57.542436
1636.000000	57.524298
1635.000000	57.500301
1634.000000	57.473714
1633.000000	57.466616
1632.000000	57.428650
1631.000000	57.398908
1630.000000	57.355197
1629.000000	57.292107
1628.000000	57.252001
1627.000000	57.219555
1626.000000	57.167844
1625.000000	57.123006
1624.000000	57.092025
1623.000000	57.059016
1622.000000	57.019247
1621.000000	56.988041
1620.000000	56.950863
1619.000000	56.900730
1618.000000	56.863214
1617.000000	56.841471
1616.000000	56.818489
1615.000000	56.793591
1614.000000	56.743232
1613.000000	56.668990
1612.000000	56.613900
1611.000000	56.559711
1610.000000	56.504395
1609.000000	56.451445
1608.000000	56.373147
1607.000000	56.291920
1606.000000	56.225789
1605.000000	56.146815
1604.000000	56.066827
1603.000000	55.998668
1602.000000	55.919582
1601.000000	55.835989
1600.000000	55.760394
1599.000000	55.694151
1598.000000	55.627344
1597.000000	55.544765
1596.000000	55.475029
1595.000000	55.428951
1594.000000	55.369129
1593.000000	55.305928
1592.000000	55.250837
1591.000000	55.197099
1590.000000	55.153387
1589.000000	55.110802
1588.000000	55.052107
1587.000000	55.000959
1586.000000	54.949136
1585.000000	54.904073
1584.000000	54.866782
1583.000000	54.816762
1582.000000	54.779134
1581.000000	54.769783
1580.000000	54.753109
1579.000000	54.732831
1578.000000	54.709060
1577.000000	54.678191
1576.000000	54.639211
1575.000000	54.623889
1574.000000	54.604399
1573.000000	54.574319
1572.000000	54.578375
1571.000000	54.604625
1570.000000	54.600456
1569.000000	54.594147
1568.000000	54.614651
1567.000000	54.631212
1566.000000	54.659264
1565.000000	54.672671
1564.000000	54.669291
1563.000000	54.661067
1562.000000	54.643267
1561.000000	54.616679
1560.000000	54.604512
1559.000000	54.578826
1558.000000	54.550661
1557.000000	54.539282
1556.000000	54.504358
1555.000000	54.453211
1554.000000	54.414456
1553.000000	54.368153
1552.000000	54.281969
1551.000000	54.193644
1550.000000	54.101264
1549.000000	54.008320
1548.000000	53.906138
1547.000000	53.826038
1546.000000	53.759569
1545.000000	53.678342
1544.000000	53.605677
1543.000000	53.550586
1542.000000	53.508452
1541.000000	53.468120
1540.000000	53.412917
1539.000000	53.374613
1538.000000	53.316706
1537.000000	53.277050
1536.000000	53.253730
1535.000000	53.222072
1534.000000	53.152787
1533.000000	53.107160
1532.000000	53.077080
1531.000000	53.026609
1530.000000	52.967012
1529.000000	52.916766
1528.000000	52.849058
1527.000000	52.787997
1526.000000	52.735948
1525.000000	52.670268
1524.000000	52.592871
1523.000000	52.533951
1522.000000	52.481001
1521.000000	52.418024
1520.000000	52.357301
1519.000000	52.312575
1518.000000	52.240924
1517.000000	52.170400
1516.000000	52.098073
1515.000000	52.017972
1514.000000	51.941364
1513.000000	51.862728
1512.000000	51.799188
1511.000000	51.758067
1510.000000	51.696668
1509.000000	51.626256
1508.000000	51.546606
1507.000000	51.463576
1506.000000	51.405895
1505.000000	51.347087
1504.000000	51.296390
1503.000000	51.242314
1502.000000	51.186998
1501.000000	51.109151
1500.000000	51.045048
1499.000000	51.017334
1498.000000	51.029839
1497.000000	51.013729
1496.000000	50.984550
1495.000000	50.988268
1494.000000	50.999534
1493.000000	51.016883
1492.000000	51.041668
1491.000000	51.055863
1490.000000	51.087182
1489.000000	51.118727
1488.000000	51.148356
1487.000000	51.199842
1486.000000	51.231161
1485.000000	51.283773
1484.000000	51.336159
1483.000000	51.379758
1482.000000	51.417386
1481.000000	51.473828
1480.000000	51.501430
1479.000000	51.530158
1478.000000	51.557309
1477.000000	51.634706
1476.000000	51.700949
1475.000000	51.765728
1474.000000	51.809891
1473.000000	51.896413
1472.000000	51.966937
1471.000000	52.074301
1470.000000	52.157331
1469.000000	52.216365
1468.000000	52.268751
1467.000000	52.354259
1466.000000	52.448893
1465.000000	52.536992
1464.000000	52.627570
1463.000000	52.760057
1462.000000	52.823034
1461.000000	52.893671
1460.000000	53.016019
1459.000000	53.085755
1458.000000	53.178023
1457.000000	53.311298
1456.000000	53.425647
1455.000000	53.527942
1454.000000	53.628321
1453.000000	53.749317
1452.000000	53.853639
1451.000000	53.951089
1450.000000	54.047075
1449.000000	54.055074
1448.000000	54.127739
1447.000000	54.198376
1446.000000	54.396093
1445.000000	54.566884
1444.000000	54.653293
1443.000000	54.684275
1442.000000	54.774064
1441.000000	54.902721
1440.000000	55.043319
1439.000000	55.142121
1438.000000	55.243402
1437.000000	55.354258
1436.000000	55.498913
1435.000000	55.593772
1434.000000	55.754198
1433.000000	55.896937
1432.000000	56.050604
1431.000000	56.228268
1430.000000	56.328196
1429.000000	56.458768
1428.000000	56.742218
1427.000000	56.919319
1426.000000	57.065437
1425.000000	57.302697
1424.000000	57.585021
1423.000000	57.847066
1422.000000	58.030926
1421.000000	58.242500
1420.000000	58.549158
1419.000000	58.915976
1418.000000	59.217451
1417.000000	59.454261
1416.000000	59.617391
1415.000000	59.897574
1414.000000	60.428199
1413.000000	60.774625
1412.000000	60.944741
1411.000000	61.196308
1410.000000	61.581828
1409.000000	62.116395
1408.000000	62.432291
1407.000000	62.756750
1406.000000	63.079293
1405.000000	63.488583
1404.000000	63.865991
1403.000000	64.226162
1402.000000	64.339047
1401.000000	64.802413
1400.000000	65.556666
1399.000000	65.828287
1398.000000	65.725091
1397.000000	65.918865
1396.000000	66.466050
1395.000000	67.060327
1394.000000	67.114403
1393.000000	67.165100
1392.000000	67.576982
1391.000000	67.942110
1390.000000	68.015000
1389.000000	68.184327
1388.000000	68.687575
1387.000000	68.943424
1386.000000	69.025552
1385.000000	69.180459
1384.000000	69.422563
1383.000000	69.661288
1382.000000	69.956342
1381.000000	70.257705
1380.000000	70.213768
1379.000000	70.412161
1378.000000	70.407091
1377.000000	70.525270
1376.000000	70.566503
1375.000000	70.692907
1374.000000	70.740336
1373.000000	70.844997
1372.000000	70.962388
1371.000000	71.177003
1370.000000	71.250570
1369.000000	71.196268
1368.000000	71.352751
1367.000000	71.491435
1366.000000	71.452793
1365.000000	71.579985
1364.000000	71.769365
1363.000000	71.697150
1362.000000	71.796403
1361.000000	72.109595
1360.000000	72.150603
1359.000000	72.082106
1358.000000	72.121988
1357.000000	72.170318
1356.000000	72.242308
1355.000000	72.448699
1354.000000	72.628841
1353.000000	72.660385
1352.000000	72.731811
1351.000000	72.891900
1350.000000	73.058973
1349.000000	73.189658
1348.000000	73.370363
1347.000000	73.554110
1346.000000	73.645589
1345.000000	73.737181
1344.000000	73.866401
1343.000000	74.001930
1342.000000	74.091494
1341.000000	74.201562
1340.000000	74.315911
1339.000000	74.393646
1338.000000	74.462818
1337.000000	74.561508
1336.000000	74.690502
1335.000000	74.807668
1334.000000	74.888219
1333.000000	74.977332
1332.000000	75.024649
1331.000000	75.041773
1330.000000	75.105876
1329.000000	75.184287
1328.000000	75.259543
1327.000000	75.326125
1326.000000	75.379638
1325.000000	75.428645
1324.000000	75.511787
1323.000000	75.579495
1322.000000	75.646302
1321.000000	75.673678
1320.000000	75.680100
1319.000000	75.670073
1318.000000	75.687423
1317.000000	75.753666
1316.000000	75.819459
1315.000000	75.879957
1314.000000	75.929076
1313.000000	75.935498
1312.000000	75.920627
1311.000000	75.894265
1310.000000	75.893702
1309.000000	75.929189
1308.000000	75.944623
1307.000000	75.949580
1306.000000	75.968507
1305.000000	75.971098
1304.000000	75.983491
1303.000000	76.013007
1302.000000	76.027766
1301.000000	76.049847
1300.000000	76.055029
1299.000000	76.054917
1298.000000	76.051650
1297.000000	76.057057
1296.000000	76.075984
1295.000000	76.077336
1294.000000	76.045115
1293.000000	76.003544
1292.000000	75.991377
1291.000000	75.998136
1290.000000	76.027315
1289.000000	76.028442
1288.000000	75.995771
1287.000000	75.969859
1286.000000	75.922430
1285.000000	75.887843
1284.000000	75.880182
1283.000000	75.894265
1282.000000	75.903728
1281.000000	75.883224
1280.000000	75.834668
1279.000000	75.801659
1278.000000	75.775184
1277.000000	75.750624
1276.000000	75.752652
1275.000000	75.765608
1274.000000	75.760313
1273.000000	75.725501
1272.000000	75.690464
1271.000000	75.694633
1270.000000	75.721558
1269.000000	75.755243
1268.000000	75.777888
1267.000000	75.770565
1266.000000	75.772931
1265.000000	75.775635
1264.000000	75.746118
1263.000000	75.721108
1262.000000	75.707138
1261.000000	75.714348
1260.000000	75.755581
1259.000000	75.771804
1258.000000	75.793097
1257.000000	75.791407
1256.000000	75.755356
1255.000000	75.744879
1254.000000	75.738232
1253.000000	75.754004
1252.000000	75.709391
1251.000000	75.659033
1250.000000	75.654076
1249.000000	75.652273
1248.000000	75.603379
1247.000000	75.592902
1246.000000	75.574426
1245.000000	75.552908
1244.000000	75.477651
1243.000000	75.421209
1242.000000	75.393608
1241.000000	75.398339
1240.000000	75.385158
1239.000000	75.342573
1238.000000	75.298186
1237.000000	75.256727
1236.000000	75.259994
1235.000000	75.255600
1234.000000	75.252108
1233.000000	75.226422
1232.000000	75.197356
1231.000000	75.167388
1230.000000	75.148800
1229.000000	75.123339
1228.000000	75.108468
1227.000000	75.092132
1226.000000	75.080190
1225.000000	75.041210
1224.000000	75.027240
1223.000000	75.035014
1222.000000	75.018340
1221.000000	74.963475
1220.000000	74.974854
1219.000000	74.970686
1218.000000	74.944211
1217.000000	74.904667
1216.000000	74.876841
1215.000000	74.819948
1214.000000	74.800007
1213.000000	74.793360
1212.000000	74.770603
1211.000000	74.757422
1210.000000	74.676983
1209.000000	74.591700
1208.000000	74.559592
1207.000000	74.556551
1206.000000	74.525907
1205.000000	74.495940
1204.000000	74.407615
1203.000000	74.305321
1202.000000	74.276593
1201.000000	74.258567
1200.000000	74.176101
1199.000000	74.135206
1198.000000	74.089015
1197.000000	74.040572
1196.000000	73.991678
1195.000000	73.928476
1194.000000	73.856938
1193.000000	73.772218
1192.000000	73.719043
1191.000000	73.666994
1190.000000	73.566390
1189.000000	73.517383
1188.000000	73.504202
1187.000000	73.423088
1186.000000	73.392895
1185.000000	73.410695
1184.000000	73.434804
1183.000000	73.443028
1182.000000	73.458913
1181.000000	73.498794
1180.000000	73.546562
1179.000000	73.535747
1178.000000	73.593653
1177.000000	73.673191
1176.000000	73.741011
1175.000000	73.760502
1174.000000	73.765796
1173.000000	73.835870
1172.000000	73.842968
1171.000000	73.924984
1170.000000	73.962387
1169.000000	74.061527
1168.000000	74.174411
1167.000000	74.252146
1166.000000	74.345540
1165.000000	74.436343
1164.000000	74.560043
1163.000000	74.605783
1162.000000	74.671463
1161.000000	74.756295
1160.000000	74.870306
1159.000000	74.970122
1158.000000	75.037267
1157.000000	75.098666
1156.000000	75.178654
1155.000000	75.231041
1154.000000	75.281512
1153.000000	75.319816
1152.000000	75.379187
1151.000000	75.377610
1150.000000	75.412422
1149.000000	75.469991
1148.000000	75.509759
1147.000000	75.586593
1146.000000	75.626361
1145.000000	75.643711
1144.000000	75.708039
1143.000000	75.770790
1142.000000	75.771354
1141.000000	75.841540
1140.000000	75.873423
1139.000000	75.916684
1138.000000	75.951270
1137.000000	76.010416
1136.000000	76.063929
1135.000000	76.171744
1134.000000	76.309188
1133.000000	76.351435
1132.000000	76.308625
1131.000000	76.322595
1130.000000	76.405512
1129.000000	76.504088
1128.000000	76.561770
1127.000000	76.521776
1126.000000	76.539351
1125.000000	76.515692
1124.000000	76.538787
1123.000000	76.526620
1122.000000	76.569994
1121.000000	76.545322
1120.000000	76.547124
1119.000000	76.555799
1118.000000	76.567854
1117.000000	76.535408
1116.000000	76.519072
1115.000000	76.478740
1114.000000	76.460264
1113.000000	76.490231
1112.000000	76.460151
1111.000000	76.405962
1110.000000	76.384332
1109.000000	76.341859
1108.000000	76.339381
1107.000000	76.340620
1106.000000	76.328228
1105.000000	76.292627
1104.000000	76.246550
1103.000000	76.199684
1102.000000	76.176926
1101.000000	76.161605
1100.000000	76.141214
1099.000000	76.131525
1098.000000	76.071478
1097.000000	76.044439
1096.000000	76.029118
1095.000000	75.991490
1094.000000	75.961973
1093.000000	75.932682
1092.000000	75.888181
1091.000000	75.852018
1090.000000	75.774959
1089.000000	75.731585
1088.000000	75.684268
1087.000000	75.633008
1086.000000	75.604506
1085.000000	75.565413
1084.000000	75.537248
1083.000000	75.501310
1082.000000	75.446896
1081.000000	75.375695
1080.000000	75.326012
1079.000000	75.281399
1078.000000	75.238364
1077.000000	75.191159
1076.000000	75.158826
1075.000000	75.146997
1074.000000	75.113875
1073.000000	75.067460
1072.000000	74.990964
1071.000000	74.917961
1070.000000	74.872785
1069.000000	74.833579
1068.000000	74.784009
1067.000000	74.723849
1066.000000	74.693206
1065.000000	74.677547
1064.000000	74.631694
1063.000000	74.541905
1062.000000	74.480055
1061.000000	74.454707
1060.000000	74.420684
1059.000000	74.390829
1058.000000	74.318389
1057.000000	74.248090
1056.000000	74.197619
1055.000000	74.164159
1054.000000	74.119095
1053.000000	74.060738
1052.000000	74.037643
1051.000000	74.006887
1050.000000	73.963513
1049.000000	73.873161
1048.000000	73.814803
1047.000000	73.811649
1046.000000	73.762867
1045.000000	73.682767
1044.000000	73.616298
1043.000000	73.550956
1042.000000	73.512426
1041.000000	73.471869
1040.000000	73.426805
1039.000000	73.381967
1038.000000	73.321807
1037.000000	73.265139
1036.000000	73.218386
1035.000000	73.172872
1034.000000	73.120598
1033.000000	73.056382
1032.000000	73.008164
1031.000000	72.970874
1030.000000	72.913756
1029.000000	72.848526
1028.000000	72.792197
1027.000000	72.730009
1026.000000	72.673792
1025.000000	72.633460
1024.000000	72.585918
1023.000000	72.542319
1022.000000	72.498156
1021.000000	72.448812
1020.000000	72.410620
1019.000000	72.327365
1018.000000	72.272388
1017.000000	72.220902
1016.000000	72.155785
1015.000000	72.074445
1014.000000	71.996936
1013.000000	71.975531
1012.000000	71.944550
1011.000000	71.899486
1010.000000	71.853183
1009.000000	71.766999
1008.000000	71.679688
1007.000000	71.623584
1006.000000	71.593842
1005.000000	71.558354
1004.000000	71.501123
1003.000000	71.476451
1002.000000	71.430486
1001.000000	71.343626
1000.000000	71.281551
999.000000	71.222968
998.000000	71.142079
997.000000	71.088791
996.000000	70.999114
995.000000	70.943123
994.000000	70.890173
993.000000	70.792385
992.000000	70.732112
991.000000	70.647843
990.000000	70.593204
989.000000	70.536987
988.000000	70.440213
987.000000	70.347494
986.000000	70.309077
985.000000	70.253987
984.000000	70.185040
983.000000	70.137047
982.000000	70.071479
981.000000	70.044329
980.000000	69.967270
979.000000	69.855287
978.000000	69.814391
977.000000	69.800196
976.000000	69.697451
975.000000	69.600001
974.000000	69.542094
973.000000	69.482272
972.000000	69.399581
971.000000	69.336491
970.000000	69.274416
969.000000	69.221467
968.000000	69.110497
967.000000	69.017441
966.000000	68.919765
965.000000	68.865013
964.000000	68.809247
963.000000	68.731061
962.000000	68.598912
961.000000	68.500561
960.000000	68.463721
959.000000	68.427220
958.000000	68.339008
957.000000	68.232996
956.000000	68.140615
955.000000	68.104677
954.000000	68.107944
953.000000	68.023337
952.000000	67.948982
951.000000	67.864488
950.000000	67.722537
949.000000	67.659561
948.000000	67.609315
947.000000	67.502852
946.000000	67.434468
945.000000	67.348734
944.000000	67.251622
943.000000	67.230780
942.000000	67.155411
941.000000	67.019094
940.000000	66.886494
939.000000	66.734855
938.000000	66.619605
937.000000	66.554262
936.000000	66.540067
935.000000	66.438336
934.000000	66.348885
933.000000	66.279149
932.000000	66.242197
931.000000	66.121989
930.000000	66.000656
929.000000	65.952325
928.000000	65.805305
927.000000	65.682168
926.000000	65.636767
925.000000	65.525234
924.000000	65.375736
923.000000	65.249219
922.000000	65.200551
921.000000	65.046658
920.000000	64.919016
919.000000	64.813905
918.000000	64.726594
917.000000	64.631735
916.000000	64.525385
915.000000	64.485954
914.000000	64.348397
913.000000	64.223909
912.000000	64.095252
911.000000	64.025854
910.000000	63.920743
909.000000	63.815182
908.000000	63.704776
907.000000	63.702297
906.000000	63.535337
905.000000	63.350801
904.000000	63.192515
903.000000	63.056310
902.000000	62.923823
901.000000	62.835048
900.000000	62.727458
899.000000	62.605899
898.000000	62.446261
897.000000	62.339911
896.000000	62.226576
895.000000	62.080795
894.000000	61.905723
893.000000	61.770307
892.000000	61.596023
891.000000	61.486293
890.000000	61.341075
889.000000	61.226163
888.000000	61.087930
887.000000	60.946656
886.000000	60.796031
885.000000	60.656333
884.000000	60.461996
883.000000	60.279151
882.000000	60.157479
881.000000	60.014177
880.000000	59.829754
879.000000	59.721038
878.000000	59.566582
877.000000	59.377540
876.000000	59.212832
875.000000	59.101187
874.000000	58.908878
873.000000	58.784728
872.000000	58.634103
871.000000	58.476042
870.000000	58.373860
869.000000	58.223010
868.000000	58.074187
867.000000	57.899340
866.000000	57.787695
865.000000	57.616340
864.000000	57.517088
863.000000	57.366125
862.000000	57.193756
861.000000	57.010347
860.000000	56.858145
859.000000	56.725545
858.000000	57.909367
857.000000	58.107600
856.000000	57.854500
855.000000	57.766000
854.000000	57.848700
853.000000	57.669400
852.000000	57.615300
851.000000	57.803100
850.000000	57.949900
849.000000	57.910600
848.000000	57.654700
847.000000	57.538700
846.000000	57.521600
845.000000	57.423400
844.000000	57.430500
843.000000	57.462400
842.000000	57.229300
841.000000	57.218400
840.000000	57.275000
839.000000	57.319300
838.000000	57.020600
837.000000	57.031200
836.000000	57.089000
835.000000	57.046500
834.000000	56.935200
833.000000	56.874200
832.000000	56.790800
831.000000	56.771800
830.000000	56.752200
829.000000	56.716600
828.000000	56.523300
827.000000	56.445500
826.000000	56.401600
825.000000	56.468900
824.000000	56.423800
823.000000	56.340700
822.000000	56.242700
821.000000	56.095100
820.000000	56.005100
819.000000	56.025400
818.000000	55.918400
817.000000	55.803900
816.000000	55.731500
815.000000	55.614900
814.000000	55.648100
813.000000	55.538200
812.000000	55.516300
811.000000	55.400900
810.000000	55.317800
809.000000	55.212000
808.000000	54.990300
807.000000	54.957300
806.000000	54.869800
805.000000	54.867200
804.000000	54.826600
803.000000	54.618700
802.000000	54.532600
801.000000	54.473400
800.000000	54.322700
799.000000	54.331400
798.000000	54.299300
797.000000	54.236300
796.000000	54.039100
795.000000	53.962400
794.000000	53.864500
793.000000	53.713400
792.000000	53.649800
791.000000	53.607500
790.000000	53.463400
789.000000	53.394300
788.000000	53.323600
787.000000	53.168200
786.000000	53.053300
785.000000	52.948300
784.000000	52.919300
783.000000	52.895100
782.000000	52.730400
781.000000	52.663100
780.000000	52.633500
779.000000	52.520800
778.000000	52.391300
777.000000	52.278500
776.000000	52.263100
775.000000	52.145500
774.000000	52.046100
773.000000	51.939400
772.000000	51.822200
771.000000	51.711300
770.000000	51.603200
769.000000	51.522400
768.000000	51.484000
767.000000	51.357500
766.000000	51.216600
765.000000	51.131000
764.000000	50.981300
763.000000	50.817300
762.000000	50.762500
761.000000	50.733500
760.000000	50.649600
759.000000	50.582300
758.000000	50.460700
757.000000	50.308500
756.000000	50.196400
755.000000	50.088700
754.000000	49.949500
753.000000	49.840700
752.000000	49.754500
751.000000	49.637900
750.000000	49.548500
749.000000	49.466700
748.000000	49.310800
747.000000	49.204900
746.000000	49.136300
745.000000	49.005600
744.000000	48.870600
743.000000	48.767200
742.000000	48.694200
741.000000	48.625100
740.000000	48.500300
739.000000	48.407000
738.000000	48.305300
737.000000	48.151200
736.000000	48.063200
735.000000	48.011200
734.000000	47.949600
733.000000	47.853600
732.000000	47.745500
731.000000	47.647000
730.000000	47.512100
729.000000	47.394500
728.000000	47.307700
727.000000	47.257800
726.000000	47.194500
725.000000	47.093700
724.000000	46.960400
723.000000	46.823100
722.000000	46.721400
721.000000	46.653100
720.000000	46.542900
719.000000	46.442200
718.000000	46.358700
717.000000	46.233800
716.000000	46.107400
715.000000	45.974600
714.000000	45.855400
713.000000	45.780500
712.000000	45.668000
711.000000	45.529800
710.000000	45.417600
709.000000	45.297800
708.000000	45.186100
707.000000	45.080900
706.000000	44.903200
705.000000	44.763800
704.000000	44.666200
703.000000	44.529100
702.000000	44.376100
701.000000	44.213500
700.000000	44.116200
699.000000	44.035800
698.000000	43.888100
697.000000	43.774100
696.000000	43.623600
695.000000	43.494500
694.000000	43.369800
693.000000	43.253800
692.000000	43.160600
691.000000	43.044800
690.000000	42.896500
689.000000	42.760100
688.000000	42.701900
687.000000	42.641100
686.000000	42.562100
685.000000	42.503400
684.000000	42.455600
683.000000	42.370800
682.000000	42.288100
681.000000	42.210800
680.000000	42.135000
679.000000	42.058000
678.000000	41.995100
677.000000	41.974700
676.000000	41.900300
675.000000	41.832200
674.000000	41.763100
673.000000	41.693500
672.000000	41.608100
671.000000	41.569800
670.000000	41.526000
669.000000	41.399300
668.000000	41.346300
667.000000	41.298000
666.000000	41.248400
665.000000	41.147800
664.000000	41.067900
663.000000	40.964500
662.000000	40.893300
661.000000	40.833100
660.000000	40.735700
659.000000	40.641400
658.000000	40.553700
657.000000	40.485700
656.000000	40.344600
655.000000	40.258800
654.000000	40.153000
653.000000	40.058300
652.000000	39.934100
651.000000	39.795200
650.000000	39.646100
649.000000	39.518600
648.000000	39.395900
647.000000	39.264400
646.000000	39.087000
645.000000	38.967200
644.000000	38.871700
643.000000	38.632400
642.000000	38.451700
641.000000	38.264900
640.000000	38.076700
639.000000	37.895500
638.000000	37.703500
637.000000	37.493600
636.000000	37.329100
635.000000	37.194300
634.000000	37.017900
633.000000	36.877900
632.000000	36.802100
631.000000	36.698300
630.000000	36.569800
629.000000	36.461700
628.000000	36.392500
627.000000	36.319300
626.000000	36.226300
625.000000	36.194200
624.000000	36.178900
623.000000	36.188100
622.000000	36.224000
621.000000	36.252100
620.000000	36.274500
619.000000	36.309900
618.000000	36.375100
617.000000	36.475200
616.000000	36.590100
615.000000	36.658600
614.000000	36.809700
613.000000	36.884700
612.000000	36.993400
611.000000	37.161300
610.000000	37.277800
609.000000	37.479100
608.000000	37.597000
607.000000	37.732600
606.000000	37.851200
605.000000	38.022500
604.000000	38.202100
603.000000	38.284200
602.000000	38.390200
601.000000	38.551800
600.000000	38.654500
599.000000	38.792000
598.000000	38.909300
597.000000	39.040500
596.000000	39.090500
595.000000	39.189500
594.000000	39.252300
593.000000	39.333400
592.000000	39.436500
591.000000	39.544800
590.000000	39.657900
589.000000	39.711600
588.000000	39.753000
587.000000	39.810300
586.000000	39.833600
585.000000	39.975400
584.000000	40.037200
583.000000	40.071200
582.000000	40.129300
581.000000	40.216200
580.000000	40.320500
579.000000	40.367200
578.000000	40.403800
577.000000	40.479500
576.000000	40.532600
575.000000	40.619700
574.000000	40.665300
573.000000	40.684200
572.000000	40.737400
571.000000	40.789700
570.000000	40.884600
569.000000	40.959500
568.000000	41.030300
567.000000	41.103000
566.000000	41.152100
565.000000	41.234300
564.000000	41.253500
563.000000	41.299300
562.000000	41.316100
561.000000	41.314000
560.000000	41.314400
559.000000	41.483200
558.000000	41.479700
557.000000	41.481800
556.000000	41.480500
555.000000	41.512100
554.000000	41.498900
553.000000	41.470100
552.000000	41.449800
551.000000	41.350700
550.000000	41.313100
549.000000	41.196300
548.000000	41.071000
547.000000	41.012900
546.000000	40.859800
545.000000	40.728800
544.000000	40.636700
543.000000	40.484400
542.000000	40.257100
541.000000	40.017700
540.000000	39.780100
539.000000	39.534200
538.000000	39.217900
537.000000	38.934800
536.000000	38.636800
535.000000	38.260400
534.000000	37.879500
533.000000	37.501900
532.000000	37.112700
531.000000	36.664900
530.000000	36.223800
529.000000	35.756600
528.000000	35.285800
527.000000	34.814300
526.000000	34.339900
525.000000	33.843200
524.000000	33.322200
523.000000	32.784000
522.000000	32.270000
521.000000	31.733500
520.000000	31.162200
519.000000	30.627600
518.000000	30.084700
517.000000	29.516700
516.000000	28.992700
515.000000	28.472000
514.000000	27.962300
513.000000	27.436100
512.000000	26.931400
511.000000	26.439000
510.000000	25.971300
509.000000	25.471900
508.000000	24.990700
507.000000	24.511000
506.000000	24.062500
505.000000	23.623400
504.000000	23.202200
503.000000	22.789800
502.000000	22.381000
501.000000	21.963000
500.000000	21.577300
499.000000	21.203100
498.000000	20.850700
497.000000	20.508600
496.000000	20.178800
495.000000	19.852300
494.000000	19.531100
493.000000	19.210100
492.000000	18.889100
491.000000	18.590900
490.000000	18.306700
489.000000	18.016500
488.000000	17.737600
487.000000	17.482200
486.000000	17.224200
485.000000	16.982500
484.000000	16.728300
483.000000	16.456700
482.000000	16.163100
481.000000	15.842100
480.000000	15.529300
479.000000	15.248000
478.000000	15.018500
477.000000	14.802100
476.000000	14.588600
475.000000	14.361300
474.000000	14.139900
473.000000	13.933700
472.000000	13.727100
471.000000	13.520900
470.000000	13.317100
469.000000	13.117800
468.000000	12.930900
467.000000	12.754900
466.000000	12.569800
465.000000	12.390800
464.000000	12.225100
463.000000	12.062300
462.000000	11.896900
461.000000	11.740800
460.000000	11.598000
459.000000	11.466800
458.000000	11.338800
457.000000	11.225200
456.000000	11.133500
455.000000	11.042700
454.000000	10.956000
453.000000	10.874800
452.000000	10.802300
451.000000	10.741300
450.000000	10.670900
449.000000	10.600900
448.000000	10.541100
447.000000	10.494800
446.000000	10.449800
445.000000	10.409200
444.000000	10.358700
443.000000	10.291500
442.000000	10.229800
441.000000	10.168800
440.000000	10.113300
439.000000	10.052100
438.000000	9.985500
437.000000	9.925500
436.000000	9.861900
435.000000	9.798400
434.000000	9.732600
433.000000	9.689400
432.000000	9.638200
431.000000	9.569200
430.000000	9.514500
429.000000	9.472200
428.000000	9.412600
427.000000	9.348400
426.000000	9.299200
425.000000	9.255900
424.000000	9.199900
423.000000	9.137400
422.000000	9.093100
421.000000	9.063500
420.000000	9.018500
419.000000	8.961000
418.000000	8.911300
417.000000	8.854100
416.000000	8.792500
415.000000	8.739800
414.000000	8.690500
413.000000	8.633800
412.000000	8.573100
411.000000	8.500400
410.000000	8.419100
409.000000	8.342800
408.000000	8.270700
407.000000	8.198000
406.000000	8.109500
405.000000	8.024100
404.000000	7.948400
403.000000	7.858300
402.000000	7.757500
401.000000	7.665800
400.000000	7.561300
399.000000	7.464900
398.000000	7.358500
397.000000	7.265400
396.000000	7.162900
395.000000	7.056500
394.000000	6.959900
393.000000	6.858700
392.000000	6.751800
391.000000	6.634200
390.000000	6.532100
389.000000	6.418500
388.000000	6.323900
387.000000	6.235400
386.000000	6.140600
385.000000	6.035900
384.000000	5.948900
383.000000	5.885800
382.000000	5.784600
381.000000	5.684700
380.000000	5.605300
379.000000	5.527800
378.000000	5.452000
377.000000	5.382200
376.000000	5.381800
375.000000	5.277500
374.000000	5.168900
373.000000	5.140800
372.000000	4.995500
371.000000	5.010200
370.000000	4.983400
369.000000	4.913600
368.000000	4.875700
367.000000	4.799000
366.000000	4.804600
365.000000	4.770800
364.000000	4.710600
363.000000	4.693800
362.000000	4.687500
361.000000	4.696200
360.000000	4.644800
359.000000	4.627600
358.000000	4.597100
357.000000	4.568200
356.000000	4.531200
355.000000	4.471900
354.000000	4.470100
353.000000	4.459900
352.000000	4.481500
351.000000	4.443100
350.000000	4.492200
349.000000	4.452700
348.000000	4.415800
347.000000	4.426400
346.000000	4.417100
345.000000	4.399000
344.000000	4.422500
343.000000	4.386200
342.000000	4.444200
341.000000	4.380200
340.000000	4.432300
339.000000	4.434600
338.000000	4.372900
337.000000	4.347100
336.000000	4.445100
335.000000	4.387900
334.000000	4.252600
333.000000	4.427100
332.000000	4.341300
331.000000	4.387900
330.000000	4.330000
329.000000	4.377800
328.000000	4.330000
327.000000	4.269300
326.000000	4.322800
325.000000	4.192900
324.000000	4.287000
323.000000	4.369200
322.000000	4.408500
321.000000	4.422500
320.000000	4.442400
319.000000	4.326400
318.000000	4.350400
317.000000	4.227400
316.000000	4.395300
315.000000	4.388300
314.000000	4.371200
313.000000	4.393200
312.000000	4.402800
311.000000	4.366200
310.000000	4.430000
309.000000	4.354900
308.000000	4.401900
307.000000	4.379100
306.000000	4.381800
305.000000	4.393800
304.000000	4.394400
303.000000	4.355800
302.000000	4.354600
301.000000	4.376100
300.000000	4.403400
299.000000	4.370900
298.000000	4.375200
297.000000	4.389100
296.000000	4.396000
295.000000	4.356700
294.000000	4.415000
293.000000	4.440000
292.000000	4.375900
291.000000	4.423000
290.000000	4.422600
289.000000	4.377900
288.000000	4.431800
287.000000	4.381200
286.000000	4.427700
285.000000	4.433700
284.000000	4.367800
283.000000	4.372000
282.000000	4.398100
281.000000	4.398300
280.000000	4.407300
279.000000	4.447100
278.000000	4.452300
277.000000	4.418100
276.000000	4.442800
275.000000	4.475600
274.000000	4.467200
273.000000	4.447500
272.000000	4.422200
271.000000	4.496800
270.000000	4.520200
269.000000	4.548900
268.000000	4.520700
267.000000	4.536200
266.000000	4.555500
265.000000	4.570800
264.000000	4.600300
263.000000	4.642600
262.000000	4.646500
261.000000	4.646900
260.000000	4.660900
259.000000	4.698900
258.000000	4.715700
257.000000	4.725600
256.000000	4.702000
255.000000	4.762000
254.000000	4.723400
253.000000	4.759600
252.000000	4.757100
251.000000	4.787100
250.000000	4.806500
