PE UV       SUBTECH     SPECTRUM    ASCII       PEDS        4.00        
   -1
CICIMAUCR0215-2.Sample.ASC
24/06/13
14:07:13.00
24/06/13
14:07:13.00
Vinicio Soto Monge
C. cupreomarginata. Sex M. Ventral 
250,000000
1
Lambda 1050
1050L1511233
PerkinElmer UV WinLab 6.3.2.0749 / 2.02.05 Lambda 900 UV/VIS/NIR, Aug  7 2015 09:38:08

0
0
3350/servo 860,8/2
0
0
UV/VIS
1
1
1
DoubleDePol,CommonBeamDepol,RBeamAtt,SBeamAtt,60mm sphere, WB InGaAs Detector
0
0
0
0
Program
Program
3350/servo 860,8/2
3350/0,2 860,8/0,2
3350/0,2 860,8/0,2
0
15.00
 
 
 
0
 
860,8
319,2
860,8
Front
100
on
S:100 R:100
0
0
0
0
 
0
 
 
 
0
 
 
0
0
0
0
0
 
 
 
 
0
0


0
0
#HDR
-1
-1
#GR
nm
%R
1.0
0.0
2500,000000
-1,000000
2251
8
59,483200
4,004400
#DATA
2482.000000	7.890087
2481.000000	7.891999
2480.000000	7.904143
2479.000000	7.919212
2478.000000	7.857926
2477.000000	7.905830
2476.000000	7.901332
2475.000000	7.883677
2474.000000	7.887500
2473.000000	7.954409
2472.000000	7.888850
2471.000000	7.873219
2470.000000	7.897734
2469.000000	7.861637
2468.000000	7.913927
2467.000000	7.863211
2466.000000	7.872319
2465.000000	7.923710
2464.000000	7.969703
2463.000000	7.955309
2462.000000	7.958458
2461.000000	8.001077
2460.000000	8.032789
2459.000000	8.023567
2458.000000	8.039086
2457.000000	8.042572
2456.000000	8.081255
2455.000000	8.118927
2454.000000	8.141867
2453.000000	8.173466
2452.000000	8.218334
2451.000000	8.270737
2450.000000	8.300649
2449.000000	8.331686
2448.000000	8.380715
2447.000000	8.411977
2446.000000	8.445825
2445.000000	8.469327
2444.000000	8.514308
2443.000000	8.560189
2442.000000	8.590776
2441.000000	8.636656
2440.000000	8.659259
2439.000000	8.718634
2438.000000	8.754618
2437.000000	8.798925
2436.000000	8.811744
2435.000000	8.869432
2434.000000	8.885400
2433.000000	8.915312
2432.000000	8.962992
2431.000000	8.985145
2430.000000	9.009772
2429.000000	9.018206
2428.000000	9.068360
2427.000000	9.106706
2426.000000	9.135494
2425.000000	9.149213
2424.000000	9.189808
2423.000000	9.203752
2422.000000	9.240411
2421.000000	9.262902
2420.000000	9.291015
2419.000000	9.298099
2418.000000	9.319690
2417.000000	9.342968
2416.000000	9.353426
2415.000000	9.383450
2414.000000	9.411114
2413.000000	9.422134
2412.000000	9.443387
2411.000000	9.457106
2410.000000	9.474199
2409.000000	9.510184
2408.000000	9.514120
2407.000000	9.535261
2406.000000	9.551116
2405.000000	9.572370
2404.000000	9.585527
2403.000000	9.602619
2402.000000	9.631745
2401.000000	9.638492
2400.000000	9.670091
2399.000000	9.691681
2398.000000	9.716983
2397.000000	9.737899
2396.000000	9.736212
2395.000000	9.742622
2394.000000	9.754205
2393.000000	9.788390
2392.000000	9.806495
2391.000000	9.816953
2390.000000	9.829435
2389.000000	9.840006
2388.000000	9.842030
2387.000000	9.844616
2386.000000	9.860472
2385.000000	9.863621
2384.000000	9.876440
2383.000000	9.896906
2382.000000	9.888135
2381.000000	9.884762
2380.000000	9.886111
2379.000000	9.883750
2378.000000	9.887685
2377.000000	9.890947
2376.000000	9.883637
2375.000000	9.868231
2374.000000	9.854400
2373.000000	9.856761
2372.000000	9.855412
2371.000000	9.855974
2370.000000	9.845628
2369.000000	9.832359
2368.000000	9.813580
2367.000000	9.790302
2366.000000	9.779956
2365.000000	9.762751
2364.000000	9.750157
2363.000000	9.733401
2362.000000	9.704051
2361.000000	9.685834
2360.000000	9.667729
2359.000000	9.641640
2358.000000	9.620050
2357.000000	9.596772
2356.000000	9.580579
2355.000000	9.569559
2354.000000	9.558088
2353.000000	9.546731
2352.000000	9.528289
2351.000000	9.524578
2350.000000	9.535148
2349.000000	9.552916
2348.000000	9.563599
2347.000000	9.568771
2346.000000	9.590137
2345.000000	9.591487
2344.000000	9.594186
2343.000000	9.624548
2342.000000	9.644114
2341.000000	9.655809
2340.000000	9.668629
2339.000000	9.698541
2338.000000	9.702477
2337.000000	9.704501
2336.000000	9.721931
2335.000000	9.731152
2334.000000	9.728116
2333.000000	9.729803
2332.000000	9.727779
2331.000000	9.720919
2330.000000	9.703489
2329.000000	9.681673
2328.000000	9.665817
2327.000000	9.638492
2326.000000	9.618250
2325.000000	9.594748
2324.000000	9.542120
2323.000000	9.514345
2322.000000	9.470488
2321.000000	9.431130
2320.000000	9.393009
2319.000000	9.345104
2318.000000	9.300798
2317.000000	9.256155
2316.000000	9.220395
2315.000000	9.156635
2314.000000	9.110754
2313.000000	9.051379
2312.000000	9.006511
2311.000000	8.966028
2310.000000	8.920710
2309.000000	8.892147
2308.000000	8.847841
2307.000000	8.846042
2306.000000	8.821977
2305.000000	8.805897
2304.000000	8.808933
2303.000000	8.811069
2302.000000	8.834347
2301.000000	8.840082
2300.000000	8.873593
2299.000000	8.905304
2298.000000	8.939265
2297.000000	8.971314
2296.000000	8.984695
2295.000000	9.036648
2294.000000	9.089388
2293.000000	9.141678
2292.000000	9.170016
2291.000000	9.200266
2290.000000	9.233552
2289.000000	9.235126
2288.000000	9.249970
2287.000000	9.264589
2286.000000	9.275159
2285.000000	9.254918
2284.000000	9.247046
2283.000000	9.254693
2282.000000	9.245921
2281.000000	9.218821
2280.000000	9.198129
2279.000000	9.176539
2278.000000	9.156522
2277.000000	9.135943
2276.000000	9.098384
2275.000000	9.067010
2274.000000	9.063749
2273.000000	9.081517
2272.000000	9.060938
2271.000000	9.057114
2270.000000	9.056777
2269.000000	9.064874
2268.000000	9.072408
2267.000000	9.094673
2266.000000	9.126835
2265.000000	9.194531
2264.000000	9.247721
2263.000000	9.344092
2262.000000	9.403467
2261.000000	9.478247
2260.000000	9.595310
2259.000000	9.686284
2258.000000	9.797611
2257.000000	9.902866
2256.000000	10.065922
2255.000000	10.168366
2254.000000	10.303196
2253.000000	10.436676
2252.000000	10.584551
2251.000000	10.717582
2250.000000	10.832733
2249.000000	10.957667
2248.000000	11.065508
2247.000000	11.188306
2246.000000	11.298284
2245.000000	11.395443
2244.000000	11.474497
2243.000000	11.540281
2242.000000	11.644187
2241.000000	11.688380
2240.000000	11.786101
2239.000000	11.846376
2238.000000	11.899340
2237.000000	11.952643
2236.000000	11.985591
2235.000000	12.050476
2234.000000	12.093320
2233.000000	12.126831
2232.000000	12.135377
2231.000000	12.189129
2230.000000	12.175860
2229.000000	12.177097
2228.000000	12.190929
2227.000000	12.198688
2226.000000	12.217917
2225.000000	12.189467
2224.000000	12.193065
2223.000000	12.199700
2222.000000	12.158880
2221.000000	12.136389
2220.000000	12.141900
2219.000000	12.125819
2218.000000	12.120196
2217.000000	12.103553
2216.000000	12.049914
2215.000000	12.018090
2214.000000	12.006507
2213.000000	11.981655
2212.000000	11.987390
2211.000000	11.951293
2210.000000	11.940161
2209.000000	11.901027
2208.000000	11.892256
2207.000000	11.872802
2206.000000	11.854697
2205.000000	11.855709
2204.000000	11.845139
2203.000000	11.829845
2202.000000	11.816688
2201.000000	11.809604
2200.000000	11.792848
2199.000000	11.764623
2198.000000	11.767884
2197.000000	11.750341
2196.000000	11.746968
2195.000000	11.740108
2194.000000	11.733811
2193.000000	11.742920
2192.000000	11.718405
2191.000000	11.709072
2190.000000	11.704686
2189.000000	11.714582
2188.000000	11.689730
2187.000000	11.685344
2186.000000	11.675786
2185.000000	11.668027
2184.000000	11.642837
2183.000000	11.661729
2182.000000	11.638677
2181.000000	11.632492
2180.000000	11.627994
2179.000000	11.617311
2178.000000	11.602130
2177.000000	11.614499
2176.000000	11.621921
2175.000000	11.576266
2174.000000	11.593471
2173.000000	11.580539
2172.000000	11.604716
2171.000000	11.601905
2170.000000	11.606740
2169.000000	11.589198
2168.000000	11.603816
2167.000000	11.625857
2166.000000	11.636315
2165.000000	11.643400
2164.000000	11.658356
2163.000000	11.679946
2162.000000	11.685232
2161.000000	11.694003
2160.000000	11.714919
2159.000000	11.750117
2158.000000	11.770695
2157.000000	11.778230
2156.000000	11.820287
2155.000000	11.827596
2154.000000	11.847163
2153.000000	11.893156
2152.000000	11.925204
2151.000000	11.963326
2150.000000	11.984692
2149.000000	12.018540
2148.000000	12.051713
2147.000000	12.087023
2146.000000	12.109626
2145.000000	12.128630
2144.000000	12.150558
2143.000000	12.172374
2142.000000	12.219267
2141.000000	12.253452
2140.000000	12.263910
2139.000000	12.288762
2138.000000	12.302481
2137.000000	12.324409
2136.000000	12.358820
2135.000000	12.368940
2134.000000	12.381760
2133.000000	12.400764
2132.000000	12.422917
2131.000000	12.430452
2130.000000	12.449119
2129.000000	12.450018
2128.000000	12.464075
2127.000000	12.469922
2126.000000	12.472509
2125.000000	12.471159
2124.000000	12.460139
2123.000000	12.460589
2122.000000	12.454404
2121.000000	12.459127
2120.000000	12.436861
2119.000000	12.421680
2118.000000	12.418419
2117.000000	12.428315
2116.000000	12.402788
2115.000000	12.391318
2114.000000	12.390419
2113.000000	12.355446
2112.000000	12.346675
2111.000000	12.350836
2110.000000	12.325984
2109.000000	12.296409
2108.000000	12.284376
2107.000000	12.276280
2106.000000	12.261211
2105.000000	12.223877
2104.000000	12.203298
2103.000000	12.180246
2102.000000	12.173724
2101.000000	12.163940
2100.000000	12.133803
2099.000000	12.115024
2098.000000	12.101417
2097.000000	12.083762
2096.000000	12.068918
2095.000000	12.045303
2094.000000	12.024949
2093.000000	12.008644
2092.000000	12.003696
2091.000000	11.998411
2090.000000	11.980306
2089.000000	11.970860
2088.000000	11.957478
2087.000000	11.938474
2086.000000	11.922168
2085.000000	11.912272
2084.000000	11.903839
2083.000000	11.878649
2082.000000	11.852560
2081.000000	11.829620
2080.000000	11.806792
2079.000000	11.788575
2078.000000	11.769796
2077.000000	11.739096
2076.000000	11.705810
2075.000000	11.662854
2074.000000	11.629568
2073.000000	11.616299
2072.000000	11.582226
2071.000000	11.551864
2070.000000	11.511606
2069.000000	11.461565
2068.000000	11.426480
2067.000000	11.404214
2066.000000	11.371715
2065.000000	11.319875
2064.000000	11.275231
2063.000000	11.240709
2062.000000	11.219455
2061.000000	11.194041
2060.000000	11.151984
2059.000000	11.130281
2058.000000	11.118586
2057.000000	11.111389
2056.000000	11.101943
2055.000000	11.090473
2054.000000	11.090248
2053.000000	11.101605
2052.000000	11.110714
2051.000000	11.110264
2050.000000	11.155020
2049.000000	11.188418
2048.000000	11.194828
2047.000000	11.231825
2046.000000	11.288276
2045.000000	11.320437
2044.000000	11.376213
2043.000000	11.414672
2042.000000	11.445934
2041.000000	11.500923
2040.000000	11.536233
2039.000000	11.581438
2038.000000	11.638789
2037.000000	11.676910
2036.000000	11.717505
2035.000000	11.752028
2034.000000	11.783740
2033.000000	11.809491
2032.000000	11.834456
2031.000000	11.860882
2030.000000	11.885959
2029.000000	11.913397
2028.000000	11.935662
2027.000000	11.953767
2026.000000	11.954779
2025.000000	11.955342
2024.000000	11.976145
2023.000000	11.989077
2022.000000	12.000772
2021.000000	11.991889
2020.000000	11.988178
2019.000000	11.999648
2018.000000	12.001222
2017.000000	12.002009
2016.000000	12.005833
2015.000000	11.995037
2014.000000	11.989415
2013.000000	11.984017
2012.000000	11.968161
2011.000000	11.941173
2010.000000	11.933526
2009.000000	11.915758
2008.000000	11.906650
2007.000000	11.881348
2006.000000	11.862119
2005.000000	11.833219
2004.000000	11.789700
2003.000000	11.767659
2002.000000	11.741120
2001.000000	11.713795
2000.000000	11.680059
1999.000000	11.655095
1998.000000	11.605391
1997.000000	11.546803
1996.000000	11.512618
1995.000000	11.480119
1994.000000	11.440761
1993.000000	11.391844
1992.000000	11.342140
1991.000000	11.300646
1990.000000	11.231600
1989.000000	11.213158
1988.000000	11.146361
1987.000000	11.106328
1986.000000	11.043693
1985.000000	11.010182
1984.000000	10.956767
1983.000000	10.915497
1982.000000	10.879962
1981.000000	10.813953
1980.000000	10.742546
1979.000000	10.714096
1978.000000	10.679123
1977.000000	10.607491
1976.000000	10.562060
1975.000000	10.517305
1974.000000	10.451520
1973.000000	10.405977
1972.000000	10.383711
1971.000000	10.336707
1970.000000	10.289139
1969.000000	10.229540
1968.000000	10.206599
1967.000000	10.168928
1966.000000	10.123273
1965.000000	10.063448
1964.000000	10.033086
1963.000000	9.978884
1962.000000	9.952345
1961.000000	9.908264
1960.000000	9.852151
1959.000000	9.826174
1958.000000	9.792888
1957.000000	9.758478
1956.000000	9.729016
1955.000000	9.674026
1954.000000	9.653448
1953.000000	9.627246
1952.000000	9.573157
1951.000000	9.542008
1950.000000	9.520529
1949.000000	9.477123
1948.000000	9.450472
1947.000000	9.422246
1946.000000	9.423033
1945.000000	9.358936
1944.000000	9.342630
1943.000000	9.357699
1942.000000	9.320365
1941.000000	9.319465
1940.000000	9.309232
1939.000000	9.298437
1938.000000	9.287979
1937.000000	9.285167
1936.000000	9.283818
1935.000000	9.292814
1934.000000	9.275609
1933.000000	9.297874
1932.000000	9.326100
1931.000000	9.367932
1930.000000	9.369731
1929.000000	9.421459
1928.000000	9.419660
1927.000000	9.451709
1926.000000	9.517718
1925.000000	9.566972
1924.000000	9.589125
1923.000000	9.640066
1922.000000	9.687071
1921.000000	9.781643
1920.000000	9.855412
1919.000000	9.926144
1918.000000	9.991591
1917.000000	10.068958
1916.000000	10.147787
1915.000000	10.247307
1914.000000	10.308931
1913.000000	10.432516
1912.000000	10.562285
1911.000000	10.668665
1910.000000	10.769984
1909.000000	10.906726
1908.000000	10.996125
1907.000000	11.128144
1906.000000	11.256002
1905.000000	11.426704
1904.000000	11.614724
1903.000000	11.773619
1902.000000	11.952193
1901.000000	12.132454
1900.000000	12.292810
1899.000000	12.510855
1898.000000	12.760498
1897.000000	12.994511
1896.000000	13.178595
1895.000000	13.396415
1894.000000	13.606363
1893.000000	13.833291
1892.000000	14.105200
1891.000000	14.429287
1890.000000	14.753261
1889.000000	15.046087
1888.000000	15.363876
1887.000000	15.697634
1886.000000	16.044211
1885.000000	16.405857
1884.000000	16.810572
1883.000000	17.272863
1882.000000	17.731555
1881.000000	18.145153
1880.000000	18.604407
1879.000000	19.025653
1878.000000	19.437003
1877.000000	19.854200
1876.000000	20.290851
1875.000000	20.736386
1874.000000	21.132217
1873.000000	21.546603
1872.000000	21.967511
1871.000000	22.344901
1870.000000	22.709133
1869.000000	23.067967
1868.000000	23.410384
1867.000000	23.671498
1866.000000	23.911695
1865.000000	24.102414
1864.000000	24.295382
1863.000000	24.451578
1862.000000	24.610810
1861.000000	24.788372
1860.000000	24.963010
1859.000000	25.119880
1858.000000	25.267867
1857.000000	25.407308
1856.000000	25.482201
1855.000000	25.545174
1854.000000	25.646381
1853.000000	25.722398
1852.000000	25.731282
1851.000000	25.768166
1850.000000	25.801677
1849.000000	25.795830
1848.000000	25.847445
1847.000000	25.899286
1846.000000	25.904683
1845.000000	25.904009
1844.000000	25.860377
1843.000000	25.805950
1842.000000	25.797629
1841.000000	25.796729
1840.000000	25.832264
1839.000000	25.827429
1838.000000	25.799541
1837.000000	25.771090
1836.000000	25.754785
1835.000000	25.737467
1834.000000	25.686751
1833.000000	25.621079
1832.000000	25.560467
1831.000000	25.511776
1830.000000	25.471968
1829.000000	25.428561
1828.000000	25.378183
1827.000000	25.308462
1826.000000	25.254485
1825.000000	25.214340
1824.000000	25.151367
1823.000000	25.093342
1822.000000	25.058481
1821.000000	25.049035
1820.000000	25.040826
1819.000000	25.018786
1818.000000	24.985163
1817.000000	24.936583
1816.000000	24.908808
1815.000000	24.890815
1814.000000	24.865514
1813.000000	24.837176
1812.000000	24.826043
1811.000000	24.817497
1810.000000	24.795119
1809.000000	24.760483
1808.000000	24.718876
1807.000000	24.666474
1806.000000	24.626778
1805.000000	24.587195
1804.000000	24.540077
1803.000000	24.502406
1802.000000	24.461473
1801.000000	24.425939
1800.000000	24.379608
1799.000000	24.313149
1798.000000	24.261646
1797.000000	24.212055
1796.000000	24.166961
1795.000000	24.127603
1794.000000	24.080261
1793.000000	24.047312
1792.000000	24.006942
1791.000000	23.948692
1790.000000	23.888305
1789.000000	23.836690
1788.000000	23.802054
1787.000000	23.763371
1786.000000	23.711193
1785.000000	23.668574
1784.000000	23.610099
1783.000000	23.542065
1782.000000	23.470883
1781.000000	23.403187
1780.000000	23.360343
1779.000000	23.301193
1778.000000	23.239907
1777.000000	23.168050
1776.000000	23.108675
1775.000000	23.044690
1774.000000	22.950343
1773.000000	22.857682
1772.000000	22.766933
1771.000000	22.678996
1770.000000	22.598143
1769.000000	22.504470
1768.000000	22.391231
1767.000000	22.309028
1766.000000	22.248754
1765.000000	22.184656
1764.000000	22.113249
1763.000000	22.071080
1762.000000	22.061859
1761.000000	22.064108
1760.000000	22.084124
1759.000000	22.123145
1758.000000	22.169813
1757.000000	22.241895
1756.000000	22.293398
1755.000000	22.342989
1754.000000	22.412259
1753.000000	22.458252
1752.000000	22.479393
1751.000000	22.500759
1750.000000	22.499185
1749.000000	22.481305
1748.000000	22.473546
1747.000000	22.429240
1746.000000	22.386733
1745.000000	22.326346
1744.000000	22.258537
1743.000000	22.162278
1742.000000	22.035433
1741.000000	21.900265
1740.000000	21.746543
1739.000000	21.581014
1738.000000	21.424143
1737.000000	21.255240
1736.000000	21.117711
1735.000000	21.011444
1734.000000	20.906301
1733.000000	20.847939
1732.000000	20.809030
1731.000000	20.808693
1730.000000	20.857722
1729.000000	20.915635
1728.000000	20.975909
1727.000000	21.065196
1726.000000	21.167977
1725.000000	21.240171
1724.000000	21.308093
1723.000000	21.373090
1722.000000	21.434264
1721.000000	21.494763
1720.000000	21.538844
1719.000000	21.576403
1718.000000	21.616773
1717.000000	21.691104
1716.000000	21.765660
1715.000000	21.834031
1714.000000	21.898016
1713.000000	21.988203
1712.000000	22.076028
1711.000000	22.151933
1710.000000	22.178134
1709.000000	22.228738
1708.000000	22.262698
1707.000000	22.270345
1706.000000	22.251903
1705.000000	22.214119
1704.000000	22.183982
1703.000000	22.132816
1702.000000	22.071867
1701.000000	21.982580
1700.000000	21.887446
1699.000000	21.767797
1698.000000	21.655345
1697.000000	21.523776
1696.000000	21.413235
1695.000000	21.344864
1694.000000	21.297522
1693.000000	21.312141
1692.000000	21.408287
1691.000000	21.509944
1690.000000	21.619922
1689.000000	21.755877
1688.000000	21.854047
1687.000000	21.952780
1686.000000	22.025199
1685.000000	22.091883
1684.000000	22.170825
1683.000000	22.271244
1682.000000	22.467024
1681.000000	22.701374
1680.000000	23.026023
1679.000000	23.420392
1678.000000	23.833766
1677.000000	24.277614
1676.000000	24.700322
1675.000000	25.099302
1674.000000	25.472530
1673.000000	25.784472
1672.000000	26.080671
1671.000000	26.341560
1670.000000	26.555668
1669.000000	26.752684
1668.000000	26.930696
1667.000000	27.088466
1666.000000	27.214525
1665.000000	27.326527
1664.000000	27.440666
1663.000000	27.530740
1662.000000	27.611818
1661.000000	27.666582
1660.000000	27.733154
1659.000000	27.799838
1658.000000	27.863036
1657.000000	27.884402
1656.000000	27.885077
1655.000000	27.931294
1654.000000	27.950299
1653.000000	27.913527
1652.000000	27.915101
1651.000000	27.904756
1650.000000	27.881366
1649.000000	27.859438
1648.000000	27.822328
1647.000000	27.764640
1646.000000	27.739339
1645.000000	27.697394
1644.000000	27.658261
1643.000000	27.588541
1642.000000	27.546708
1641.000000	27.520170
1640.000000	27.445839
1639.000000	27.397597
1638.000000	27.337323
1637.000000	27.268614
1636.000000	27.205079
1635.000000	27.146491
1634.000000	27.082506
1633.000000	27.008963
1632.000000	26.932945
1631.000000	26.846020
1630.000000	26.784171
1629.000000	26.707366
1628.000000	26.616055
1627.000000	26.562753
1626.000000	26.501804
1625.000000	26.412404
1624.000000	26.337849
1623.000000	26.235067
1622.000000	26.160174
1621.000000	26.085281
1620.000000	26.006452
1619.000000	25.939543
1618.000000	25.869148
1617.000000	25.788970
1616.000000	25.725435
1615.000000	25.632212
1614.000000	25.578460
1613.000000	25.524483
1612.000000	25.453188
1611.000000	25.384592
1610.000000	25.305764
1609.000000	25.236943
1608.000000	25.164411
1607.000000	25.109647
1606.000000	25.037678
1605.000000	24.933997
1604.000000	24.882494
1603.000000	24.805352
1602.000000	24.718539
1601.000000	24.653766
1600.000000	24.592368
1599.000000	24.513764
1598.000000	24.458212
1597.000000	24.358580
1596.000000	24.285936
1595.000000	24.219364
1594.000000	24.153017
1593.000000	24.080598
1592.000000	24.007504
1591.000000	23.963761
1590.000000	23.915631
1589.000000	23.851084
1588.000000	23.787661
1587.000000	23.726937
1586.000000	23.664076
1585.000000	23.613247
1584.000000	23.580749
1583.000000	23.516989
1582.000000	23.456939
1581.000000	23.411396
1580.000000	23.384857
1579.000000	23.337065
1578.000000	23.295683
1577.000000	23.264196
1576.000000	23.235071
1575.000000	23.192789
1574.000000	23.173447
1573.000000	23.146796
1572.000000	23.123294
1571.000000	23.119695
1570.000000	23.095518
1569.000000	23.080112
1568.000000	23.075839
1567.000000	23.067180
1566.000000	23.054586
1565.000000	23.067180
1564.000000	23.037605
1563.000000	23.039405
1562.000000	23.028497
1561.000000	23.010954
1560.000000	22.997685
1559.000000	22.970809
1558.000000	22.963050
1557.000000	22.949106
1556.000000	22.913796
1555.000000	22.882984
1554.000000	22.849585
1553.000000	22.817986
1552.000000	22.793697
1551.000000	22.759511
1550.000000	22.710707
1549.000000	22.664152
1548.000000	22.606239
1547.000000	22.568006
1546.000000	22.546077
1545.000000	22.517402
1544.000000	22.470172
1543.000000	22.438573
1542.000000	22.409448
1541.000000	22.375600
1540.000000	22.341415
1539.000000	22.313639
1538.000000	22.276530
1537.000000	22.245043
1536.000000	22.221990
1535.000000	22.196239
1534.000000	22.158792
1533.000000	22.112912
1532.000000	22.067032
1531.000000	22.023288
1530.000000	21.990901
1529.000000	21.947270
1528.000000	21.899141
1527.000000	21.848987
1526.000000	21.809291
1525.000000	21.769708
1524.000000	21.719217
1523.000000	21.663778
1522.000000	21.606765
1521.000000	21.559648
1520.000000	21.512193
1519.000000	21.454393
1518.000000	21.384335
1517.000000	21.317988
1516.000000	21.266373
1515.000000	21.219593
1514.000000	21.162130
1513.000000	21.101855
1512.000000	21.038657
1511.000000	20.978608
1510.000000	20.932952
1509.000000	20.866268
1508.000000	20.790701
1507.000000	20.724241
1506.000000	20.647999
1505.000000	20.587612
1504.000000	20.535097
1503.000000	20.486180
1502.000000	20.429954
1501.000000	20.370917
1500.000000	20.296699
1499.000000	20.223942
1498.000000	20.181998
1497.000000	20.133756
1496.000000	20.090124
1495.000000	20.042894
1494.000000	19.986218
1493.000000	19.943149
1492.000000	19.890072
1491.000000	19.841043
1490.000000	19.823838
1489.000000	19.793813
1488.000000	19.757154
1487.000000	19.725330
1486.000000	19.687546
1485.000000	19.664606
1484.000000	19.645376
1483.000000	19.614677
1482.000000	19.580716
1481.000000	19.554290
1480.000000	19.535398
1479.000000	19.519430
1478.000000	19.504474
1477.000000	19.484682
1476.000000	19.461517
1475.000000	19.457356
1474.000000	19.434754
1473.000000	19.427107
1472.000000	19.426545
1471.000000	19.432055
1470.000000	19.447123
1469.000000	19.444987
1468.000000	19.428344
1467.000000	19.439589
1466.000000	19.443412
1465.000000	19.446898
1464.000000	19.468827
1463.000000	19.482208
1462.000000	19.499751
1461.000000	19.501775
1460.000000	19.535735
1459.000000	19.572732
1458.000000	19.610741
1457.000000	19.642565
1456.000000	19.713635
1455.000000	19.752880
1454.000000	19.794038
1453.000000	19.864545
1452.000000	19.926956
1451.000000	19.982283
1450.000000	20.045143
1449.000000	20.121049
1448.000000	20.184359
1447.000000	20.233051
1446.000000	20.322225
1445.000000	20.413424
1444.000000	20.490116
1443.000000	20.541844
1442.000000	20.624834
1441.000000	20.720530
1440.000000	20.831970
1439.000000	20.915185
1438.000000	20.999974
1437.000000	21.115237
1436.000000	21.211721
1435.000000	21.318326
1434.000000	21.438424
1433.000000	21.538169
1432.000000	21.682221
1431.000000	21.781628
1430.000000	21.901390
1429.000000	22.028011
1428.000000	22.182182
1427.000000	22.345350
1426.000000	22.495137
1425.000000	22.670112
1424.000000	22.866678
1423.000000	23.078875
1422.000000	23.247778
1421.000000	23.451766
1420.000000	23.693088
1419.000000	23.911245
1418.000000	24.168198
1417.000000	24.407047
1416.000000	24.615645
1415.000000	24.892727
1414.000000	25.189151
1413.000000	25.499069
1412.000000	25.796055
1411.000000	26.077972
1410.000000	26.410380
1409.000000	26.781584
1408.000000	27.159986
1407.000000	27.565150
1406.000000	27.964355
1405.000000	28.360636
1404.000000	28.853064
1403.000000	29.256767
1402.000000	29.697017
1401.000000	30.102856
1400.000000	30.609228
1399.000000	31.114250
1398.000000	31.506258
1397.000000	31.825397
1396.000000	32.248217
1395.000000	32.742894
1394.000000	33.209120
1393.000000	33.592132
1392.000000	33.951079
1391.000000	34.444293
1390.000000	34.896013
1389.000000	35.314785
1388.000000	35.862426
1387.000000	36.447514
1386.000000	37.018096
1385.000000	37.604421
1384.000000	38.184562
1383.000000	38.837008
1382.000000	39.486981
1381.000000	40.091299
1380.000000	40.600369
1379.000000	40.972923
1378.000000	41.326135
1377.000000	41.557449
1376.000000	41.846451
1375.000000	42.072479
1374.000000	42.357096
1373.000000	42.639688
1372.000000	42.978056
1371.000000	43.321372
1370.000000	43.710119
1369.000000	44.031169
1368.000000	44.351545
1367.000000	44.682267
1366.000000	44.957100
1365.000000	45.193811
1364.000000	45.441993
1363.000000	45.625740
1362.000000	45.852893
1361.000000	46.059917
1360.000000	46.259182
1359.000000	46.305175
1358.000000	46.449114
1357.000000	46.570450
1356.000000	46.734967
1355.000000	46.975389
1354.000000	47.273950
1353.000000	47.649090
1352.000000	47.977787
1351.000000	48.432094
1350.000000	48.901806
1349.000000	49.317429
1348.000000	49.735301
1347.000000	50.109654
1346.000000	50.480633
1345.000000	50.788639
1344.000000	51.146349
1343.000000	51.526325
1342.000000	51.845464
1341.000000	52.130755
1340.000000	52.458102
1339.000000	52.799619
1338.000000	53.120220
1337.000000	53.408435
1336.000000	53.715092
1335.000000	54.009604
1334.000000	54.300067
1333.000000	54.593342
1332.000000	54.861428
1331.000000	55.144357
1330.000000	55.410869
1329.000000	55.678730
1328.000000	55.929385
1327.000000	56.173631
1326.000000	56.400222
1325.000000	56.625239
1324.000000	56.834512
1323.000000	57.024106
1322.000000	57.244400
1321.000000	57.444002
1320.000000	57.615604
1319.000000	57.797327
1318.000000	57.976575
1317.000000	58.149414
1316.000000	58.320116
1315.000000	58.490144
1314.000000	58.623737
1313.000000	58.771274
1312.000000	58.916000
1311.000000	59.053979
1310.000000	59.175539
1309.000000	59.302385
1308.000000	59.396845
1307.000000	59.508060
1306.000000	59.600720
1305.000000	59.687983
1304.000000	59.774234
1303.000000	59.849914
1302.000000	59.906703
1301.000000	59.965965
1300.000000	60.030512
1299.000000	60.072682
1298.000000	60.130257
1297.000000	60.164105
1296.000000	60.185471
1295.000000	60.232476
1294.000000	60.253505
1293.000000	60.292413
1292.000000	60.306919
1291.000000	60.308944
1290.000000	60.321988
1289.000000	60.319289
1288.000000	60.312430
1287.000000	60.288590
1286.000000	60.282855
1285.000000	60.253167
1284.000000	60.230677
1283.000000	60.198741
1282.000000	60.163993
1281.000000	60.115301
1280.000000	60.067846
1279.000000	60.037259
1278.000000	59.991941
1277.000000	59.959780
1276.000000	59.919635
1275.000000	59.887136
1274.000000	59.857224
1273.000000	59.820902
1272.000000	59.785929
1271.000000	59.765688
1270.000000	59.758041
1269.000000	59.720819
1268.000000	59.692931
1267.000000	59.674939
1266.000000	59.647725
1265.000000	59.599371
1264.000000	59.579355
1263.000000	59.550230
1262.000000	59.501875
1261.000000	59.465328
1260.000000	59.429006
1259.000000	59.374917
1258.000000	59.335896
1257.000000	59.298449
1256.000000	59.244023
1255.000000	59.189371
1254.000000	59.128647
1253.000000	59.076132
1252.000000	59.014620
1251.000000	58.934330
1250.000000	58.854713
1249.000000	58.763740
1248.000000	58.687385
1247.000000	58.610917
1246.000000	58.510610
1245.000000	58.404006
1244.000000	58.299987
1243.000000	58.187198
1242.000000	58.066987
1241.000000	57.958695
1240.000000	57.850854
1239.000000	57.721646
1238.000000	57.598062
1237.000000	57.479874
1236.000000	57.351454
1235.000000	57.215837
1234.000000	57.085955
1233.000000	56.947864
1232.000000	56.795604
1231.000000	56.651440
1230.000000	56.504690
1229.000000	56.341635
1228.000000	56.193985
1227.000000	56.031604
1226.000000	55.859215
1225.000000	55.686826
1224.000000	55.513200
1223.000000	55.334289
1222.000000	55.144470
1221.000000	54.966121
1220.000000	54.783049
1219.000000	54.612909
1218.000000	54.448841
1217.000000	54.278477
1216.000000	54.108674
1215.000000	53.952590
1214.000000	53.803929
1213.000000	53.637275
1212.000000	53.487601
1211.000000	53.361542
1210.000000	53.210407
1209.000000	53.073890
1208.000000	52.933212
1207.000000	52.806367
1206.000000	52.700887
1205.000000	52.580675
1204.000000	52.487340
1203.000000	52.435837
1202.000000	52.383209
1201.000000	52.312140
1200.000000	52.242644
1199.000000	52.176972
1198.000000	52.098256
1197.000000	51.979394
1196.000000	51.854122
1195.000000	51.705011
1194.000000	51.497874
1193.000000	51.240022
1192.000000	50.943373
1191.000000	50.603206
1190.000000	50.247407
1189.000000	49.885087
1188.000000	49.532212
1187.000000	49.252544
1186.000000	49.078693
1185.000000	48.988394
1184.000000	49.010659
1183.000000	49.148863
1182.000000	49.398394
1181.000000	49.742273
1180.000000	50.156658
1179.000000	50.606804
1178.000000	51.027262
1177.000000	51.444460
1176.000000	51.822523
1175.000000	52.155382
1174.000000	52.452367
1173.000000	52.734735
1172.000000	53.015302
1171.000000	53.302955
1170.000000	53.588808
1169.000000	53.885906
1168.000000	54.213704
1167.000000	54.538578
1166.000000	54.827692
1165.000000	55.148181
1164.000000	55.466870
1163.000000	55.820082
1162.000000	56.182515
1161.000000	56.517510
1160.000000	56.851267
1159.000000	57.195483
1158.000000	57.538574
1157.000000	57.857826
1156.000000	58.166732
1155.000000	58.457533
1154.000000	58.701554
1153.000000	58.915438
1152.000000	59.109530
1151.000000	59.276184
1150.000000	59.390997
1149.000000	59.520205
1148.000000	59.638392
1147.000000	59.768387
1146.000000	59.921659
1145.000000	60.106867
1144.000000	60.337619
1143.000000	60.593785
1142.000000	60.917422
1141.000000	61.251967
1140.000000	61.602705
1139.000000	61.966712
1138.000000	62.354897
1137.000000	62.756688
1136.000000	63.161740
1135.000000	63.597155
1134.000000	64.049999
1133.000000	64.457975
1132.000000	64.800054
1131.000000	65.143370
1130.000000	65.456437
1129.000000	65.716089
1128.000000	65.946278
1127.000000	66.160162
1126.000000	66.312197
1125.000000	66.433870
1124.000000	66.546547
1123.000000	66.672156
1122.000000	66.735017
1121.000000	66.769990
1120.000000	66.825878
1119.000000	66.853204
1118.000000	66.862875
1117.000000	66.885815
1116.000000	66.890088
1115.000000	66.885253
1114.000000	66.884466
1113.000000	66.878506
1112.000000	66.850618
1111.000000	66.843758
1110.000000	66.840497
1109.000000	66.804288
1108.000000	66.791356
1107.000000	66.773813
1106.000000	66.766616
1105.000000	66.735354
1104.000000	66.736479
1103.000000	66.727258
1102.000000	66.704543
1101.000000	66.666084
1100.000000	66.678116
1099.000000	66.649666
1098.000000	66.611657
1097.000000	66.590629
1096.000000	66.544973
1095.000000	66.528443
1094.000000	66.474578
1093.000000	66.449951
1092.000000	66.422513
1091.000000	66.349531
1090.000000	66.302751
1089.000000	66.255971
1088.000000	66.212452
1087.000000	66.135985
1086.000000	66.096964
1085.000000	66.036240
1084.000000	65.979452
1083.000000	65.913217
1082.000000	65.854742
1081.000000	65.793681
1080.000000	65.734643
1079.000000	65.651316
1078.000000	65.600713
1077.000000	65.538752
1076.000000	65.464534
1075.000000	65.404484
1074.000000	65.333414
1073.000000	65.251549
1072.000000	65.194536
1071.000000	65.119531
1070.000000	65.045425
1069.000000	64.955463
1068.000000	64.876747
1067.000000	64.808826
1066.000000	64.739780
1065.000000	64.676582
1064.000000	64.582797
1063.000000	64.492835
1062.000000	64.413669
1061.000000	64.328993
1060.000000	64.210581
1059.000000	64.144459
1058.000000	64.073164
1057.000000	63.979492
1056.000000	63.885144
1055.000000	63.793158
1054.000000	63.709944
1053.000000	63.607275
1052.000000	63.513715
1051.000000	63.432187
1050.000000	63.344925
1049.000000	63.245517
1048.000000	63.145997
1047.000000	63.074140
1046.000000	62.990588
1045.000000	62.894666
1044.000000	62.813139
1043.000000	62.755451
1042.000000	62.649409
1041.000000	62.552700
1040.000000	62.479156
1039.000000	62.399877
1038.000000	62.290911
1037.000000	62.192966
1036.000000	62.124370
1035.000000	62.014617
1034.000000	61.903401
1033.000000	61.807592
1032.000000	61.682771
1031.000000	61.593259
1030.000000	61.490140
1029.000000	61.366780
1028.000000	61.273670
1027.000000	61.175387
1026.000000	61.040332
1025.000000	60.930916
1024.000000	60.815653
1023.000000	60.706237
1022.000000	60.582090
1021.000000	60.468626
1020.000000	60.323787
1019.000000	60.244733
1018.000000	60.129695
1017.000000	60.015556
1016.000000	59.905128
1015.000000	59.789303
1014.000000	59.688770
1013.000000	59.601733
1012.000000	59.504574
1011.000000	59.417536
1010.000000	59.345004
1009.000000	59.268425
1008.000000	59.187909
1007.000000	59.107956
1006.000000	59.036211
1005.000000	58.982347
1004.000000	58.910040
1003.000000	58.854264
1002.000000	58.782182
1001.000000	58.691321
1000.000000	58.612492
999.000000	58.552105
998.000000	58.490594
997.000000	58.423122
996.000000	58.337322
995.000000	58.272662
994.000000	58.230942
993.000000	58.163358
992.000000	58.084642
991.000000	58.032801
990.000000	57.970390
989.000000	57.908879
988.000000	57.834436
987.000000	57.799688
986.000000	57.734578
985.000000	57.664408
984.000000	57.620552
983.000000	57.586816
982.000000	57.534414
981.000000	57.476276
980.000000	57.425448
979.000000	57.389126
978.000000	57.336048
977.000000	57.273075
976.000000	57.236191
975.000000	57.192559
974.000000	57.142968
973.000000	57.101923
972.000000	57.029729
971.000000	57.010050
970.000000	56.981937
969.000000	56.924924
968.000000	56.871621
967.000000	56.842159
966.000000	56.811572
965.000000	56.769627
964.000000	56.724984
963.000000	56.693947
962.000000	56.693947
961.000000	56.665497
960.000000	56.646717
959.000000	56.616580
958.000000	56.584868
957.000000	56.579021
956.000000	56.558105
955.000000	56.519646
954.000000	56.508289
953.000000	56.490859
952.000000	56.463308
951.000000	56.454761
950.000000	56.434633
949.000000	56.411355
948.000000	56.390439
947.000000	56.367274
946.000000	56.336912
945.000000	56.313072
944.000000	56.299128
943.000000	56.274501
942.000000	56.233456
941.000000	56.203431
940.000000	56.161262
939.000000	56.123478
938.000000	56.089180
937.000000	56.049934
936.000000	56.038127
935.000000	56.015636
934.000000	55.979314
933.000000	55.947828
932.000000	55.920389
931.000000	55.913755
930.000000	55.898236
929.000000	55.857866
928.000000	55.825367
927.000000	55.825367
926.000000	55.790507
925.000000	55.741703
924.000000	55.703019
923.000000	55.696160
922.000000	55.715502
921.000000	55.687838
920.000000	55.639709
919.000000	55.614857
918.000000	55.600351
917.000000	55.574262
916.000000	55.553908
915.000000	55.550085
914.000000	55.519722
913.000000	55.477553
912.000000	55.439657
911.000000	55.430548
910.000000	55.423801
909.000000	55.414580
908.000000	55.399286
907.000000	55.408732
906.000000	55.413005
905.000000	55.420540
904.000000	55.459898
903.000000	55.451352
902.000000	55.453263
901.000000	55.488911
900.000000	55.531642
899.000000	55.552446
898.000000	55.587081
897.000000	55.618905
896.000000	55.622616
895.000000	55.641396
894.000000	55.672545
893.000000	55.703469
892.000000	55.708192
891.000000	55.693686
890.000000	55.693798
889.000000	55.673894
888.000000	55.683678
887.000000	55.687613
886.000000	55.689525
885.000000	55.640833
884.000000	55.617668
883.000000	55.581684
882.000000	55.539627
881.000000	55.460348
880.000000	55.423801
879.000000	55.345309
878.000000	55.288071
877.000000	55.168760
876.000000	54.996708
875.000000	54.844448
874.000000	54.699497
873.000000	54.570852
872.000000	54.357980
871.000000	54.175358
870.000000	54.134763
869.000000	54.187615
868.000000	54.253737
867.000000	54.301529
866.000000	54.360567
865.000000	54.393290
864.000000	54.436809
863.000000	54.508554
862.000000	54.526546
861.000000	54.558482
860.000000	54.617070
859.000000	54.675545
858.000000	54.663400
857.000000	53.810100
856.000000	55.110900
855.000000	55.069200
854.000000	55.271600
853.000000	55.191900
852.000000	54.892300
851.000000	55.515500
850.000000	55.322400
849.000000	55.145700
848.000000	55.212800
847.000000	55.597100
846.000000	55.517300
845.000000	55.140300
844.000000	55.039400
843.000000	55.412300
842.000000	55.195100
841.000000	55.254100
840.000000	55.179600
839.000000	55.304500
838.000000	55.014600
837.000000	55.287600
836.000000	55.113900
835.000000	55.324900
834.000000	55.232000
833.000000	55.202200
832.000000	55.043800
831.000000	54.921400
830.000000	54.870700
829.000000	54.933000
828.000000	54.830400
827.000000	54.765900
826.000000	54.322400
825.000000	54.633000
824.000000	54.414900
823.000000	54.299400
822.000000	54.360000
821.000000	54.295600
820.000000	54.097700
819.000000	53.882100
818.000000	53.879600
817.000000	53.803300
816.000000	53.725900
815.000000	53.770300
814.000000	53.527800
813.000000	53.291200
812.000000	53.209800
811.000000	53.237500
810.000000	53.069300
809.000000	53.061300
808.000000	52.781400
807.000000	52.682000
806.000000	52.658200
805.000000	52.385900
804.000000	52.203600
803.000000	52.076700
802.000000	51.952500
801.000000	51.831900
800.000000	51.697000
799.000000	51.632600
798.000000	51.439200
797.000000	51.243600
796.000000	51.174500
795.000000	51.003000
794.000000	50.822100
793.000000	50.548700
792.000000	50.421800
791.000000	50.332500
790.000000	50.094600
789.000000	49.998100
788.000000	49.729900
787.000000	49.621900
786.000000	49.374300
785.000000	49.384600
784.000000	48.980000
783.000000	48.895900
782.000000	48.591100
781.000000	48.378900
780.000000	48.205400
779.000000	48.109500
778.000000	47.850900
777.000000	47.699400
776.000000	47.549900
775.000000	47.350100
774.000000	47.160400
773.000000	46.894600
772.000000	46.775100
771.000000	46.521300
770.000000	46.302000
769.000000	46.120600
768.000000	45.951100
767.000000	45.783400
766.000000	45.510900
765.000000	45.303800
764.000000	45.064400
763.000000	44.868700
762.000000	44.628000
761.000000	44.370300
760.000000	44.068200
759.000000	43.880000
758.000000	43.746000
757.000000	43.367600
756.000000	43.167400
755.000000	42.857600
754.000000	42.538300
753.000000	42.306400
752.000000	42.021700
751.000000	41.820400
750.000000	41.406000
749.000000	41.213100
748.000000	40.918700
747.000000	40.692700
746.000000	40.446300
745.000000	40.099300
744.000000	39.844900
743.000000	39.604300
742.000000	39.347400
741.000000	38.942400
740.000000	38.669800
739.000000	38.418900
738.000000	38.063300
737.000000	37.842400
736.000000	37.599800
735.000000	37.334600
734.000000	36.964300
733.000000	36.712900
732.000000	36.482100
731.000000	36.207700
730.000000	35.847800
729.000000	35.627900
728.000000	35.278000
727.000000	34.982500
726.000000	34.721100
725.000000	34.404300
724.000000	34.151900
723.000000	33.852900
722.000000	33.555600
721.000000	33.273800
720.000000	32.970800
719.000000	32.691800
718.000000	32.412700
717.000000	32.093200
716.000000	31.871700
715.000000	31.640700
714.000000	31.336100
713.000000	31.064700
712.000000	30.877600
711.000000	30.618300
710.000000	30.364500
709.000000	30.114000
708.000000	29.890000
707.000000	29.670300
706.000000	29.412600
705.000000	29.191100
704.000000	28.955100
703.000000	28.736100
702.000000	28.504100
701.000000	28.297800
700.000000	28.054900
699.000000	27.855800
698.000000	27.651000
697.000000	27.432000
696.000000	27.277500
695.000000	27.074300
694.000000	26.898500
693.000000	26.717500
692.000000	26.527300
691.000000	26.330100
690.000000	26.149400
689.000000	25.965200
688.000000	25.762400
687.000000	25.559400
686.000000	25.390200
685.000000	25.227300
684.000000	25.053900
683.000000	24.897100
682.000000	24.722200
681.000000	24.540100
680.000000	24.371500
679.000000	24.213200
678.000000	24.040100
677.000000	23.894900
676.000000	23.763600
675.000000	23.635800
674.000000	23.516000
673.000000	23.398400
672.000000	23.290200
671.000000	23.174700
670.000000	23.028100
669.000000	22.888800
668.000000	22.789500
667.000000	22.702600
666.000000	22.604900
665.000000	22.513900
664.000000	22.412000
663.000000	22.315100
662.000000	22.238300
661.000000	22.147100
660.000000	22.084000
659.000000	22.024900
658.000000	21.935500
657.000000	21.864500
656.000000	21.820700
655.000000	21.773300
654.000000	21.714400
653.000000	21.673700
652.000000	21.647900
651.000000	21.608300
650.000000	21.582500
649.000000	21.562900
648.000000	21.550000
647.000000	21.558600
646.000000	21.555200
645.000000	21.536400
644.000000	21.547800
643.000000	21.567000
642.000000	21.599400
641.000000	21.642800
640.000000	21.678600
639.000000	21.726500
638.000000	21.783600
637.000000	21.843900
636.000000	21.929300
635.000000	22.017800
634.000000	22.120400
633.000000	22.220500
632.000000	22.328400
631.000000	22.448300
630.000000	22.582000
629.000000	22.728700
628.000000	22.859300
627.000000	23.021600
626.000000	23.187200
625.000000	23.355300
624.000000	23.521100
623.000000	23.701100
622.000000	23.892200
621.000000	24.074900
620.000000	24.278800
619.000000	24.479700
618.000000	24.680500
617.000000	24.882100
616.000000	25.066900
615.000000	25.262300
614.000000	25.461600
613.000000	25.644300
612.000000	25.841600
611.000000	26.045600
610.000000	26.228300
609.000000	26.395200
608.000000	26.576500
607.000000	26.756100
606.000000	26.921000
605.000000	27.081700
604.000000	27.262500
603.000000	27.411300
602.000000	27.528300
601.000000	27.662500
600.000000	27.794100
599.000000	27.910800
598.000000	28.028400
597.000000	28.121300
596.000000	28.209100
595.000000	28.310400
594.000000	28.401300
593.000000	28.490200
592.000000	28.544800
591.000000	28.610200
590.000000	28.661500
589.000000	28.700600
588.000000	28.753600
587.000000	28.806100
586.000000	28.840700
585.000000	28.866300
584.000000	28.905400
583.000000	28.917700
582.000000	28.947400
581.000000	28.938200
580.000000	28.938700
579.000000	28.928000
578.000000	28.935400
577.000000	28.911300
576.000000	28.896400
575.000000	28.866600
574.000000	28.851000
573.000000	28.815800
572.000000	28.766700
571.000000	28.708900
570.000000	28.657100
569.000000	28.628200
568.000000	28.566000
567.000000	28.511100
566.000000	28.439900
565.000000	28.352600
564.000000	28.281300
563.000000	28.183200
562.000000	28.107600
561.000000	28.005400
560.000000	27.899400
559.000000	27.688100
558.000000	27.546300
557.000000	27.414100
556.000000	27.284700
555.000000	27.145800
554.000000	26.995700
553.000000	26.859500
552.000000	26.671600
551.000000	26.524600
550.000000	26.355700
549.000000	26.166600
548.000000	25.962700
547.000000	25.781500
546.000000	25.586300
545.000000	25.351400
544.000000	25.139800
543.000000	24.915600
542.000000	24.686900
541.000000	24.443000
540.000000	24.190900
539.000000	23.935100
538.000000	23.681100
537.000000	23.402700
536.000000	23.156300
535.000000	22.861700
534.000000	22.575100
533.000000	22.261500
532.000000	21.966200
531.000000	21.653600
530.000000	21.358400
529.000000	21.031200
528.000000	20.718100
527.000000	20.375500
526.000000	20.048100
525.000000	19.725400
524.000000	19.384800
523.000000	19.033400
522.000000	18.703200
521.000000	18.357900
520.000000	18.023400
519.000000	17.693300
518.000000	17.348800
517.000000	17.019400
516.000000	16.697400
515.000000	16.364800
514.000000	16.059300
513.000000	15.754300
512.000000	15.455800
511.000000	15.154100
510.000000	14.868600
509.000000	14.603600
508.000000	14.374900
507.000000	14.116800
506.000000	13.877800
505.000000	13.660900
504.000000	13.466100
503.000000	13.232600
502.000000	13.048100
501.000000	12.877400
500.000000	12.694800
499.000000	12.555400
498.000000	12.398300
497.000000	12.258000
496.000000	12.114300
495.000000	12.012600
494.000000	11.884800
493.000000	11.789400
492.000000	11.684100
491.000000	11.603400
490.000000	11.512600
489.000000	11.430000
488.000000	11.378900
487.000000	11.315500
486.000000	11.239500
485.000000	11.191700
484.000000	11.144400
483.000000	11.093000
482.000000	11.020000
481.000000	10.960600
480.000000	10.889100
479.000000	10.839400
478.000000	10.756600
477.000000	10.706000
476.000000	10.638800
475.000000	10.566500
474.000000	10.521800
473.000000	10.459000
472.000000	10.392100
471.000000	10.352400
470.000000	10.304200
469.000000	10.240600
468.000000	10.190900
467.000000	10.140300
466.000000	10.079200
465.000000	10.034900
464.000000	9.984700
463.000000	9.923400
462.000000	9.885800
461.000000	9.831100
460.000000	9.769600
459.000000	9.707500
458.000000	9.668500
457.000000	9.599800
456.000000	9.540000
455.000000	9.490600
454.000000	9.426200
453.000000	9.372900
452.000000	9.297600
451.000000	9.224100
450.000000	9.157900
449.000000	9.060700
448.000000	8.992700
447.000000	8.920200
446.000000	8.835000
445.000000	8.777900
444.000000	8.664100
443.000000	8.593100
442.000000	8.512900
441.000000	8.397300
440.000000	8.302100
439.000000	8.214100
438.000000	8.111500
437.000000	8.025000
436.000000	7.925800
435.000000	7.829700
434.000000	7.730500
433.000000	7.659900
432.000000	7.570200
431.000000	7.477500
430.000000	7.377700
429.000000	7.296400
428.000000	7.216000
427.000000	7.109000
426.000000	7.005200
425.000000	6.943600
424.000000	6.878600
423.000000	6.795100
422.000000	6.709800
421.000000	6.635100
420.000000	6.552400
419.000000	6.482700
418.000000	6.391100
417.000000	6.316800
416.000000	6.224300
415.000000	6.175600
414.000000	6.096700
413.000000	6.019100
412.000000	5.940000
411.000000	5.880600
410.000000	5.814400
409.000000	5.745800
408.000000	5.706700
407.000000	5.624100
406.000000	5.565100
405.000000	5.503500
404.000000	5.440200
403.000000	5.392000
402.000000	5.349300
401.000000	5.308200
400.000000	5.239900
399.000000	5.187000
398.000000	5.155000
397.000000	5.101300
396.000000	5.057700
395.000000	5.046000
394.000000	5.017200
393.000000	4.965400
392.000000	4.942300
391.000000	4.895400
390.000000	4.890500
389.000000	4.859300
388.000000	4.814000
387.000000	4.783300
386.000000	4.781900
385.000000	4.775400
384.000000	4.741800
383.000000	4.743100
382.000000	4.708600
381.000000	4.683000
380.000000	4.687300
379.000000	4.684800
378.000000	4.646300
377.000000	4.621100
376.000000	4.412500
375.000000	4.004400
374.000000	4.073700
373.000000	4.255500
372.000000	4.244400
371.000000	4.252400
370.000000	4.220300
369.000000	4.376000
368.000000	4.495900
367.000000	4.440000
366.000000	4.434500
365.000000	4.428600
364.000000	4.285200
363.000000	4.367200
362.000000	4.339500
361.000000	4.333400
360.000000	4.466600
359.000000	4.445300
358.000000	4.447700
357.000000	4.333800
356.000000	4.485000
355.000000	4.644800
354.000000	4.565500
353.000000	4.519700
352.000000	4.469900
351.000000	4.407300
350.000000	4.464700
349.000000	4.356000
348.000000	4.395300
347.000000	4.462600
346.000000	4.454100
345.000000	4.473000
344.000000	4.418600
343.000000	4.454300
342.000000	4.411900
341.000000	4.568800
340.000000	4.713800
339.000000	4.543100
338.000000	4.657500
337.000000	4.670800
336.000000	4.536700
335.000000	4.585500
334.000000	4.459700
333.000000	4.419000
332.000000	4.600200
331.000000	4.573800
330.000000	4.758300
329.000000	4.829100
328.000000	4.522900
327.000000	4.718700
326.000000	5.183900
325.000000	5.506400
324.000000	5.328100
323.000000	5.179800
322.000000	5.241300
321.000000	5.159600
320.000000	4.975800
319.000000	4.722000
318.000000	4.777500
317.000000	5.090300
316.000000	4.812900
315.000000	4.492500
314.000000	4.474900
313.000000	4.475600
312.000000	4.474700
311.000000	4.459400
310.000000	4.489900
309.000000	4.493100
308.000000	4.489800
307.000000	4.534400
306.000000	4.530900
305.000000	4.535400
304.000000	4.521800
303.000000	4.511900
302.000000	4.516400
301.000000	4.521500
300.000000	4.545900
299.000000	4.537200
298.000000	4.525400
297.000000	4.518500
296.000000	4.532700
295.000000	4.537100
294.000000	4.535200
293.000000	4.549600
292.000000	4.553600
291.000000	4.575000
290.000000	4.564900
289.000000	4.557900
288.000000	4.550900
287.000000	4.588600
286.000000	4.550900
285.000000	4.525300
284.000000	4.570200
283.000000	4.611200
282.000000	4.605800
281.000000	4.591800
280.000000	4.611900
279.000000	4.645400
278.000000	4.651000
277.000000	4.623200
276.000000	4.609300
275.000000	4.633700
274.000000	4.670200
273.000000	4.646300
272.000000	4.617700
271.000000	4.637700
270.000000	4.677200
269.000000	4.680500
268.000000	4.708000
267.000000	4.759100
266.000000	4.786500
265.000000	4.789700
264.000000	4.818800
263.000000	4.854000
262.000000	4.886700
261.000000	4.850200
260.000000	4.918400
259.000000	4.937700
258.000000	4.935100
257.000000	4.948200
256.000000	4.988200
255.000000	4.985400
254.000000	5.008500
253.000000	5.033300
252.000000	5.043600
251.000000	5.052000
250.000000	5.066000
