PE UV       SUBTECH     SPECTRUM    ASCII       PEDS        4.00        
   -1
CICIMAUCR0236-2.Sample.ASC
24/06/19
14:50:02.00
24/06/19
14:50:02.00
Vinicio Soto Monge
C. resplendens. Sex M. Ventral
250,000000
1
Lambda 1050
1050L1511233
PerkinElmer UV WinLab 6.3.2.0749 / 2.02.05 Lambda 900 UV/VIS/NIR, Aug  7 2015 09:38:08

0
0
3350/servo 860,8/2
0
0
UV/VIS
1
1
1
DoubleDePol,CommonBeamDepol,RBeamAtt,SBeamAtt,60mm sphere, WB InGaAs Detector
0
0
0
0
Program
Program
3350/servo 860,8/2
3350/0,2 860,8/0,2
3350/0,2 860,8/0,2
0
15.00
 
 
 
0
 
860,8
319,2
860,8
Front
100
on
S:100 R:100
0
0
0
0
 
0
 
 
 
0
 
 
0
0
0
0
0
 
 
 
 
0
0


0
0
#HDR
-1
-1
#GR
nm
%R
1.0
0.0
2500,000000
-1,000000
2251
8
62,401400
4,357000
#DATA
2482.000000	6.351294
2481.000000	6.438589
2480.000000	6.371919
2479.000000	6.356422
2478.000000	6.355976
2477.000000	6.357983
2476.000000	6.257420
2475.000000	6.281948
2474.000000	6.279606
2473.000000	6.255636
2472.000000	6.302127
2471.000000	6.249839
2470.000000	6.311046
2469.000000	6.317178
2468.000000	6.307478
2467.000000	6.320857
2466.000000	6.370470
2465.000000	6.325540
2464.000000	6.346165
2463.000000	6.321415
2462.000000	6.332898
2461.000000	6.354527
2460.000000	6.302796
2459.000000	6.341817
2458.000000	6.412166
2457.000000	6.401352
2456.000000	6.421086
2455.000000	6.403916
2454.000000	6.451968
2453.000000	6.468580
2452.000000	6.501915
2451.000000	6.500354
2450.000000	6.529118
2449.000000	6.583190
2448.000000	6.582521
2447.000000	6.599468
2446.000000	6.613069
2445.000000	6.694568
2444.000000	6.709507
2443.000000	6.723778
2442.000000	6.742285
2441.000000	6.763914
2440.000000	6.777069
2439.000000	6.840060
2438.000000	6.851767
2437.000000	6.906619
2436.000000	6.932373
2435.000000	6.926576
2434.000000	6.947090
2433.000000	6.975854
2432.000000	7.005733
2431.000000	7.039514
2430.000000	7.048433
2429.000000	7.074744
2428.000000	7.092694
2427.000000	7.133387
2426.000000	7.135394
2425.000000	7.153344
2424.000000	7.165050
2423.000000	7.182889
2422.000000	7.198608
2421.000000	7.226258
2420.000000	7.243427
2419.000000	7.253126
2418.000000	7.266840
2417.000000	7.285235
2416.000000	7.295604
2415.000000	7.321469
2414.000000	7.334513
2413.000000	7.347334
2412.000000	7.363054
2411.000000	7.375987
2410.000000	7.394494
2409.000000	7.411441
2408.000000	7.417795
2407.000000	7.422032
2406.000000	7.444441
2405.000000	7.459827
2404.000000	7.474097
2403.000000	7.505426
2402.000000	7.519696
2401.000000	7.537757
2400.000000	7.545004
2399.000000	7.564515
2398.000000	7.592164
2397.000000	7.609445
2396.000000	7.620148
2395.000000	7.641442
2394.000000	7.640773
2393.000000	7.654709
2392.000000	7.663851
2391.000000	7.677341
2390.000000	7.698413
2389.000000	7.707443
2388.000000	7.719038
2387.000000	7.725393
2386.000000	7.731748
2385.000000	7.733755
2384.000000	7.739552
2383.000000	7.752373
2382.000000	7.751704
2381.000000	7.745015
2380.000000	7.749475
2379.000000	7.774894
2378.000000	7.772441
2377.000000	7.755160
2376.000000	7.761404
2375.000000	7.757056
2374.000000	7.743120
2373.000000	7.743789
2372.000000	7.725281
2371.000000	7.709450
2370.000000	7.711345
2369.000000	7.708112
2368.000000	7.699974
2367.000000	7.677007
2366.000000	7.655490
2365.000000	7.638097
2364.000000	7.631519
2363.000000	7.611451
2362.000000	7.570312
2361.000000	7.559498
2360.000000	7.549464
2359.000000	7.521034
2358.000000	7.507209
2357.000000	7.495726
2356.000000	7.470976
2355.000000	7.453583
2354.000000	7.432512
2353.000000	7.420025
2352.000000	7.427272
2351.000000	7.435076
2350.000000	7.440762
2349.000000	7.443995
2348.000000	7.449235
2347.000000	7.461722
2346.000000	7.483128
2345.000000	7.496061
2344.000000	7.517912
2343.000000	7.548795
2342.000000	7.554369
2341.000000	7.572207
2340.000000	7.602532
2339.000000	7.604762
2338.000000	7.608887
2337.000000	7.607215
2336.000000	7.616468
2335.000000	7.616245
2334.000000	7.611451
2333.000000	7.613793
2332.000000	7.608887
2331.000000	7.604762
2330.000000	7.569309
2329.000000	7.547011
2328.000000	7.544224
2327.000000	7.521146
2326.000000	7.495726
2325.000000	7.471422
2324.000000	7.435522
2323.000000	7.407092
2322.000000	7.371416
2321.000000	7.333956
2320.000000	7.296384
2319.000000	7.258589
2318.000000	7.209088
2317.000000	7.179544
2316.000000	7.139185
2315.000000	7.102282
2314.000000	7.064153
2313.000000	7.004952
2312.000000	6.958796
2311.000000	6.953445
2310.000000	6.918437
2309.000000	6.869382
2308.000000	6.834040
2307.000000	6.827351
2306.000000	6.823783
2305.000000	6.826793
2304.000000	6.819435
2303.000000	6.807840
2302.000000	6.822222
2301.000000	6.850652
2300.000000	6.876294
2299.000000	6.905170
2298.000000	6.930366
2297.000000	6.964370
2296.000000	7.016213
2295.000000	7.041744
2294.000000	7.046984
2293.000000	7.093140
2292.000000	7.131827
2291.000000	7.156800
2290.000000	7.163378
2289.000000	7.190804
2288.000000	7.199500
2287.000000	7.179767
2286.000000	7.195933
2285.000000	7.189801
2284.000000	7.179209
2283.000000	7.170625
2282.000000	7.156689
2281.000000	7.125137
2280.000000	7.109752
2279.000000	7.092360
2278.000000	7.080319
2277.000000	7.054676
2276.000000	7.041186
2275.000000	7.013983
2274.000000	6.997594
2273.000000	6.988898
2272.000000	6.991797
2271.000000	6.973847
2270.000000	6.979867
2269.000000	6.991462
2268.000000	6.992243
2267.000000	7.013983
2266.000000	7.065268
2265.000000	7.079427
2264.000000	7.144871
2263.000000	7.205632
2262.000000	7.272637
2261.000000	7.351460
2260.000000	7.442880
2259.000000	7.540433
2258.000000	7.656827
2257.000000	7.763299
2256.000000	7.871778
2255.000000	7.973567
2254.000000	8.123854
2253.000000	8.247495
2252.000000	8.351960
2251.000000	8.471587
2250.000000	8.592330
2249.000000	8.724444
2248.000000	8.839389
2247.000000	8.970165
2246.000000	9.042968
2245.000000	9.126473
2244.000000	9.232498
2243.000000	9.331946
2242.000000	9.401404
2241.000000	9.449233
2240.000000	9.519025
2239.000000	9.587479
2238.000000	9.653034
2237.000000	9.730296
2236.000000	9.784145
2235.000000	9.816142
2234.000000	9.844683
2233.000000	9.880248
2232.000000	9.901654
2231.000000	9.961301
2230.000000	9.943351
2229.000000	9.978136
2228.000000	9.997312
2227.000000	9.998204
2226.000000	10.021728
2225.000000	10.039231
2224.000000	10.030535
2223.000000	10.010913
2222.000000	10.021505
2221.000000	9.987055
2220.000000	9.979139
2219.000000	9.967098
2218.000000	9.961858
2217.000000	9.938446
2216.000000	9.918935
2215.000000	9.916817
2214.000000	9.864305
2213.000000	9.863079
2212.000000	9.854940
2211.000000	9.807000
2210.000000	9.803544
2209.000000	9.793733
2208.000000	9.795963
2207.000000	9.780577
2206.000000	9.759506
2205.000000	9.756496
2204.000000	9.738769
2203.000000	9.724944
2202.000000	9.728401
2201.000000	9.680795
2200.000000	9.700863
2199.000000	9.713350
2198.000000	9.695846
2197.000000	9.688488
2196.000000	9.681910
2195.000000	9.667193
2194.000000	9.670426
2193.000000	9.670649
2192.000000	9.656490
2191.000000	9.645341
2190.000000	9.659947
2189.000000	9.652031
2188.000000	9.635530
2187.000000	9.640213
2186.000000	9.623044
2185.000000	9.604314
2184.000000	9.636757
2183.000000	9.588705
2182.000000	9.594057
2181.000000	9.553698
2180.000000	9.549015
2179.000000	9.549684
2178.000000	9.564735
2177.000000	9.571090
2176.000000	9.551245
2175.000000	9.545336
2174.000000	9.541657
2173.000000	9.557823
2172.000000	9.555705
2171.000000	9.536082
2170.000000	9.551914
2169.000000	9.551468
2168.000000	9.575215
2167.000000	9.575550
2166.000000	9.581570
2165.000000	9.594280
2164.000000	9.616466
2163.000000	9.614905
2162.000000	9.630848
2161.000000	9.630179
2160.000000	9.651919
2159.000000	9.661507
2158.000000	9.678119
2157.000000	9.712681
2156.000000	9.738435
2155.000000	9.761178
2154.000000	9.774334
2153.000000	9.784145
2152.000000	9.808227
2151.000000	9.852042
2150.000000	9.876681
2149.000000	9.898310
2148.000000	9.919381
2147.000000	9.953385
2146.000000	9.975460
2145.000000	9.992183
2144.000000	10.007346
2143.000000	10.027637
2142.000000	10.064762
2141.000000	10.090516
2140.000000	10.101442
2139.000000	10.128534
2138.000000	10.142693
2137.000000	10.149940
2136.000000	10.162872
2135.000000	10.170788
2134.000000	10.188292
2133.000000	10.203120
2132.000000	10.204458
2131.000000	10.210144
2130.000000	10.215830
2129.000000	10.226310
2128.000000	10.228762
2127.000000	10.225864
2126.000000	10.231996
2125.000000	10.237235
2124.000000	10.236901
2123.000000	10.244371
2122.000000	10.222407
2121.000000	10.212931
2120.000000	10.206799
2119.000000	10.179596
2118.000000	10.159862
2117.000000	10.169562
2116.000000	10.156183
2115.000000	10.140017
2114.000000	10.117831
2113.000000	10.100216
2112.000000	10.098543
2111.000000	10.087172
2110.000000	10.057404
2109.000000	10.038562
2108.000000	10.009352
2107.000000	9.985717
2106.000000	9.971781
2105.000000	9.958291
2104.000000	9.937665
2103.000000	9.916817
2102.000000	9.908567
2101.000000	9.884819
2100.000000	9.863748
2099.000000	9.839221
2098.000000	9.817146
2097.000000	9.795963
2096.000000	9.786040
2095.000000	9.783588
2094.000000	9.765415
2093.000000	9.751144
2092.000000	9.738435
2091.000000	9.711008
2090.000000	9.688711
2089.000000	9.684140
2088.000000	9.685143
2087.000000	9.665298
2086.000000	9.632743
2085.000000	9.614571
2084.000000	9.599520
2083.000000	9.584469
2082.000000	9.580455
2081.000000	9.548235
2080.000000	9.526829
2079.000000	9.529059
2078.000000	9.503416
2077.000000	9.471976
2076.000000	9.443658
2075.000000	9.415675
2074.000000	9.389921
2073.000000	9.361268
2072.000000	9.338078
2071.000000	9.323696
2070.000000	9.300507
2069.000000	9.251340
2068.000000	9.209086
2067.000000	9.184893
2066.000000	9.158693
2065.000000	9.125135
2064.000000	9.107408
2063.000000	9.089124
2062.000000	9.061698
2061.000000	9.026133
2060.000000	9.007068
2059.000000	8.990010
2058.000000	8.973733
2057.000000	8.970946
2056.000000	8.969385
2055.000000	8.968159
2054.000000	8.965817
2053.000000	8.969162
2052.000000	8.982652
2051.000000	8.998706
2050.000000	9.024014
2049.000000	9.065154
2048.000000	9.084776
2047.000000	9.121567
2046.000000	9.177089
2045.000000	9.218785
2044.000000	9.254685
2043.000000	9.299838
2042.000000	9.351791
2041.000000	9.402965
2040.000000	9.448006
2039.000000	9.490149
2038.000000	9.528390
2037.000000	9.560833
2036.000000	9.607881
2035.000000	9.655821
2034.000000	9.674329
2033.000000	9.698076
2032.000000	9.727620
2031.000000	9.755604
2030.000000	9.781692
2029.000000	9.803210
2028.000000	9.820936
2027.000000	9.849700
2026.000000	9.865420
2025.000000	9.858508
2024.000000	9.865420
2023.000000	9.899870
2022.000000	9.919604
2021.000000	9.910573
2020.000000	9.947253
2019.000000	9.932648
2018.000000	9.904999
2017.000000	9.925067
2016.000000	9.926293
2015.000000	9.912803
2014.000000	9.921388
2013.000000	9.905556
2012.000000	9.890951
2011.000000	9.878242
2010.000000	9.863860
2009.000000	9.860849
2008.000000	9.833089
2007.000000	9.815250
2006.000000	9.796297
2005.000000	9.772439
2004.000000	9.743340
2003.000000	9.725502
2002.000000	9.691832
2001.000000	9.658609
2000.000000	9.634416
1999.000000	9.593276
1998.000000	9.552137
1997.000000	9.532069
1996.000000	9.497619
1995.000000	9.428719
1994.000000	9.410769
1993.000000	9.369072
1992.000000	9.306750
1991.000000	9.282445
1990.000000	9.237961
1989.000000	9.206633
1988.000000	9.156129
1987.000000	9.124466
1986.000000	9.055677
1985.000000	9.017660
1984.000000	8.955672
1983.000000	8.919995
1982.000000	8.876849
1981.000000	8.821997
1980.000000	8.778739
1979.000000	8.734590
1978.000000	8.678065
1977.000000	8.643726
1976.000000	8.611283
1975.000000	8.575384
1974.000000	8.533687
1973.000000	8.478277
1972.000000	8.453080
1971.000000	8.421752
1970.000000	8.358203
1969.000000	8.309260
1968.000000	8.288969
1967.000000	8.251732
1966.000000	8.234228
1965.000000	8.172017
1964.000000	8.145483
1963.000000	8.092637
1962.000000	8.069670
1961.000000	8.010470
1960.000000	8.029534
1959.000000	7.968662
1958.000000	7.939897
1957.000000	7.931201
1956.000000	7.883596
1955.000000	7.853048
1954.000000	7.799756
1953.000000	7.778685
1952.000000	7.776901
1951.000000	7.708224
1950.000000	7.705548
1949.000000	7.671990
1948.000000	7.657719
1947.000000	7.645901
1946.000000	7.617137
1945.000000	7.617918
1944.000000	7.577893
1943.000000	7.564180
1942.000000	7.543778
1941.000000	7.562285
1940.000000	7.542105
1939.000000	7.536419
1938.000000	7.503530
1937.000000	7.516129
1936.000000	7.528950
1935.000000	7.527166
1934.000000	7.532740
1933.000000	7.544893
1932.000000	7.550356
1931.000000	7.562508
1930.000000	7.594282
1929.000000	7.614016
1928.000000	7.645233
1927.000000	7.672213
1926.000000	7.699193
1925.000000	7.737211
1924.000000	7.770211
1923.000000	7.823726
1922.000000	7.888501
1921.000000	7.944580
1920.000000	7.977692
1919.000000	8.027416
1918.000000	8.104455
1917.000000	8.168895
1916.000000	8.236792
1915.000000	8.319294
1914.000000	8.405698
1913.000000	8.501021
1912.000000	8.582630
1911.000000	8.682636
1910.000000	8.775617
1909.000000	8.881309
1908.000000	8.983990
1907.000000	9.114097
1906.000000	9.238630
1905.000000	9.370856
1904.000000	9.513004
1903.000000	9.659501
1902.000000	9.796186
1901.000000	9.960074
1900.000000	10.142247
1899.000000	10.304017
1898.000000	10.524208
1897.000000	10.709502
1896.000000	10.910851
1895.000000	11.109189
1894.000000	11.329380
1893.000000	11.546002
1892.000000	11.836765
1891.000000	12.123403
1890.000000	12.413497
1889.000000	12.710949
1888.000000	13.026239
1887.000000	13.382000
1886.000000	13.711784
1885.000000	14.110914
1884.000000	14.517625
1883.000000	15.003270
1882.000000	15.515115
1881.000000	15.983256
1880.000000	16.491534
1879.000000	16.948972
1878.000000	17.417337
1877.000000	17.930297
1876.000000	18.399107
1875.000000	18.876837
1874.000000	19.351110
1873.000000	19.788146
1872.000000	20.239453
1871.000000	20.657201
1870.000000	21.053321
1869.000000	21.430153
1868.000000	21.801634
1867.000000	22.092396
1866.000000	22.346033
1865.000000	22.568008
1864.000000	22.781174
1863.000000	22.983080
1862.000000	23.138496
1861.000000	23.323679
1860.000000	23.505740
1859.000000	23.666284
1858.000000	23.811219
1857.000000	23.934860
1856.000000	24.017585
1855.000000	24.096630
1854.000000	24.162632
1853.000000	24.223393
1852.000000	24.240116
1851.000000	24.261299
1850.000000	24.296084
1849.000000	24.301101
1848.000000	24.311581
1847.000000	24.315929
1846.000000	24.298202
1845.000000	24.262414
1844.000000	24.240228
1843.000000	24.208677
1842.000000	24.202768
1841.000000	24.226515
1840.000000	24.204663
1839.000000	24.186379
1838.000000	24.168095
1837.000000	24.141672
1836.000000	24.106776
1835.000000	24.058055
1834.000000	23.990828
1833.000000	23.931850
1832.000000	23.861612
1831.000000	23.802969
1830.000000	23.750235
1829.000000	23.690477
1828.000000	23.615779
1827.000000	23.543312
1826.000000	23.462594
1825.000000	23.395700
1824.000000	23.340290
1823.000000	23.295360
1822.000000	23.276853
1821.000000	23.254890
1820.000000	23.218991
1819.000000	23.190338
1818.000000	23.142063
1817.000000	23.090667
1816.000000	23.068258
1815.000000	23.067477
1814.000000	23.061791
1813.000000	23.031578
1812.000000	23.007273
1811.000000	22.982857
1810.000000	22.943390
1809.000000	22.895116
1808.000000	22.850966
1807.000000	22.815736
1806.000000	22.771921
1805.000000	22.721416
1804.000000	22.657422
1803.000000	22.601008
1802.000000	22.555186
1801.000000	22.502675
1800.000000	22.447600
1799.000000	22.387173
1798.000000	22.327638
1797.000000	22.273008
1796.000000	22.225737
1795.000000	22.174341
1794.000000	22.123836
1793.000000	22.060176
1792.000000	21.993617
1791.000000	21.946792
1790.000000	21.880233
1789.000000	21.822148
1788.000000	21.777441
1787.000000	21.704415
1786.000000	21.646887
1785.000000	21.585903
1784.000000	21.510982
1783.000000	21.442194
1782.000000	21.362368
1781.000000	21.275964
1780.000000	21.206952
1779.000000	21.137829
1778.000000	21.054770
1777.000000	20.976394
1776.000000	20.884638
1775.000000	20.791657
1774.000000	20.684293
1773.000000	20.586294
1772.000000	20.493759
1771.000000	20.375246
1770.000000	20.251047
1769.000000	20.141900
1768.000000	20.022607
1767.000000	19.917361
1766.000000	19.818025
1765.000000	19.725489
1764.000000	19.674316
1763.000000	19.634737
1762.000000	19.618237
1761.000000	19.614669
1760.000000	19.649677
1759.000000	19.720249
1758.000000	19.772315
1757.000000	19.828393
1756.000000	19.903425
1755.000000	19.970988
1754.000000	20.014468
1753.000000	20.050591
1752.000000	20.084595
1751.000000	20.083480
1750.000000	20.082922
1749.000000	20.059064
1748.000000	20.023610
1747.000000	19.958166
1746.000000	19.901196
1745.000000	19.819697
1744.000000	19.725378
1743.000000	19.606531
1742.000000	19.465497
1741.000000	19.300605
1740.000000	19.105835
1739.000000	18.902368
1738.000000	18.708934
1737.000000	18.516839
1736.000000	18.355849
1735.000000	18.204782
1734.000000	18.104777
1733.000000	18.060181
1732.000000	18.016143
1731.000000	18.027626
1730.000000	18.084040
1729.000000	18.161859
1728.000000	18.265209
1727.000000	18.367444
1726.000000	18.458531
1725.000000	18.540586
1724.000000	18.598672
1723.000000	18.682400
1722.000000	18.736807
1721.000000	18.785081
1720.000000	18.818639
1719.000000	18.870370
1718.000000	18.924331
1717.000000	18.977511
1716.000000	19.032029
1715.000000	19.112635
1714.000000	19.206955
1713.000000	19.287561
1712.000000	19.339069
1711.000000	19.419341
1710.000000	19.468842
1709.000000	19.499056
1708.000000	19.508421
1707.000000	19.518343
1706.000000	19.501174
1705.000000	19.454794
1704.000000	19.412429
1703.000000	19.335501
1702.000000	19.269723
1701.000000	19.164701
1700.000000	19.032475
1699.000000	18.893671
1698.000000	18.735469
1697.000000	18.603132
1696.000000	18.490974
1695.000000	18.428094
1694.000000	18.392752
1693.000000	18.423412
1692.000000	18.510150
1691.000000	18.637136
1690.000000	18.773041
1689.000000	18.923216
1688.000000	19.047526
1687.000000	19.129693
1686.000000	19.211860
1685.000000	19.275298
1684.000000	19.330262
1683.000000	19.456244
1682.000000	19.654471
1681.000000	19.943896
1680.000000	20.345813
1679.000000	20.810610
1678.000000	21.334719
1677.000000	21.827499
1676.000000	22.339901
1675.000000	22.817074
1674.000000	23.242738
1673.000000	23.608198
1672.000000	23.927613
1671.000000	24.212913
1670.000000	24.452057
1669.000000	24.684734
1668.000000	24.910276
1667.000000	25.093229
1666.000000	25.221329
1665.000000	25.338393
1664.000000	25.483328
1663.000000	25.563488
1662.000000	25.655578
1661.000000	25.734512
1660.000000	25.810325
1659.000000	25.862055
1658.000000	25.914232
1657.000000	25.931179
1656.000000	25.944780
1655.000000	25.971091
1654.000000	25.978338
1653.000000	25.988595
1652.000000	25.967301
1651.000000	25.947344
1650.000000	25.925827
1649.000000	25.909884
1648.000000	25.843548
1647.000000	25.808652
1646.000000	25.727823
1645.000000	25.689471
1644.000000	25.631274
1643.000000	25.567614
1642.000000	25.495926
1641.000000	25.433604
1640.000000	25.383323
1639.000000	25.314311
1638.000000	25.247306
1637.000000	25.176511
1636.000000	25.099918
1635.000000	25.031464
1634.000000	24.942719
1633.000000	24.867241
1632.000000	24.783290
1631.000000	24.698112
1630.000000	24.588519
1629.000000	24.516609
1628.000000	24.430316
1627.000000	24.330980
1626.000000	24.224620
1625.000000	24.148473
1624.000000	24.055491
1623.000000	23.945786
1622.000000	23.873095
1621.000000	23.790482
1620.000000	23.668848
1619.000000	23.619793
1618.000000	23.505963
1617.000000	23.449884
1616.000000	23.350436
1615.000000	23.281201
1614.000000	23.198477
1613.000000	23.108505
1612.000000	23.027341
1611.000000	22.939711
1610.000000	22.848513
1609.000000	22.763224
1608.000000	22.719075
1607.000000	22.636239
1606.000000	22.540804
1605.000000	22.452171
1604.000000	22.358632
1603.000000	22.291515
1602.000000	22.215257
1601.000000	22.112799
1600.000000	22.037990
1599.000000	21.962512
1598.000000	21.876108
1597.000000	21.809438
1596.000000	21.721808
1595.000000	21.621022
1594.000000	21.557808
1593.000000	21.513993
1592.000000	21.412984
1591.000000	21.351665
1590.000000	21.283657
1589.000000	21.223676
1588.000000	21.146637
1587.000000	21.086656
1586.000000	21.045517
1585.000000	20.985982
1584.000000	20.940717
1583.000000	20.870256
1582.000000	20.794667
1581.000000	20.769582
1580.000000	20.727662
1579.000000	20.666120
1578.000000	20.618069
1577.000000	20.602683
1576.000000	20.582392
1575.000000	20.534229
1574.000000	20.519067
1573.000000	20.499333
1572.000000	20.459866
1571.000000	20.451950
1570.000000	20.439241
1569.000000	20.426642
1568.000000	20.440578
1567.000000	20.429318
1566.000000	20.416274
1565.000000	20.422071
1564.000000	20.407355
1563.000000	20.408470
1562.000000	20.399439
1561.000000	20.406909
1560.000000	20.390520
1559.000000	20.355847
1558.000000	20.347151
1557.000000	20.335110
1556.000000	20.311474
1555.000000	20.278808
1554.000000	20.252051
1553.000000	20.223175
1552.000000	20.207790
1551.000000	20.150150
1550.000000	20.114697
1549.000000	20.074672
1548.000000	20.023387
1547.000000	19.981691
1546.000000	19.957163
1545.000000	19.925612
1544.000000	19.888597
1543.000000	19.845674
1542.000000	19.808325
1541.000000	19.790822
1540.000000	19.763507
1539.000000	19.740652
1538.000000	19.715232
1537.000000	19.675654
1536.000000	19.651907
1535.000000	19.622920
1534.000000	19.578659
1533.000000	19.540083
1532.000000	19.505856
1531.000000	19.473859
1530.000000	19.435841
1529.000000	19.389797
1528.000000	19.334498
1527.000000	19.281764
1526.000000	19.243858
1525.000000	19.193799
1524.000000	19.134376
1523.000000	19.085878
1522.000000	19.043624
1521.000000	18.996910
1520.000000	18.940051
1519.000000	18.867472
1518.000000	18.804146
1517.000000	18.755760
1516.000000	18.705590
1515.000000	18.638585
1514.000000	18.574702
1513.000000	18.520184
1512.000000	18.460314
1511.000000	18.401114
1510.000000	18.333106
1509.000000	18.263091
1508.000000	18.194191
1507.000000	18.134990
1506.000000	18.080584
1505.000000	18.011907
1504.000000	17.944344
1503.000000	17.882022
1502.000000	17.816021
1501.000000	17.753030
1500.000000	17.698623
1499.000000	17.653916
1498.000000	17.603858
1497.000000	17.555806
1496.000000	17.505524
1495.000000	17.459591
1494.000000	17.404739
1493.000000	17.357690
1492.000000	17.312649
1491.000000	17.267161
1490.000000	17.234384
1489.000000	17.202721
1488.000000	17.164815
1487.000000	17.132594
1486.000000	17.094354
1485.000000	17.067039
1484.000000	17.047863
1483.000000	17.005720
1482.000000	16.981973
1481.000000	16.975953
1480.000000	16.941837
1479.000000	16.916529
1478.000000	16.897576
1477.000000	16.886873
1476.000000	16.879180
1475.000000	16.876059
1474.000000	16.857217
1473.000000	16.841720
1472.000000	16.859558
1471.000000	16.860562
1470.000000	16.849970
1469.000000	16.831352
1468.000000	16.829791
1467.000000	16.859112
1466.000000	16.857217
1465.000000	16.859781
1464.000000	16.861342
1463.000000	16.890664
1462.000000	16.912961
1461.000000	16.940499
1460.000000	16.970601
1459.000000	16.986544
1458.000000	17.021329
1457.000000	17.059904
1456.000000	17.120331
1455.000000	17.192687
1454.000000	17.228921
1453.000000	17.295034
1452.000000	17.357356
1451.000000	17.428263
1450.000000	17.514889
1449.000000	17.565171
1448.000000	17.635409
1447.000000	17.723485
1446.000000	17.821149
1445.000000	17.897631
1444.000000	17.967311
1443.000000	18.042677
1442.000000	18.122392
1441.000000	18.219945
1440.000000	18.315379
1439.000000	18.422185
1438.000000	18.539360
1437.000000	18.633345
1436.000000	18.752750
1435.000000	18.863792
1434.000000	18.987991
1433.000000	19.102490
1432.000000	19.224236
1431.000000	19.355235
1430.000000	19.498164
1429.000000	19.657927
1428.000000	19.808214
1427.000000	19.979795
1426.000000	20.145356
1425.000000	20.334999
1424.000000	20.546604
1423.000000	20.763450
1422.000000	20.970708
1421.000000	21.189114
1420.000000	21.442640
1419.000000	21.693155
1418.000000	21.960951
1417.000000	22.230531
1416.000000	22.465215
1415.000000	22.756201
1414.000000	23.083197
1413.000000	23.382545
1412.000000	23.679551
1411.000000	23.989490
1410.000000	24.359521
1409.000000	24.769131
1408.000000	25.208397
1407.000000	25.668511
1406.000000	26.075556
1405.000000	26.550387
1404.000000	27.032019
1403.000000	27.506069
1402.000000	27.989708
1401.000000	28.445474
1400.000000	28.980620
1399.000000	29.540517
1398.000000	29.971198
1397.000000	30.301539
1396.000000	30.752065
1395.000000	31.280522
1394.000000	31.737515
1393.000000	32.121482
1392.000000	32.517268
1391.000000	33.012389
1390.000000	33.499707
1389.000000	33.920911
1388.000000	34.478690
1387.000000	35.131457
1386.000000	35.739071
1385.000000	36.394959
1384.000000	37.031560
1383.000000	37.775525
1382.000000	38.479354
1381.000000	39.176493
1380.000000	39.713758
1379.000000	40.148898
1378.000000	40.512240
1377.000000	40.765320
1376.000000	41.066117
1375.000000	41.349744
1374.000000	41.642291
1373.000000	41.953679
1372.000000	42.368975
1371.000000	42.780034
1370.000000	43.239479
1369.000000	43.654218
1368.000000	44.009532
1367.000000	44.397959
1366.000000	44.709682
1365.000000	45.005239
1364.000000	45.252744
1363.000000	45.505489
1362.000000	45.753886
1361.000000	45.986675
1360.000000	46.212774
1359.000000	46.279110
1358.000000	46.421815
1357.000000	46.575112
1356.000000	46.758735
1355.000000	47.042362
1354.000000	47.449742
1353.000000	47.929701
1352.000000	48.356369
1351.000000	48.954283
1350.000000	49.512842
1349.000000	50.043194
1348.000000	50.539654
1347.000000	51.032211
1346.000000	51.500130
1345.000000	51.869492
1344.000000	52.305191
1343.000000	52.741781
1342.000000	53.139238
1341.000000	53.510942
1340.000000	53.907173
1339.000000	54.296938
1338.000000	54.675442
1337.000000	55.025629
1336.000000	55.398001
1335.000000	55.780296
1334.000000	56.113759
1333.000000	56.439752
1332.000000	56.793060
1331.000000	57.123513
1330.000000	57.437800
1329.000000	57.742833
1328.000000	58.041177
1327.000000	58.324136
1326.000000	58.605088
1325.000000	58.874110
1324.000000	59.149711
1323.000000	59.366110
1322.000000	59.602244
1321.000000	59.846627
1320.000000	60.041955
1319.000000	60.271957
1318.000000	60.491590
1317.000000	60.654586
1316.000000	60.846904
1315.000000	61.043905
1314.000000	61.222399
1313.000000	61.381939
1312.000000	61.544378
1311.000000	61.689537
1310.000000	61.825330
1309.000000	61.968036
1308.000000	62.105390
1307.000000	62.205395
1306.000000	62.317553
1305.000000	62.410646
1304.000000	62.494374
1303.000000	62.569741
1302.000000	62.634850
1301.000000	62.704419
1300.000000	62.768637
1299.000000	62.800523
1298.000000	62.844561
1297.000000	62.883582
1296.000000	62.910005
1295.000000	62.944120
1294.000000	62.963519
1293.000000	62.984368
1292.000000	62.996074
1291.000000	62.987601
1290.000000	62.996185
1289.000000	62.982026
1288.000000	62.941667
1287.000000	62.909113
1286.000000	62.875555
1285.000000	62.833523
1284.000000	62.789597
1283.000000	62.740988
1282.000000	62.668074
1281.000000	62.594268
1280.000000	62.553798
1279.000000	62.487462
1278.000000	62.436177
1277.000000	62.374635
1276.000000	62.303617
1275.000000	62.242633
1274.000000	62.200601
1273.000000	62.156675
1272.000000	62.126015
1271.000000	62.075622
1270.000000	62.040615
1269.000000	61.998584
1268.000000	61.961123
1267.000000	61.912291
1266.000000	61.860895
1265.000000	61.814627
1264.000000	61.757991
1263.000000	61.704699
1262.000000	61.654195
1261.000000	61.588639
1260.000000	61.519962
1259.000000	61.465444
1258.000000	61.408139
1257.000000	61.340465
1256.000000	61.259747
1255.000000	61.181928
1254.000000	61.093072
1253.000000	60.994181
1252.000000	60.919930
1251.000000	60.827282
1250.000000	60.718023
1249.000000	60.605085
1248.000000	60.486573
1247.000000	60.363935
1246.000000	60.241186
1245.000000	60.111636
1244.000000	59.984539
1243.000000	59.817305
1242.000000	59.652971
1241.000000	59.508481
1240.000000	59.358418
1239.000000	59.199435
1238.000000	59.033985
1237.000000	58.857610
1236.000000	58.687366
1235.000000	58.513890
1234.000000	58.332386
1233.000000	58.163481
1232.000000	57.985768
1231.000000	57.780963
1230.000000	57.571921
1229.000000	57.364998
1228.000000	57.157517
1227.000000	56.951152
1226.000000	56.730404
1225.000000	56.496054
1224.000000	56.273523
1223.000000	56.068829
1222.000000	55.838939
1221.000000	55.608046
1220.000000	55.383173
1219.000000	55.145479
1218.000000	54.923059
1217.000000	54.712345
1216.000000	54.509770
1215.000000	54.314776
1214.000000	54.107295
1213.000000	53.920440
1212.000000	53.736930
1211.000000	53.559105
1210.000000	53.393210
1209.000000	53.216277
1208.000000	53.055845
1207.000000	52.912024
1206.000000	52.755382
1205.000000	52.631630
1204.000000	52.534634
1203.000000	52.441764
1202.000000	52.366955
1201.000000	52.297721
1200.000000	52.240304
1199.000000	52.152897
1198.000000	52.039513
1197.000000	51.906507
1196.000000	51.738381
1195.000000	51.533577
1194.000000	51.257419
1193.000000	50.920723
1192.000000	50.542441
1191.000000	50.098381
1190.000000	49.637821
1189.000000	49.169680
1188.000000	48.766648
1187.000000	48.429394
1186.000000	48.211768
1185.000000	48.116557
1184.000000	48.164831
1183.000000	48.344774
1182.000000	48.672551
1181.000000	49.122185
1180.000000	49.637933
1179.000000	50.203069
1178.000000	50.719374
1177.000000	51.200671
1176.000000	51.648633
1175.000000	52.035611
1174.000000	52.402520
1173.000000	52.746798
1172.000000	53.089849
1171.000000	53.445832
1170.000000	53.807391
1169.000000	54.170621
1168.000000	54.556261
1167.000000	54.933985
1166.000000	55.319625
1165.000000	55.722991
1164.000000	56.125800
1163.000000	56.560495
1162.000000	56.973449
1161.000000	57.397553
1160.000000	57.808500
1159.000000	58.229928
1158.000000	58.629615
1157.000000	59.024397
1156.000000	59.388854
1155.000000	59.731905
1154.000000	60.028577
1153.000000	60.294254
1152.000000	60.488468
1151.000000	60.645221
1150.000000	60.776332
1149.000000	60.881131
1148.000000	60.991171
1147.000000	61.127410
1146.000000	61.298880
1145.000000	61.501455
1144.000000	61.783856
1143.000000	62.099481
1142.000000	62.458363
1141.000000	62.868196
1140.000000	63.288509
1139.000000	63.745502
1138.000000	64.200153
1137.000000	64.680447
1136.000000	65.159179
1135.000000	65.663332
1134.000000	66.200819
1133.000000	66.720692
1132.000000	67.120602
1131.000000	67.540023
1130.000000	67.896675
1129.000000	68.235044
1128.000000	68.509195
1127.000000	68.756923
1126.000000	68.933187
1125.000000	69.059169
1124.000000	69.186378
1123.000000	69.305002
1122.000000	69.379922
1121.000000	69.447596
1120.000000	69.500665
1119.000000	69.545706
1118.000000	69.554848
1117.000000	69.567000
1116.000000	69.570568
1115.000000	69.556743
1114.000000	69.529986
1113.000000	69.521402
1112.000000	69.496428
1111.000000	69.462424
1110.000000	69.453282
1109.000000	69.408017
1108.000000	69.398429
1107.000000	69.373567
1106.000000	69.339117
1105.000000	69.329641
1104.000000	69.280920
1103.000000	69.248142
1102.000000	69.214696
1101.000000	69.182587
1100.000000	69.156610
1099.000000	69.103653
1098.000000	69.065858
1097.000000	69.025388
1096.000000	68.971650
1095.000000	68.921592
1094.000000	68.868523
1093.000000	68.785018
1092.000000	68.733733
1091.000000	68.670408
1090.000000	68.606636
1089.000000	68.548216
1088.000000	68.451221
1087.000000	68.378753
1086.000000	68.320110
1085.000000	68.237274
1084.000000	68.120768
1083.000000	68.071044
1082.000000	67.985866
1081.000000	67.923656
1080.000000	67.818410
1079.000000	67.732118
1078.000000	67.663441
1077.000000	67.566891
1076.000000	67.476140
1075.000000	67.386057
1074.000000	67.282818
1073.000000	67.214252
1072.000000	67.130859
1071.000000	67.051702
1070.000000	66.931405
1069.000000	66.848123
1068.000000	66.759267
1067.000000	66.677657
1066.000000	66.558364
1065.000000	66.457801
1064.000000	66.360248
1063.000000	66.248982
1062.000000	66.172501
1061.000000	66.065026
1060.000000	65.969146
1059.000000	65.853532
1058.000000	65.728107
1057.000000	65.633899
1056.000000	65.521184
1055.000000	65.424857
1054.000000	65.316825
1053.000000	65.208012
1052.000000	65.101874
1051.000000	64.993061
1050.000000	64.880012
1049.000000	64.799294
1048.000000	64.702967
1047.000000	64.607421
1046.000000	64.506524
1045.000000	64.417333
1044.000000	64.321899
1043.000000	64.216988
1042.000000	64.149871
1041.000000	64.053322
1040.000000	63.933918
1039.000000	63.873491
1038.000000	63.774043
1037.000000	63.663669
1036.000000	63.562883
1035.000000	63.464215
1034.000000	63.350831
1033.000000	63.232542
1032.000000	63.127631
1031.000000	63.020936
1030.000000	62.903650
1029.000000	62.803756
1028.000000	62.682567
1027.000000	62.584234
1026.000000	62.459367
1025.000000	62.342192
1024.000000	62.214872
1023.000000	62.108177
1022.000000	61.968593
1021.000000	61.842611
1020.000000	61.739595
1019.000000	61.621640
1018.000000	61.529327
1017.000000	61.439133
1016.000000	61.329651
1015.000000	61.215040
1014.000000	61.115035
1013.000000	61.059291
1012.000000	60.999644
1011.000000	60.906551
1010.000000	60.827728
1009.000000	60.771984
1008.000000	60.711892
1007.000000	60.667407
1006.000000	60.630505
1005.000000	60.570747
1004.000000	60.529496
1003.000000	60.480329
1002.000000	60.435622
1001.000000	60.404851
1000.000000	60.344313
999.000000	60.297934
998.000000	60.255122
997.000000	60.232601
996.000000	60.178418
995.000000	60.116653
994.000000	60.085882
993.000000	60.068601
992.000000	60.051655
991.000000	60.024675
990.000000	59.974282
989.000000	59.941058
988.000000	59.922551
987.000000	59.907500
986.000000	59.910845
985.000000	59.876952
984.000000	59.845178
983.000000	59.856661
982.000000	59.862904
981.000000	59.842056
980.000000	59.828789
979.000000	59.835367
978.000000	59.835478
977.000000	59.824775
976.000000	59.816414
975.000000	59.808052
974.000000	59.812065
973.000000	59.824998
972.000000	59.824441
971.000000	59.821096
970.000000	59.833248
969.000000	59.816971
968.000000	59.825779
967.000000	59.850864
966.000000	59.835924
965.000000	59.824998
964.000000	59.858779
963.000000	59.893898
962.000000	59.907388
961.000000	59.929017
960.000000	59.950980
959.000000	59.954325
958.000000	59.999255
957.000000	60.033928
956.000000	60.051989
955.000000	60.076851
954.000000	60.092125
953.000000	60.115426
952.000000	60.145305
951.000000	60.183881
950.000000	60.196590
949.000000	60.205509
948.000000	60.214874
947.000000	60.215209
946.000000	60.256906
945.000000	60.280764
944.000000	60.270953
943.000000	60.285335
942.000000	60.299271
941.000000	60.301724
940.000000	60.300721
939.000000	60.305515
938.000000	60.297822
937.000000	60.275859
936.000000	60.273518
935.000000	60.277420
934.000000	60.288123
933.000000	60.315995
932.000000	60.315772
931.000000	60.302170
930.000000	60.288457
929.000000	60.310755
928.000000	60.309082
927.000000	60.269727
926.000000	60.237507
925.000000	60.238399
924.000000	60.228811
923.000000	60.188229
922.000000	60.159465
921.000000	60.142407
920.000000	60.106842
919.000000	60.070162
918.000000	60.041398
917.000000	60.006279
916.000000	59.991339
915.000000	59.962910
914.000000	59.903375
913.000000	59.853539
912.000000	59.820762
911.000000	59.777950
910.000000	59.751973
909.000000	59.719753
908.000000	59.689874
907.000000	59.667130
906.000000	59.673596
905.000000	59.662002
904.000000	59.663339
903.000000	59.660998
902.000000	59.662113
901.000000	59.643383
900.000000	59.596112
899.000000	59.579946
898.000000	59.588530
897.000000	59.583959
896.000000	59.591875
895.000000	59.573814
894.000000	59.524536
893.000000	59.510265
892.000000	59.494099
891.000000	59.440919
890.000000	59.386067
889.000000	59.325751
888.000000	59.235334
887.000000	59.191407
886.000000	59.140011
885.000000	59.055057
884.000000	58.961517
883.000000	58.850921
882.000000	58.764628
881.000000	58.668302
880.000000	58.560604
879.000000	58.442203
878.000000	58.346768
877.000000	58.176971
876.000000	57.966591
875.000000	57.792334
874.000000	57.657545
873.000000	57.426874
872.000000	57.207687
871.000000	57.061860
870.000000	57.042461
869.000000	57.080144
868.000000	57.135777
867.000000	57.155176
866.000000	57.188846
865.000000	57.219951
864.000000	57.236340
863.000000	57.243587
862.000000	57.267334
861.000000	57.273912
860.000000	57.320848
859.000000	57.336345
858.000000	57.345933
857.000000	56.593900
856.000000	57.670200
855.000000	57.773700
854.000000	57.896900
853.000000	57.874900
852.000000	58.230600
851.000000	58.212800
850.000000	58.119100
849.000000	58.017700
848.000000	57.523800
847.000000	57.824400
846.000000	57.964500
845.000000	58.092500
844.000000	58.181200
843.000000	57.802700
842.000000	57.581100
841.000000	57.796800
840.000000	57.383500
839.000000	57.770600
838.000000	57.661900
837.000000	57.765100
836.000000	57.632100
835.000000	57.335000
834.000000	57.448700
833.000000	57.372100
832.000000	57.363500
831.000000	57.394300
830.000000	57.293100
829.000000	57.011500
828.000000	57.130600
827.000000	56.918200
826.000000	56.975400
825.000000	57.032700
824.000000	56.676500
823.000000	56.661300
822.000000	56.567200
821.000000	56.513300
820.000000	56.266200
819.000000	56.231900
818.000000	56.183200
817.000000	56.088100
816.000000	55.873100
815.000000	55.924100
814.000000	55.701500
813.000000	55.613600
812.000000	55.454600
811.000000	55.394200
810.000000	55.275400
809.000000	55.220300
808.000000	55.021500
807.000000	55.001200
806.000000	54.804600
805.000000	54.739400
804.000000	54.491200
803.000000	54.410200
802.000000	54.349100
801.000000	54.155500
800.000000	53.960200
799.000000	53.974300
798.000000	53.586000
797.000000	53.544200
796.000000	53.340700
795.000000	53.149000
794.000000	53.046300
793.000000	52.947700
792.000000	52.783300
791.000000	52.540400
790.000000	52.526600
789.000000	52.137600
788.000000	52.152500
787.000000	52.023900
786.000000	51.839900
785.000000	51.607700
784.000000	51.429700
783.000000	51.169000
782.000000	50.899800
781.000000	50.919300
780.000000	50.730800
779.000000	50.339300
778.000000	50.327600
777.000000	50.117700
776.000000	49.923500
775.000000	49.718100
774.000000	49.548200
773.000000	49.298000
772.000000	49.166200
771.000000	48.863100
770.000000	48.724100
769.000000	48.595400
768.000000	48.333200
767.000000	48.161600
766.000000	47.972200
765.000000	47.809500
764.000000	47.584000
763.000000	47.410400
762.000000	47.187300
761.000000	46.853500
760.000000	46.640100
759.000000	46.448400
758.000000	46.230800
757.000000	45.942800
756.000000	45.686800
755.000000	45.446900
754.000000	45.285000
753.000000	45.035400
752.000000	44.784700
751.000000	44.543000
750.000000	44.277400
749.000000	44.072600
748.000000	43.754100
747.000000	43.499300
746.000000	43.200000
745.000000	43.033500
744.000000	42.696900
743.000000	42.401100
742.000000	42.098200
741.000000	41.868600
740.000000	41.656500
739.000000	41.326800
738.000000	41.105800
737.000000	40.853000
736.000000	40.505400
735.000000	40.272600
734.000000	39.939900
733.000000	39.655300
732.000000	39.427500
731.000000	39.178700
730.000000	38.887600
729.000000	38.624100
728.000000	38.403200
727.000000	38.168600
726.000000	37.943000
725.000000	37.731700
724.000000	37.378500
723.000000	37.175400
722.000000	36.907800
721.000000	36.662100
720.000000	36.458200
719.000000	36.242600
718.000000	36.022100
717.000000	35.754200
716.000000	35.540600
715.000000	35.292100
714.000000	35.159600
713.000000	34.914100
712.000000	34.671400
711.000000	34.501800
710.000000	34.313100
709.000000	34.104000
708.000000	33.872600
707.000000	33.682100
706.000000	33.495500
705.000000	33.329900
704.000000	33.104500
703.000000	32.929800
702.000000	32.762000
701.000000	32.571400
700.000000	32.406100
699.000000	32.224100
698.000000	32.050400
697.000000	31.848500
696.000000	31.708100
695.000000	31.573200
694.000000	31.395700
693.000000	31.236000
692.000000	31.096700
691.000000	30.963700
690.000000	30.798900
689.000000	30.659900
688.000000	30.491700
687.000000	30.350700
686.000000	30.267900
685.000000	30.150700
684.000000	30.026600
683.000000	29.882400
682.000000	29.760400
681.000000	29.660300
680.000000	29.578000
679.000000	29.476100
678.000000	29.398700
677.000000	29.300500
676.000000	29.208800
675.000000	29.129400
674.000000	29.052900
673.000000	28.988200
672.000000	28.903300
671.000000	28.796900
670.000000	28.738500
669.000000	28.683100
668.000000	28.600700
667.000000	28.525200
666.000000	28.494600
665.000000	28.462400
664.000000	28.402400
663.000000	28.355400
662.000000	28.307200
661.000000	28.248400
660.000000	28.211300
659.000000	28.192100
658.000000	28.175100
657.000000	28.160500
656.000000	28.139100
655.000000	28.136400
654.000000	28.134900
653.000000	28.153100
652.000000	28.203600
651.000000	28.235900
650.000000	28.284000
649.000000	28.326400
648.000000	28.383800
647.000000	28.477400
646.000000	28.570000
645.000000	28.651700
644.000000	28.748900
643.000000	28.868500
642.000000	28.964900
641.000000	29.070700
640.000000	29.203400
639.000000	29.337100
638.000000	29.482700
637.000000	29.646500
636.000000	29.798600
635.000000	29.932100
634.000000	30.070800
633.000000	30.239200
632.000000	30.406800
631.000000	30.566200
630.000000	30.727200
629.000000	30.879800
628.000000	31.023900
627.000000	31.177800
626.000000	31.350000
625.000000	31.492700
624.000000	31.642100
623.000000	31.818300
622.000000	31.964300
621.000000	32.100100
620.000000	32.239100
619.000000	32.399800
618.000000	32.542700
617.000000	32.671000
616.000000	32.805600
615.000000	32.901100
614.000000	33.039900
613.000000	33.175100
612.000000	33.280400
611.000000	33.382300
610.000000	33.502800
609.000000	33.605400
608.000000	33.684700
607.000000	33.769400
606.000000	33.847000
605.000000	33.915300
604.000000	33.972100
603.000000	34.035300
602.000000	34.095900
601.000000	34.141200
600.000000	34.187700
599.000000	34.211600
598.000000	34.240600
597.000000	34.253900
596.000000	34.246200
595.000000	34.245700
594.000000	34.257500
593.000000	34.230000
592.000000	34.201600
591.000000	34.164700
590.000000	34.157100
589.000000	34.119000
588.000000	34.059000
587.000000	33.968300
586.000000	33.887100
585.000000	33.815400
584.000000	33.741100
583.000000	33.629600
582.000000	33.534000
581.000000	33.422300
580.000000	33.283400
579.000000	33.130200
578.000000	33.010300
577.000000	32.856700
576.000000	32.692200
575.000000	32.500100
574.000000	32.295700
573.000000	32.104500
572.000000	31.882200
571.000000	31.641200
570.000000	31.408700
569.000000	31.157700
568.000000	30.862500
567.000000	30.595300
566.000000	30.314700
565.000000	29.996000
564.000000	29.687300
563.000000	29.370100
562.000000	28.998100
561.000000	28.637900
560.000000	28.268600
559.000000	27.862800
558.000000	27.483700
557.000000	27.116600
556.000000	26.742100
555.000000	26.353000
554.000000	25.956700
553.000000	25.565000
552.000000	25.167600
551.000000	24.775600
550.000000	24.392400
549.000000	24.037400
548.000000	23.689800
547.000000	23.331600
546.000000	22.983600
545.000000	22.664800
544.000000	22.315800
543.000000	21.977400
542.000000	21.660700
541.000000	21.354800
540.000000	21.071900
539.000000	20.793600
538.000000	20.512600
537.000000	20.245400
536.000000	19.964900
535.000000	19.715100
534.000000	19.461500
533.000000	19.211500
532.000000	18.952300
531.000000	18.726400
530.000000	18.496900
529.000000	18.272400
528.000000	18.058900
527.000000	17.855400
526.000000	17.639800
525.000000	17.434900
524.000000	17.221300
523.000000	17.030700
522.000000	16.846300
521.000000	16.664600
520.000000	16.477600
519.000000	16.296100
518.000000	16.134100
517.000000	15.955000
516.000000	15.794100
515.000000	15.628400
514.000000	15.479000
513.000000	15.323800
512.000000	15.185900
511.000000	15.055200
510.000000	14.908800
509.000000	14.776500
508.000000	14.644300
507.000000	14.517200
506.000000	14.396500
505.000000	14.281400
504.000000	14.171600
503.000000	14.055900
502.000000	13.959300
501.000000	13.841600
500.000000	13.735600
499.000000	13.659500
498.000000	13.531100
497.000000	13.439700
496.000000	13.353700
495.000000	13.251400
494.000000	13.143000
493.000000	13.042100
492.000000	12.960500
491.000000	12.863500
490.000000	12.801100
489.000000	12.710400
488.000000	12.627500
487.000000	12.535200
486.000000	12.448400
485.000000	12.349400
484.000000	12.251700
483.000000	12.179700
482.000000	12.060800
481.000000	11.938000
480.000000	11.812700
479.000000	11.677500
478.000000	11.550700
477.000000	11.462200
476.000000	11.348900
475.000000	11.222100
474.000000	11.101800
473.000000	10.984200
472.000000	10.879300
471.000000	10.754300
470.000000	10.660800
469.000000	10.525200
468.000000	10.426700
467.000000	10.312300
466.000000	10.208100
465.000000	10.114600
464.000000	9.993100
463.000000	9.893200
462.000000	9.780200
461.000000	9.678400
460.000000	9.581200
459.000000	9.489700
458.000000	9.378000
457.000000	9.283800
456.000000	9.177700
455.000000	9.086700
454.000000	8.995100
453.000000	8.898100
452.000000	8.775600
451.000000	8.683900
450.000000	8.591900
449.000000	8.514000
448.000000	8.400500
447.000000	8.296000
446.000000	8.224800
445.000000	8.116300
444.000000	8.027300
443.000000	7.923900
442.000000	7.824100
441.000000	7.743000
440.000000	7.647800
439.000000	7.550500
438.000000	7.458900
437.000000	7.381700
436.000000	7.301000
435.000000	7.217000
434.000000	7.127000
433.000000	7.044300
432.000000	6.960900
431.000000	6.902800
430.000000	6.810300
429.000000	6.726100
428.000000	6.640600
427.000000	6.580200
426.000000	6.521300
425.000000	6.463900
424.000000	6.387300
423.000000	6.322600
422.000000	6.250100
421.000000	6.191400
420.000000	6.146400
419.000000	6.083800
418.000000	6.024500
417.000000	5.977000
416.000000	5.914700
415.000000	5.870000
414.000000	5.803200
413.000000	5.753300
412.000000	5.718000
411.000000	5.674500
410.000000	5.634500
409.000000	5.591000
408.000000	5.546500
407.000000	5.514700
406.000000	5.476000
405.000000	5.433400
404.000000	5.396900
403.000000	5.359500
402.000000	5.332000
401.000000	5.295700
400.000000	5.249000
399.000000	5.225900
398.000000	5.173100
397.000000	5.176300
396.000000	5.146200
395.000000	5.118200
394.000000	5.105600
393.000000	5.079900
392.000000	5.059500
391.000000	5.032500
390.000000	5.018100
389.000000	5.010200
388.000000	4.983700
387.000000	4.950100
386.000000	4.943500
385.000000	4.938900
384.000000	4.914100
383.000000	4.906200
382.000000	4.882300
381.000000	4.870500
380.000000	4.856200
379.000000	4.845900
378.000000	4.825800
377.000000	4.827000
376.000000	4.782900
375.000000	4.608400
374.000000	4.539400
373.000000	4.624300
372.000000	4.441700
371.000000	4.464300
370.000000	4.553800
369.000000	4.662200
368.000000	4.570000
367.000000	4.573800
366.000000	4.704300
365.000000	4.693400
364.000000	4.582700
363.000000	4.640600
362.000000	4.725700
361.000000	4.681300
360.000000	4.721200
359.000000	4.614400
358.000000	4.555000
357.000000	4.686900
356.000000	4.689700
355.000000	4.521300
354.000000	4.501700
353.000000	4.544600
352.000000	4.568200
351.000000	4.606600
350.000000	4.712500
349.000000	4.704000
348.000000	4.471200
347.000000	4.463600
346.000000	4.545600
345.000000	4.538500
344.000000	4.514400
343.000000	4.512200
342.000000	4.626800
341.000000	4.730200
340.000000	4.606800
339.000000	4.702200
338.000000	4.691900
337.000000	4.568600
336.000000	4.781300
335.000000	4.760500
334.000000	4.456600
333.000000	4.608100
332.000000	4.745800
331.000000	4.601900
330.000000	4.704900
329.000000	4.804800
328.000000	4.772300
327.000000	4.780300
326.000000	4.823600
325.000000	4.881900
324.000000	4.756200
323.000000	4.645000
322.000000	4.975800
321.000000	5.294300
320.000000	5.440500
319.000000	5.691100
318.000000	5.335000
317.000000	4.650600
316.000000	4.413300
315.000000	4.440400
314.000000	4.438400
313.000000	4.404700
312.000000	4.405500
311.000000	4.446500
310.000000	4.443900
309.000000	4.429600
308.000000	4.457200
307.000000	4.411700
306.000000	4.423500
305.000000	4.450800
304.000000	4.399400
303.000000	4.426400
302.000000	4.434000
301.000000	4.447000
300.000000	4.438700
299.000000	4.425400
298.000000	4.430300
297.000000	4.430100
296.000000	4.432300
295.000000	4.425000
294.000000	4.434100
293.000000	4.418200
292.000000	4.450300
291.000000	4.411100
290.000000	4.357000
289.000000	4.381200
288.000000	4.394900
287.000000	4.386900
286.000000	4.387100
285.000000	4.397900
284.000000	4.414500
283.000000	4.419800
282.000000	4.435800
281.000000	4.424000
280.000000	4.424100
279.000000	4.454200
278.000000	4.481300
277.000000	4.470000
276.000000	4.460700
275.000000	4.493100
274.000000	4.511200
273.000000	4.476100
272.000000	4.512700
271.000000	4.530100
270.000000	4.547600
269.000000	4.557500
268.000000	4.597400
267.000000	4.607700
266.000000	4.617600
265.000000	4.663200
264.000000	4.675500
263.000000	4.679900
262.000000	4.722000
261.000000	4.744500
260.000000	4.763600
259.000000	4.748000
258.000000	4.810600
257.000000	4.797700
256.000000	4.851900
255.000000	4.828200
254.000000	4.811800
253.000000	4.830200
252.000000	4.836200
251.000000	4.824700
250.000000	4.799300
