PE UV       SUBTECH     SPECTRUM    ASCII       PEDS        4.00        
   -1
CICIMAUCR0201-2.Sample.ASC
24/05/31
13:41:41.00
24/05/31
13:41:41.00
Vinicio Soto Monge
C. cupreomarginata. Sex F. Dorsal
250,000000
1
Lambda 1050
1050L1511233
PerkinElmer UV WinLab 6.3.2.0749 / 2.02.05 Lambda 900 UV/VIS/NIR, Aug  7 2015 09:38:08

0
0
3350/servo 860,8/2
0
0
UV/VIS
1
1
1
DoubleDePol,CommonBeamDepol,RBeamAtt,SBeamAtt,60mm sphere, WB InGaAs Detector
0
0
0
0
Program
Program
3350/servo 860,8/2
3350/0,2 860,8/0,2
3350/0,2 860,8/0,2
0
15.00
 
 
 
0
 
860,8
319,2
860,8
Front
100
on
S:100 R:100
0
0
0
0
 
0
 
 
 
0
 
 
0
0
0
0
0
 
 
 
 
0
0


0
0
#HDR
-1
-1
#GR
nm
%R
1.0
0.0
2500,000000
-1,000000
2251
8
68,704500
5,755300
#DATA
2482.000000	9.644580
2481.000000	9.648617
2480.000000	9.605385
2479.000000	9.638632
2478.000000	9.709268
2477.000000	9.579149
2476.000000	9.574794
2475.000000	9.609315
2474.000000	9.613883
2473.000000	9.686856
2472.000000	9.664868
2471.000000	9.672622
2470.000000	9.680907
2469.000000	9.701939
2468.000000	9.707781
2467.000000	9.739222
2466.000000	9.734124
2465.000000	9.807841
2464.000000	9.825261
2463.000000	9.831209
2462.000000	9.873166
2461.000000	9.929463
2460.000000	9.967808
2459.000000	10.048748
2458.000000	10.095060
2457.000000	10.164847
2456.000000	10.241538
2455.000000	10.302402
2454.000000	10.384616
2453.000000	10.480321
2452.000000	10.536192
2451.000000	10.622762
2450.000000	10.687769
2449.000000	10.805567
2448.000000	10.885126
2447.000000	10.983167
2446.000000	11.088112
2445.000000	11.157474
2444.000000	11.255728
2443.000000	11.337199
2442.000000	11.407941
2441.000000	11.523084
2440.000000	11.624418
2439.000000	11.677847
2438.000000	11.787679
2437.000000	11.869043
2436.000000	11.946265
2435.000000	12.021151
2434.000000	12.087644
2433.000000	12.178250
2432.000000	12.238052
2431.000000	12.297111
2430.000000	12.382299
2429.000000	12.456547
2428.000000	12.515712
2427.000000	12.574876
2426.000000	12.639989
2425.000000	12.682371
2424.000000	12.724010
2423.000000	12.787104
2422.000000	12.836815
2421.000000	12.883552
2420.000000	12.938787
2419.000000	12.971609
2418.000000	13.036084
2417.000000	13.072730
2416.000000	13.131470
2415.000000	13.173108
2414.000000	13.208374
2413.000000	13.250331
2412.000000	13.284958
2411.000000	13.314806
2410.000000	13.352302
2409.000000	13.391816
2408.000000	13.419645
2407.000000	13.462983
2406.000000	13.511951
2405.000000	13.536806
2404.000000	13.562830
2403.000000	13.582693
2402.000000	13.622314
2401.000000	13.676061
2400.000000	13.727047
2399.000000	13.773677
2398.000000	13.824451
2397.000000	13.892538
2396.000000	13.944373
2395.000000	13.984418
2394.000000	14.010123
2393.000000	14.024357
2392.000000	14.057285
2391.000000	14.097968
2390.000000	14.108483
2389.000000	14.147785
2388.000000	14.194097
2387.000000	14.196221
2386.000000	14.200151
2385.000000	14.222245
2384.000000	14.224582
2383.000000	14.223414
2382.000000	14.227025
2381.000000	14.235098
2380.000000	14.252412
2379.000000	14.231486
2378.000000	14.213004
2377.000000	14.206418
2376.000000	14.188998
2375.000000	14.183050
2374.000000	14.167436
2373.000000	14.148953
2372.000000	14.119849
2371.000000	14.090851
2370.000000	14.074493
2369.000000	14.045070
2368.000000	13.992810
2367.000000	13.955845
2366.000000	13.909002
2365.000000	13.845801
2364.000000	13.800232
2363.000000	13.727365
2362.000000	13.670856
2361.000000	13.625394
2360.000000	13.552952
2359.000000	13.485396
2358.000000	13.430268
2357.000000	13.376201
2356.000000	13.324578
2355.000000	13.282834
2354.000000	13.252667
2353.000000	13.222395
2352.000000	13.201894
2351.000000	13.201682
2350.000000	13.203487
2349.000000	13.220483
2348.000000	13.243320
2347.000000	13.272637
2346.000000	13.310876
2345.000000	13.349965
2344.000000	13.380025
2343.000000	13.419752
2342.000000	13.476048
2341.000000	13.520980
2340.000000	13.545729
2339.000000	13.583862
2338.000000	13.603513
2337.000000	13.618808
2336.000000	13.634635
2335.000000	13.634529
2334.000000	13.631873
2333.000000	13.614984
2332.000000	13.590129
2331.000000	13.554120
2330.000000	13.503772
2329.000000	13.453105
2328.000000	13.393940
2327.000000	13.332014
2326.000000	13.265839
2325.000000	13.172577
2324.000000	13.088239
2323.000000	13.005281
2322.000000	12.905009
2321.000000	12.804631
2320.000000	12.669837
2319.000000	12.532813
2318.000000	12.399507
2317.000000	12.270131
2316.000000	12.128008
2315.000000	11.977494
2314.000000	11.843763
2313.000000	11.710669
2312.000000	11.578000
2311.000000	11.449580
2310.000000	11.339961
2309.000000	11.257959
2308.000000	11.175744
2307.000000	11.111587
2306.000000	11.089387
2305.000000	11.069843
2304.000000	11.071117
2303.000000	11.088537
2302.000000	11.136974
2301.000000	11.208885
2300.000000	11.276441
2299.000000	11.361205
2298.000000	11.478153
2297.000000	11.576513
2296.000000	11.684645
2295.000000	11.795858
2294.000000	11.872973
2293.000000	11.960817
2292.000000	12.044094
2291.000000	12.102197
2290.000000	12.154882
2289.000000	12.206611
2288.000000	12.224031
2287.000000	12.242938
2286.000000	12.232741
2285.000000	12.219464
2284.000000	12.203212
2283.000000	12.150739
2282.000000	12.117705
2281.000000	12.076066
2280.000000	12.001181
2279.000000	11.951151
2278.000000	11.878391
2277.000000	11.806692
2276.000000	11.747102
2275.000000	11.711094
2274.000000	11.677316
2273.000000	11.644388
2272.000000	11.639183
2271.000000	11.614965
2270.000000	11.644281
2269.000000	11.677528
2268.000000	11.736905
2267.000000	11.803505
2266.000000	11.907601
2265.000000	12.043244
2264.000000	12.190041
2263.000000	12.366472
2262.000000	12.568503
2261.000000	12.789547
2260.000000	13.035553
2259.000000	13.289951
2258.000000	13.557413
2257.000000	13.872356
2256.000000	14.175402
2255.000000	14.440953
2254.000000	14.754833
2253.000000	15.066696
2252.000000	15.341169
2251.000000	15.621377
2250.000000	15.877474
2249.000000	16.147805
2248.000000	16.383507
2247.000000	16.595310
2246.000000	16.803289
2245.000000	17.003408
2244.000000	17.183876
2243.000000	17.351173
2242.000000	17.493508
2241.000000	17.615449
2240.000000	17.753004
2239.000000	17.878981
2238.000000	17.981059
2237.000000	18.078144
2236.000000	18.157066
2235.000000	18.238430
2234.000000	18.294408
2233.000000	18.351342
2232.000000	18.389582
2231.000000	18.430264
2230.000000	18.473283
2229.000000	18.477532
2228.000000	18.489960
2227.000000	18.507805
2226.000000	18.491128
2225.000000	18.481675
2224.000000	18.454163
2223.000000	18.427715
2222.000000	18.408170
2221.000000	18.396698
2220.000000	18.362814
2219.000000	18.301313
2218.000000	18.259249
2217.000000	18.227596
2216.000000	18.175442
2215.000000	18.114471
2214.000000	18.076551
2213.000000	18.029814
2212.000000	17.972455
2211.000000	17.925824
2210.000000	17.891197
2209.000000	17.845628
2208.000000	17.795811
2207.000000	17.777328
2206.000000	17.761077
2205.000000	17.731016
2204.000000	17.690865
2203.000000	17.657831
2202.000000	17.639986
2201.000000	17.586663
2200.000000	17.581140
2199.000000	17.564676
2198.000000	17.507211
2197.000000	17.503705
2196.000000	17.489897
2195.000000	17.461005
2194.000000	17.457606
2193.000000	17.455588
2192.000000	17.436787
2191.000000	17.413099
2190.000000	17.403965
2189.000000	17.366681
2188.000000	17.331204
2187.000000	17.359246
2186.000000	17.315589
2185.000000	17.298594
2184.000000	17.277669
2183.000000	17.244209
2182.000000	17.218292
2181.000000	17.207776
2180.000000	17.187700
2179.000000	17.173892
2178.000000	17.179096
2177.000000	17.143938
2176.000000	17.144681
2175.000000	17.152435
2174.000000	17.138308
2173.000000	17.141282
2172.000000	17.160295
2171.000000	17.179521
2170.000000	17.189294
2169.000000	17.190887
2168.000000	17.237411
2167.000000	17.238049
2166.000000	17.265985
2165.000000	17.286697
2164.000000	17.333222
2163.000000	17.369974
2162.000000	17.398760
2161.000000	17.431051
2160.000000	17.485117
2159.000000	17.512946
2158.000000	17.571368
2157.000000	17.622247
2156.000000	17.696707
2155.000000	17.757040
2154.000000	17.805264
2153.000000	17.869634
2152.000000	17.930073
2151.000000	17.999541
2150.000000	18.059343
2149.000000	18.120738
2148.000000	18.176716
2147.000000	18.240236
2146.000000	18.297489
2145.000000	18.361115
2144.000000	18.428140
2143.000000	18.460006
2142.000000	18.517365
2141.000000	18.560702
2140.000000	18.621567
2139.000000	18.676270
2138.000000	18.715359
2137.000000	18.751261
2136.000000	18.802141
2135.000000	18.835175
2134.000000	18.864173
2133.000000	18.879469
2132.000000	18.906768
2131.000000	18.925569
2130.000000	18.940121
2129.000000	18.941395
2128.000000	18.957753
2127.000000	18.966782
2126.000000	18.963702
2125.000000	18.954673
2124.000000	18.954142
2123.000000	18.943095
2122.000000	18.926100
2121.000000	18.916434
2120.000000	18.895721
2119.000000	18.874583
2118.000000	18.843248
2117.000000	18.815525
2116.000000	18.808089
2115.000000	18.749349
2114.000000	18.710473
2113.000000	18.688379
2112.000000	18.656725
2111.000000	18.618592
2110.000000	18.575679
2109.000000	18.530111
2108.000000	18.481250
2107.000000	18.435894
2106.000000	18.410507
2105.000000	18.389157
2104.000000	18.339021
2103.000000	18.283361
2102.000000	18.241829
2101.000000	18.201572
2100.000000	18.152604
2099.000000	18.119995
2098.000000	18.090784
2097.000000	18.051058
2096.000000	18.016643
2095.000000	18.001984
2094.000000	17.957159
2093.000000	17.914246
2092.000000	17.890134
2091.000000	17.860286
2090.000000	17.822366
2089.000000	17.787101
2088.000000	17.766494
2087.000000	17.733991
2086.000000	17.711791
2085.000000	17.687254
2084.000000	17.637968
2083.000000	17.602703
2082.000000	17.560427
2081.000000	17.512840
2080.000000	17.476725
2079.000000	17.420641
2078.000000	17.361901
2077.000000	17.315908
2076.000000	17.262692
2075.000000	17.204695
2074.000000	17.134909
2073.000000	17.063104
2072.000000	17.002027
2071.000000	16.931497
2070.000000	16.852894
2069.000000	16.788631
2068.000000	16.714808
2067.000000	16.627707
2066.000000	16.552291
2065.000000	16.490259
2064.000000	16.413355
2063.000000	16.334009
2062.000000	16.276225
2061.000000	16.203570
2060.000000	16.150460
2059.000000	16.107972
2058.000000	16.063041
2057.000000	16.018004
2056.000000	15.980933
2055.000000	15.971267
2054.000000	15.968717
2053.000000	15.966274
2052.000000	15.982526
2051.000000	16.014817
2050.000000	16.060917
2049.000000	16.130278
2048.000000	16.193054
2047.000000	16.249139
2046.000000	16.321793
2045.000000	16.430032
2044.000000	16.532534
2043.000000	16.637373
2042.000000	16.736477
2041.000000	16.836855
2040.000000	16.941588
2039.000000	17.043241
2038.000000	17.136821
2037.000000	17.230613
2036.000000	17.306242
2035.000000	17.397060
2034.000000	17.470883
2033.000000	17.551398
2032.000000	17.622459
2031.000000	17.676526
2030.000000	17.721032
2029.000000	17.784020
2028.000000	17.843822
2027.000000	17.880787
2026.000000	17.926887
2025.000000	17.945050
2024.000000	17.977872
2023.000000	18.003684
2022.000000	18.033000
2021.000000	18.061680
2020.000000	18.091740
2019.000000	18.102362
2018.000000	18.113090
2017.000000	18.098220
2016.000000	18.090997
2015.000000	18.088023
2014.000000	18.086217
2013.000000	18.070921
2012.000000	18.048615
2011.000000	18.047234
2010.000000	18.011863
2009.000000	17.990406
2008.000000	17.941545
2007.000000	17.909997
2006.000000	17.865810
2005.000000	17.819392
2004.000000	17.764157
2003.000000	17.710835
2002.000000	17.654538
2001.000000	17.597816
2000.000000	17.531535
1999.000000	17.460686
1998.000000	17.388244
1997.000000	17.293283
1996.000000	17.222859
1995.000000	17.145743
1994.000000	17.050995
1993.000000	16.974410
1992.000000	16.869358
1991.000000	16.777372
1990.000000	16.686022
1989.000000	16.598072
1988.000000	16.485691
1987.000000	16.373629
1986.000000	16.285466
1985.000000	16.184876
1984.000000	16.079611
1983.000000	15.979127
1982.000000	15.864728
1981.000000	15.751922
1980.000000	15.643896
1979.000000	15.557964
1978.000000	15.420303
1977.000000	15.330440
1976.000000	15.221352
1975.000000	15.122567
1974.000000	15.014329
1973.000000	14.922555
1972.000000	14.813679
1971.000000	14.716806
1970.000000	14.638522
1969.000000	14.520724
1968.000000	14.451787
1967.000000	14.338450
1966.000000	14.259953
1965.000000	14.186555
1964.000000	14.063658
1963.000000	13.985056
1962.000000	13.895618
1961.000000	13.817653
1960.000000	13.710370
1959.000000	13.620083
1958.000000	13.546048
1957.000000	13.455017
1956.000000	13.384380
1955.000000	13.301316
1954.000000	13.226962
1953.000000	13.143792
1952.000000	13.062427
1951.000000	12.982125
1950.000000	12.914250
1949.000000	12.841383
1948.000000	12.789229
1947.000000	12.724116
1946.000000	12.672174
1945.000000	12.620870
1944.000000	12.591447
1943.000000	12.555226
1942.000000	12.488732
1941.000000	12.473861
1940.000000	12.466638
1939.000000	12.451767
1938.000000	12.468550
1937.000000	12.454316
1936.000000	12.464514
1935.000000	12.469506
1934.000000	12.467488
1933.000000	12.499566
1932.000000	12.565423
1931.000000	12.575939
1930.000000	12.647319
1929.000000	12.720717
1928.000000	12.808986
1927.000000	12.898317
1926.000000	12.979363
1925.000000	13.090044
1924.000000	13.222713
1923.000000	13.349753
1922.000000	13.476261
1921.000000	13.634423
1920.000000	13.784618
1919.000000	13.951702
1918.000000	14.114113
1917.000000	14.304353
1916.000000	14.478342
1915.000000	14.675912
1914.000000	14.886440
1913.000000	15.130109
1912.000000	15.363900
1911.000000	15.629450
1910.000000	15.850388
1909.000000	16.081417
1908.000000	16.297256
1907.000000	16.600834
1906.000000	16.901118
1905.000000	17.243997
1904.000000	17.601534
1903.000000	17.899163
1902.000000	18.240448
1901.000000	18.576104
1900.000000	18.948300
1899.000000	19.360434
1898.000000	19.755573
1897.000000	20.152093
1896.000000	20.541603
1895.000000	20.899458
1894.000000	21.266980
1893.000000	21.670404
1892.000000	22.122053
1891.000000	22.652941
1890.000000	23.138261
1889.000000	23.625068
1888.000000	24.118780
1887.000000	24.584130
1886.000000	25.091650
1885.000000	25.611279
1884.000000	26.212486
1883.000000	26.829412
1882.000000	27.392486
1881.000000	28.004633
1880.000000	28.572167
1879.000000	29.084148
1878.000000	29.618861
1877.000000	30.175561
1876.000000	30.650684
1875.000000	31.133454
1874.000000	31.609533
1873.000000	32.061819
1872.000000	32.491798
1871.000000	32.892779
1870.000000	33.255627
1869.000000	33.575881
1868.000000	33.885088
1867.000000	34.122172
1866.000000	34.295523
1865.000000	34.450392
1864.000000	34.603455
1863.000000	34.734531
1862.000000	34.857959
1861.000000	35.022813
1860.000000	35.165891
1859.000000	35.293355
1858.000000	35.414977
1857.000000	35.519498
1856.000000	35.572714
1855.000000	35.594490
1854.000000	35.664276
1853.000000	35.696992
1852.000000	35.697948
1851.000000	35.723228
1850.000000	35.722591
1849.000000	35.721848
1848.000000	35.736081
1847.000000	35.770709
1846.000000	35.766885
1845.000000	35.700497
1844.000000	35.645050
1843.000000	35.594065
1842.000000	35.598420
1841.000000	35.649936
1840.000000	35.639208
1839.000000	35.620620
1838.000000	35.580256
1837.000000	35.549877
1836.000000	35.522366
1835.000000	35.497086
1834.000000	35.436328
1833.000000	35.358043
1832.000000	35.273386
1831.000000	35.214009
1830.000000	35.177150
1829.000000	35.130201
1828.000000	35.079215
1827.000000	35.006561
1826.000000	34.952495
1825.000000	34.896517
1824.000000	34.827686
1823.000000	34.786579
1822.000000	34.778081
1821.000000	34.775319
1820.000000	34.762254
1819.000000	34.758962
1818.000000	34.725396
1817.000000	34.690025
1816.000000	34.673242
1815.000000	34.667612
1814.000000	34.637658
1813.000000	34.614715
1812.000000	34.604305
1811.000000	34.596763
1810.000000	34.555125
1809.000000	34.504670
1808.000000	34.467600
1807.000000	34.433822
1806.000000	34.398663
1805.000000	34.351713
1804.000000	34.301153
1803.000000	34.240820
1802.000000	34.198438
1801.000000	34.160092
1800.000000	34.113355
1799.000000	34.059820
1798.000000	33.996726
1797.000000	33.940748
1796.000000	33.896241
1795.000000	33.864057
1794.000000	33.813814
1793.000000	33.759536
1792.000000	33.706532
1791.000000	33.660964
1790.000000	33.619325
1789.000000	33.556655
1788.000000	33.504820
1787.000000	33.464031
1786.000000	33.405504
1785.000000	33.348782
1784.000000	33.285369
1783.000000	33.226948
1782.000000	33.163216
1781.000000	33.093323
1780.000000	33.032353
1779.000000	32.957149
1778.000000	32.869198
1777.000000	32.790595
1776.000000	32.716985
1775.000000	32.630309
1774.000000	32.530250
1773.000000	32.423711
1772.000000	32.315791
1771.000000	32.212120
1770.000000	32.098146
1769.000000	31.988102
1768.000000	31.886662
1767.000000	31.782991
1766.000000	31.682082
1765.000000	31.608577
1764.000000	31.553343
1763.000000	31.537516
1762.000000	31.528381
1761.000000	31.534860
1760.000000	31.574905
1759.000000	31.626741
1758.000000	31.701626
1757.000000	31.762596
1756.000000	31.831108
1755.000000	31.902913
1754.000000	31.947207
1753.000000	31.983110
1752.000000	32.007009
1751.000000	32.022411
1750.000000	32.025598
1749.000000	32.015507
1748.000000	31.956661
1747.000000	31.906312
1746.000000	31.843218
1745.000000	31.741990
1744.000000	31.628653
1743.000000	31.485468
1742.000000	31.328050
1741.000000	31.149494
1740.000000	30.951605
1739.000000	30.740121
1738.000000	30.522157
1737.000000	30.327456
1736.000000	30.141145
1735.000000	29.986489
1734.000000	29.880269
1733.000000	29.823122
1732.000000	29.795824
1731.000000	29.801772
1730.000000	29.843941
1729.000000	29.923606
1728.000000	30.011875
1727.000000	30.083786
1726.000000	30.179172
1725.000000	30.265529
1724.000000	30.331279
1723.000000	30.394268
1722.000000	30.467772
1721.000000	30.521626
1720.000000	30.592794
1719.000000	30.689773
1718.000000	30.789195
1717.000000	30.880332
1716.000000	30.983684
1715.000000	31.102969
1714.000000	31.229902
1713.000000	31.353224
1712.000000	31.459656
1711.000000	31.555148
1710.000000	31.624616
1709.000000	31.673796
1708.000000	31.693766
1707.000000	31.712142
1706.000000	31.720321
1705.000000	31.710549
1704.000000	31.673053
1703.000000	31.619305
1702.000000	31.530612
1701.000000	31.435969
1700.000000	31.318702
1699.000000	31.166701
1698.000000	31.030315
1697.000000	30.900301
1696.000000	30.806827
1695.000000	30.743095
1694.000000	30.725038
1693.000000	30.743201
1692.000000	30.838587
1691.000000	30.955748
1690.000000	31.066429
1689.000000	31.192513
1688.000000	31.303725
1687.000000	31.397624
1686.000000	31.449141
1685.000000	31.524982
1684.000000	31.598061
1683.000000	31.760791
1682.000000	31.986190
1681.000000	32.315048
1680.000000	32.726545
1679.000000	33.199437
1678.000000	33.719703
1677.000000	34.211821
1676.000000	34.700965
1675.000000	35.087182
1674.000000	35.444294
1673.000000	35.790784
1672.000000	36.093193
1671.000000	36.343554
1670.000000	36.555888
1669.000000	36.776508
1668.000000	36.959525
1667.000000	37.112057
1666.000000	37.232723
1665.000000	37.366880
1664.000000	37.499867
1663.000000	37.589305
1662.000000	37.676511
1661.000000	37.785812
1660.000000	37.834142
1659.000000	37.907965
1658.000000	37.955870
1657.000000	38.007918
1656.000000	38.050300
1655.000000	38.087583
1654.000000	38.087902
1653.000000	38.106809
1652.000000	38.092470
1651.000000	38.089708
1650.000000	38.073669
1649.000000	38.040634
1648.000000	38.025020
1647.000000	38.017478
1646.000000	37.978177
1645.000000	37.938769
1644.000000	37.894688
1643.000000	37.851775
1642.000000	37.791866
1641.000000	37.767330
1640.000000	37.726966
1639.000000	37.678742
1638.000000	37.624039
1637.000000	37.555845
1636.000000	37.496468
1635.000000	37.450581
1634.000000	37.393010
1633.000000	37.308777
1632.000000	37.270325
1631.000000	37.177914
1630.000000	37.095062
1629.000000	37.029737
1628.000000	36.940830
1627.000000	36.854155
1626.000000	36.781075
1625.000000	36.696630
1624.000000	36.628437
1623.000000	36.554508
1622.000000	36.464327
1621.000000	36.390610
1620.000000	36.329852
1619.000000	36.251674
1618.000000	36.163936
1617.000000	36.108701
1616.000000	36.011298
1615.000000	35.969341
1614.000000	35.880965
1613.000000	35.795883
1612.000000	35.733319
1611.000000	35.655672
1610.000000	35.565173
1609.000000	35.504202
1608.000000	35.427087
1607.000000	35.333931
1606.000000	35.275192
1605.000000	35.186816
1604.000000	35.104071
1603.000000	35.018989
1602.000000	34.934225
1601.000000	34.852754
1600.000000	34.765016
1599.000000	34.678765
1598.000000	34.606429
1597.000000	34.525277
1596.000000	34.445612
1595.000000	34.359467
1594.000000	34.285857
1593.000000	34.213309
1592.000000	34.151913
1591.000000	34.097847
1590.000000	34.025617
1589.000000	33.949989
1588.000000	33.883920
1587.000000	33.828791
1586.000000	33.767290
1585.000000	33.708019
1584.000000	33.651616
1583.000000	33.590646
1582.000000	33.538385
1581.000000	33.491755
1580.000000	33.435564
1579.000000	33.375656
1578.000000	33.349738
1577.000000	33.314580
1576.000000	33.287069
1575.000000	33.254140
1574.000000	33.240757
1573.000000	33.212502
1572.000000	33.204429
1571.000000	33.187859
1570.000000	33.165340
1569.000000	33.157905
1568.000000	33.149195
1567.000000	33.148664
1566.000000	33.153762
1565.000000	33.150576
1564.000000	33.145158
1563.000000	33.135280
1562.000000	33.126251
1561.000000	33.118603
1560.000000	33.113930
1559.000000	33.097041
1558.000000	33.081320
1557.000000	33.049135
1556.000000	33.018438
1555.000000	32.994857
1554.000000	32.961929
1553.000000	32.930912
1552.000000	32.897028
1551.000000	32.854752
1550.000000	32.809821
1549.000000	32.766483
1548.000000	32.711992
1547.000000	32.657289
1546.000000	32.612995
1545.000000	32.559460
1544.000000	32.520584
1543.000000	32.505394
1542.000000	32.480645
1541.000000	32.449841
1540.000000	32.408415
1539.000000	32.373469
1538.000000	32.349463
1537.000000	32.327900
1536.000000	32.286687
1535.000000	32.246111
1534.000000	32.220512
1533.000000	32.179511
1532.000000	32.136598
1531.000000	32.105050
1530.000000	32.063093
1529.000000	32.014976
1528.000000	31.948057
1527.000000	31.899302
1526.000000	31.858619
1525.000000	31.793188
1524.000000	31.742202
1523.000000	31.702370
1522.000000	31.640231
1521.000000	31.579048
1520.000000	31.520733
1519.000000	31.460400
1518.000000	31.391251
1517.000000	31.316684
1516.000000	31.254333
1515.000000	31.206428
1514.000000	31.151618
1513.000000	31.075352
1512.000000	30.993669
1511.000000	30.927706
1510.000000	30.859725
1509.000000	30.783884
1508.000000	30.718664
1507.000000	30.643885
1506.000000	30.569106
1505.000000	30.507180
1504.000000	30.436969
1503.000000	30.367607
1502.000000	30.298670
1501.000000	30.233132
1500.000000	30.172268
1499.000000	30.108854
1498.000000	30.057550
1497.000000	30.020904
1496.000000	29.974592
1495.000000	29.937309
1494.000000	29.893227
1493.000000	29.845003
1492.000000	29.814306
1491.000000	29.768631
1490.000000	29.737190
1489.000000	29.716265
1488.000000	29.683230
1487.000000	29.648284
1486.000000	29.634050
1485.000000	29.603565
1484.000000	29.572230
1483.000000	29.547375
1482.000000	29.528149
1481.000000	29.514659
1480.000000	29.518058
1479.000000	29.506692
1478.000000	29.490016
1477.000000	29.483111
1476.000000	29.483536
1475.000000	29.490334
1474.000000	29.495964
1473.000000	29.519545
1472.000000	29.551623
1471.000000	29.578603
1470.000000	29.588376
1469.000000	29.588269
1468.000000	29.595598
1467.000000	29.625021
1466.000000	29.654126
1465.000000	29.675795
1464.000000	29.684611
1463.000000	29.726143
1462.000000	29.774155
1461.000000	29.830133
1460.000000	29.854988
1459.000000	29.906611
1458.000000	29.962377
1457.000000	30.011451
1456.000000	30.085486
1455.000000	30.174286
1454.000000	30.239718
1453.000000	30.324694
1452.000000	30.425709
1451.000000	30.493265
1450.000000	30.586633
1449.000000	30.664705
1448.000000	30.740333
1447.000000	30.829346
1446.000000	30.944701
1445.000000	31.055914
1444.000000	31.147369
1443.000000	31.213544
1442.000000	31.321252
1441.000000	31.452009
1440.000000	31.565239
1439.000000	31.673903
1438.000000	31.774068
1437.000000	31.889530
1436.000000	32.007434
1435.000000	32.119284
1434.000000	32.237932
1433.000000	32.375806
1432.000000	32.524832
1431.000000	32.650703
1430.000000	32.798349
1429.000000	32.940472
1428.000000	33.104582
1427.000000	33.280270
1426.000000	33.467537
1425.000000	33.665850
1424.000000	33.878502
1423.000000	34.083932
1422.000000	34.295735
1421.000000	34.509875
1420.000000	34.772983
1419.000000	35.035771
1418.000000	35.280503
1417.000000	35.519073
1416.000000	35.747659
1415.000000	36.031479
1414.000000	36.348865
1413.000000	36.646919
1412.000000	36.921923
1411.000000	37.178232
1410.000000	37.526104
1409.000000	37.919543
1408.000000	38.276655
1407.000000	38.704404
1406.000000	39.023914
1405.000000	39.449114
1404.000000	39.849883
1403.000000	40.241198
1402.000000	40.639311
1401.000000	41.049002
1400.000000	41.516902
1399.000000	41.929992
1398.000000	42.204465
1397.000000	42.466086
1396.000000	42.819480
1395.000000	43.216744
1394.000000	43.547832
1393.000000	43.786721
1392.000000	44.061407
1391.000000	44.375287
1390.000000	44.702020
1389.000000	44.967996
1388.000000	45.402649
1387.000000	45.830291
1386.000000	46.223625
1385.000000	46.670599
1384.000000	47.108651
1383.000000	47.615215
1382.000000	48.128471
1381.000000	48.564505
1380.000000	48.882316
1379.000000	49.116638
1378.000000	49.366042
1377.000000	49.471519
1376.000000	49.674081
1375.000000	49.857736
1374.000000	50.051694
1373.000000	50.280704
1372.000000	50.549760
1371.000000	50.873094
1370.000000	51.188675
1369.000000	51.425015
1368.000000	51.735602
1367.000000	51.994567
1366.000000	52.193411
1365.000000	52.355185
1364.000000	52.569112
1363.000000	52.726849
1362.000000	52.909654
1361.000000	53.039880
1360.000000	53.186039
1359.000000	53.182109
1358.000000	53.290453
1357.000000	53.395718
1356.000000	53.547612
1355.000000	53.778323
1354.000000	54.075633
1353.000000	54.437631
1352.000000	54.767551
1351.000000	55.183722
1350.000000	55.594900
1349.000000	55.942028
1348.000000	56.316560
1347.000000	56.640213
1346.000000	56.959936
1345.000000	57.264469
1344.000000	57.579199
1343.000000	57.852398
1342.000000	58.132182
1341.000000	58.406017
1340.000000	58.661796
1339.000000	58.933294
1338.000000	59.190029
1337.000000	59.438265
1336.000000	59.674924
1335.000000	59.924222
1334.000000	60.152490
1333.000000	60.379588
1332.000000	60.615822
1331.000000	60.820083
1330.000000	61.006712
1329.000000	61.212992
1328.000000	61.391867
1327.000000	61.572760
1326.000000	61.742393
1325.000000	61.924773
1324.000000	62.079324
1323.000000	62.228882
1322.000000	62.352416
1321.000000	62.505054
1320.000000	62.646858
1319.000000	62.791211
1318.000000	62.901680
1317.000000	63.008538
1316.000000	63.115289
1315.000000	63.240523
1314.000000	63.349611
1313.000000	63.471233
1312.000000	63.564494
1311.000000	63.647877
1310.000000	63.724143
1309.000000	63.817086
1308.000000	63.894202
1307.000000	63.946356
1306.000000	64.019329
1305.000000	64.103668
1304.000000	64.140208
1303.000000	64.179084
1302.000000	64.232938
1301.000000	64.276170
1300.000000	64.294652
1299.000000	64.308779
1298.000000	64.338202
1297.000000	64.368369
1296.000000	64.388763
1295.000000	64.405758
1294.000000	64.408307
1293.000000	64.416062
1292.000000	64.418080
1291.000000	64.412344
1290.000000	64.396517
1289.000000	64.385683
1288.000000	64.357534
1287.000000	64.328111
1286.000000	64.307929
1285.000000	64.274151
1284.000000	64.222528
1283.000000	64.190981
1282.000000	64.153485
1281.000000	64.105792
1280.000000	64.059480
1279.000000	64.020604
1278.000000	63.983002
1277.000000	63.941257
1276.000000	63.897920
1275.000000	63.863398
1274.000000	63.820060
1273.000000	63.780121
1272.000000	63.760258
1271.000000	63.736571
1270.000000	63.716920
1269.000000	63.688453
1268.000000	63.648515
1267.000000	63.624721
1266.000000	63.607832
1265.000000	63.584464
1264.000000	63.548668
1263.000000	63.513827
1262.000000	63.484404
1261.000000	63.466347
1260.000000	63.444997
1259.000000	63.408138
1258.000000	63.371705
1257.000000	63.343238
1256.000000	63.316470
1255.000000	63.265060
1254.000000	63.234468
1253.000000	63.188262
1252.000000	63.146837
1251.000000	63.096594
1250.000000	63.038173
1249.000000	62.988462
1248.000000	62.923031
1247.000000	62.848995
1246.000000	62.776234
1245.000000	62.697631
1244.000000	62.605645
1243.000000	62.511959
1242.000000	62.418591
1241.000000	62.322462
1240.000000	62.212524
1239.000000	62.109490
1238.000000	62.005607
1237.000000	61.900130
1236.000000	61.793379
1235.000000	61.674200
1234.000000	61.552365
1233.000000	61.431062
1232.000000	61.307847
1231.000000	61.185162
1230.000000	61.065133
1229.000000	60.932464
1228.000000	60.781844
1227.000000	60.650769
1226.000000	60.516400
1225.000000	60.384793
1224.000000	60.258179
1223.000000	60.117012
1222.000000	59.981688
1221.000000	59.837016
1220.000000	59.705409
1219.000000	59.591647
1218.000000	59.469388
1217.000000	59.356476
1216.000000	59.256204
1215.000000	59.138618
1214.000000	59.016571
1213.000000	58.923310
1212.000000	58.830686
1211.000000	58.731370
1210.000000	58.625681
1209.000000	58.528914
1208.000000	58.450524
1207.000000	58.367353
1206.000000	58.285245
1205.000000	58.233834
1204.000000	58.186885
1203.000000	58.145778
1202.000000	58.092668
1201.000000	58.063457
1200.000000	58.036796
1199.000000	57.981455
1198.000000	57.914749
1197.000000	57.819682
1196.000000	57.711019
1195.000000	57.560292
1194.000000	57.375044
1193.000000	57.127233
1192.000000	56.852547
1191.000000	56.527513
1190.000000	56.174650
1189.000000	55.841012
1188.000000	55.543065
1187.000000	55.321808
1186.000000	55.188927
1185.000000	55.140809
1184.000000	55.195194
1183.000000	55.356224
1182.000000	55.618162
1181.000000	55.952437
1180.000000	56.326014
1179.000000	56.713293
1178.000000	57.077203
1177.000000	57.436864
1176.000000	57.742141
1175.000000	58.007373
1174.000000	58.255397
1173.000000	58.478566
1172.000000	58.724890
1171.000000	58.983961
1170.000000	59.261727
1169.000000	59.523772
1168.000000	59.805893
1167.000000	60.087270
1166.000000	60.372472
1165.000000	60.663727
1164.000000	60.967623
1163.000000	61.271201
1162.000000	61.593260
1161.000000	61.891102
1160.000000	62.199777
1159.000000	62.479349
1158.000000	62.774747
1157.000000	63.051132
1156.000000	63.312859
1155.000000	63.556209
1154.000000	63.771942
1153.000000	63.918208
1152.000000	64.061923
1151.000000	64.170481
1150.000000	64.258431
1149.000000	64.330129
1148.000000	64.390781
1147.000000	64.482131
1146.000000	64.593449
1145.000000	64.729199
1144.000000	64.925069
1143.000000	65.151211
1142.000000	65.415700
1141.000000	65.718746
1140.000000	66.027209
1139.000000	66.334398
1138.000000	66.673134
1137.000000	67.014207
1136.000000	67.380348
1135.000000	67.732362
1134.000000	68.121128
1133.000000	68.453597
1132.000000	68.741135
1131.000000	69.017520
1130.000000	69.312706
1129.000000	69.561580
1128.000000	69.788997
1127.000000	69.946947
1126.000000	70.097992
1125.000000	70.224712
1124.000000	70.327427
1123.000000	70.429930
1122.000000	70.512357
1121.000000	70.575239
1120.000000	70.612310
1119.000000	70.660321
1118.000000	70.708120
1117.000000	70.732763
1116.000000	70.749228
1115.000000	70.750927
1114.000000	70.776207
1113.000000	70.778013
1112.000000	70.802550
1111.000000	70.804356
1110.000000	70.823475
1109.000000	70.819227
1108.000000	70.821988
1107.000000	70.827193
1106.000000	70.826768
1105.000000	70.833035
1104.000000	70.842276
1103.000000	70.842701
1102.000000	70.848650
1101.000000	70.849393
1100.000000	70.837178
1099.000000	70.821245
1098.000000	70.795752
1097.000000	70.809985
1096.000000	70.788423
1095.000000	70.774189
1094.000000	70.752308
1093.000000	70.721504
1092.000000	70.722672
1091.000000	70.673174
1090.000000	70.658834
1089.000000	70.633766
1088.000000	70.604237
1087.000000	70.567485
1086.000000	70.525953
1085.000000	70.485801
1084.000000	70.453935
1083.000000	70.411129
1082.000000	70.368641
1081.000000	70.322222
1080.000000	70.275804
1079.000000	70.251374
1078.000000	70.201131
1077.000000	70.127733
1076.000000	70.104471
1075.000000	70.046687
1074.000000	70.036171
1073.000000	69.973077
1072.000000	69.917630
1071.000000	69.878328
1070.000000	69.833185
1069.000000	69.794627
1068.000000	69.729408
1067.000000	69.681290
1066.000000	69.624887
1065.000000	69.591321
1064.000000	69.540654
1063.000000	69.478834
1062.000000	69.437621
1061.000000	69.402037
1060.000000	69.344359
1059.000000	69.268624
1058.000000	69.218488
1057.000000	69.177169
1056.000000	69.133831
1055.000000	69.067019
1054.000000	69.014864
1053.000000	68.971633
1052.000000	68.908432
1051.000000	68.860420
1050.000000	68.808266
1049.000000	68.767053
1048.000000	68.737948
1047.000000	68.694079
1046.000000	68.648086
1045.000000	68.603049
1044.000000	68.564703
1043.000000	68.537405
1042.000000	68.501502
1041.000000	68.467087
1040.000000	68.432884
1039.000000	68.378074
1038.000000	68.338242
1037.000000	68.307226
1036.000000	68.272173
1035.000000	68.215982
1034.000000	68.190808
1033.000000	68.140566
1032.000000	68.084269
1031.000000	68.057714
1030.000000	67.999187
1029.000000	67.926108
1028.000000	67.873422
1027.000000	67.821799
1026.000000	67.759236
1025.000000	67.708037
1024.000000	67.651528
1023.000000	67.567614
1022.000000	67.506113
1021.000000	67.464475
1020.000000	67.390758
1019.000000	67.331806
1018.000000	67.280076
1017.000000	67.219743
1016.000000	67.158667
1015.000000	67.110974
1014.000000	67.077727
1013.000000	67.024935
1012.000000	66.980535
1011.000000	66.942296
1010.000000	66.924133
1009.000000	66.899702
1008.000000	66.870066
1007.000000	66.836607
1006.000000	66.831615
1005.000000	66.808034
1004.000000	66.780948
1003.000000	66.752693
1002.000000	66.726988
1001.000000	66.705213
1000.000000	66.692466
999.000000	66.659219
998.000000	66.635745
997.000000	66.608446
996.000000	66.602816
995.000000	66.578917
994.000000	66.552043
993.000000	66.522726
992.000000	66.517522
991.000000	66.525807
990.000000	66.508812
989.000000	66.483637
988.000000	66.492666
987.000000	66.518265
986.000000	66.508281
985.000000	66.499570
984.000000	66.517415
983.000000	66.512954
982.000000	66.520708
981.000000	66.541527
980.000000	66.562347
979.000000	66.555124
978.000000	66.576580
977.000000	66.606216
976.000000	66.607809
975.000000	66.604516
974.000000	66.626079
973.000000	66.678976
972.000000	66.690767
971.000000	66.680251
970.000000	66.711055
969.000000	66.748232
968.000000	66.778505
967.000000	66.811114
966.000000	66.825985
965.000000	66.857214
964.000000	66.896303
963.000000	66.929444
962.000000	66.957698
961.000000	66.976818
960.000000	67.020899
959.000000	67.067211
958.000000	67.101733
957.000000	67.134448
956.000000	67.140397
955.000000	67.169076
954.000000	67.196587
953.000000	67.209546
952.000000	67.239925
951.000000	67.254902
950.000000	67.259363
949.000000	67.279014
948.000000	67.284219
947.000000	67.289636
946.000000	67.301002
945.000000	67.321077
944.000000	67.341578
943.000000	67.337010
942.000000	67.349544
941.000000	67.353581
940.000000	67.342959
939.000000	67.339453
938.000000	67.364203
937.000000	67.369726
936.000000	67.356767
935.000000	67.354855
934.000000	67.349119
933.000000	67.357192
932.000000	67.381835
931.000000	67.381942
930.000000	67.368345
929.000000	67.369620
928.000000	67.370045
927.000000	67.356555
926.000000	67.350182
925.000000	67.339878
924.000000	67.367814
923.000000	67.366327
922.000000	67.352837
921.000000	67.352412
920.000000	67.362609
919.000000	67.373019
918.000000	67.360697
917.000000	67.345720
916.000000	67.350394
915.000000	67.349013
914.000000	67.338073
913.000000	67.330850
912.000000	67.351031
911.000000	67.339878
910.000000	67.314810
909.000000	67.294522
908.000000	67.291761
907.000000	67.285281
906.000000	67.295691
905.000000	67.302383
904.000000	67.316404
903.000000	67.324476
902.000000	67.342640
901.000000	67.353368
900.000000	67.379180
899.000000	67.393732
898.000000	67.411896
897.000000	67.434733
896.000000	67.471910
895.000000	67.497615
894.000000	67.508450
893.000000	67.498040
892.000000	67.502926
891.000000	67.479345
890.000000	67.489755
889.000000	67.508981
888.000000	67.520134
887.000000	67.523639
886.000000	67.480939
885.000000	67.458951
884.000000	67.439725
883.000000	67.408603
882.000000	67.373550
881.000000	67.349013
880.000000	67.289849
879.000000	67.243112
878.000000	67.169182
877.000000	67.045755
876.000000	66.922327
875.000000	66.851584
874.000000	66.681738
873.000000	66.471953
872.000000	66.241562
871.000000	66.141502
870.000000	66.159029
869.000000	66.218512
868.000000	66.297433
867.000000	66.367539
866.000000	66.425004
865.000000	66.485974
864.000000	66.533880
863.000000	66.596018
862.000000	66.673878
861.000000	66.752587
860.000000	66.809415
859.000000	66.868792
858.000000	66.928700
857.000000	66.481800
856.000000	67.163400
855.000000	67.140900
854.000000	67.367600
853.000000	67.213200
852.000000	67.477400
851.000000	67.483500
850.000000	67.300000
849.000000	67.734700
848.000000	67.705200
847.000000	67.752100
846.000000	67.699700
845.000000	68.007300
844.000000	68.126300
843.000000	68.221500
842.000000	67.750100
841.000000	67.846900
840.000000	68.191300
839.000000	68.295900
838.000000	68.073900
837.000000	68.258900
836.000000	68.379800
835.000000	68.481200
834.000000	68.314400
833.000000	68.312400
832.000000	68.403000
831.000000	68.022100
830.000000	68.431000
829.000000	68.411000
828.000000	68.403400
827.000000	68.540600
826.000000	68.599700
825.000000	68.590900
824.000000	68.704500
823.000000	68.524000
822.000000	68.507400
821.000000	68.644300
820.000000	68.505600
819.000000	68.469900
818.000000	68.466300
817.000000	68.359900
816.000000	68.370900
815.000000	68.440700
814.000000	68.552900
813.000000	68.433600
812.000000	68.348100
811.000000	68.239800
810.000000	68.247000
809.000000	68.384900
808.000000	68.381800
807.000000	68.418800
806.000000	68.179900
805.000000	68.095800
804.000000	68.263900
803.000000	68.082600
802.000000	67.872100
801.000000	67.693500
800.000000	67.796000
799.000000	67.626500
798.000000	67.607300
797.000000	67.524100
796.000000	67.475300
795.000000	67.389800
794.000000	67.205800
793.000000	67.467000
792.000000	67.165900
791.000000	67.270700
790.000000	67.018400
789.000000	67.087000
788.000000	66.945500
787.000000	66.707300
786.000000	66.531900
785.000000	66.583700
784.000000	66.415200
783.000000	66.346400
782.000000	66.383300
781.000000	66.167700
780.000000	66.065200
779.000000	66.027800
778.000000	65.941900
777.000000	65.871800
776.000000	65.801300
775.000000	65.672400
774.000000	65.569800
773.000000	65.485900
772.000000	65.458900
771.000000	65.433500
770.000000	65.266100
769.000000	65.202300
768.000000	65.058000
767.000000	64.984100
766.000000	64.851600
765.000000	64.677100
764.000000	64.705500
763.000000	64.464100
762.000000	64.463800
761.000000	64.345300
760.000000	64.259500
759.000000	64.133100
758.000000	64.093000
757.000000	63.944300
756.000000	63.891200
755.000000	63.932400
754.000000	63.799300
753.000000	63.765800
752.000000	63.629100
751.000000	63.505500
750.000000	63.427500
749.000000	63.298400
748.000000	63.195600
747.000000	63.090300
746.000000	62.972100
745.000000	62.808800
744.000000	62.711700
743.000000	62.600600
742.000000	62.433800
741.000000	62.372300
740.000000	62.324200
739.000000	62.289300
738.000000	62.243100
737.000000	62.120800
736.000000	62.034400
735.000000	61.851000
734.000000	61.785300
733.000000	61.676900
732.000000	61.590700
731.000000	61.529600
730.000000	61.334100
729.000000	61.195500
728.000000	61.139900
727.000000	60.997100
726.000000	60.925000
725.000000	60.840500
724.000000	60.644900
723.000000	60.597300
722.000000	60.449600
721.000000	60.325300
720.000000	60.167600
719.000000	60.115100
718.000000	60.051600
717.000000	59.954400
716.000000	59.816400
715.000000	59.699500
714.000000	59.583100
713.000000	59.491800
712.000000	59.442900
711.000000	59.303800
710.000000	59.193400
709.000000	59.160100
708.000000	59.067900
707.000000	59.015200
706.000000	58.818500
705.000000	58.733500
704.000000	58.639400
703.000000	58.491000
702.000000	58.398200
701.000000	58.266900
700.000000	58.166700
699.000000	58.127400
698.000000	57.990500
697.000000	57.865300
696.000000	57.779100
695.000000	57.634900
694.000000	57.615800
693.000000	57.572600
692.000000	57.449400
691.000000	57.385300
690.000000	57.357500
689.000000	57.261100
688.000000	57.213700
687.000000	57.190100
686.000000	57.165000
685.000000	57.103100
684.000000	56.974200
683.000000	56.906400
682.000000	56.881000
681.000000	56.825000
680.000000	56.711700
679.000000	56.608600
678.000000	56.481000
677.000000	56.342600
676.000000	56.245900
675.000000	56.103100
674.000000	55.914400
673.000000	55.717200
672.000000	55.562600
671.000000	55.387200
670.000000	55.193200
669.000000	55.035500
668.000000	54.884500
667.000000	54.708700
666.000000	54.549000
665.000000	54.358600
664.000000	54.168800
663.000000	54.038300
662.000000	53.836200
661.000000	53.647900
660.000000	53.506000
659.000000	53.331100
658.000000	53.142400
657.000000	52.975000
656.000000	52.802000
655.000000	52.550100
654.000000	52.272500
653.000000	52.005000
652.000000	51.749900
651.000000	51.465200
650.000000	51.143800
649.000000	50.825600
648.000000	50.489900
647.000000	50.218000
646.000000	49.973000
645.000000	49.718400
644.000000	49.510700
643.000000	49.380700
642.000000	49.284700
641.000000	49.267200
640.000000	49.305000
639.000000	49.365500
638.000000	49.553100
637.000000	49.782200
636.000000	50.012000
635.000000	50.344800
634.000000	50.687700
633.000000	51.020300
632.000000	51.410100
631.000000	51.826900
630.000000	52.202300
629.000000	52.552800
628.000000	52.869100
627.000000	53.184100
626.000000	53.482900
625.000000	53.739400
624.000000	54.006200
623.000000	54.261800
622.000000	54.453200
621.000000	54.648500
620.000000	54.807700
619.000000	54.974400
618.000000	55.187000
617.000000	55.439100
616.000000	55.693500
615.000000	55.982100
614.000000	56.337700
613.000000	56.690900
612.000000	57.074200
611.000000	57.466000
610.000000	57.925600
609.000000	58.344900
608.000000	58.788100
607.000000	59.281200
606.000000	59.748000
605.000000	60.198200
604.000000	60.637400
603.000000	61.095000
602.000000	61.520500
601.000000	61.869200
600.000000	62.209100
599.000000	62.534200
598.000000	62.798000
597.000000	63.001100
596.000000	63.282500
595.000000	63.503600
594.000000	63.728100
593.000000	63.912900
592.000000	64.026600
591.000000	64.223600
590.000000	64.419500
589.000000	64.559200
588.000000	64.742800
587.000000	64.936800
586.000000	65.117300
585.000000	65.326200
584.000000	65.580200
583.000000	65.798200
582.000000	66.063300
581.000000	66.294700
580.000000	66.520100
579.000000	66.752600
578.000000	66.971100
577.000000	67.215400
576.000000	67.403600
575.000000	67.573800
574.000000	67.692900
573.000000	67.817400
572.000000	67.945200
571.000000	68.025100
570.000000	68.024700
569.000000	68.031000
568.000000	68.013100
567.000000	67.953300
566.000000	67.898400
565.000000	67.798200
564.000000	67.722100
563.000000	67.542200
562.000000	67.396800
561.000000	67.221700
560.000000	67.013500
559.000000	66.757900
558.000000	66.492800
557.000000	66.232500
556.000000	65.895000
555.000000	65.489100
554.000000	65.047700
553.000000	64.562500
552.000000	64.038100
551.000000	63.466800
550.000000	62.890100
549.000000	62.268100
548.000000	61.695000
547.000000	61.074700
546.000000	60.406000
545.000000	59.733800
544.000000	58.999200
543.000000	58.270800
542.000000	57.528400
541.000000	56.750800
540.000000	55.968500
539.000000	55.199300
538.000000	54.431200
537.000000	53.675900
536.000000	52.888600
535.000000	52.122400
534.000000	51.343800
533.000000	50.542600
532.000000	49.785900
531.000000	48.985900
530.000000	48.267200
529.000000	47.560800
528.000000	46.850100
527.000000	46.138000
526.000000	45.402400
525.000000	44.659600
524.000000	43.920300
523.000000	43.203000
522.000000	42.470200
521.000000	41.752600
520.000000	41.025100
519.000000	40.274400
518.000000	39.520100
517.000000	38.763100
516.000000	38.006000
515.000000	37.161900
514.000000	36.373700
513.000000	35.578600
512.000000	34.754500
511.000000	33.939400
510.000000	33.141000
509.000000	32.305600
508.000000	31.471000
507.000000	30.678200
506.000000	29.946700
505.000000	29.208900
504.000000	28.522000
503.000000	27.885500
502.000000	27.227400
501.000000	26.660000
500.000000	26.110000
499.000000	25.647700
498.000000	25.230500
497.000000	24.846000
496.000000	24.466300
495.000000	24.161000
494.000000	23.922800
493.000000	23.656400
492.000000	23.445800
491.000000	23.265200
490.000000	23.111900
489.000000	22.964200
488.000000	22.837300
487.000000	22.684900
486.000000	22.577700
485.000000	22.456900
484.000000	22.367600
483.000000	22.248800
482.000000	22.142800
481.000000	22.033500
480.000000	21.943700
479.000000	21.828200
478.000000	21.766900
477.000000	21.679000
476.000000	21.630300
475.000000	21.582800
474.000000	21.505800
473.000000	21.461100
472.000000	21.405700
471.000000	21.361900
470.000000	21.326300
469.000000	21.277500
468.000000	21.220500
467.000000	21.159100
466.000000	21.098800
465.000000	21.014400
464.000000	20.969300
463.000000	20.853600
462.000000	20.741400
461.000000	20.613200
460.000000	20.541100
459.000000	20.391100
458.000000	20.255600
457.000000	20.092600
456.000000	19.947300
455.000000	19.750900
454.000000	19.598300
453.000000	19.390700
452.000000	19.197300
451.000000	18.985100
450.000000	18.761000
449.000000	18.549900
448.000000	18.323900
447.000000	18.087000
446.000000	17.864200
445.000000	17.620200
444.000000	17.360800
443.000000	17.089400
442.000000	16.800800
441.000000	16.512500
440.000000	16.231700
439.000000	15.945400
438.000000	15.643900
437.000000	15.348400
436.000000	15.024800
435.000000	14.731900
434.000000	14.405500
433.000000	14.150900
432.000000	13.851200
431.000000	13.541000
430.000000	13.219900
429.000000	12.949300
428.000000	12.654100
427.000000	12.380600
426.000000	12.095000
425.000000	11.826200
424.000000	11.555700
423.000000	11.297400
422.000000	11.019300
421.000000	10.782200
420.000000	10.555600
419.000000	10.311000
418.000000	10.061900
417.000000	9.865500
416.000000	9.647900
415.000000	9.409800
414.000000	9.204200
413.000000	9.020900
412.000000	8.846600
411.000000	8.684800
410.000000	8.499200
409.000000	8.361600
408.000000	8.203600
407.000000	8.056600
406.000000	7.929600
405.000000	7.783200
404.000000	7.668100
403.000000	7.555600
402.000000	7.429300
401.000000	7.325800
400.000000	7.229300
399.000000	7.154800
398.000000	7.053500
397.000000	6.957700
396.000000	6.909700
395.000000	6.824000
394.000000	6.786700
393.000000	6.721900
392.000000	6.669900
391.000000	6.635300
390.000000	6.579300
389.000000	6.542200
388.000000	6.501900
387.000000	6.478300
386.000000	6.433600
385.000000	6.397300
384.000000	6.343700
383.000000	6.326500
382.000000	6.318900
381.000000	6.318200
380.000000	6.290900
379.000000	6.280500
378.000000	6.281800
377.000000	6.251300
376.000000	6.176500
375.000000	5.970100
374.000000	5.767100
373.000000	5.769400
372.000000	5.755300
371.000000	5.836900
370.000000	5.819000
369.000000	5.860600
368.000000	5.941000
367.000000	5.976600
366.000000	5.888100
365.000000	5.942800
364.000000	6.055500
363.000000	6.027700
362.000000	5.908000
361.000000	5.892800
360.000000	5.867200
359.000000	5.953700
358.000000	6.045700
357.000000	6.204700
356.000000	6.263800
355.000000	6.178000
354.000000	6.012400
353.000000	5.864200
352.000000	5.979900
351.000000	5.978200
350.000000	6.086700
349.000000	6.311200
348.000000	6.136400
347.000000	6.012700
346.000000	5.965200
345.000000	6.052200
344.000000	6.274800
343.000000	6.237500
342.000000	5.948900
341.000000	5.791100
340.000000	6.051100
339.000000	6.284800
338.000000	6.171600
337.000000	6.221400
336.000000	6.351200
335.000000	6.174600
334.000000	5.929100
333.000000	6.274100
332.000000	6.600200
331.000000	6.190600
330.000000	5.891900
329.000000	6.117600
328.000000	6.383400
327.000000	6.435300
326.000000	6.355000
325.000000	6.335600
324.000000	6.561900
323.000000	6.758600
322.000000	6.824600
321.000000	6.840000
320.000000	6.602400
319.000000	6.659800
318.000000	7.446500
317.000000	7.319000
316.000000	6.350400
315.000000	5.944300
314.000000	5.929600
313.000000	5.974200
312.000000	5.945100
311.000000	5.901600
310.000000	5.948400
309.000000	5.958000
308.000000	5.990000
307.000000	5.960200
306.000000	5.995900
305.000000	6.004900
304.000000	5.970200
303.000000	5.964900
302.000000	5.958700
301.000000	5.973200
300.000000	5.990300
299.000000	5.978800
298.000000	6.007600
297.000000	6.044500
296.000000	6.028000
295.000000	6.014800
294.000000	6.014700
293.000000	6.036800
292.000000	6.020400
291.000000	6.007400
290.000000	6.020500
289.000000	6.044100
288.000000	6.080600
287.000000	6.107600
286.000000	6.058000
285.000000	6.097700
284.000000	6.122200
283.000000	6.081700
282.000000	6.067100
281.000000	6.079200
280.000000	6.065800
279.000000	6.079000
278.000000	6.120500
277.000000	6.152000
276.000000	6.151800
275.000000	6.195000
274.000000	6.187700
273.000000	6.218400
272.000000	6.230200
271.000000	6.225300
270.000000	6.216200
269.000000	6.226200
268.000000	6.282900
267.000000	6.342400
266.000000	6.370000
265.000000	6.415400
264.000000	6.395900
263.000000	6.468600
262.000000	6.490500
261.000000	6.501800
260.000000	6.578900
259.000000	6.550100
258.000000	6.615300
257.000000	6.647800
256.000000	6.644800
255.000000	6.646000
254.000000	6.601200
253.000000	6.659100
252.000000	6.693000
251.000000	6.709800
250.000000	6.728200
