PE UV       SUBTECH     SPECTRUM    ASCII       PEDS        4.00        
   -1
CICIMAUCR0141-3.Sample.ASC
24/04/22
09:38:58.00
24/04/22
09:38:58.00
Vinicio Soto Monge
C. kalinini
250,000000
1
Lambda 1050
1050L1511233
PerkinElmer UV WinLab 6.3.2.0749 / 2.02.05 Lambda 900 UV/VIS/NIR, Aug  7 2015 09:38:08

0
0
3350/servo 860,8/2
0
0
UV/VIS
1
1
1
DoubleDePol,CommonBeamDepol,RBeamAtt,SBeamAtt,60mm sphere, WB InGaAs Detector
0
0
0
0
Program
Program
3350/servo 860,8/2
3350/0,2 860,8/0,2
3350/0,2 860,8/0,2
0
15.00
 
 
 
0
 
860,8
319,2
860,8
Front
100
on
S:100 R:100
0
0
0
0
 
0
 
 
 
0
 
 
0
0
0
0
0
 
 
 
 
0
0


0
0
#HDR
-1
-1
#GR
nm
%R
1.0
0.0
2500,000000
-1,000000
2251
8
96,279600
5,742600
#DATA
250.000000	6.186394
251.000000	6.185418
252.000000	6.178206
253.000000	6.152346
254.000000	6.164803
255.000000	6.150449
256.000000	6.121582
257.000000	6.114350
258.000000	6.077552
259.000000	6.108213
260.000000	6.072932
261.000000	6.052085
262.000000	6.048256
263.000000	6.018738
264.000000	5.972123
265.000000	5.946093
266.000000	5.933855
267.000000	5.917036
268.000000	5.923485
269.000000	5.878227
270.000000	5.865782
271.000000	5.855172
272.000000	5.808302
273.000000	5.787434
274.000000	5.814059
275.000000	5.819860
276.000000	5.799499
277.000000	5.794611
278.000000	5.801216
279.000000	5.773157
280.000000	5.781023
281.000000	5.768632
282.000000	5.770471
283.000000	5.730056
284.000000	5.763881
285.000000	5.743676
286.000000	5.756245
287.000000	5.740049
288.000000	5.722411
289.000000	5.723696
290.000000	5.710309
291.000000	5.711657
292.000000	5.735627
293.000000	5.707692
294.000000	5.706800
295.000000	5.717044
296.000000	5.704502
297.000000	5.702441
298.000000	5.699979
299.000000	5.694059
300.000000	5.672885
301.000000	5.657233
302.000000	5.687420
303.000000	5.690047
304.000000	5.643234
305.000000	5.669103
306.000000	5.702608
307.000000	5.685348
308.000000	5.679284
309.000000	5.678392
310.000000	5.663875
311.000000	5.683937
312.000000	5.639050
313.000000	5.680875
314.000000	5.626647
315.000000	5.664641
316.000000	5.704956
317.000000	5.942526
318.000000	5.863450
319.000000	5.975392
320.000000	5.919830
321.000000	5.863573
322.000000	5.973823
323.000000	5.826689
324.000000	5.905387
325.000000	5.839660
326.000000	5.733648
327.000000	5.804489
328.000000	5.766434
329.000000	5.771872
330.000000	5.809906
331.000000	5.859793
332.000000	5.775013
333.000000	5.768740
334.000000	5.810597
335.000000	5.687315
336.000000	5.774162
337.000000	5.750836
338.000000	5.748537
339.000000	5.722472
340.000000	5.735796
341.000000	5.781370
342.000000	5.779364
343.000000	5.783408
344.000000	5.815894
345.000000	5.729374
346.000000	5.809384
347.000000	5.798157
348.000000	5.824717
349.000000	5.797495
350.000000	5.810653
351.000000	5.784620
352.000000	5.805503
353.000000	5.856499
354.000000	5.873899
355.000000	5.866659
356.000000	5.865622
357.000000	5.895242
358.000000	5.943961
359.000000	5.940983
360.000000	5.975892
361.000000	6.022724
362.000000	6.010079
363.000000	5.981682
364.000000	6.033869
365.000000	6.045046
366.000000	6.035074
367.000000	6.055814
368.000000	6.091240
369.000000	6.046206
370.000000	6.024666
371.000000	6.060347
372.000000	6.100964
373.000000	6.122463
374.000000	6.093685
375.000000	6.181120
376.000000	6.326843
377.000000	6.314900
378.000000	6.336332
379.000000	6.363718
380.000000	6.389479
381.000000	6.421121
382.000000	6.456959
383.000000	6.494968
384.000000	6.539602
385.000000	6.581567
386.000000	6.625265
387.000000	6.663247
388.000000	6.711468
389.000000	6.766093
390.000000	6.822385
391.000000	6.893761
392.000000	6.955144
393.000000	7.023745
394.000000	7.103315
395.000000	7.187936
396.000000	7.288322
397.000000	7.382923
398.000000	7.483520
399.000000	7.595778
400.000000	7.724225
401.000000	7.860147
402.000000	8.016328
403.000000	8.187769
404.000000	8.364157
405.000000	8.551025
406.000000	8.755805
407.000000	8.977320
408.000000	9.216650
409.000000	9.473654
410.000000	9.746951
411.000000	10.047966
412.000000	10.369999
413.000000	10.706200
414.000000	11.059841
415.000000	11.437887
416.000000	11.834001
417.000000	12.243899
418.000000	12.675001
419.000000	13.120839
420.000000	13.582981
421.000000	14.058576
422.000000	14.551139
423.000000	15.050110
424.000000	15.557808
425.000000	16.072971
426.000000	16.587314
427.000000	17.111733
428.000000	17.625257
429.000000	18.126924
430.000000	18.632615
431.000000	19.147399
432.000000	19.660936
433.000000	20.156868
434.000000	20.638853
435.000000	21.121356
436.000000	21.583193
437.000000	22.027233
438.000000	22.460265
439.000000	22.883429
440.000000	23.288269
441.000000	23.677012
442.000000	24.071491
443.000000	24.443498
444.000000	24.790354
445.000000	25.129923
446.000000	25.456511
447.000000	25.763361
448.000000	26.046034
449.000000	26.332228
450.000000	26.610360
451.000000	26.855079
452.000000	27.103557
453.000000	27.337164
454.000000	27.557306
455.000000	27.776155
456.000000	27.972930
457.000000	28.148823
458.000000	28.311452
459.000000	28.471802
460.000000	28.618965
461.000000	28.746987
462.000000	28.838433
463.000000	28.934264
464.000000	29.020010
465.000000	29.076388
466.000000	29.124429
467.000000	29.153802
468.000000	29.153412
469.000000	29.136454
470.000000	29.098833
471.000000	29.045406
472.000000	28.968637
473.000000	28.879818
474.000000	28.768121
475.000000	28.647284
476.000000	28.497411
477.000000	28.328626
478.000000	28.161311
479.000000	27.983610
480.000000	27.806822
481.000000	27.641642
482.000000	27.469316
483.000000	27.301552
484.000000	27.131258
485.000000	26.983345
486.000000	26.866855
487.000000	26.780789
488.000000	26.730233
489.000000	26.720804
490.000000	26.764252
491.000000	26.839117
492.000000	26.974560
493.000000	27.191474
494.000000	27.453804
495.000000	27.757119
496.000000	28.110232
497.000000	28.528183
498.000000	28.983576
499.000000	29.489398
500.000000	30.035276
501.000000	30.606370
502.000000	31.207623
503.000000	31.842671
504.000000	32.479954
505.000000	33.126581
506.000000	33.777238
507.000000	34.428626
508.000000	35.080484
509.000000	35.732538
510.000000	36.366316
511.000000	37.011285
512.000000	37.643339
513.000000	38.278812
514.000000	38.903502
515.000000	39.534611
516.000000	40.166588
517.000000	40.805850
518.000000	41.431686
519.000000	42.081410
520.000000	42.744384
521.000000	43.408074
522.000000	44.100217
523.000000	44.817400
524.000000	45.556843
525.000000	46.298673
526.000000	47.074805
527.000000	47.846547
528.000000	48.648324
529.000000	49.471289
530.000000	50.320134
531.000000	51.189835
532.000000	52.081658
533.000000	53.008476
534.000000	53.925649
535.000000	54.836325
536.000000	55.767399
537.000000	56.679293
538.000000	57.574640
539.000000	58.454970
540.000000	59.346105
541.000000	60.212689
542.000000	61.048312
543.000000	61.852574
544.000000	62.644602
545.000000	63.384060
546.000000	64.098793
547.000000	64.765726
548.000000	65.410327
549.000000	66.025943
550.000000	66.624165
551.000000	67.178254
552.000000	67.717733
553.000000	68.228854
554.000000	68.717456
555.000000	69.160298
556.000000	69.612058
557.000000	70.038919
558.000000	70.446748
559.000000	70.815587
560.000000	71.169493
561.000000	71.517333
562.000000	71.829809
563.000000	72.153419
564.000000	72.463513
565.000000	72.754057
566.000000	72.998944
567.000000	73.250746
568.000000	73.479526
569.000000	73.684121
570.000000	73.867572
571.000000	74.020347
572.000000	74.165883
573.000000	74.338655
574.000000	74.468879
575.000000	74.588176
576.000000	74.710926
577.000000	74.792468
578.000000	74.861974
579.000000	74.901501
580.000000	74.927905
581.000000	74.907476
582.000000	74.871779
583.000000	74.821566
584.000000	74.771769
585.000000	74.689136
586.000000	74.550246
587.000000	74.433626
588.000000	74.227381
589.000000	74.046959
590.000000	73.801829
591.000000	73.508524
592.000000	73.210997
593.000000	72.878003
594.000000	72.509602
595.000000	72.112518
596.000000	71.751106
597.000000	71.322112
598.000000	70.909332
599.000000	70.481587
600.000000	70.018202
601.000000	69.573089
602.000000	69.036738
603.000000	68.553364
604.000000	68.021564
605.000000	67.525460
606.000000	66.994001
607.000000	66.489231
608.000000	65.946359
609.000000	65.423386
610.000000	64.934386
611.000000	64.408662
612.000000	63.914421
613.000000	63.418294
614.000000	62.912197
615.000000	62.434649
616.000000	61.978926
617.000000	61.517569
618.000000	61.101717
619.000000	60.670876
620.000000	60.313182
621.000000	59.975906
622.000000	59.662831
623.000000	59.414485
624.000000	59.180601
625.000000	59.013367
626.000000	58.847523
627.000000	58.735780
628.000000	58.659051
629.000000	58.603572
630.000000	58.526001
631.000000	58.475740
632.000000	58.465913
633.000000	58.440036
634.000000	58.417315
635.000000	58.425496
636.000000	58.423576
637.000000	58.419743
638.000000	58.431952
639.000000	58.447851
640.000000	58.476856
641.000000	58.518136
642.000000	58.589622
643.000000	58.668802
644.000000	58.741937
645.000000	58.854647
646.000000	58.944889
647.000000	59.074925
648.000000	59.192850
649.000000	59.330568
650.000000	59.472624
651.000000	59.570701
652.000000	59.680300
653.000000	59.801086
654.000000	59.867935
655.000000	59.954234
656.000000	60.015655
657.000000	60.045831
658.000000	60.113126
659.000000	60.148744
660.000000	60.187569
661.000000	60.232634
662.000000	60.335542
663.000000	60.421306
664.000000	60.516758
665.000000	60.651889
666.000000	60.812859
667.000000	61.005944
668.000000	61.208217
669.000000	61.458282
670.000000	61.726079
671.000000	62.028507
672.000000	62.324947
673.000000	62.655458
674.000000	62.933697
675.000000	63.277661
676.000000	63.616784
677.000000	63.952430
678.000000	64.301338
679.000000	64.666742
680.000000	65.055750
681.000000	65.416116
682.000000	65.795298
683.000000	66.182705
684.000000	66.569206
685.000000	66.998041
686.000000	67.411784
687.000000	67.831028
688.000000	68.225906
689.000000	68.645856
690.000000	69.068698
691.000000	69.497806
692.000000	69.897279
693.000000	70.276987
694.000000	70.630619
695.000000	70.986572
696.000000	71.352952
697.000000	71.667242
698.000000	71.950350
699.000000	72.302479
700.000000	72.590577
701.000000	72.866293
702.000000	73.135837
703.000000	73.416256
704.000000	73.698190
705.000000	73.974876
706.000000	74.261859
707.000000	74.537550
708.000000	74.864195
709.000000	75.161972
710.000000	75.455281
711.000000	75.780890
712.000000	76.133634
713.000000	76.493182
714.000000	76.858371
715.000000	77.245586
716.000000	77.646469
717.000000	78.050125
718.000000	78.501707
719.000000	78.905673
720.000000	79.317431
721.000000	79.789850
722.000000	80.246117
723.000000	80.687782
724.000000	81.186195
725.000000	81.662398
726.000000	82.138051
727.000000	82.614435
728.000000	83.098317
729.000000	83.609312
730.000000	84.090091
731.000000	84.561635
732.000000	85.067756
733.000000	85.567814
734.000000	86.046968
735.000000	86.520396
736.000000	86.993949
737.000000	87.451897
738.000000	87.831413
739.000000	88.285041
740.000000	88.721621
741.000000	89.041190
742.000000	89.410462
743.000000	89.819582
744.000000	90.151553
745.000000	90.446588
746.000000	90.771146
747.000000	91.058696
748.000000	91.346263
749.000000	91.642124
750.000000	91.866464
751.000000	92.114217
752.000000	92.381542
753.000000	92.590321
754.000000	92.790300
755.000000	92.976207
756.000000	93.148059
757.000000	93.322848
758.000000	93.487893
759.000000	93.652971
760.000000	93.774974
761.000000	93.896607
762.000000	94.029996
763.000000	94.166972
764.000000	94.266002
765.000000	94.345006
766.000000	94.370959
767.000000	94.423512
768.000000	94.468346
769.000000	94.481074
770.000000	94.514282
771.000000	94.554475
772.000000	94.543286
773.000000	94.569538
774.000000	94.528599
775.000000	94.464860
776.000000	94.481712
777.000000	94.484108
778.000000	94.457546
779.000000	94.436254
780.000000	94.385059
781.000000	94.318826
782.000000	94.288550
783.000000	94.253553
784.000000	94.161596
785.000000	94.133392
786.000000	94.030664
787.000000	93.962688
788.000000	93.946392
789.000000	93.813363
790.000000	93.717771
791.000000	93.635084
792.000000	93.527026
793.000000	93.467691
794.000000	93.450871
795.000000	93.349347
796.000000	93.240414
797.000000	93.189827
798.000000	93.148938
799.000000	93.139024
800.000000	92.935941
801.000000	92.886062
802.000000	92.851814
803.000000	92.735300
804.000000	92.600840
805.000000	92.559989
806.000000	92.418958
807.000000	92.234619
808.000000	92.228518
809.000000	92.044213
810.000000	91.921736
811.000000	91.760036
812.000000	91.646884
813.000000	91.426336
814.000000	91.289792
815.000000	91.135223
816.000000	90.906501
817.000000	90.677308
818.000000	90.377152
819.000000	90.185193
820.000000	90.011484
821.000000	89.670291
822.000000	89.411791
823.000000	89.063127
824.000000	88.843503
825.000000	88.426064
826.000000	88.125132
827.000000	87.835397
828.000000	87.444169
829.000000	87.102113
830.000000	86.634126
831.000000	86.225973
832.000000	85.850818
833.000000	85.483099
834.000000	85.032025
835.000000	84.568639
836.000000	84.080496
837.000000	83.642930
838.000000	83.252513
839.000000	82.795662
840.000000	82.465476
841.000000	81.966268
842.000000	81.461332
843.000000	81.185337
844.000000	80.633099
845.000000	80.107470
846.000000	79.637336
847.000000	79.404639
848.000000	78.881025
849.000000	78.464790
850.000000	77.914050
851.000000	77.764064
852.000000	77.147257
853.000000	77.038663
854.000000	76.604044
855.000000	75.990327
856.000000	75.656942
857.000000	75.099960
858.000000	75.593933
859.000000	75.096967
860.000000	74.936300
861.000000	74.825500
862.000000	74.721867
863.000000	74.547767
864.000000	74.397467
865.000000	74.214300
866.000000	74.057700
867.000000	73.862033
868.000000	73.703000
869.000000	73.513733
870.000000	73.351133
871.000000	73.163400
872.000000	73.004533
873.000000	72.817000
874.000000	72.631567
875.000000	72.467667
876.000000	72.312167
877.000000	72.155167
878.000000	72.004133
879.000000	71.844500
880.000000	71.691833
881.000000	71.554300
882.000000	71.408000
883.000000	71.259533
884.000000	71.138667
885.000000	71.012433
886.000000	70.861600
887.000000	70.729000
888.000000	70.585433
889.000000	70.454767
890.000000	70.324500
891.000000	70.214467
892.000000	70.086233
893.000000	69.955367
894.000000	69.840967
895.000000	69.722867
896.000000	69.589200
897.000000	69.480400
898.000000	69.366000
899.000000	69.233900
900.000000	69.119667
901.000000	69.017433
902.000000	68.902767
903.000000	68.789933
904.000000	68.633067
905.000000	68.504800
906.000000	68.386767
907.000000	68.271500
908.000000	68.154967
909.000000	68.008000
910.000000	67.864633
911.000000	67.724600
912.000000	67.626533
913.000000	67.490533
914.000000	67.338500
915.000000	67.224400
916.000000	67.101700
917.000000	66.976367
918.000000	66.867833
919.000000	66.758933
920.000000	66.631433
921.000000	66.529800
922.000000	66.383700
923.000000	66.284033
924.000000	66.161533
925.000000	66.047300
926.000000	65.927667
927.000000	65.789967
928.000000	65.679400
929.000000	65.577167
930.000000	65.457300
931.000000	65.349533
932.000000	65.239767
933.000000	65.093533
934.000000	64.985500
935.000000	64.868167
936.000000	64.750167
937.000000	64.631433
938.000000	64.518833
939.000000	64.389067
940.000000	64.281267
941.000000	64.160633
942.000000	64.032933
943.000000	63.920700
944.000000	63.806667
945.000000	63.683367
946.000000	63.564900
947.000000	63.451667
948.000000	63.308600
949.000000	63.188367
950.000000	63.071867
951.000000	62.936367
952.000000	62.826733
953.000000	62.705500
954.000000	62.598600
955.000000	62.476600
956.000000	62.350567
957.000000	62.232867
958.000000	62.128733
959.000000	62.022700
960.000000	61.905067
961.000000	61.801100
962.000000	61.682567
963.000000	61.588600
964.000000	61.470767
965.000000	61.364067
966.000000	61.277967
967.000000	61.165400
968.000000	61.068067
969.000000	60.971433
970.000000	60.883067
971.000000	60.792767
972.000000	60.701200
973.000000	60.621133
974.000000	60.539700
975.000000	60.462200
976.000000	60.379567
977.000000	60.315367
978.000000	60.241333
979.000000	60.172833
980.000000	60.094033
981.000000	60.031167
982.000000	59.960300
983.000000	59.896033
984.000000	59.831267
985.000000	59.769133
986.000000	59.706367
987.000000	59.652967
988.000000	59.598033
989.000000	59.553567
990.000000	59.495067
991.000000	59.456500
992.000000	59.415967
993.000000	59.377300
994.000000	59.333433
995.000000	59.302833
996.000000	59.267167
997.000000	59.231233
998.000000	59.203233
999.000000	59.179033
1000.000000	59.150567
1001.000000	59.126767
1002.000000	59.110067
1003.000000	59.096100
1004.000000	59.076833
1005.000000	59.062067
1006.000000	59.053267
1007.000000	59.035267
1008.000000	59.020233
1009.000000	59.018500
1010.000000	59.021300
1011.000000	59.028633
1012.000000	59.023033
1013.000000	59.022500
1014.000000	59.031500
1015.000000	59.040333
1016.000000	59.052000
1017.000000	59.074833
1018.000000	59.096433
1019.000000	59.109767
1020.000000	59.130133
1021.000000	59.163300
1022.000000	59.186333
1023.000000	59.217467
1024.000000	59.260100
1025.000000	59.286967
1026.000000	59.322600
1027.000000	59.366400
1028.000000	59.398533
1029.000000	59.438533
1030.000000	59.487000
1031.000000	59.536200
1032.000000	59.581700
1033.000000	59.634733
1034.000000	59.690300
1035.000000	59.736933
1036.000000	59.785633
1037.000000	59.842800
1038.000000	59.898133
1039.000000	59.955100
1040.000000	60.010533
1041.000000	60.064867
1042.000000	60.120367
1043.000000	60.177600
1044.000000	60.241067
1045.000000	60.300533
1046.000000	60.362233
1047.000000	60.433133
1048.000000	60.495833
1049.000000	60.557500
1050.000000	60.623200
1051.000000	60.688200
1052.000000	60.756333
1053.000000	60.831133
1054.000000	60.905267
1055.000000	60.973100
1056.000000	61.043000
1057.000000	61.114800
1058.000000	61.180700
1059.000000	61.259567
1060.000000	61.335800
1061.000000	61.410600
1062.000000	61.488867
1063.000000	61.564833
1064.000000	61.637367
1065.000000	61.702767
1066.000000	61.777900
1067.000000	61.863300
1068.000000	61.935233
1069.000000	62.004767
1070.000000	62.076767
1071.000000	62.150167
1072.000000	62.222667
1073.000000	62.291167
1074.000000	62.369333
1075.000000	62.453067
1076.000000	62.530200
1077.000000	62.602133
1078.000000	62.680633
1079.000000	62.758867
1080.000000	62.844700
1081.000000	62.923133
1082.000000	63.000500
1083.000000	63.083533
1084.000000	63.165233
1085.000000	63.248633
1086.000000	63.323233
1087.000000	63.407267
1088.000000	63.485733
1089.000000	63.562967
1090.000000	63.640267
1091.000000	63.723033
1092.000000	63.803467
1093.000000	63.886600
1094.000000	63.965133
1095.000000	64.037733
1096.000000	64.118567
1097.000000	64.191867
1098.000000	64.271633
1099.000000	64.345500
1100.000000	64.418433
1101.000000	64.486867
1102.000000	64.557067
1103.000000	64.632767
1104.000000	64.691500
1105.000000	64.759000
1106.000000	64.827300
1107.000000	64.898967
1108.000000	64.963333
1109.000000	65.028333
1110.000000	65.086667
1111.000000	65.144900
1112.000000	65.203733
1113.000000	65.257400
1114.000000	65.318400
1115.000000	65.379400
1116.000000	65.432633
1117.000000	65.488167
1118.000000	65.540333
1119.000000	65.591533
1120.000000	65.627467
1121.000000	65.669700
1122.000000	65.717133
1123.000000	65.764667
1124.000000	65.789533
1125.000000	65.789300
1126.000000	65.807967
1127.000000	65.808667
1128.000000	65.807567
1129.000000	65.809400
1130.000000	65.795933
1131.000000	65.757100
1132.000000	65.722667
1133.000000	65.687467
1134.000000	65.687900
1135.000000	65.664700
1136.000000	65.616867
1137.000000	65.553100
1138.000000	65.478267
1139.000000	65.435333
1140.000000	65.389833
1141.000000	65.364867
1142.000000	65.342600
1143.000000	65.305233
1144.000000	65.303200
1145.000000	65.305533
1146.000000	65.293200
1147.000000	65.286867
1148.000000	65.267300
1149.000000	65.256533
1150.000000	65.236900
1151.000000	65.220167
1152.000000	65.193900
1153.000000	65.172667
1154.000000	65.118500
1155.000000	65.064633
1156.000000	65.012067
1157.000000	64.939033
1158.000000	64.847700
1159.000000	64.768633
1160.000000	64.664167
1161.000000	64.573333
1162.000000	64.479600
1163.000000	64.372233
1164.000000	64.281400
1165.000000	64.162833
1166.000000	64.072767
1167.000000	63.966200
1168.000000	63.866867
1169.000000	63.805700
1170.000000	63.721300
1171.000000	63.660533
1172.000000	63.599933
1173.000000	63.549033
1174.000000	63.507100
1175.000000	63.473000
1176.000000	63.447867
1177.000000	63.420167
1178.000000	63.387400
1179.000000	63.352867
1180.000000	63.320933
1181.000000	63.293600
1182.000000	63.270333
1183.000000	63.249133
1184.000000	63.228600
1185.000000	63.240133
1186.000000	63.261933
1187.000000	63.285500
1188.000000	63.323633
1189.000000	63.384467
1190.000000	63.455867
1191.000000	63.532767
1192.000000	63.633167
1193.000000	63.730633
1194.000000	63.829167
1195.000000	63.932500
1196.000000	64.025533
1197.000000	64.117933
1198.000000	64.218200
1199.000000	64.311200
1200.000000	64.391300
1201.000000	64.464633
1202.000000	64.552500
1203.000000	64.617100
1204.000000	64.699700
1205.000000	64.775000
1206.000000	64.845300
1207.000000	64.923067
1208.000000	65.002467
1209.000000	65.053367
1210.000000	65.129067
1211.000000	65.203500
1212.000000	65.265900
1213.000000	65.315833
1214.000000	65.380833
1215.000000	65.433800
1216.000000	65.476600
1217.000000	65.525800
1218.000000	65.568667
1219.000000	65.623833
1220.000000	65.664367
1221.000000	65.721767
1222.000000	65.759000
1223.000000	65.802300
1224.000000	65.858400
1225.000000	65.903767
1226.000000	65.948633
1227.000000	65.997767
1228.000000	66.048333
1229.000000	66.095267
1230.000000	66.143467
1231.000000	66.193667
1232.000000	66.244133
1233.000000	66.291833
1234.000000	66.346600
1235.000000	66.400300
1236.000000	66.450833
1237.000000	66.496633
1238.000000	66.544767
1239.000000	66.612867
1240.000000	66.681500
1241.000000	66.734033
1242.000000	66.800900
1243.000000	66.864733
1244.000000	66.927933
1245.000000	66.990433
1246.000000	67.060367
1247.000000	67.126433
1248.000000	67.181533
1249.000000	67.236333
1250.000000	67.290933
1251.000000	67.338900
1252.000000	67.376833
1253.000000	67.412200
1254.000000	67.437067
1255.000000	67.458933
1256.000000	67.488000
1257.000000	67.495367
1258.000000	67.518200
1259.000000	67.529800
1260.000000	67.534200
1261.000000	67.550467
1262.000000	67.568167
1263.000000	67.580733
1264.000000	67.601500
1265.000000	67.621067
1266.000000	67.637167
1267.000000	67.648233
1268.000000	67.667167
1269.000000	67.676033
1270.000000	67.683800
1271.000000	67.692900
1272.000000	67.715633
1273.000000	67.734533
1274.000000	67.751200
1275.000000	67.777133
1276.000000	67.800533
1277.000000	67.822967
1278.000000	67.846433
1279.000000	67.877967
1280.000000	67.915367
1281.000000	67.951833
1282.000000	67.991000
1283.000000	68.034533
1284.000000	68.075033
1285.000000	68.116033
1286.000000	68.163900
1287.000000	68.205567
1288.000000	68.241567
1289.000000	68.273500
1290.000000	68.303800
1291.000000	68.334933
1292.000000	68.367900
1293.000000	68.389133
1294.000000	68.402233
1295.000000	68.421900
1296.000000	68.439333
1297.000000	68.446767
1298.000000	68.457800
1299.000000	68.464433
1300.000000	68.462667
1301.000000	68.462867
1302.000000	68.464533
1303.000000	68.460800
1304.000000	68.452800
1305.000000	68.444233
1306.000000	68.428533
1307.000000	68.411533
1308.000000	68.390467
1309.000000	68.359900
1310.000000	68.334833
1311.000000	68.308600
1312.000000	68.275967
1313.000000	68.244767
1314.000000	68.211700
1315.000000	68.176533
1316.000000	68.141233
1317.000000	68.094700
1318.000000	68.047833
1319.000000	68.012433
1320.000000	67.978167
1321.000000	67.930267
1322.000000	67.886433
1323.000000	67.838300
1324.000000	67.783600
1325.000000	67.726967
1326.000000	67.664700
1327.000000	67.601000
1328.000000	67.542000
1329.000000	67.480100
1330.000000	67.397700
1331.000000	67.319567
1332.000000	67.229600
1333.000000	67.125500
1334.000000	67.018767
1335.000000	66.905200
1336.000000	66.802400
1337.000000	66.689167
1338.000000	66.563600
1339.000000	66.431167
1340.000000	66.283133
1341.000000	66.139400
1342.000000	65.977267
1343.000000	65.808267
1344.000000	65.645900
1345.000000	65.460000
1346.000000	65.241100
1347.000000	65.053167
1348.000000	64.877233
1349.000000	64.659300
1350.000000	64.445067
1351.000000	64.236700
1352.000000	64.032100
1353.000000	63.828667
1354.000000	63.717933
1355.000000	63.596700
1356.000000	63.462200
1357.000000	63.344833
1358.000000	63.254000
1359.000000	63.191633
1360.000000	63.105333
1361.000000	63.124067
1362.000000	63.088167
1363.000000	62.985233
1364.000000	62.867900
1365.000000	62.790567
1366.000000	62.672700
1367.000000	62.539800
1368.000000	62.458967
1369.000000	62.328833
1370.000000	62.170767
1371.000000	62.062800
1372.000000	61.934433
1373.000000	61.800533
1374.000000	61.610800
1375.000000	61.452300
1376.000000	61.336733
1377.000000	61.211100
1378.000000	61.074533
1379.000000	60.958500
1380.000000	60.825933
1381.000000	60.680167
1382.000000	60.527333
1383.000000	60.299900
1384.000000	60.013067
1385.000000	59.721200
1386.000000	59.366167
1387.000000	59.050567
1388.000000	58.739800
1389.000000	58.359600
1390.000000	57.944767
1391.000000	57.609833
1392.000000	57.274767
1393.000000	56.868733
1394.000000	56.515567
1395.000000	56.234800
1396.000000	55.877900
1397.000000	55.344033
1398.000000	54.865733
1399.000000	54.519933
1400.000000	54.212367
1401.000000	53.779267
1402.000000	53.206267
1403.000000	52.709500
1404.000000	52.250633
1405.000000	51.802067
1406.000000	51.327533
1407.000000	50.856133
1408.000000	50.406067
1409.000000	49.942800
1410.000000	49.473600
1411.000000	48.966033
1412.000000	48.492800
1413.000000	48.124267
1414.000000	47.769267
1415.000000	47.366800
1416.000000	46.950267
1417.000000	46.559300
1418.000000	46.275567
1419.000000	45.994133
1420.000000	45.683267
1421.000000	45.343067
1422.000000	45.020700
1423.000000	44.782900
1424.000000	44.550567
1425.000000	44.292667
1426.000000	44.044633
1427.000000	43.821667
1428.000000	43.606267
1429.000000	43.413067
1430.000000	43.203467
1431.000000	43.015900
1432.000000	42.877033
1433.000000	42.716667
1434.000000	42.549033
1435.000000	42.382467
1436.000000	42.232633
1437.000000	42.105500
1438.000000	41.992033
1439.000000	41.856733
1440.000000	41.712200
1441.000000	41.601900
1442.000000	41.496933
1443.000000	41.379967
1444.000000	41.247033
1445.000000	41.163400
1446.000000	41.081033
1447.000000	40.954433
1448.000000	40.812900
1449.000000	40.687833
1450.000000	40.615767
1451.000000	40.535933
1452.000000	40.416067
1453.000000	40.291867
1454.000000	40.171033
1455.000000	40.059500
1456.000000	39.956133
1457.000000	39.845800
1458.000000	39.722867
1459.000000	39.596833
1460.000000	39.492133
1461.000000	39.391000
1462.000000	39.262300
1463.000000	39.149733
1464.000000	39.040967
1465.000000	38.943100
1466.000000	38.840100
1467.000000	38.744567
1468.000000	38.636667
1469.000000	38.526533
1470.000000	38.469833
1471.000000	38.392233
1472.000000	38.295833
1473.000000	38.217833
1474.000000	38.127967
1475.000000	38.043833
1476.000000	37.979233
1477.000000	37.923667
1478.000000	37.879600
1479.000000	37.843067
1480.000000	37.802533
1481.000000	37.780200
1482.000000	37.757933
1483.000000	37.724567
1484.000000	37.692633
1485.000000	37.677833
1486.000000	37.659000
1487.000000	37.654700
1488.000000	37.638500
1489.000000	37.628633
1490.000000	37.615567
1491.000000	37.601600
1492.000000	37.597667
1493.000000	37.605433
1494.000000	37.617767
1495.000000	37.622033
1496.000000	37.640133
1497.000000	37.679967
1498.000000	37.730367
1499.000000	37.773267
1500.000000	37.822800
1501.000000	37.885100
1502.000000	37.959100
1503.000000	38.045933
1504.000000	38.134067
1505.000000	38.217167
1506.000000	38.303700
1507.000000	38.406100
1508.000000	38.506933
1509.000000	38.606433
1510.000000	38.696467
1511.000000	38.801867
1512.000000	38.897433
1513.000000	39.002000
1514.000000	39.096367
1515.000000	39.194000
1516.000000	39.290033
1517.000000	39.381267
1518.000000	39.471533
1519.000000	39.559567
1520.000000	39.645200
1521.000000	39.731167
1522.000000	39.809733
1523.000000	39.889433
1524.000000	39.974900
1525.000000	40.055867
1526.000000	40.123800
1527.000000	40.196900
1528.000000	40.280367
1529.000000	40.352000
1530.000000	40.417367
1531.000000	40.486767
1532.000000	40.559533
1533.000000	40.619767
1534.000000	40.677500
1535.000000	40.737700
1536.000000	40.795633
1537.000000	40.840967
1538.000000	40.881167
1539.000000	40.925633
1540.000000	40.965900
1541.000000	41.011900
1542.000000	41.052600
1543.000000	41.105133
1544.000000	41.149133
1545.000000	41.196633
1546.000000	41.261667
1547.000000	41.335967
1548.000000	41.409633
1549.000000	41.494867
1550.000000	41.579100
1551.000000	41.655700
1552.000000	41.734367
1553.000000	41.803800
1554.000000	41.865600
1555.000000	41.924633
1556.000000	41.974233
1557.000000	42.020900
1558.000000	42.056100
1559.000000	42.081733
1560.000000	42.096433
1561.000000	42.103567
1562.000000	42.103933
1563.000000	42.095300
1564.000000	42.084967
1565.000000	42.071633
1566.000000	42.055133
1567.000000	42.028867
1568.000000	42.003567
1569.000000	41.977233
1570.000000	41.949200
1571.000000	41.930567
1572.000000	41.927400
1573.000000	41.921033
1574.000000	41.915600
1575.000000	41.916900
1576.000000	41.919033
1577.000000	41.934100
1578.000000	41.949533
1579.000000	41.968900
1580.000000	41.994167
1581.000000	42.021067
1582.000000	42.061067
1583.000000	42.100000
1584.000000	42.150133
1585.000000	42.198567
1586.000000	42.247167
1587.000000	42.310233
1588.000000	42.353767
1589.000000	42.409167
1590.000000	42.473500
1591.000000	42.526167
1592.000000	42.583000
1593.000000	42.640700
1594.000000	42.702767
1595.000000	42.770100
1596.000000	42.842533
1597.000000	42.921233
1598.000000	42.997267
1599.000000	43.075767
1600.000000	43.161933
1601.000000	43.254267
1602.000000	43.341733
1603.000000	43.426567
1604.000000	43.510967
1605.000000	43.597033
1606.000000	43.688633
1607.000000	43.773033
1608.000000	43.856000
1609.000000	43.934533
1610.000000	44.004100
1611.000000	44.068067
1612.000000	44.133467
1613.000000	44.184733
1614.000000	44.243033
1615.000000	44.295400
1616.000000	44.351067
1617.000000	44.394067
1618.000000	44.431500
1619.000000	44.469067
1620.000000	44.511667
1621.000000	44.549267
1622.000000	44.591900
1623.000000	44.632400
1624.000000	44.676433
1625.000000	44.721900
1626.000000	44.771000
1627.000000	44.826467
1628.000000	44.865333
1629.000000	44.912600
1630.000000	44.952200
1631.000000	45.000467
1632.000000	45.038700
1633.000000	45.078233
1634.000000	45.113367
1635.000000	45.143267
1636.000000	45.161900
1637.000000	45.187900
1638.000000	45.203633
1639.000000	45.214767
1640.000000	45.219133
1641.000000	45.219567
1642.000000	45.225767
1643.000000	45.223967
1644.000000	45.228667
1645.000000	45.230933
1646.000000	45.234933
1647.000000	45.238000
1648.000000	45.233700
1649.000000	45.225700
1650.000000	45.210633
1651.000000	45.192833
1652.000000	45.167900
1653.000000	45.130400
1654.000000	45.080533
1655.000000	45.027000
1656.000000	44.970533
1657.000000	44.886767
1658.000000	44.791600
1659.000000	44.688600
1660.000000	44.570033
1661.000000	44.430467
1662.000000	44.295700
1663.000000	44.131600
1664.000000	43.960567
1665.000000	43.795733
1666.000000	43.617333
1667.000000	43.448367
1668.000000	43.232767
1669.000000	43.037600
1670.000000	42.839067
1671.000000	42.641633
1672.000000	42.436600
1673.000000	42.243600
1674.000000	42.061700
1675.000000	41.886800
1676.000000	41.709567
1677.000000	41.533233
1678.000000	41.325500
1679.000000	41.120967
1680.000000	40.900267
1681.000000	40.647700
1682.000000	40.383233
1683.000000	40.118900
1684.000000	39.877167
1685.000000	39.649600
1686.000000	39.465700
1687.000000	39.339367
1688.000000	39.285100
1689.000000	39.292333
1690.000000	39.336367
1691.000000	39.432833
1692.000000	39.554033
1693.000000	39.686267
1694.000000	39.802300
1695.000000	39.903833
1696.000000	39.984167
1697.000000	40.028167
1698.000000	40.062033
1699.000000	40.060700
1700.000000	40.054867
1701.000000	40.054900
1702.000000	40.029767
1703.000000	40.014500
1704.000000	39.960367
1705.000000	39.902233
1706.000000	39.827133
1707.000000	39.726667
1708.000000	39.629600
1709.000000	39.501333
1710.000000	39.351167
1711.000000	39.186467
1712.000000	39.007133
1713.000000	38.808200
1714.000000	38.587900
1715.000000	38.336300
1716.000000	38.078167
1717.000000	37.796667
1718.000000	37.512033
1719.000000	37.243467
1720.000000	36.991800
1721.000000	36.769633
1722.000000	36.597667
1723.000000	36.487467
1724.000000	36.433967
1725.000000	36.431300
1726.000000	36.458067
1727.000000	36.516700
1728.000000	36.585000
1729.000000	36.657200
1730.000000	36.733700
1731.000000	36.814400
1732.000000	36.904033
1733.000000	36.986500
1734.000000	37.086433
1735.000000	37.157000
1736.000000	37.249500
1737.000000	37.336700
1738.000000	37.416267
1739.000000	37.524700
1740.000000	37.624467
1741.000000	37.725367
1742.000000	37.838000
1743.000000	37.945933
1744.000000	38.054667
1745.000000	38.144833
1746.000000	38.222533
1747.000000	38.301567
1748.000000	38.363167
1749.000000	38.405267
1750.000000	38.444800
1751.000000	38.472333
1752.000000	38.478300
1753.000000	38.478633
1754.000000	38.481167
1755.000000	38.462467
1756.000000	38.451500
1757.000000	38.441400
1758.000000	38.442000
1759.000000	38.428667
1760.000000	38.414800
1761.000000	38.402933
1762.000000	38.404900
1763.000000	38.406933
1764.000000	38.417867
1765.000000	38.434100
1766.000000	38.461300
1767.000000	38.492833
1768.000000	38.534333
1769.000000	38.574467
1770.000000	38.614133
1771.000000	38.661000
1772.000000	38.709300
1773.000000	38.748500
1774.000000	38.792333
1775.000000	38.851300
1776.000000	38.898633
1777.000000	38.941167
1778.000000	38.977000
1779.000000	39.007600
1780.000000	39.033233
1781.000000	39.057200
1782.000000	39.073867
1783.000000	39.078233
1784.000000	39.084533
1785.000000	39.086067
1786.000000	39.082500
1787.000000	39.075533
1788.000000	39.062600
1789.000000	39.061333
1790.000000	39.058700
1791.000000	39.059367
1792.000000	39.063467
1793.000000	39.077867
1794.000000	39.093533
1795.000000	39.114633
1796.000000	39.143867
1797.000000	39.161200
1798.000000	39.172667
1799.000000	39.193233
1800.000000	39.221700
1801.000000	39.262633
1802.000000	39.292933
1803.000000	39.296400
1804.000000	39.293867
1805.000000	39.311667
1806.000000	39.349767
1807.000000	39.380300
1808.000000	39.395100
1809.000000	39.408800
1810.000000	39.430633
1811.000000	39.477833
1812.000000	39.520033
1813.000000	39.538367
1814.000000	39.541167
1815.000000	39.550733
1816.000000	39.571567
1817.000000	39.565267
1818.000000	39.559167
1819.000000	39.579800
1820.000000	39.615233
1821.000000	39.629833
1822.000000	39.619267
1823.000000	39.571700
1824.000000	39.520100
1825.000000	39.514933
1826.000000	39.536167
1827.000000	39.561100
1828.000000	39.585700
1829.000000	39.627400
1830.000000	39.660467
1831.000000	39.689267
1832.000000	39.710733
1833.000000	39.727333
1834.000000	39.766167
1835.000000	39.835367
1836.000000	39.908067
1837.000000	39.966900
1838.000000	40.009367
1839.000000	40.045733
1840.000000	40.088433
1841.000000	40.131533
1842.000000	40.167267
1843.000000	40.160300
1844.000000	40.130667
1845.000000	40.132733
1846.000000	40.166533
1847.000000	40.230500
1848.000000	40.276133
1849.000000	40.276267
1850.000000	40.229400
1851.000000	40.178333
1852.000000	40.141267
1853.000000	40.121000
1854.000000	40.117867
1855.000000	40.090600
1856.000000	40.038500
1857.000000	39.986000
1858.000000	39.926100
1859.000000	39.857067
1860.000000	39.775733
1861.000000	39.662833
1862.000000	39.536867
1863.000000	39.417433
1864.000000	39.301000
1865.000000	39.184233
1866.000000	39.078267
1867.000000	38.985467
1868.000000	38.881867
1869.000000	38.726767
1870.000000	38.542733
1871.000000	38.366267
1872.000000	38.146533
1873.000000	37.877433
1874.000000	37.586133
1875.000000	37.274900
1876.000000	36.940200
1877.000000	36.602867
1878.000000	36.252833
1879.000000	35.879433
1880.000000	35.493333
1881.000000	35.099567
1882.000000	34.676367
1883.000000	34.247200
1884.000000	33.750167
1885.000000	33.217133
1886.000000	32.662800
1887.000000	32.117500
1888.000000	31.566433
1889.000000	30.983767
1890.000000	30.388367
1891.000000	29.777867
1892.000000	29.115100
1893.000000	28.406767
1894.000000	27.748200
1895.000000	27.127533
1896.000000	26.544700
1897.000000	25.993533
1898.000000	25.395933
1899.000000	24.776167
1900.000000	24.165467
1901.000000	23.570367
1902.000000	23.020800
1903.000000	22.509900
1904.000000	22.030200
1905.000000	21.559300
1906.000000	21.059333
1907.000000	20.565200
1908.000000	20.146833
1909.000000	19.766367
1910.000000	19.459733
1911.000000	19.166567
1912.000000	18.879000
1913.000000	18.586467
1914.000000	18.279333
1915.000000	17.998033
1916.000000	17.747900
1917.000000	17.529867
1918.000000	17.338100
1919.000000	17.158400
1920.000000	16.989167
1921.000000	16.824200
1922.000000	16.662500
1923.000000	16.502900
1924.000000	16.372233
1925.000000	16.255867
1926.000000	16.149167
1927.000000	16.059533
1928.000000	15.986267
1929.000000	15.897033
1930.000000	15.830200
1931.000000	15.774500
1932.000000	15.721700
1933.000000	15.671433
1934.000000	15.645100
1935.000000	15.628500
1936.000000	15.614067
1937.000000	15.609933
1938.000000	15.637700
1939.000000	15.669000
1940.000000	15.685367
1941.000000	15.704033
1942.000000	15.729767
1943.000000	15.762667
1944.000000	15.810200
1945.000000	15.863667
1946.000000	15.927133
1947.000000	15.976900
1948.000000	16.047233
1949.000000	16.112767
1950.000000	16.184433
1951.000000	16.259233
1952.000000	16.342433
1953.000000	16.422567
1954.000000	16.518200
1955.000000	16.609467
1956.000000	16.697700
1957.000000	16.786467
1958.000000	16.878967
1959.000000	16.963867
1960.000000	17.049467
1961.000000	17.149133
1962.000000	17.245933
1963.000000	17.327300
1964.000000	17.417467
1965.000000	17.515067
1966.000000	17.605267
1967.000000	17.683933
1968.000000	17.776867
1969.000000	17.861933
1970.000000	17.955033
1971.000000	18.053533
1972.000000	18.143400
1973.000000	18.247800
1974.000000	18.337167
1975.000000	18.436533
1976.000000	18.517867
1977.000000	18.629333
1978.000000	18.723133
1979.000000	18.817967
1980.000000	18.927500
1981.000000	19.027967
1982.000000	19.126600
1983.000000	19.232433
1984.000000	19.337700
1985.000000	19.432100
1986.000000	19.536667
1987.000000	19.644133
1988.000000	19.743500
1989.000000	19.843300
1990.000000	19.937500
1991.000000	20.033133
1992.000000	20.124600
1993.000000	20.218233
1994.000000	20.291933
1995.000000	20.379500
1996.000000	20.465400
1997.000000	20.537567
1998.000000	20.614533
1999.000000	20.684067
2000.000000	20.736200
2001.000000	20.799900
2002.000000	20.847667
2003.000000	20.906967
2004.000000	20.964400
2005.000000	21.000133
2006.000000	21.035033
2007.000000	21.054100
2008.000000	21.084933
2009.000000	21.106867
2010.000000	21.119433
2011.000000	21.124333
2012.000000	21.117367
2013.000000	21.109700
2014.000000	21.100500
2015.000000	21.084467
2016.000000	21.065500
2017.000000	21.039467
2018.000000	20.999667
2019.000000	20.965833
2020.000000	20.919567
2021.000000	20.868367
2022.000000	20.812800
2023.000000	20.761800
2024.000000	20.701200
2025.000000	20.643833
2026.000000	20.580133
2027.000000	20.506100
2028.000000	20.441900
2029.000000	20.362400
2030.000000	20.270167
2031.000000	20.174900
2032.000000	20.090167
2033.000000	20.005567
2034.000000	19.910867
2035.000000	19.806500
2036.000000	19.680733
2037.000000	19.572867
2038.000000	19.455367
2039.000000	19.319167
2040.000000	19.199200
2041.000000	19.081067
2042.000000	18.938500
2043.000000	18.802333
2044.000000	18.675500
2045.000000	18.547767
2046.000000	18.430133
2047.000000	18.316633
2048.000000	18.207600
2049.000000	18.118633
2050.000000	18.051167
2051.000000	17.994233
2052.000000	17.953167
2053.000000	17.936900
2054.000000	17.933167
2055.000000	17.953600
2056.000000	17.991400
2057.000000	18.043900
2058.000000	18.107200
2059.000000	18.185167
2060.000000	18.270767
2061.000000	18.361333
2062.000000	18.467900
2063.000000	18.582500
2064.000000	18.698300
2065.000000	18.810467
2066.000000	18.924300
2067.000000	19.036133
2068.000000	19.147633
2069.000000	19.262533
2070.000000	19.365600
2071.000000	19.462867
2072.000000	19.561733
2073.000000	19.646767
2074.000000	19.725767
2075.000000	19.804200
2076.000000	19.878400
2077.000000	19.933467
2078.000000	19.985167
2079.000000	20.021933
2080.000000	20.062400
2081.000000	20.101833
2082.000000	20.123300
2083.000000	20.138100
2084.000000	20.148200
2085.000000	20.149033
2086.000000	20.141067
2087.000000	20.125600
2088.000000	20.109300
2089.000000	20.094300
2090.000000	20.074500
2091.000000	20.055567
2092.000000	20.032567
2093.000000	20.009567
2094.000000	19.987467
2095.000000	19.959433
2096.000000	19.936567
2097.000000	19.923533
2098.000000	19.921867
2099.000000	19.907733
2100.000000	19.895400
2101.000000	19.895700
2102.000000	19.891433
2103.000000	19.882633
2104.000000	19.879800
2105.000000	19.879533
2106.000000	19.869700
2107.000000	19.861033
2108.000000	19.861867
2109.000000	19.859533
2110.000000	19.849433
2111.000000	19.846633
2112.000000	19.845333
2113.000000	19.829533
2114.000000	19.817800
2115.000000	19.807267
2116.000000	19.783700
2117.000000	19.756067
2118.000000	19.732167
2119.000000	19.713567
2120.000000	19.683867
2121.000000	19.648000
2122.000000	19.609700
2123.000000	19.568600
2124.000000	19.526433
2125.000000	19.477167
2126.000000	19.428033
2127.000000	19.375200
2128.000000	19.319233
2129.000000	19.268967
2130.000000	19.202933
2131.000000	19.139067
2132.000000	19.078167
2133.000000	19.003667
2134.000000	18.929767
2135.000000	18.856667
2136.000000	18.777567
2137.000000	18.689467
2138.000000	18.600900
2139.000000	18.515500
2140.000000	18.427033
2141.000000	18.332900
2142.000000	18.242233
2143.000000	18.143367
2144.000000	18.051967
2145.000000	17.958033
2146.000000	17.856167
2147.000000	17.752300
2148.000000	17.655133
2149.000000	17.558500
2150.000000	17.468967
2151.000000	17.365833
2152.000000	17.258167
2153.000000	17.167367
2154.000000	17.076600
2155.000000	16.989767
2156.000000	16.912800
2157.000000	16.826700
2158.000000	16.744933
2159.000000	16.674367
2160.000000	16.623333
2161.000000	16.583633
2162.000000	16.525133
2163.000000	16.469167
2164.000000	16.443400
2165.000000	16.408467
2166.000000	16.374567
2167.000000	16.350567
2168.000000	16.340600
2169.000000	16.313467
2170.000000	16.294533
2171.000000	16.292267
2172.000000	16.281600
2173.000000	16.284900
2174.000000	16.296100
2175.000000	16.296133
2176.000000	16.304767
2177.000000	16.331033
2178.000000	16.353067
2179.000000	16.364467
2180.000000	16.385733
2181.000000	16.411833
2182.000000	16.449733
2183.000000	16.473333
2184.000000	16.502800
2185.000000	16.542500
2186.000000	16.566833
2187.000000	16.603800
2188.000000	16.633800
2189.000000	16.661667
2190.000000	16.679833
2191.000000	16.711367
2192.000000	16.750800
2193.000000	16.778267
2194.000000	16.825167
2195.000000	16.861767
2196.000000	16.905267
2197.000000	16.940167
2198.000000	16.978600
2199.000000	17.028233
2200.000000	17.067833
2201.000000	17.127733
2202.000000	17.179333
2203.000000	17.224867
2204.000000	17.291567
2205.000000	17.357367
2206.000000	17.403633
2207.000000	17.469800
2208.000000	17.536533
2209.000000	17.593267
2210.000000	17.660200
2211.000000	17.740000
2212.000000	17.816633
2213.000000	17.894100
2214.000000	17.972033
2215.000000	18.056367
2216.000000	18.128867
2217.000000	18.207100
2218.000000	18.300033
2219.000000	18.392433
2220.000000	18.471933
2221.000000	18.542100
2222.000000	18.614267
2223.000000	18.695567
2224.000000	18.768167
2225.000000	18.834467
2226.000000	18.889733
2227.000000	18.943933
2228.000000	18.990167
2229.000000	19.046867
2230.000000	19.059533
2231.000000	19.099800
2232.000000	19.120667
2233.000000	19.142767
2234.000000	19.153000
2235.000000	19.142767
2236.000000	19.127433
2237.000000	19.100133
2238.000000	19.065967
2239.000000	19.035400
2240.000000	18.982233
2241.000000	18.914167
2242.000000	18.843400
2243.000000	18.757200
2244.000000	18.663067
2245.000000	18.561700
2246.000000	18.452367
2247.000000	18.320500
2248.000000	18.190167
2249.000000	18.059900
2250.000000	17.907067
2251.000000	17.758667
2252.000000	17.601767
2253.000000	17.446567
2254.000000	17.296167
2255.000000	17.137533
2256.000000	16.983133
2257.000000	16.846333
2258.000000	16.697300
2259.000000	16.576000
2260.000000	16.461300
2261.000000	16.331000
2262.000000	16.234367
2263.000000	16.132100
2264.000000	16.052333
2265.000000	15.984267
2266.000000	15.918733
2267.000000	15.863067
2268.000000	15.821567
2269.000000	15.789233
2270.000000	15.747300
2271.000000	15.725600
2272.000000	15.699100
2273.000000	15.689267
2274.000000	15.672500
2275.000000	15.655967
2276.000000	15.639867
2277.000000	15.599567
2278.000000	15.577200
2279.000000	15.538167
2280.000000	15.527200
2281.000000	15.500500
2282.000000	15.451333
2283.000000	15.417200
2284.000000	15.398967
2285.000000	15.360200
2286.000000	15.325000
2287.000000	15.290133
2288.000000	15.263067
2289.000000	15.230467
2290.000000	15.209300
2291.000000	15.184500
2292.000000	15.152200
2293.000000	15.142067
2294.000000	15.114867
2295.000000	15.105700
2296.000000	15.092100
2297.000000	15.084667
2298.000000	15.075433
2299.000000	15.072400
2300.000000	15.073100
2301.000000	15.072733
2302.000000	15.093800
2303.000000	15.105333
2304.000000	15.129600
2305.000000	15.144833
2306.000000	15.177200
2307.000000	15.205667
2308.000000	15.228867
2309.000000	15.276067
2310.000000	15.314133
2311.000000	15.349400
2312.000000	15.387367
2313.000000	15.416967
2314.000000	15.451033
2315.000000	15.478433
2316.000000	15.504067
2317.000000	15.529067
2318.000000	15.542333
2319.000000	15.559433
2320.000000	15.557833
2321.000000	15.557133
2322.000000	15.556700
2323.000000	15.551567
2324.000000	15.536233
2325.000000	15.518567
2326.000000	15.501967
2327.000000	15.478300
2328.000000	15.462267
2329.000000	15.448767
2330.000000	15.434200
2331.000000	15.428800
2332.000000	15.418533
2333.000000	15.415533
2334.000000	15.412333
2335.000000	15.410300
2336.000000	15.416533
2337.000000	15.430967
2338.000000	15.440833
2339.000000	15.461367
2340.000000	15.480633
2341.000000	15.496367
2342.000000	15.515267
2343.000000	15.538333
2344.000000	15.565067
2345.000000	15.590900
2346.000000	15.610967
2347.000000	15.635767
2348.000000	15.663367
2349.000000	15.695333
2350.000000	15.719933
2351.000000	15.748633
2352.000000	15.776133
2353.000000	15.799767
2354.000000	15.834567
2355.000000	15.857533
2356.000000	15.877233
2357.000000	15.902967
2358.000000	15.924933
2359.000000	15.938867
2360.000000	15.946733
2361.000000	15.959200
2362.000000	15.978500
2363.000000	15.991467
2364.000000	15.996200
2365.000000	16.003500
2366.000000	16.018733
2367.000000	16.033033
2368.000000	16.033233
2369.000000	16.044667
2370.000000	16.065733
2371.000000	16.086700
2372.000000	16.104267
2373.000000	16.125733
2374.000000	16.146267
2375.000000	16.157833
2376.000000	16.178600
2377.000000	16.209533
2378.000000	16.231567
2379.000000	16.241333
2380.000000	16.258367
2381.000000	16.278267
2382.000000	16.297133
2383.000000	16.312367
2384.000000	16.325000
2385.000000	16.329900
2386.000000	16.336433
2387.000000	16.345300
2388.000000	16.346933
2389.000000	16.341767
2390.000000	16.341967
2391.000000	16.336733
2392.000000	16.324067
2393.000000	16.322833
2394.000000	16.316367
2395.000000	16.310633
2396.000000	16.292133
2397.000000	16.279267
2398.000000	16.268233
2399.000000	16.262800
2400.000000	16.251900
2401.000000	16.227667
2402.000000	16.201333
2403.000000	16.191600
2404.000000	16.179733
2405.000000	16.159900
2406.000000	16.126600
2407.000000	16.096467
2408.000000	16.077567
2409.000000	16.052733
2410.000000	16.018633
2411.000000	15.980967
2412.000000	15.953433
2413.000000	15.920367
2414.000000	15.865033
2415.000000	15.826267
2416.000000	15.778700
2417.000000	15.731733
2418.000000	15.676200
2419.000000	15.609833
2420.000000	15.541700
2421.000000	15.477167
2422.000000	15.411533
2423.000000	15.351167
2424.000000	15.298667
2425.000000	15.241300
2426.000000	15.164667
2427.000000	15.072600
2428.000000	14.985567
2429.000000	14.890667
2430.000000	14.793767
2431.000000	14.700900
2432.000000	14.609767
2433.000000	14.506900
2434.000000	14.406400
2435.000000	14.310867
2436.000000	14.194767
2437.000000	14.097100
2438.000000	13.987167
2439.000000	13.882833
2440.000000	13.761267
2441.000000	13.667800
2442.000000	13.560433
2443.000000	13.451833
2444.000000	13.348500
2445.000000	13.231400
2446.000000	13.136767
2447.000000	13.031000
2448.000000	12.932167
2449.000000	12.830333
2450.000000	12.727267
2451.000000	12.642700
2452.000000	12.541167
2453.000000	12.464300
2454.000000	12.370733
2455.000000	12.279600
2456.000000	12.200600
2457.000000	12.133100
2458.000000	12.047900
2459.000000	11.993600
2460.000000	11.936300
2461.000000	11.860400
2462.000000	11.798867
2463.000000	11.728833
2464.000000	11.684700
2465.000000	11.616633
2466.000000	11.578833
2467.000000	11.551933
2468.000000	11.486200
2469.000000	11.449833
2470.000000	11.417300
2471.000000	11.400767
2472.000000	11.323733
2473.000000	11.328500
2474.000000	11.274300
2475.000000	11.241733
2476.000000	11.213133
2477.000000	11.183233
2478.000000	11.161933
2479.000000	11.172500
2480.000000	11.128600
2481.000000	11.121600
2482.000000	11.107500
2483.000000	11.099700
2484.000000	11.046133
2485.000000	11.072500
2486.000000	11.065600
2487.000000	11.094367
2488.000000	11.095167
2489.000000	11.080233
2490.000000	11.119900
2491.000000	11.101567
2492.000000	11.108267
2493.000000	11.144033
2494.000000	11.137167
2495.000000	11.102033
2496.000000	11.147033
2497.000000	11.212167
2498.000000	11.155600
2499.000000	11.198233
2500.000000	11.250667
