PE UV       SUBTECH     SPECTRUM    ASCII       PEDS        4.00        
   -1
CICIMAUCR0012-3.Sample.ASC
24/04/12
09:39:08.00
24/04/12
09:39:08.00
Vinicio Soto Monge
C. cupreomarginata
250,000000
1
Lambda 1050
1050L1511233
PerkinElmer UV WinLab 6.3.2.0749 / 2.02.05 Lambda 900 UV/VIS/NIR, Aug  7 2015 09:38:08

0
0
3350/servo 860,8/2
0
0
UV/VIS
1
1
1
DoubleDePol,CommonBeamDepol,RBeamAtt,SBeamAtt,60mm sphere, WB InGaAs Detector
0
0
0
0
Program
Program
3350/servo 860,8/2
3350/0,2 860,8/0,2
3350/0,2 860,8/0,2
0
15.00
 
 
 
0
 
860,8
319,2
860,8
Front
100
on
S:100 R:100
0
0
0
0
 
0
 
 
 
0
 
 
0
0
0
0
0
 
 
 
 
0
0


0
0
#HDR
-1
-1
#GR
nm
%R
1.0
0.0
2500,000000
-1,000000
2251
8
59,329800
5,000400
#DATA
250.000000	4.415584
251.000000	4.434484
252.000000	4.402920
253.000000	4.393428
254.000000	4.421971
255.000000	4.380797
256.000000	4.394289
257.000000	4.386259
258.000000	4.385102
259.000000	4.363914
260.000000	4.361637
261.000000	4.345804
262.000000	4.306447
263.000000	4.275630
264.000000	4.243579
265.000000	4.234531
266.000000	4.227043
267.000000	4.219181
268.000000	4.214258
269.000000	4.212045
270.000000	4.206609
271.000000	4.201883
272.000000	4.165358
273.000000	4.171223
274.000000	4.158380
275.000000	4.139419
276.000000	4.123975
277.000000	4.123353
278.000000	4.117895
279.000000	4.112725
280.000000	4.095996
281.000000	4.097073
282.000000	4.097658
283.000000	4.100771
284.000000	4.076016
285.000000	4.085337
286.000000	4.091887
287.000000	4.119720
288.000000	4.101120
289.000000	4.068120
290.000000	4.074702
291.000000	4.101056
292.000000	4.090225
293.000000	4.066662
294.000000	4.082542
295.000000	4.065452
296.000000	4.039220
297.000000	4.043398
298.000000	4.046029
299.000000	4.040921
300.000000	4.060530
301.000000	4.056433
302.000000	4.051030
303.000000	4.033981
304.000000	4.060686
305.000000	4.059044
306.000000	4.031651
307.000000	4.027969
308.000000	4.054025
309.000000	4.046788
310.000000	4.031305
311.000000	4.045336
312.000000	4.025874
313.000000	4.031155
314.000000	4.045814
315.000000	4.039442
316.000000	4.142757
317.000000	4.336136
318.000000	4.154767
319.000000	4.159470
320.000000	4.219681
321.000000	4.220727
322.000000	4.214948
323.000000	4.232521
324.000000	4.141945
325.000000	4.183142
326.000000	4.255595
327.000000	4.186010
328.000000	4.123802
329.000000	4.150090
330.000000	4.167412
331.000000	4.089631
332.000000	4.086857
333.000000	4.103092
334.000000	4.059113
335.000000	4.074948
336.000000	4.099059
337.000000	4.066625
338.000000	4.037530
339.000000	4.060593
340.000000	4.044305
341.000000	4.073908
342.000000	4.071315
343.000000	4.057916
344.000000	4.042392
345.000000	4.034994
346.000000	4.056925
347.000000	4.057088
348.000000	4.043950
349.000000	4.039578
350.000000	4.086321
351.000000	4.068887
352.000000	4.118433
353.000000	4.121911
354.000000	4.137383
355.000000	4.126544
356.000000	4.158100
357.000000	4.163930
358.000000	4.180064
359.000000	4.181016
360.000000	4.179789
361.000000	4.223484
362.000000	4.258671
363.000000	4.223974
364.000000	4.256489
365.000000	4.275986
366.000000	4.319030
367.000000	4.376216
368.000000	4.351427
369.000000	4.349173
370.000000	4.400184
371.000000	4.449394
372.000000	4.482444
373.000000	4.497785
374.000000	4.547283
375.000000	4.693023
376.000000	4.748966
377.000000	4.782502
378.000000	4.836616
379.000000	4.911417
380.000000	4.997000
381.000000	5.075964
382.000000	5.152951
383.000000	5.240675
384.000000	5.335203
385.000000	5.430045
386.000000	5.538243
387.000000	5.638661
388.000000	5.747029
389.000000	5.866533
390.000000	5.983603
391.000000	6.099982
392.000000	6.234225
393.000000	6.371984
394.000000	6.490014
395.000000	6.619995
396.000000	6.760842
397.000000	6.897134
398.000000	7.027667
399.000000	7.172360
400.000000	7.314063
401.000000	7.458069
402.000000	7.595031
403.000000	7.728498
404.000000	7.871689
405.000000	8.004540
406.000000	8.138890
407.000000	8.269124
408.000000	8.403004
409.000000	8.537980
410.000000	8.667482
411.000000	8.793188
412.000000	8.908137
413.000000	9.031090
414.000000	9.145072
415.000000	9.256404
416.000000	9.367372
417.000000	9.466718
418.000000	9.574138
419.000000	9.662836
420.000000	9.757401
421.000000	9.853782
422.000000	9.944098
423.000000	10.030822
424.000000	10.112228
425.000000	10.199890
426.000000	10.277473
427.000000	10.349230
428.000000	10.425580
429.000000	10.492238
430.000000	10.565551
431.000000	10.642754
432.000000	10.719762
433.000000	10.793176
434.000000	10.865715
435.000000	10.947118
436.000000	11.026148
437.000000	11.092225
438.000000	11.179005
439.000000	11.265864
440.000000	11.346781
441.000000	11.435997
442.000000	11.510381
443.000000	11.594031
444.000000	11.692626
445.000000	11.763085
446.000000	11.817398
447.000000	11.898889
448.000000	11.979096
449.000000	12.052631
450.000000	12.127974
451.000000	12.205980
452.000000	12.287982
453.000000	12.376149
454.000000	12.462304
455.000000	12.559727
456.000000	12.656469
457.000000	12.759621
458.000000	12.859192
459.000000	12.970232
460.000000	13.090807
461.000000	13.214697
462.000000	13.352278
463.000000	13.500840
464.000000	13.663703
465.000000	13.834583
466.000000	14.015263
467.000000	14.202564
468.000000	14.398830
469.000000	14.611909
470.000000	14.839111
471.000000	15.070728
472.000000	15.315050
473.000000	15.580523
474.000000	15.856801
475.000000	16.129949
476.000000	16.433423
477.000000	16.732611
478.000000	17.048334
479.000000	17.354071
480.000000	17.713627
481.000000	18.102483
482.000000	18.491329
483.000000	18.856337
484.000000	19.195201
485.000000	19.541473
486.000000	19.882362
487.000000	20.234634
488.000000	20.583845
489.000000	20.926324
490.000000	21.296089
491.000000	21.671246
492.000000	22.043234
493.000000	22.404655
494.000000	22.783404
495.000000	23.192303
496.000000	23.591157
497.000000	23.985936
498.000000	24.394038
499.000000	24.826050
500.000000	25.262033
501.000000	25.702944
502.000000	26.151865
503.000000	26.631731
504.000000	27.118561
505.000000	27.598974
506.000000	28.087370
507.000000	28.590803
508.000000	29.111167
509.000000	29.643590
510.000000	30.197253
511.000000	30.747475
512.000000	31.312034
513.000000	31.875842
514.000000	32.447011
515.000000	33.001566
516.000000	33.575434
517.000000	34.147356
518.000000	34.691016
519.000000	35.251065
520.000000	35.805877
521.000000	36.366514
522.000000	36.931558
523.000000	37.460888
524.000000	37.977963
525.000000	38.495946
526.000000	38.985220
527.000000	39.433255
528.000000	39.885367
529.000000	40.297643
530.000000	40.706726
531.000000	41.083164
532.000000	41.447756
533.000000	41.793320
534.000000	42.097473
535.000000	42.376811
536.000000	42.606222
537.000000	42.810553
538.000000	43.014728
539.000000	43.187090
540.000000	43.339245
541.000000	43.459303
542.000000	43.563827
543.000000	43.651040
544.000000	43.720449
545.000000	43.773674
546.000000	43.788362
547.000000	43.779794
548.000000	43.772198
549.000000	43.775177
550.000000	43.750625
551.000000	43.683594
552.000000	43.635038
553.000000	43.570260
554.000000	43.478539
555.000000	43.393297
556.000000	43.306684
557.000000	43.169326
558.000000	43.034025
559.000000	42.872626
560.000000	42.620599
561.000000	42.484933
562.000000	42.344788
563.000000	42.208650
564.000000	42.039307
565.000000	41.886699
566.000000	41.732627
567.000000	41.551486
568.000000	41.372130
569.000000	41.193537
570.000000	41.004928
571.000000	40.825413
572.000000	40.651735
573.000000	40.464278
574.000000	40.259969
575.000000	40.063121
576.000000	39.862968
577.000000	39.665945
578.000000	39.459486
579.000000	39.258422
580.000000	39.036560
581.000000	38.829009
582.000000	38.628900
583.000000	38.420653
584.000000	38.207480
585.000000	38.003508
586.000000	37.821150
587.000000	37.620640
588.000000	37.447169
589.000000	37.285937
590.000000	37.127303
591.000000	36.960139
592.000000	36.802522
593.000000	36.633883
594.000000	36.477202
595.000000	36.344017
596.000000	36.197000
597.000000	36.068427
598.000000	35.940849
599.000000	35.803600
600.000000	35.664236
601.000000	35.511420
602.000000	35.376131
603.000000	35.227789
604.000000	35.063830
605.000000	34.916988
606.000000	34.790301
607.000000	34.665769
608.000000	34.521695
609.000000	34.408157
610.000000	34.305573
611.000000	34.205276
612.000000	34.124285
613.000000	34.044873
614.000000	33.984505
615.000000	33.949303
616.000000	33.928154
617.000000	33.895294
618.000000	33.885303
619.000000	33.890477
620.000000	33.906739
621.000000	33.900193
622.000000	33.910021
623.000000	33.933852
624.000000	33.975450
625.000000	34.026057
626.000000	34.086491
627.000000	34.143716
628.000000	34.221486
629.000000	34.319055
630.000000	34.411448
631.000000	34.524194
632.000000	34.637948
633.000000	34.769638
634.000000	34.903470
635.000000	35.040114
636.000000	35.190959
637.000000	35.354487
638.000000	35.540393
639.000000	35.704228
640.000000	35.846312
641.000000	36.017862
642.000000	36.176538
643.000000	36.331082
644.000000	36.497856
645.000000	36.664511
646.000000	36.802915
647.000000	36.930054
648.000000	37.061834
649.000000	37.196997
650.000000	37.327055
651.000000	37.452734
652.000000	37.578887
653.000000	37.691061
654.000000	37.772442
655.000000	37.886193
656.000000	37.994953
657.000000	38.092714
658.000000	38.183570
659.000000	38.276240
660.000000	38.350995
661.000000	38.457674
662.000000	38.556532
663.000000	38.640886
664.000000	38.714267
665.000000	38.792384
666.000000	38.862074
667.000000	38.939980
668.000000	39.010632
669.000000	39.088268
670.000000	39.164879
671.000000	39.202746
672.000000	39.273326
673.000000	39.364745
674.000000	39.436380
675.000000	39.498981
676.000000	39.539436
677.000000	39.593236
678.000000	39.646825
679.000000	39.714203
680.000000	39.783997
681.000000	39.857879
682.000000	39.935854
683.000000	40.018335
684.000000	40.089921
685.000000	40.153391
686.000000	40.252729
687.000000	40.316975
688.000000	40.349824
689.000000	40.415397
690.000000	40.495109
691.000000	40.567654
692.000000	40.648270
693.000000	40.719445
694.000000	40.794601
695.000000	40.863937
696.000000	40.936183
697.000000	41.001120
698.000000	41.062383
699.000000	41.118108
700.000000	41.171191
701.000000	41.244125
702.000000	41.322922
703.000000	41.395528
704.000000	41.456040
705.000000	41.505367
706.000000	41.535322
707.000000	41.624983
708.000000	41.682939
709.000000	41.746848
710.000000	41.816014
711.000000	41.867872
712.000000	41.931522
713.000000	41.982205
714.000000	42.042432
715.000000	42.082749
716.000000	42.134605
717.000000	42.185227
718.000000	42.226148
719.000000	42.282035
720.000000	42.329031
721.000000	42.358245
722.000000	42.451922
723.000000	42.520773
724.000000	42.575869
725.000000	42.625502
726.000000	42.698448
727.000000	42.753638
728.000000	42.818626
729.000000	42.879967
730.000000	42.948762
731.000000	43.016698
732.000000	43.116296
733.000000	43.158402
734.000000	43.223676
735.000000	43.277425
736.000000	43.362443
737.000000	43.421940
738.000000	43.477819
739.000000	43.518994
740.000000	43.589608
741.000000	43.678174
742.000000	43.766269
743.000000	43.797421
744.000000	43.895548
745.000000	43.959381
746.000000	44.046786
747.000000	44.078603
748.000000	44.161535
749.000000	44.207434
750.000000	44.266709
751.000000	44.381009
752.000000	44.414715
753.000000	44.499425
754.000000	44.526841
755.000000	44.605044
756.000000	44.681338
757.000000	44.724442
758.000000	44.821537
759.000000	44.884393
760.000000	44.938499
761.000000	44.946883
762.000000	45.043185
763.000000	45.066445
764.000000	45.073268
765.000000	45.192867
766.000000	45.246051
767.000000	45.311371
768.000000	45.353728
769.000000	45.419022
770.000000	45.502543
771.000000	45.553649
772.000000	45.601833
773.000000	45.679869
774.000000	45.711246
775.000000	45.809209
776.000000	45.867214
777.000000	45.889963
778.000000	45.987599
779.000000	45.982653
780.000000	46.093692
781.000000	46.109812
782.000000	46.110711
783.000000	46.228550
784.000000	46.283651
785.000000	46.294637
786.000000	46.330180
787.000000	46.419032
788.000000	46.384681
789.000000	46.430671
790.000000	46.471586
791.000000	46.481878
792.000000	46.536348
793.000000	46.574776
794.000000	46.600282
795.000000	46.669454
796.000000	46.690643
797.000000	46.681000
798.000000	46.687559
799.000000	46.692288
800.000000	46.670695
801.000000	46.687840
802.000000	46.650464
803.000000	46.700754
804.000000	46.713055
805.000000	46.682311
806.000000	46.687850
807.000000	46.626867
808.000000	46.545711
809.000000	46.541611
810.000000	46.602200
811.000000	46.597257
812.000000	46.548561
813.000000	46.536141
814.000000	46.519553
815.000000	46.528168
816.000000	46.558160
817.000000	46.406082
818.000000	46.438869
819.000000	46.378327
820.000000	46.311263
821.000000	46.261865
822.000000	46.253027
823.000000	46.218293
824.000000	46.170453
825.000000	46.188118
826.000000	46.105904
827.000000	46.040265
828.000000	45.972335
829.000000	45.974382
830.000000	45.918006
831.000000	45.825782
832.000000	45.763061
833.000000	45.684852
834.000000	45.608157
835.000000	45.581209
836.000000	45.632776
837.000000	45.477319
838.000000	45.387842
839.000000	45.378282
840.000000	45.331909
841.000000	45.111124
842.000000	45.132229
843.000000	45.011781
844.000000	45.008540
845.000000	44.804949
846.000000	44.744636
847.000000	44.617351
848.000000	44.543413
849.000000	44.550263
850.000000	44.396984
851.000000	44.343631
852.000000	44.233855
853.000000	44.149398
854.000000	44.106429
855.000000	44.115279
856.000000	44.025187
857.000000	43.866200
858.000000	43.871667
859.000000	44.258933
860.000000	43.733467
861.000000	43.921700
862.000000	44.251933
863.000000	43.961400
864.000000	43.601767
865.000000	43.630167
866.000000	43.895967
867.000000	43.908167
868.000000	43.941500
869.000000	44.022767
870.000000	43.807767
871.000000	43.802167
872.000000	43.805867
873.000000	44.101233
874.000000	43.661033
875.000000	43.862167
876.000000	44.117800
877.000000	43.871467
878.000000	43.395933
879.000000	43.299367
880.000000	43.713800
881.000000	43.576000
882.000000	43.507167
883.000000	43.341567
884.000000	43.427500
885.000000	43.491267
886.000000	43.516733
887.000000	43.656767
888.000000	43.794633
889.000000	43.547000
890.000000	43.445767
891.000000	43.474567
892.000000	43.400000
893.000000	43.493567
894.000000	43.449833
895.000000	43.461633
896.000000	43.384533
897.000000	43.400467
898.000000	43.358700
899.000000	43.540767
900.000000	43.506900
901.000000	43.381000
902.000000	43.352900
903.000000	43.299667
904.000000	43.295300
905.000000	43.422100
906.000000	43.361000
907.000000	43.330700
908.000000	43.319467
909.000000	43.404433
910.000000	43.491267
911.000000	43.530933
912.000000	43.590367
913.000000	43.620800
914.000000	43.705600
915.000000	43.710767
916.000000	43.739867
917.000000	43.769067
918.000000	43.816567
919.000000	43.913367
920.000000	44.011467
921.000000	43.968700
922.000000	44.004333
923.000000	44.129533
924.000000	44.099767
925.000000	44.154800
926.000000	44.266467
927.000000	44.285667
928.000000	44.324567
929.000000	44.337600
930.000000	44.355867
931.000000	44.446433
932.000000	44.541633
933.000000	44.563367
934.000000	44.592600
935.000000	44.660100
936.000000	44.693267
937.000000	44.699133
938.000000	44.699000
939.000000	44.736133
940.000000	44.828533
941.000000	44.888833
942.000000	44.967867
943.000000	45.014833
944.000000	45.076833
945.000000	45.147033
946.000000	45.149600
947.000000	45.168867
948.000000	45.213100
949.000000	45.266000
950.000000	45.299767
951.000000	45.349233
952.000000	45.461133
953.000000	45.504000
954.000000	45.512667
955.000000	45.596333
956.000000	45.644933
957.000000	45.661967
958.000000	45.687767
959.000000	45.707967
960.000000	45.807033
961.000000	45.814967
962.000000	45.856700
963.000000	45.868533
964.000000	45.859900
965.000000	45.930033
966.000000	45.991100
967.000000	46.041600
968.000000	46.081600
969.000000	46.109800
970.000000	46.153233
971.000000	46.173733
972.000000	46.222367
973.000000	46.299000
974.000000	46.373867
975.000000	46.415367
976.000000	46.455200
977.000000	46.500300
978.000000	46.547800
979.000000	46.550933
980.000000	46.618633
981.000000	46.656933
982.000000	46.696000
983.000000	46.734367
984.000000	46.783233
985.000000	46.822100
986.000000	46.849300
987.000000	46.874033
988.000000	46.931833
989.000000	46.963433
990.000000	47.011400
991.000000	47.052733
992.000000	47.111633
993.000000	47.137800
994.000000	47.218100
995.000000	47.220133
996.000000	47.265500
997.000000	47.315033
998.000000	47.344333
999.000000	47.408767
1000.000000	47.461433
1001.000000	47.509800
1002.000000	47.521733
1003.000000	47.548367
1004.000000	47.619833
1005.000000	47.644000
1006.000000	47.711967
1007.000000	47.742533
1008.000000	47.744033
1009.000000	47.756500
1010.000000	47.823467
1011.000000	47.895067
1012.000000	47.938833
1013.000000	47.963467
1014.000000	48.029767
1015.000000	48.081367
1016.000000	48.142533
1017.000000	48.198767
1018.000000	48.255900
1019.000000	48.309433
1020.000000	48.363633
1021.000000	48.404100
1022.000000	48.483267
1023.000000	48.557467
1024.000000	48.639333
1025.000000	48.682133
1026.000000	48.761600
1027.000000	48.830500
1028.000000	48.883000
1029.000000	48.926400
1030.000000	48.976000
1031.000000	49.058633
1032.000000	49.132933
1033.000000	49.172567
1034.000000	49.252367
1035.000000	49.283167
1036.000000	49.325633
1037.000000	49.390733
1038.000000	49.437933
1039.000000	49.491767
1040.000000	49.551567
1041.000000	49.585433
1042.000000	49.603233
1043.000000	49.651100
1044.000000	49.717233
1045.000000	49.766633
1046.000000	49.799533
1047.000000	49.830967
1048.000000	49.877200
1049.000000	49.921467
1050.000000	49.966800
1051.000000	50.027400
1052.000000	50.061433
1053.000000	50.116567
1054.000000	50.184967
1055.000000	50.241000
1056.000000	50.302867
1057.000000	50.365400
1058.000000	50.391533
1059.000000	50.463833
1060.000000	50.509133
1061.000000	50.555100
1062.000000	50.613767
1063.000000	50.651367
1064.000000	50.694133
1065.000000	50.732267
1066.000000	50.804900
1067.000000	50.858000
1068.000000	50.937033
1069.000000	50.971367
1070.000000	51.020067
1071.000000	51.077100
1072.000000	51.113867
1073.000000	51.157800
1074.000000	51.229933
1075.000000	51.275333
1076.000000	51.309067
1077.000000	51.381267
1078.000000	51.429767
1079.000000	51.470633
1080.000000	51.515133
1081.000000	51.584233
1082.000000	51.599467
1083.000000	51.656567
1084.000000	51.694367
1085.000000	51.761267
1086.000000	51.795033
1087.000000	51.848033
1088.000000	51.891467
1089.000000	51.953100
1090.000000	51.982233
1091.000000	52.036700
1092.000000	52.066333
1093.000000	52.086500
1094.000000	52.135233
1095.000000	52.174667
1096.000000	52.210767
1097.000000	52.258833
1098.000000	52.285867
1099.000000	52.325267
1100.000000	52.351367
1101.000000	52.377233
1102.000000	52.415267
1103.000000	52.443400
1104.000000	52.449200
1105.000000	52.477267
1106.000000	52.501033
1107.000000	52.531100
1108.000000	52.546533
1109.000000	52.562333
1110.000000	52.577100
1111.000000	52.602633
1112.000000	52.628433
1113.000000	52.638067
1114.000000	52.653267
1115.000000	52.658000
1116.000000	52.682000
1117.000000	52.693467
1118.000000	52.695833
1119.000000	52.704367
1120.000000	52.698900
1121.000000	52.682233
1122.000000	52.693300
1123.000000	52.681100
1124.000000	52.632800
1125.000000	52.575667
1126.000000	52.514267
1127.000000	52.454200
1128.000000	52.408933
1129.000000	52.310133
1130.000000	52.166833
1131.000000	52.035833
1132.000000	51.874133
1133.000000	51.687067
1134.000000	51.522900
1135.000000	51.309833
1136.000000	51.030800
1137.000000	50.775267
1138.000000	50.525900
1139.000000	50.304067
1140.000000	50.082233
1141.000000	49.852367
1142.000000	49.615633
1143.000000	49.410133
1144.000000	49.219567
1145.000000	49.055300
1146.000000	48.926533
1147.000000	48.840567
1148.000000	48.809533
1149.000000	48.793200
1150.000000	48.782800
1151.000000	48.763700
1152.000000	48.748333
1153.000000	48.728000
1154.000000	48.649467
1155.000000	48.532333
1156.000000	48.388867
1157.000000	48.214433
1158.000000	47.993833
1159.000000	47.758233
1160.000000	47.523767
1161.000000	47.277300
1162.000000	47.006933
1163.000000	46.732833
1164.000000	46.451367
1165.000000	46.190800
1166.000000	45.921400
1167.000000	45.644167
1168.000000	45.370100
1169.000000	45.114767
1170.000000	44.856367
1171.000000	44.601933
1172.000000	44.337700
1173.000000	44.086533
1174.000000	43.854700
1175.000000	43.621500
1176.000000	43.390267
1177.000000	43.134933
1178.000000	42.826167
1179.000000	42.480733
1180.000000	42.102567
1181.000000	41.701033
1182.000000	41.287967
1183.000000	40.919367
1184.000000	40.642767
1185.000000	40.457733
1186.000000	40.389000
1187.000000	40.440200
1188.000000	40.594733
1189.000000	40.838633
1190.000000	41.155500
1191.000000	41.524100
1192.000000	41.902767
1193.000000	42.261633
1194.000000	42.566833
1195.000000	42.824700
1196.000000	43.014233
1197.000000	43.155867
1198.000000	43.263333
1199.000000	43.353533
1200.000000	43.414767
1201.000000	43.468967
1202.000000	43.498600
1203.000000	43.515500
1204.000000	43.546900
1205.000000	43.575200
1206.000000	43.608533
1207.000000	43.656900
1208.000000	43.731067
1209.000000	43.797167
1210.000000	43.880467
1211.000000	43.976400
1212.000000	44.072467
1213.000000	44.169133
1214.000000	44.260333
1215.000000	44.363233
1216.000000	44.469467
1217.000000	44.596933
1218.000000	44.710867
1219.000000	44.832633
1220.000000	44.963300
1221.000000	45.098500
1222.000000	45.233900
1223.000000	45.379867
1224.000000	45.528233
1225.000000	45.672700
1226.000000	45.805633
1227.000000	45.954667
1228.000000	46.101167
1229.000000	46.241167
1230.000000	46.381167
1231.000000	46.515400
1232.000000	46.651500
1233.000000	46.777467
1234.000000	46.903467
1235.000000	47.038733
1236.000000	47.156700
1237.000000	47.279200
1238.000000	47.410067
1239.000000	47.534267
1240.000000	47.645667
1241.000000	47.756433
1242.000000	47.853800
1243.000000	47.963200
1244.000000	48.065900
1245.000000	48.162767
1246.000000	48.248867
1247.000000	48.328200
1248.000000	48.404200
1249.000000	48.474900
1250.000000	48.549200
1251.000000	48.614067
1252.000000	48.667867
1253.000000	48.712100
1254.000000	48.764933
1255.000000	48.804033
1256.000000	48.848733
1257.000000	48.903733
1258.000000	48.934833
1259.000000	48.962700
1260.000000	48.996267
1261.000000	49.042700
1262.000000	49.065200
1263.000000	49.094167
1264.000000	49.136633
1265.000000	49.160867
1266.000000	49.188967
1267.000000	49.217567
1268.000000	49.258233
1269.000000	49.291500
1270.000000	49.327967
1271.000000	49.359100
1272.000000	49.379067
1273.000000	49.401300
1274.000000	49.424233
1275.000000	49.454700
1276.000000	49.492933
1277.000000	49.530900
1278.000000	49.563000
1279.000000	49.604800
1280.000000	49.648633
1281.000000	49.690100
1282.000000	49.736767
1283.000000	49.789333
1284.000000	49.840967
1285.000000	49.884733
1286.000000	49.930133
1287.000000	49.977033
1288.000000	50.019800
1289.000000	50.043200
1290.000000	50.068467
1291.000000	50.104167
1292.000000	50.116767
1293.000000	50.129900
1294.000000	50.150700
1295.000000	50.163933
1296.000000	50.173633
1297.000000	50.180933
1298.000000	50.181533
1299.000000	50.174100
1300.000000	50.165600
1301.000000	50.164200
1302.000000	50.161033
1303.000000	50.154067
1304.000000	50.136133
1305.000000	50.127433
1306.000000	50.121333
1307.000000	50.084967
1308.000000	50.061700
1309.000000	50.028933
1310.000000	49.989400
1311.000000	49.948333
1312.000000	49.901033
1313.000000	49.838900
1314.000000	49.799367
1315.000000	49.741400
1316.000000	49.666733
1317.000000	49.600667
1318.000000	49.532467
1319.000000	49.463800
1320.000000	49.394067
1321.000000	49.297733
1322.000000	49.217033
1323.000000	49.148300
1324.000000	49.056000
1325.000000	48.969800
1326.000000	48.858667
1327.000000	48.734800
1328.000000	48.647367
1329.000000	48.513967
1330.000000	48.394800
1331.000000	48.269167
1332.000000	48.121567
1333.000000	47.963933
1334.000000	47.820767
1335.000000	47.637633
1336.000000	47.486067
1337.000000	47.305867
1338.000000	47.111667
1339.000000	46.911867
1340.000000	46.707600
1341.000000	46.489200
1342.000000	46.249667
1343.000000	46.039433
1344.000000	45.792533
1345.000000	45.523067
1346.000000	45.235067
1347.000000	44.986567
1348.000000	44.676200
1349.000000	44.301367
1350.000000	43.969400
1351.000000	43.550500
1352.000000	43.112033
1353.000000	42.670567
1354.000000	42.286767
1355.000000	41.884167
1356.000000	41.544333
1357.000000	41.308633
1358.000000	41.151333
1359.000000	41.029700
1360.000000	40.972467
1361.000000	41.013600
1362.000000	40.881833
1363.000000	40.651667
1364.000000	40.564367
1365.000000	40.376567
1366.000000	40.153633
1367.000000	40.011700
1368.000000	39.784933
1369.000000	39.479633
1370.000000	39.239267
1371.000000	38.970867
1372.000000	38.644100
1373.000000	38.299167
1374.000000	38.007733
1375.000000	37.773267
1376.000000	37.611433
1377.000000	37.463133
1378.000000	37.321100
1379.000000	37.229167
1380.000000	37.116000
1381.000000	36.953867
1382.000000	36.737133
1383.000000	36.394567
1384.000000	36.012500
1385.000000	35.634100
1386.000000	35.182467
1387.000000	34.895567
1388.000000	34.599300
1389.000000	34.251367
1390.000000	33.962767
1391.000000	33.761567
1392.000000	33.560600
1393.000000	33.318167
1394.000000	33.159267
1395.000000	33.042633
1396.000000	32.843633
1397.000000	32.547633
1398.000000	32.259500
1399.000000	32.036933
1400.000000	31.825867
1401.000000	31.504500
1402.000000	31.082533
1403.000000	30.722900
1404.000000	30.404333
1405.000000	30.043800
1406.000000	29.658733
1407.000000	29.303167
1408.000000	28.931867
1409.000000	28.635567
1410.000000	28.321900
1411.000000	27.989200
1412.000000	27.705000
1413.000000	27.500367
1414.000000	27.303367
1415.000000	27.059800
1416.000000	26.799733
1417.000000	26.565333
1418.000000	26.361667
1419.000000	26.162667
1420.000000	25.920400
1421.000000	25.679300
1422.000000	25.436633
1423.000000	25.237467
1424.000000	25.017467
1425.000000	24.797767
1426.000000	24.595567
1427.000000	24.395700
1428.000000	24.210467
1429.000000	24.033100
1430.000000	23.867500
1431.000000	23.716667
1432.000000	23.597200
1433.000000	23.458667
1434.000000	23.309200
1435.000000	23.185033
1436.000000	23.051567
1437.000000	22.940433
1438.000000	22.829333
1439.000000	22.689567
1440.000000	22.554533
1441.000000	22.446233
1442.000000	22.320667
1443.000000	22.193833
1444.000000	22.074400
1445.000000	21.974267
1446.000000	21.880067
1447.000000	21.747767
1448.000000	21.630633
1449.000000	21.528533
1450.000000	21.430667
1451.000000	21.343967
1452.000000	21.232867
1453.000000	21.133033
1454.000000	21.043333
1455.000000	20.953767
1456.000000	20.865233
1457.000000	20.781000
1458.000000	20.707967
1459.000000	20.643633
1460.000000	20.569033
1461.000000	20.505600
1462.000000	20.445600
1463.000000	20.386100
1464.000000	20.329633
1465.000000	20.278733
1466.000000	20.242967
1467.000000	20.212700
1468.000000	20.149067
1469.000000	20.093100
1470.000000	20.062000
1471.000000	20.033033
1472.000000	19.985200
1473.000000	19.953700
1474.000000	19.928000
1475.000000	19.906100
1476.000000	19.880400
1477.000000	19.843933
1478.000000	19.826600
1479.000000	19.811167
1480.000000	19.780067
1481.000000	19.761800
1482.000000	19.743800
1483.000000	19.734733
1484.000000	19.723000
1485.000000	19.713400
1486.000000	19.709267
1487.000000	19.700100
1488.000000	19.708167
1489.000000	19.713667
1490.000000	19.697300
1491.000000	19.689933
1492.000000	19.691833
1493.000000	19.693900
1494.000000	19.700733
1495.000000	19.693567
1496.000000	19.706100
1497.000000	19.724333
1498.000000	19.736400
1499.000000	19.751067
1500.000000	19.776967
1501.000000	19.808067
1502.000000	19.838800
1503.000000	19.864100
1504.000000	19.896733
1505.000000	19.923500
1506.000000	19.957100
1507.000000	19.988133
1508.000000	20.016033
1509.000000	20.057067
1510.000000	20.089233
1511.000000	20.122533
1512.000000	20.164100
1513.000000	20.197800
1514.000000	20.237633
1515.000000	20.263100
1516.000000	20.291400
1517.000000	20.322767
1518.000000	20.356233
1519.000000	20.386033
1520.000000	20.418633
1521.000000	20.452167
1522.000000	20.478000
1523.000000	20.500667
1524.000000	20.525600
1525.000000	20.535867
1526.000000	20.579800
1527.000000	20.606233
1528.000000	20.634967
1529.000000	20.660667
1530.000000	20.672167
1531.000000	20.699033
1532.000000	20.717033
1533.000000	20.733200
1534.000000	20.740333
1535.000000	20.749000
1536.000000	20.774267
1537.000000	20.793733
1538.000000	20.793733
1539.000000	20.791567
1540.000000	20.806533
1541.000000	20.801933
1542.000000	20.804933
1543.000000	20.796067
1544.000000	20.809433
1545.000000	20.821867
1546.000000	20.835033
1547.000000	20.850167
1548.000000	20.848067
1549.000000	20.877800
1550.000000	20.882167
1551.000000	20.880500
1552.000000	20.906700
1553.000000	20.914300
1554.000000	20.917233
1555.000000	20.911067
1556.000000	20.913900
1557.000000	20.915167
1558.000000	20.896833
1559.000000	20.879000
1560.000000	20.863933
1561.000000	20.868467
1562.000000	20.850567
1563.000000	20.839467
1564.000000	20.822400
1565.000000	20.793167
1566.000000	20.780067
1567.000000	20.753733
1568.000000	20.734600
1569.000000	20.711367
1570.000000	20.696733
1571.000000	20.687967
1572.000000	20.672867
1573.000000	20.669800
1574.000000	20.651167
1575.000000	20.675000
1576.000000	20.684033
1577.000000	20.681233
1578.000000	20.685933
1579.000000	20.692267
1580.000000	20.698800
1581.000000	20.733867
1582.000000	20.756033
1583.000000	20.782167
1584.000000	20.814333
1585.000000	20.841800
1586.000000	20.875433
1587.000000	20.909133
1588.000000	20.937933
1589.000000	20.977200
1590.000000	21.030533
1591.000000	21.090300
1592.000000	21.124133
1593.000000	21.170833
1594.000000	21.231567
1595.000000	21.275633
1596.000000	21.328733
1597.000000	21.385300
1598.000000	21.463233
1599.000000	21.538767
1600.000000	21.580367
1601.000000	21.674967
1602.000000	21.730800
1603.000000	21.820933
1604.000000	21.894200
1605.000000	21.981333
1606.000000	22.049000
1607.000000	22.111133
1608.000000	22.196800
1609.000000	22.236000
1610.000000	22.319933
1611.000000	22.396433
1612.000000	22.471733
1613.000000	22.558000
1614.000000	22.618900
1615.000000	22.714300
1616.000000	22.792467
1617.000000	22.868900
1618.000000	22.959767
1619.000000	23.013133
1620.000000	23.113567
1621.000000	23.185533
1622.000000	23.271267
1623.000000	23.354467
1624.000000	23.443833
1625.000000	23.533467
1626.000000	23.613733
1627.000000	23.703433
1628.000000	23.788300
1629.000000	23.867400
1630.000000	23.964833
1631.000000	24.061800
1632.000000	24.125833
1633.000000	24.208633
1634.000000	24.282633
1635.000000	24.364600
1636.000000	24.435800
1637.000000	24.510667
1638.000000	24.595700
1639.000000	24.637333
1640.000000	24.718967
1641.000000	24.800133
1642.000000	24.836800
1643.000000	24.904267
1644.000000	24.959033
1645.000000	25.013267
1646.000000	25.066567
1647.000000	25.125333
1648.000000	25.182867
1649.000000	25.219300
1650.000000	25.251100
1651.000000	25.290967
1652.000000	25.301400
1653.000000	25.332400
1654.000000	25.354667
1655.000000	25.350000
1656.000000	25.358633
1657.000000	25.344400
1658.000000	25.358700
1659.000000	25.319100
1660.000000	25.284567
1661.000000	25.215500
1662.000000	25.173000
1663.000000	25.123900
1664.000000	25.038033
1665.000000	24.966467
1666.000000	24.875467
1667.000000	24.761400
1668.000000	24.627300
1669.000000	24.476367
1670.000000	24.296633
1671.000000	24.091600
1672.000000	23.857100
1673.000000	23.634100
1674.000000	23.311267
1675.000000	22.982133
1676.000000	22.572767
1677.000000	22.100800
1678.000000	21.595600
1679.000000	21.059100
1680.000000	20.505900
1681.000000	19.995533
1682.000000	19.541200
1683.000000	19.215400
1684.000000	19.050100
1685.000000	18.962767
1686.000000	18.946633
1687.000000	18.928500
1688.000000	18.919467
1689.000000	18.868133
1690.000000	18.749633
1691.000000	18.586867
1692.000000	18.412700
1693.000000	18.267833
1694.000000	18.156367
1695.000000	18.100900
1696.000000	18.102533
1697.000000	18.178300
1698.000000	18.294200
1699.000000	18.441600
1700.000000	18.613633
1701.000000	18.758700
1702.000000	18.866167
1703.000000	18.981867
1704.000000	19.048400
1705.000000	19.103700
1706.000000	19.153500
1707.000000	19.197467
1708.000000	19.218800
1709.000000	19.216033
1710.000000	19.222333
1711.000000	19.205033
1712.000000	19.178667
1713.000000	19.117500
1714.000000	19.073167
1715.000000	19.004400
1716.000000	18.928333
1717.000000	18.879067
1718.000000	18.840767
1719.000000	18.812067
1720.000000	18.786067
1721.000000	18.774900
1722.000000	18.784067
1723.000000	18.754833
1724.000000	18.703267
1725.000000	18.642700
1726.000000	18.560900
1727.000000	18.477967
1728.000000	18.368767
1729.000000	18.254733
1730.000000	18.130500
1731.000000	18.033467
1732.000000	17.964533
1733.000000	17.908167
1734.000000	17.906033
1735.000000	17.969600
1736.000000	18.047633
1737.000000	18.188867
1738.000000	18.363533
1739.000000	18.565367
1740.000000	18.797467
1741.000000	19.035067
1742.000000	19.258000
1743.000000	19.458800
1744.000000	19.642533
1745.000000	19.793600
1746.000000	19.932833
1747.000000	20.043533
1748.000000	20.123067
1749.000000	20.199400
1750.000000	20.259167
1751.000000	20.308400
1752.000000	20.337533
1753.000000	20.338067
1754.000000	20.331200
1755.000000	20.316133
1756.000000	20.287500
1757.000000	20.232100
1758.000000	20.158867
1759.000000	20.108300
1760.000000	20.039933
1761.000000	19.960167
1762.000000	19.907433
1763.000000	19.900733
1764.000000	19.915767
1765.000000	19.960533
1766.000000	20.047300
1767.000000	20.136000
1768.000000	20.246333
1769.000000	20.359100
1770.000000	20.477800
1771.000000	20.596600
1772.000000	20.736800
1773.000000	20.879800
1774.000000	21.007467
1775.000000	21.118733
1776.000000	21.233033
1777.000000	21.345100
1778.000000	21.474833
1779.000000	21.578333
1780.000000	21.664333
1781.000000	21.723433
1782.000000	21.790767
1783.000000	21.908567
1784.000000	21.981100
1785.000000	22.045700
1786.000000	22.111967
1787.000000	22.196033
1788.000000	22.264767
1789.000000	22.304533
1790.000000	22.384900
1791.000000	22.438533
1792.000000	22.488133
1793.000000	22.559933
1794.000000	22.613267
1795.000000	22.659867
1796.000000	22.709133
1797.000000	22.739267
1798.000000	22.771700
1799.000000	22.843700
1800.000000	22.913433
1801.000000	22.957300
1802.000000	23.008033
1803.000000	23.056567
1804.000000	23.093667
1805.000000	23.158400
1806.000000	23.215200
1807.000000	23.265967
1808.000000	23.305867
1809.000000	23.343000
1810.000000	23.374467
1811.000000	23.416267
1812.000000	23.468367
1813.000000	23.454233
1814.000000	23.472967
1815.000000	23.535633
1816.000000	23.506833
1817.000000	23.524700
1818.000000	23.480267
1819.000000	23.516467
1820.000000	23.643967
1821.000000	23.666300
1822.000000	23.680267
1823.000000	23.692100
1824.000000	23.677867
1825.000000	23.750333
1826.000000	23.889767
1827.000000	23.904667
1828.000000	23.975567
1829.000000	24.033667
1830.000000	24.144133
1831.000000	24.216233
1832.000000	24.290567
1833.000000	24.324733
1834.000000	24.375733
1835.000000	24.497400
1836.000000	24.669600
1837.000000	24.709100
1838.000000	24.683667
1839.000000	24.700500
1840.000000	24.767467
1841.000000	24.866800
1842.000000	24.922167
1843.000000	24.918833
1844.000000	24.872667
1845.000000	24.848267
1846.000000	24.982600
1847.000000	25.209700
1848.000000	25.292700
1849.000000	25.224333
1850.000000	25.233133
1851.000000	25.260133
1852.000000	25.300200
1853.000000	25.426533
1854.000000	25.452333
1855.000000	25.438867
1856.000000	25.514000
1857.000000	25.468800
1858.000000	25.404200
1859.000000	25.490733
1860.000000	25.546900
1861.000000	25.386033
1862.000000	25.263167
1863.000000	25.211033
1864.000000	25.191633
1865.000000	24.994833
1866.000000	24.906967
1867.000000	24.920567
1868.000000	24.702167
1869.000000	24.595000
1870.000000	24.444200
1871.000000	24.284800
1872.000000	23.945167
1873.000000	23.774167
1874.000000	23.364000
1875.000000	23.052667
1876.000000	22.763933
1877.000000	22.377833
1878.000000	21.921900
1879.000000	21.530267
1880.000000	21.119200
1881.000000	20.692800
1882.000000	20.144567
1883.000000	19.828733
1884.000000	19.364833
1885.000000	18.888767
1886.000000	18.595400
1887.000000	18.202367
1888.000000	17.904967
1889.000000	17.631500
1890.000000	17.364733
1891.000000	17.076800
1892.000000	16.911233
1893.000000	16.613333
1894.000000	16.358467
1895.000000	16.067233
1896.000000	15.848133
1897.000000	15.632567
1898.000000	15.478933
1899.000000	15.341667
1900.000000	15.018300
1901.000000	14.791800
1902.000000	14.576800
1903.000000	14.360967
1904.000000	14.199800
1905.000000	14.055400
1906.000000	13.835067
1907.000000	13.610633
1908.000000	13.394600
1909.000000	13.245933
1910.000000	13.073933
1911.000000	12.970900
1912.000000	12.850400
1913.000000	12.691467
1914.000000	12.555600
1915.000000	12.322833
1916.000000	12.233133
1917.000000	12.087633
1918.000000	11.981567
1919.000000	11.832367
1920.000000	11.882233
1921.000000	11.733267
1922.000000	11.550633
1923.000000	11.468233
1924.000000	11.353700
1925.000000	11.289433
1926.000000	11.254833
1927.000000	11.200767
1928.000000	11.105000
1929.000000	11.047967
1930.000000	10.993667
1931.000000	11.001000
1932.000000	10.872767
1933.000000	10.824067
1934.000000	10.867200
1935.000000	10.831433
1936.000000	10.779533
1937.000000	10.764933
1938.000000	10.774333
1939.000000	10.793200
1940.000000	10.795000
1941.000000	10.786567
1942.000000	10.780033
1943.000000	10.769733
1944.000000	10.788633
1945.000000	10.782933
1946.000000	10.826033
1947.000000	10.851333
1948.000000	10.901233
1949.000000	10.896867
1950.000000	10.940967
1951.000000	10.994833
1952.000000	11.019433
1953.000000	11.068900
1954.000000	11.142167
1955.000000	11.160967
1956.000000	11.178833
1957.000000	11.208033
1958.000000	11.246333
1959.000000	11.315867
1960.000000	11.372000
1961.000000	11.406400
1962.000000	11.473767
1963.000000	11.461267
1964.000000	11.510300
1965.000000	11.553467
1966.000000	11.577400
1967.000000	11.610367
1968.000000	11.667933
1969.000000	11.743133
1970.000000	11.813600
1971.000000	11.829700
1972.000000	11.851200
1973.000000	11.899700
1974.000000	11.963167
1975.000000	12.014233
1976.000000	12.103967
1977.000000	12.150200
1978.000000	12.144867
1979.000000	12.181200
1980.000000	12.291533
1981.000000	12.330967
1982.000000	12.379067
1983.000000	12.435600
1984.000000	12.524967
1985.000000	12.566100
1986.000000	12.614900
1987.000000	12.636467
1988.000000	12.679533
1989.000000	12.755833
1990.000000	12.786233
1991.000000	12.815067
1992.000000	12.826600
1993.000000	12.861767
1994.000000	12.907133
1995.000000	12.972600
1996.000000	13.034567
1997.000000	13.054733
1998.000000	13.058333
1999.000000	13.092100
2000.000000	13.085567
2001.000000	13.106167
2002.000000	13.201767
2003.000000	13.235867
2004.000000	13.236667
2005.000000	13.208000
2006.000000	13.207700
2007.000000	13.190700
2008.000000	13.209400
2009.000000	13.213167
2010.000000	13.195600
2011.000000	13.194233
2012.000000	13.217967
2013.000000	13.215600
2014.000000	13.149400
2015.000000	13.100933
2016.000000	13.077300
2017.000000	13.075467
2018.000000	13.093467
2019.000000	13.088433
2020.000000	12.984200
2021.000000	12.931233
2022.000000	12.924967
2023.000000	12.861733
2024.000000	12.800600
2025.000000	12.810400
2026.000000	12.773667
2027.000000	12.779500
2028.000000	12.718233
2029.000000	12.584633
2030.000000	12.509200
2031.000000	12.440933
2032.000000	12.433400
2033.000000	12.400533
2034.000000	12.353100
2035.000000	12.259333
2036.000000	12.192933
2037.000000	12.116700
2038.000000	12.010600
2039.000000	11.930367
2040.000000	11.861600
2041.000000	11.728500
2042.000000	11.576133
2043.000000	11.532733
2044.000000	11.489333
2045.000000	11.372433
2046.000000	11.280900
2047.000000	11.220667
2048.000000	11.153233
2049.000000	11.235333
2050.000000	11.137400
2051.000000	11.025233
2052.000000	10.876667
2053.000000	10.853733
2054.000000	10.910733
2055.000000	10.829033
2056.000000	10.861833
2057.000000	10.831567
2058.000000	10.842700
2059.000000	10.933700
2060.000000	10.859700
2061.000000	10.820767
2062.000000	10.837700
2063.000000	10.887033
2064.000000	10.851333
2065.000000	10.920133
2066.000000	10.876667
2067.000000	10.934700
2068.000000	11.014500
2069.000000	10.987233
2070.000000	10.915567
2071.000000	11.006300
2072.000000	10.951933
2073.000000	11.007767
2074.000000	11.044567
2075.000000	11.111100
2076.000000	11.018300
2077.000000	11.053700
2078.000000	11.078967
2079.000000	11.013200
2080.000000	11.178967
2081.000000	11.208167
2082.000000	11.235667
2083.000000	11.203967
2084.000000	11.202300
2085.000000	11.197800
2086.000000	11.235233
2087.000000	11.226433
2088.000000	11.264000
2089.000000	11.266733
2090.000000	11.301800
2091.000000	11.158167
2092.000000	11.261533
2093.000000	11.212100
2094.000000	11.136167
2095.000000	11.258833
2096.000000	11.330800
2097.000000	11.295300
2098.000000	11.271267
2099.000000	11.369967
2100.000000	11.333933
2101.000000	11.358967
2102.000000	11.473467
2103.000000	11.663567
2104.000000	11.496067
2105.000000	11.530167
2106.000000	11.587300
2107.000000	11.513600
2108.000000	11.543067
2109.000000	11.541267
2110.000000	11.730967
2111.000000	11.607867
2112.000000	11.747833
2113.000000	11.570267
2114.000000	11.780133
2115.000000	11.911400
2116.000000	11.765500
2117.000000	11.785933
2118.000000	11.726833
2119.000000	11.735867
2120.000000	11.861500
2121.000000	11.849167
2122.000000	11.866400
2123.000000	11.964200
2124.000000	11.994533
2125.000000	11.892900
2126.000000	11.913367
2127.000000	11.868233
2128.000000	11.998767
2129.000000	12.166533
2130.000000	11.909167
2131.000000	11.988733
2132.000000	12.046500
2133.000000	12.106900
2134.000000	11.997633
2135.000000	12.007733
2136.000000	11.897467
2137.000000	11.968833
2138.000000	12.116433
2139.000000	12.132833
2140.000000	11.945300
2141.000000	11.999067
2142.000000	11.971067
2143.000000	11.894533
2144.000000	11.938000
2145.000000	11.982333
2146.000000	12.025433
2147.000000	11.908900
2148.000000	12.010000
2149.000000	11.667667
2150.000000	11.640233
2151.000000	11.676967
2152.000000	11.542133
2153.000000	11.718733
2154.000000	11.654200
2155.000000	11.651033
2156.000000	11.857667
2157.000000	11.545533
2158.000000	11.378467
2159.000000	11.314167
2160.000000	11.586200
2161.000000	11.635400
2162.000000	11.598400
2163.000000	11.667800
2164.000000	11.369067
2165.000000	11.452967
2166.000000	11.363400
2167.000000	11.389333
2168.000000	11.566233
2169.000000	11.613000
2170.000000	11.531167
2171.000000	11.480200
2172.000000	11.600500
2173.000000	11.519433
2174.000000	11.471700
2175.000000	11.558200
2176.000000	11.549000
2177.000000	11.545033
2178.000000	11.518867
2179.000000	11.454267
2180.000000	11.563367
2181.000000	11.584067
2182.000000	11.650967
2183.000000	11.685100
2184.000000	11.624600
2185.000000	11.531667
2186.000000	11.646833
2187.000000	11.742733
2188.000000	11.685600
2189.000000	11.614667
2190.000000	11.526467
2191.000000	11.719833
2192.000000	11.709100
2193.000000	11.689633
2194.000000	11.655733
2195.000000	11.768567
2196.000000	11.753800
2197.000000	11.715933
2198.000000	11.725667
2199.000000	11.708533
2200.000000	11.691833
2201.000000	11.768200
2202.000000	11.704433
2203.000000	11.535200
2204.000000	11.725733
2205.000000	11.793367
2206.000000	11.808400
2207.000000	12.065033
2208.000000	11.889933
2209.000000	11.820800
2210.000000	11.899433
2211.000000	12.006067
2212.000000	11.913767
2213.000000	11.913367
2214.000000	11.793167
2215.000000	11.922333
2216.000000	11.814933
2217.000000	11.776133
2218.000000	11.915567
2219.000000	11.968467
2220.000000	11.997567
2221.000000	12.029100
2222.000000	12.100633
2223.000000	12.135467
2224.000000	12.118433
2225.000000	12.056633
2226.000000	12.058367
2227.000000	11.914000
2228.000000	11.922467
2229.000000	11.850833
2230.000000	11.910400
2231.000000	12.028233
2232.000000	12.033333
2233.000000	12.083433
2234.000000	11.893167
2235.000000	11.925067
2236.000000	11.814333
2237.000000	11.742700
2238.000000	11.718467
2239.000000	11.509233
2240.000000	11.437167
2241.000000	11.406233
2242.000000	11.354900
2243.000000	11.205667
2244.000000	11.132300
2245.000000	11.003800
2246.000000	10.951767
2247.000000	10.955467
2248.000000	10.854567
2249.000000	10.629000
2250.000000	10.418733
2251.000000	10.219367
2252.000000	10.117933
2253.000000	10.068067
2254.000000	9.942733
2255.000000	9.756767
2256.000000	9.733933
2257.000000	9.515267
2258.000000	9.297567
2259.000000	9.249767
2260.000000	9.070533
2261.000000	8.826867
2262.000000	8.693900
2263.000000	8.675200
2264.000000	8.603833
2265.000000	8.491633
2266.000000	8.397333
2267.000000	8.456400
2268.000000	8.533100
2269.000000	8.375733
2270.000000	8.280833
2271.000000	8.209033
2272.000000	8.091267
2273.000000	8.228867
2274.000000	8.267267
2275.000000	8.387067
2276.000000	8.597300
2277.000000	8.591467
2278.000000	8.434033
2279.000000	8.536167
2280.000000	8.793867
2281.000000	8.660267
2282.000000	8.467833
2283.000000	8.633400
2284.000000	8.623933
2285.000000	8.517467
2286.000000	8.621667
2287.000000	8.714767
2288.000000	8.676767
2289.000000	8.762300
2290.000000	8.903533
2291.000000	8.836967
2292.000000	8.848833
2293.000000	8.610533
2294.000000	8.502433
2295.000000	8.529400
2296.000000	8.695933
2297.000000	8.774933
2298.000000	8.456767
2299.000000	8.407933
2300.000000	8.498500
2301.000000	8.265000
2302.000000	8.335967
2303.000000	8.481933
2304.000000	8.351133
2305.000000	8.418100
2306.000000	8.395733
2307.000000	8.376500
2308.000000	8.335267
2309.000000	8.311900
2310.000000	8.494967
2311.000000	8.546467
2312.000000	8.400433
2313.000000	8.542767
2314.000000	8.747967
2315.000000	8.555800
2316.000000	8.523667
2317.000000	8.754600
2318.000000	8.898667
2319.000000	8.874867
2320.000000	8.892733
2321.000000	9.024167
2322.000000	9.330400
2323.000000	9.355767
2324.000000	9.139533
2325.000000	9.328833
2326.000000	9.310033
2327.000000	9.311333
2328.000000	9.460600
2329.000000	9.603867
2330.000000	9.658100
2331.000000	9.505467
2332.000000	9.508267
2333.000000	9.225300
2334.000000	9.485667
2335.000000	9.772967
2336.000000	9.488533
2337.000000	9.569867
2338.000000	9.512333
2339.000000	9.587167
2340.000000	9.568667
2341.000000	9.491200
2342.000000	9.486433
2343.000000	9.667633
2344.000000	9.684233
2345.000000	9.562767
2346.000000	9.355800
2347.000000	9.293400
2348.000000	9.610200
2349.000000	9.639500
2350.000000	9.400300
2351.000000	9.395267
2352.000000	9.342800
2353.000000	9.252833
2354.000000	9.168767
2355.000000	9.854900
2356.000000	9.375567
2357.000000	9.223333
2358.000000	9.796400
2359.000000	10.008333
2360.000000	9.879233
2361.000000	9.611233
2362.000000	9.564567
2363.000000	9.556533
2364.000000	9.858000
2365.000000	10.303900
2366.000000	9.900100
2367.000000	10.170367
2368.000000	10.213133
2369.000000	10.210467
2370.000000	10.180833
2371.000000	10.282533
2372.000000	10.259167
2373.000000	10.118233
2374.000000	10.116400
2375.000000	10.430133
2376.000000	10.394233
2377.000000	9.778233
2378.000000	10.147467
2379.000000	10.315333
2380.000000	10.423100
2381.000000	10.461400
2382.000000	10.405167
2383.000000	10.522400
2384.000000	10.262433
2385.000000	10.483800
2386.000000	10.446633
2387.000000	10.907467
2388.000000	10.126467
2389.000000	10.197167
2390.000000	10.200900
2391.000000	10.609033
2392.000000	10.168233
2393.000000	10.494367
2394.000000	10.454900
2395.000000	10.957667
2396.000000	10.473033
2397.000000	9.822500
2398.000000	10.265767
2399.000000	10.593167
2400.000000	10.173700
2401.000000	7.498900
2402.000000	7.465600
2403.000000	7.437500
2404.000000	7.414700
2405.000000	7.400200
2406.000000	7.356900
2407.000000	7.347500
2408.000000	7.337900
2409.000000	7.307400
2410.000000	7.286200
2411.000000	7.280100
2412.000000	7.271900
2413.000000	7.258000
2414.000000	7.226000
2415.000000	7.188700
2416.000000	7.169200
2417.000000	7.151700
2418.000000	7.149200
2419.000000	7.111500
2420.000000	7.076200
2421.000000	7.076900
2422.000000	7.047700
2423.000000	7.040300
2424.000000	7.022000
2425.000000	6.985100
2426.000000	6.946700
2427.000000	6.885700
2428.000000	6.840500
2429.000000	6.785600
2430.000000	6.763300
2431.000000	6.733500
2432.000000	6.733000
2433.000000	6.702700
2434.000000	6.668200
2435.000000	6.642900
2436.000000	6.626000
2437.000000	6.602000
2438.000000	6.565100
2439.000000	6.558300
2440.000000	6.524600
2441.000000	6.489100
2442.000000	6.465100
2443.000000	6.424500
2444.000000	6.414600
2445.000000	6.369200
2446.000000	6.327300
2447.000000	6.289100
2448.000000	6.287800
2449.000000	6.241700
2450.000000	6.218800
2451.000000	6.198600
2452.000000	6.185800
2453.000000	6.135300
2454.000000	6.110700
2455.000000	6.082600
2456.000000	6.042900
2457.000000	6.032100
2458.000000	6.042100
2459.000000	6.009100
2460.000000	5.993700
2461.000000	5.990000
2462.000000	5.995200
2463.000000	5.983400
2464.000000	5.962800
2465.000000	5.929200
2466.000000	5.921500
2467.000000	5.929700
2468.000000	5.916700
2469.000000	5.945000
2470.000000	5.946500
2471.000000	5.895300
2472.000000	5.966200
2473.000000	5.934700
2474.000000	5.905200
2475.000000	5.925600
2476.000000	5.939000
2477.000000	5.913600
2478.000000	5.915800
2479.000000	5.945100
2480.000000	5.956200
2481.000000	5.993700
2482.000000	5.990300
2483.000000	5.984200
2484.000000	5.968300
2485.000000	6.001500
2486.000000	6.007900
2487.000000	5.998400
2488.000000	5.954200
2489.000000	5.995500
2490.000000	6.022100
2491.000000	5.970200
2492.000000	6.073800
2493.000000	6.038100
2494.000000	6.068500
2495.000000	6.041100
2496.000000	6.082900
2497.000000	6.052600
2498.000000	6.230000
2499.000000	6.113700
2500.000000	6.257500
