PE UV       SUBTECH     SPECTRUM    ASCII       PEDS        4.00        
   -1
CICIMAUCR0098-1.ASC
24/04/03
14:55:53.00
24/04/03
14:55:53.00
Vinicio Soto Monge
C. cupreomarginata
250,000000
1
Lambda 1050
1050L1511233
PerkinElmer UV WinLab 6.3.2.0749 / 2.02.05 Lambda 900 UV/VIS/NIR, Aug  7 2015 09:38:08

0
0
3350/servo 860,8/2
0
0
UV/VIS
1
1
1
DoubleDePol,CommonBeamDepol,RBeamAtt,SBeamAtt,60mm sphere, WB InGaAs Detector
0
0
0
0
Program
Program
3350/servo 860,8/2
3350/0,2 860,8/0,2
3350/0,2 860,8/0,2
0
15.00
 
 
 
0
 
860,8
319,2
860,8
Front
100
on
S:100 R:100
0
0
0
0
 
0
 
 
 
0
 
 
0
0
0
0
0
 
 
 
 
0
0


0
0
#HDR
-1
-1
#GR
nm
%R
1.0
0.0
2500,000000
-1,000000
2251
8
55,162100
5,208800
#DATA

250.000000	nan
251.000000	nan
252.000000	nan
253.000000	nan
254.000000	nan
255.000000	nan
256.000000	nan
257.000000	nan
258.000000	nan
259.000000	5.564732
260.000000	5.545184
261.000000	5.521092
262.000000	5.501836
263.000000	5.490482
264.000000	5.473351
265.000000	5.453606
266.000000	5.433728
267.000000	5.409176
268.000000	5.385620
269.000000	5.362545
270.000000	5.343768
271.000000	5.323966
272.000000	5.311831
273.000000	5.293685
274.000000	5.277194
275.000000	5.263347
276.000000	5.249067
277.000000	5.239011
278.000000	5.226650
279.000000	5.211034
280.000000	5.200225
281.000000	5.181750
282.000000	5.169041
283.000000	5.155184
284.000000	5.138609
285.000000	5.131864
286.000000	5.119728
287.000000	5.109494
288.000000	5.104131
289.000000	5.099315
290.000000	5.092975
291.000000	5.098741
292.000000	5.088149
293.000000	5.089287
294.000000	5.091196
295.000000	5.084687
296.000000	5.082156
297.000000	5.079457
298.000000	5.064716
299.000000	5.058610
300.000000	5.054575
301.000000	5.050116
302.000000	5.052232
303.000000	5.042872
304.000000	5.042505
305.000000	5.039354
306.000000	5.038865
307.000000	5.029664
308.000000	5.031988
309.000000	5.032477
310.000000	5.033916
311.000000	5.026494
312.000000	5.022647
313.000000	5.020671
314.000000	5.019599
315.000000	5.012647
316.000000	5.007699
317.000000	5.035572
318.000000	5.051461
319.000000	5.085054
320.000000	5.129088
321.000000	5.147432
322.000000	5.179322
323.000000	5.184750
324.000000	5.212200
325.000000	5.236348
326.000000	5.248286
327.000000	5.232586
328.000000	5.222003
329.000000	5.194750
330.000000	5.156134
331.000000	5.142964
332.000000	5.134055
333.000000	5.130255
334.000000	5.099023
335.000000	5.081234
336.000000	5.065308
337.000000	5.045638
338.000000	5.043483
339.000000	5.034782
340.000000	5.025318
341.000000	5.023907
342.000000	5.007802
343.000000	5.011462
344.000000	5.008734
345.000000	5.005422
346.000000	5.017172
347.000000	5.030737
348.000000	5.034095
349.000000	5.024256
350.000000	5.026786
351.000000	5.026156
352.000000	5.019947
353.000000	5.012525
354.000000	5.013070
355.000000	5.023136
356.000000	5.017915
357.000000	5.016918
358.000000	5.015319
359.000000	5.033164
360.000000	5.032289
361.000000	5.031555
362.000000	5.033804
363.000000	5.042957
364.000000	5.045685
365.000000	5.046353
366.000000	5.057933
367.000000	5.067246
368.000000	5.074066
369.000000	5.078817
370.000000	5.092457
371.000000	5.106502
372.000000	5.113623
373.000000	5.120838
374.000000	5.132136
375.000000	5.145664
376.000000	5.152484
377.000000	5.152164
378.000000	5.153331
379.000000	5.155598
380.000000	5.156275
381.000000	5.158015
382.000000	5.167385
383.000000	5.173500
384.000000	5.181750
385.000000	5.183048
386.000000	5.188598
387.000000	5.205305
388.000000	5.222727
389.000000	5.240723
390.000000	5.260910
391.000000	5.281314
392.000000	5.302367
393.000000	5.323853
394.000000	5.345866
395.000000	5.368330
396.000000	5.391622
397.000000	5.416748
398.000000	5.444010
399.000000	5.473389
400.000000	5.504583
401.000000	5.537865
402.000000	5.573330
403.000000	5.612078
404.000000	5.656169
405.000000	5.703430
406.000000	5.754784
407.000000	5.809166
408.000000	5.869833
409.000000	5.935542
410.000000	6.006283
411.000000	6.084230
412.000000	6.169685
413.000000	6.262900
414.000000	6.362926
415.000000	6.470110
416.000000	6.584585
417.000000	6.706511
418.000000	6.834147
419.000000	6.969233
420.000000	7.112710
421.000000	7.263252
422.000000	7.419589
423.000000	7.582426
424.000000	7.751425
425.000000	7.926454
426.000000	8.107861
427.000000	8.295335
428.000000	8.487579
429.000000	8.682494
430.000000	8.879865
431.000000	9.079268
432.000000	9.280345
433.000000	9.482870
434.000000	9.687249
435.000000	9.892381
436.000000	10.097418
437.000000	10.301722
438.000000	10.505396
439.000000	10.710151
440.000000	10.913674
441.000000	11.116520
442.000000	11.319638
443.000000	11.518834
444.000000	11.712715
445.000000	11.904018
446.000000	12.093740
447.000000	12.278552
448.000000	12.457278
449.000000	12.630397
450.000000	12.798662
451.000000	12.962939
452.000000	13.121072
453.000000	13.273402
454.000000	13.423379
455.000000	13.570074
456.000000	13.709826
457.000000	13.845834
458.000000	13.979208
459.000000	14.109591
460.000000	14.236944
461.000000	14.357854
462.000000	14.473486
463.000000	14.586438
464.000000	14.693528
465.000000	14.793507
466.000000	14.888434
467.000000	14.977868
468.000000	15.061506
469.000000	15.138974
470.000000	15.210732
471.000000	15.279234
472.000000	15.343729
473.000000	15.404066
474.000000	15.461045
475.000000	15.513180
476.000000	15.561551
477.000000	15.604777
478.000000	15.643656
479.000000	15.677014
480.000000	15.702921
481.000000	15.720936
482.000000	15.731679
483.000000	15.735846
484.000000	15.734087
485.000000	15.728433
486.000000	15.721152
487.000000	15.716025
488.000000	15.716279
489.000000	15.727831
490.000000	15.756015
491.000000	15.806202
492.000000	15.883105
493.000000	15.991164
494.000000	16.134068
495.000000	16.314854
496.000000	16.534933
497.000000	16.795294
498.000000	17.095089
499.000000	17.430312
500.000000	17.796907
501.000000	18.191950
502.000000	18.611479
503.000000	19.046436
504.000000	19.494750
505.000000	19.953093
506.000000	20.413619
507.000000	20.874680
508.000000	21.331527
509.000000	21.783370
510.000000	22.232992
511.000000	22.679049
512.000000	23.121795
513.000000	23.567373
514.000000	24.016309
515.000000	24.469346
516.000000	24.932524
517.000000	25.405805
518.000000	25.894288
519.000000	26.402320
520.000000	26.930115
521.000000	27.479284
522.000000	28.052648
523.000000	28.648617
524.000000	29.266551
525.000000	29.907326
526.000000	30.568392
527.000000	31.252901
528.000000	31.958594
529.000000	32.682303
530.000000	33.424515
531.000000	34.180725
532.000000	34.950650
533.000000	35.730462
534.000000	36.515467
535.000000	37.302043
536.000000	38.092297
537.000000	38.879616
538.000000	39.660539
539.000000	40.434801
540.000000	41.197294
541.000000	41.948227
542.000000	42.680401
543.000000	43.391353
544.000000	44.073369
545.000000	44.724605
546.000000	45.331590
547.000000	45.890325
548.000000	46.395835
549.000000	46.841149
550.000000	47.223539
551.000000	47.547840
552.000000	47.816695
553.000000	48.039992
554.000000	48.230138
555.000000	48.395844
556.000000	48.549717
557.000000	48.698358
558.000000	48.847668
559.000000	49.001832
560.000000	49.158235
561.000000	49.313339
562.000000	49.461304
563.000000	49.594019
564.000000	49.701872
565.000000	49.776668
566.000000	49.810261
567.000000	49.804946
568.000000	49.763404
569.000000	49.686265
570.000000	49.581997
571.000000	49.457973
572.000000	49.324947
573.000000	49.192777
574.000000	49.078387
575.000000	48.984372
576.000000	48.926246
577.000000	48.900000
578.000000	48.907291
579.000000	48.944082
580.000000	49.007523
581.000000	49.085358
582.000000	49.166758
583.000000	49.242033
584.000000	49.291185
585.000000	49.309558
586.000000	49.284497
587.000000	49.213887
588.000000	49.091077
589.000000	48.918833
590.000000	48.697013
591.000000	48.432429
592.000000	48.139548
593.000000	47.820336
594.000000	47.489986
595.000000	47.153785
596.000000	46.821874
597.000000	46.495871
598.000000	46.187327
599.000000	45.890175
600.000000	45.606089
601.000000	45.333132
602.000000	45.062546
603.000000	44.788282
604.000000	44.500396
605.000000	44.200215
606.000000	43.873920
607.000000	43.521002
608.000000	43.124125
609.000000	42.695377
610.000000	42.229471
611.000000	41.728091
612.000000	41.195460
613.000000	40.646912
614.000000	40.087499
615.000000	39.514408
616.000000	38.943321
617.000000	38.378969
618.000000	37.841174
619.000000	37.325382
620.000000	36.845045
621.000000	36.406495
622.000000	36.012440
623.000000	35.665412
624.000000	35.376707
625.000000	35.153279
626.000000	34.995080
627.000000	34.904075
628.000000	34.873860
629.000000	34.909456
630.000000	35.001759
631.000000	35.142104
632.000000	35.325128
633.000000	35.537231
634.000000	35.764939
635.000000	36.002008
636.000000	36.235709
637.000000	36.460812
638.000000	36.674278
639.000000	36.871047
640.000000	37.050055
641.000000	37.211763
642.000000	37.359267
643.000000	37.491512
644.000000	37.613983
645.000000	37.731036
646.000000	37.846047
647.000000	37.956948
648.000000	38.069109
649.000000	38.181100
650.000000	38.296930
651.000000	38.415196
652.000000	38.532766
653.000000	38.649725
654.000000	38.762864
655.000000	38.871075
656.000000	38.970884
657.000000	39.063563
658.000000	39.144568
659.000000	39.219787
660.000000	39.278487
661.000000	39.323481
662.000000	39.352314
663.000000	39.374045
664.000000	39.385267
665.000000	39.383151
666.000000	39.371316
667.000000	39.357281
668.000000	39.342935
669.000000	39.322738
670.000000	39.310594
671.000000	39.309201
672.000000	39.327527
673.000000	39.356848
674.000000	39.406603
675.000000	39.476206
676.000000	39.567700
677.000000	39.675976
678.000000	39.797657
679.000000	39.934201
680.000000	40.082071
681.000000	40.238493
682.000000	40.395742
683.000000	40.557902
684.000000	40.718792
685.000000	40.876643
686.000000	41.035595
687.000000	41.193701
688.000000	41.354788
689.000000	41.517795
690.000000	41.680547
691.000000	41.845247
692.000000	42.005413
693.000000	42.161909
694.000000	42.318340
695.000000	42.480632
696.000000	42.637693
697.000000	42.792675
698.000000	42.947197
699.000000	43.098049
700.000000	43.238234
701.000000	43.371956
702.000000	43.511031
703.000000	43.648139
704.000000	43.779105
705.000000	43.900476
706.000000	44.016654
707.000000	44.129727
708.000000	44.229932
709.000000	44.322394
710.000000	44.409165
711.000000	44.484225
712.000000	44.545982
713.000000	44.598427
714.000000	44.640317
715.000000	44.674644
716.000000	44.707794
717.000000	44.732479
718.000000	44.755460
719.000000	44.780173
720.000000	44.808554
721.000000	44.840623
722.000000	44.874479
723.000000	44.909191
724.000000	44.949727
725.000000	44.992171
726.000000	45.030882
727.000000	45.073599
728.000000	45.113984
729.000000	45.144388
730.000000	45.168978
731.000000	45.189777
732.000000	45.211969
733.000000	45.239522
734.000000	45.268863
735.000000	45.301873
736.000000	45.339275
737.000000	45.382802
738.000000	45.435454
739.000000	45.498933
740.000000	45.566673
741.000000	45.641404
742.000000	45.724233
743.000000	45.803074
744.000000	45.876760
745.000000	45.948405
746.000000	46.019654
747.000000	46.082682
748.000000	46.140808
749.000000	46.197373
750.000000	46.256328
751.000000	46.305978
752.000000	46.347116
753.000000	46.391978
754.000000	46.440039
755.000000	46.488665
756.000000	46.532078
757.000000	46.574138
758.000000	46.613977
759.000000	46.657108
760.000000	46.703749
761.000000	46.753456
762.000000	46.804480
763.000000	46.856445
764.000000	46.903819
765.000000	46.945898
766.000000	46.998700
767.000000	47.055076
768.000000	47.115207
769.000000	47.174754
770.000000	47.231921
771.000000	47.292399
772.000000	47.352097
773.000000	47.412058
774.000000	47.473345
775.000000	47.538348
776.000000	47.602072
777.000000	47.660810
778.000000	47.719398
779.000000	47.779368
780.000000	47.840401
781.000000	47.896844
782.000000	47.957003
783.000000	48.016954
784.000000	48.070095
785.000000	48.115748
786.000000	48.161852
787.000000	48.210581
788.000000	48.255763
789.000000	48.286157
790.000000	48.301736
791.000000	48.310672
792.000000	48.316570
793.000000	48.317436
794.000000	48.322064
795.000000	48.337182
796.000000	48.345018
797.000000	48.346739
798.000000	48.353936
799.000000	48.376259
800.000000	48.414687
801.000000	48.467856
802.000000	48.512897
803.000000	48.551626
804.000000	48.598154
805.000000	48.644597
806.000000	48.697709
807.000000	48.758903
808.000000	48.818130
809.000000	48.870678
810.000000	48.924393
811.000000	48.971447
812.000000	49.032066
813.000000	49.106458
814.000000	49.191291
815.000000	49.283594
816.000000	49.383243
817.000000	49.485602
818.000000	49.583079
819.000000	49.695607
820.000000	49.814814
821.000000	49.926768
822.000000	50.023031
823.000000	50.121890
824.000000	50.206122
825.000000	50.285273
826.000000	50.353051
827.000000	50.420086
828.000000	50.487319
829.000000	50.528362
830.000000	50.574551
831.000000	50.633506
832.000000	50.688923
833.000000	50.763343
834.000000	50.832786
835.000000	50.895635
836.000000	50.954279
837.000000	50.997401
838.000000	51.054088
839.000000	51.111349
840.000000	51.147049
841.000000	51.167933
842.000000	51.193709
843.000000	51.190990
844.000000	51.208327
845.000000	51.232720
846.000000	51.262813
847.000000	51.281505
848.000000	51.283189
849.000000	51.297084
850.000000	51.309736
851.000000	51.354279
852.000000	51.382481
853.000000	51.413120
854.000000	51.468039
855.000000	51.486580
856.000000	51.461840
857.000000	51.506514
858.000000	51.369180
859.000000	51.503513
860.000000	51.644377
861.000000	51.764816
862.000000	51.913189
863.000000	52.061752
864.000000	52.178020
865.000000	52.325119
866.000000	52.510572
867.000000	52.648282
868.000000	52.967910
869.000000	53.010920
870.000000	53.047870
871.000000	53.080440
872.000000	53.102230
873.000000	53.115940
874.000000	53.117280
875.000000	53.112110
876.000000	53.100270
877.000000	53.083210
878.000000	53.064860
879.000000	53.038250
880.000000	53.009510
881.000000	52.973050
882.000000	52.931880
883.000000	52.886110
884.000000	52.835240
885.000000	52.781050
886.000000	52.724800
887.000000	52.661670
888.000000	52.588420
889.000000	52.512780
890.000000	52.432710
891.000000	52.348380
892.000000	52.258130
893.000000	52.161970
894.000000	52.063310
895.000000	51.957850
896.000000	51.848510
897.000000	51.733310
898.000000	51.618000
899.000000	51.498590
900.000000	51.374020
901.000000	51.250270
902.000000	51.123520
903.000000	50.999250
904.000000	50.874890
905.000000	50.754230
906.000000	50.633100
907.000000	50.520770
908.000000	50.415230
909.000000	50.317090
910.000000	50.226860
911.000000	50.140250
912.000000	50.062710
913.000000	49.990830
914.000000	49.926800
915.000000	49.869660
916.000000	49.815520
917.000000	49.766730
918.000000	49.716420
919.000000	49.666200
920.000000	49.615680
921.000000	49.565990
922.000000	49.513320
923.000000	49.458950
924.000000	49.399930
925.000000	49.333890
926.000000	49.269790
927.000000	49.201430
928.000000	49.130480
929.000000	49.058410
930.000000	48.983430
931.000000	48.910210
932.000000	48.835920
933.000000	48.759680
934.000000	48.684550
935.000000	48.610700
936.000000	48.533440
937.000000	48.453290
938.000000	48.376230
939.000000	48.301790
940.000000	48.228750
941.000000	48.153650
942.000000	48.083140
943.000000	48.016930
944.000000	47.953250
945.000000	47.892900
946.000000	47.838760
947.000000	47.788860
948.000000	47.743460
949.000000	47.700130
950.000000	47.658950
951.000000	47.623290
952.000000	47.588410
953.000000	47.553850
954.000000	47.519830
955.000000	47.484770
956.000000	47.448250
957.000000	47.411090
958.000000	47.369750
959.000000	47.322670
960.000000	47.273090
961.000000	47.220740
962.000000	47.165280
963.000000	47.104830
964.000000	47.041580
965.000000	46.978920
966.000000	46.915860
967.000000	46.855390
968.000000	46.796510
969.000000	46.739200
970.000000	46.682410
971.000000	46.623780
972.000000	46.566460
973.000000	46.511710
974.000000	46.456880
975.000000	46.401650
976.000000	46.343550
977.000000	46.281290
978.000000	46.218000
979.000000	46.154140
980.000000	46.090470
981.000000	46.025280
982.000000	45.957640
983.000000	45.889090
984.000000	45.821270
985.000000	45.751620
986.000000	45.682680
987.000000	45.613250
988.000000	45.542170
989.000000	45.471320
990.000000	45.399910
991.000000	45.331020
992.000000	45.265090
993.000000	45.201000
994.000000	45.138150
995.000000	45.076470
996.000000	45.017200
997.000000	44.959850
998.000000	44.904900
999.000000	44.852700
1000.000000	44.804110
1001.000000	44.755360
1002.000000	44.708170
1003.000000	44.661580
1004.000000	44.616940
1005.000000	44.575250
1006.000000	44.533300
1007.000000	44.493060
1008.000000	44.454380
1009.000000	44.415220
1010.000000	44.375370
1011.000000	44.337340
1012.000000	44.302110
1013.000000	44.272240
1014.000000	44.246230
1015.000000	44.224180
1016.000000	44.209590
1017.000000	44.203850
1018.000000	44.206870
1019.000000	44.219760
1020.000000	44.242090
1021.000000	44.272230
1022.000000	44.309110
1023.000000	44.351460
1024.000000	44.398950
1025.000000	44.454350
1026.000000	44.514630
1027.000000	44.574830
1028.000000	44.636300
1029.000000	44.698220
1030.000000	44.759220
1031.000000	44.822460
1032.000000	44.885410
1033.000000	44.946110
1034.000000	45.005590
1035.000000	45.060830
1036.000000	45.114530
1037.000000	45.166510
1038.000000	45.214320
1039.000000	45.260270
1040.000000	45.304880
1041.000000	45.346630
1042.000000	45.386190
1043.000000	45.424130
1044.000000	45.459520
1045.000000	45.492520
1046.000000	45.523450
1047.000000	45.554630
1048.000000	45.586280
1049.000000	45.616880
1050.000000	45.647450
1051.000000	45.677740
1052.000000	45.707660
1053.000000	45.738610
1054.000000	45.772470
1055.000000	45.809190
1056.000000	45.846870
1057.000000	45.885190
1058.000000	45.925800
1059.000000	45.968620
1060.000000	46.012530
1061.000000	46.055950
1062.000000	46.099900
1063.000000	46.143490
1064.000000	46.186060
1065.000000	46.228380
1066.000000	46.268730
1067.000000	46.307400
1068.000000	46.344770
1069.000000	46.380120
1070.000000	46.412840
1071.000000	46.446210
1072.000000	46.479610
1073.000000	46.513560
1074.000000	46.545120
1075.000000	46.574670
1076.000000	46.605140
1077.000000	46.635570
1078.000000	46.666600
1079.000000	46.698830
1080.000000	46.731350
1081.000000	46.764320
1082.000000	46.798260
1083.000000	46.833750
1084.000000	46.871810
1085.000000	46.912110
1086.000000	46.953380
1087.000000	46.996350
1088.000000	47.041400
1089.000000	47.086210
1090.000000	47.133780
1091.000000	47.180700
1092.000000	47.227420
1093.000000	47.274760
1094.000000	47.321190
1095.000000	47.366740
1096.000000	47.412240
1097.000000	47.456860
1098.000000	47.497020
1099.000000	47.536280
1100.000000	47.574930
1101.000000	47.613420
1102.000000	47.650160
1103.000000	47.684180
1104.000000	47.717340
1105.000000	47.748570
1106.000000	47.776200
1107.000000	47.804050
1108.000000	47.831690
1109.000000	47.857480
1110.000000	47.879900
1111.000000	47.902150
1112.000000	47.923810
1113.000000	47.943550
1114.000000	47.961900
1115.000000	47.979100
1116.000000	47.997260
1117.000000	48.012280
1118.000000	48.026070
1119.000000	48.035870
1120.000000	48.042000
1121.000000	48.041630
1122.000000	48.034070
1123.000000	48.019010
1124.000000	47.994780
1125.000000	47.961690
1126.000000	47.916990
1127.000000	47.861480
1128.000000	47.789360
1129.000000	47.701800
1130.000000	47.594580
1131.000000	47.462110
1132.000000	47.302740
1133.000000	47.116340
1134.000000	46.904680
1135.000000	46.660500
1136.000000	46.379030
1137.000000	46.059790
1138.000000	45.709290
1139.000000	45.331400
1140.000000	44.932540
1141.000000	44.519350
1142.000000	44.094440
1143.000000	43.659750
1144.000000	43.222060
1145.000000	42.790430
1146.000000	42.384350
1147.000000	42.011560
1148.000000	41.680930
1149.000000	41.397420
1150.000000	41.162120
1151.000000	40.972480
1152.000000	40.828170
1153.000000	40.724990
1154.000000	40.649320
1155.000000	40.592930
1156.000000	40.534630
1157.000000	40.461330
1158.000000	40.357170
1159.000000	40.211920
1160.000000	40.019890
1161.000000	39.784580
1162.000000	39.504430
1163.000000	39.181080
1164.000000	38.821580
1165.000000	38.430720
1166.000000	38.019820
1167.000000	37.593550
1168.000000	37.163860
1169.000000	36.731310
1170.000000	36.297580
1171.000000	35.866070
1172.000000	35.438040
1173.000000	35.018070
1174.000000	34.605460
1175.000000	34.206480
1176.000000	33.817520
1177.000000	33.436380
1178.000000	33.052900
1179.000000	32.662940
1180.000000	32.263310
1181.000000	31.847170
1182.000000	31.416740
1183.000000	30.973470
1184.000000	30.532110
1185.000000	30.098060
1186.000000	29.688280
1187.000000	29.321150
1188.000000	29.010530
1189.000000	28.779010
1190.000000	28.642390
1191.000000	28.608710
1192.000000	28.680300
1193.000000	28.849690
1194.000000	29.098940
1195.000000	29.409010
1196.000000	29.755520
1197.000000	30.117270
1198.000000	30.479570
1199.000000	30.823060
1200.000000	31.129990
1201.000000	31.395360
1202.000000	31.611980
1203.000000	31.780570
1204.000000	31.906850
1205.000000	31.997540
1206.000000	32.063760
1207.000000	32.114050
1208.000000	32.155100
1209.000000	32.193420
1210.000000	32.235940
1211.000000	32.283160
1212.000000	32.340560
1213.000000	32.408530
1214.000000	32.487000
1215.000000	32.579860
1216.000000	32.686410
1217.000000	32.805010
1218.000000	32.933820
1219.000000	33.070920
1220.000000	33.216030
1221.000000	33.369960
1222.000000	33.531930
1223.000000	33.704970
1224.000000	33.887160
1225.000000	34.076060
1226.000000	34.271110
1227.000000	34.471520
1228.000000	34.678030
1229.000000	34.888520
1230.000000	35.103290
1231.000000	35.321030
1232.000000	35.538880
1233.000000	35.751250
1234.000000	35.957960
1235.000000	36.164810
1236.000000	36.367640
1237.000000	36.569050
1238.000000	36.765290
1239.000000	36.955160
1240.000000	37.135960
1241.000000	37.311040
1242.000000	37.482920
1243.000000	37.657100
1244.000000	37.830220
1245.000000	37.996890
1246.000000	38.157190
1247.000000	38.308700
1248.000000	38.455480
1249.000000	38.599760
1250.000000	38.741280
1251.000000	38.873500
1252.000000	38.997130
1253.000000	39.111130
1254.000000	39.217650
1255.000000	39.317430
1256.000000	39.412810
1257.000000	39.503710
1258.000000	39.590380
1259.000000	39.670360
1260.000000	39.746240
1261.000000	39.821320
1262.000000	39.892180
1263.000000	39.959420
1264.000000	40.026580
1265.000000	40.091630
1266.000000	40.155160
1267.000000	40.217450
1268.000000	40.278560
1269.000000	40.340290
1270.000000	40.401800
1271.000000	40.462230
1272.000000	40.523530
1273.000000	40.586490
1274.000000	40.648290
1275.000000	40.710270
1276.000000	40.773420
1277.000000	40.838420
1278.000000	40.904160
1279.000000	40.971000
1280.000000	41.040820
1281.000000	41.113620
1282.000000	41.188240
1283.000000	41.264100
1284.000000	41.343940
1285.000000	41.426500
1286.000000	41.509920
1287.000000	41.592300
1288.000000	41.674000
1289.000000	41.755800
1290.000000	41.834420
1291.000000	41.908630
1292.000000	41.979600
1293.000000	42.046420
1294.000000	42.105210
1295.000000	42.157850
1296.000000	42.206380
1297.000000	42.250460
1298.000000	42.288670
1299.000000	42.322420
1300.000000	42.353120
1301.000000	42.380210
1302.000000	42.403580
1303.000000	42.423570
1304.000000	42.441550
1305.000000	42.455940
1306.000000	42.466130
1307.000000	42.472820
1308.000000	42.476120
1309.000000	42.473290
1310.000000	42.463500
1311.000000	42.448910
1312.000000	42.429200
1313.000000	42.403160
1314.000000	42.371170
1315.000000	42.334270
1316.000000	42.289470
1317.000000	42.238060
1318.000000	42.182100
1319.000000	42.120180
1320.000000	42.052040
1321.000000	41.979420
1322.000000	41.901290
1323.000000	41.817180
1324.000000	41.727210
1325.000000	41.631080
1326.000000	41.529710
1327.000000	41.423390
1328.000000	41.308270
1329.000000	41.185530
1330.000000	41.056740
1331.000000	40.919770
1332.000000	40.774190
1333.000000	40.620840
1334.000000	40.457200
1335.000000	40.282130
1336.000000	40.098720
1337.000000	39.905090
1338.000000	39.700940
1339.000000	39.486880
1340.000000	39.262590
1341.000000	39.025950
1342.000000	38.777260
1343.000000	38.516470
1344.000000	38.243940
1345.000000	37.956280
1346.000000	37.651760
1347.000000	37.332410
1348.000000	36.997100
1349.000000	36.641910
1350.000000	36.263130
1351.000000	35.857190
1352.000000	35.421310
1353.000000	34.953970
1354.000000	34.460360
1355.000000	33.949200
1356.000000	33.427540
1357.000000	32.911660
1358.000000	32.420170
1359.000000	31.964410
1360.000000	31.552970
1361.000000	31.192310
1362.000000	30.883860
1363.000000	30.619660
1364.000000	30.397280
1365.000000	30.211210
1366.000000	30.048840
1367.000000	29.892890
1368.000000	29.725840
1369.000000	29.535780
1370.000000	29.312450
1371.000000	29.049900
1372.000000	28.747730
1373.000000	28.408870
1374.000000	28.037780
1375.000000	27.639480
1376.000000	27.227220
1377.000000	26.806520
1378.000000	26.387350
1379.000000	25.979810
1380.000000	25.584700
1381.000000	25.220020
1382.000000	24.881950
1383.000000	24.574930
1384.000000	24.291840
1385.000000	24.026830
1386.000000	23.776990
1387.000000	23.546630
1388.000000	23.329920
1389.000000	23.125190
1390.000000	22.938730
1391.000000	22.764210
1392.000000	22.609880
1393.000000	22.480400
1394.000000	22.376870
1395.000000	22.310200
1396.000000	22.267630
1397.000000	22.233170
1398.000000	22.203370
1399.000000	22.175840
1400.000000	22.150570
1401.000000	22.114270
1402.000000	22.055990
1403.000000	21.975370
1404.000000	21.875470
1405.000000	21.749820
1406.000000	21.602570
1407.000000	21.441760
1408.000000	21.270200
1409.000000	21.088560
1410.000000	20.897040
1411.000000	20.704510
1412.000000	20.520340
1413.000000	20.350740
1414.000000	20.193780
1415.000000	20.044100
1416.000000	19.902960
1417.000000	19.771970
1418.000000	19.651100
1419.000000	19.540980
1420.000000	19.434080
1421.000000	19.329260
1422.000000	19.225780
1423.000000	19.120080
1424.000000	19.010690
1425.000000	18.900940
1426.000000	18.789230
1427.000000	18.676260
1428.000000	18.564450
1429.000000	18.448430
1430.000000	18.337290
1431.000000	18.231580
1432.000000	18.134290
1433.000000	18.038520
1434.000000	17.946320
1435.000000	17.858150
1436.000000	17.779480
1437.000000	17.706200
1438.000000	17.635180
1439.000000	17.569370
1440.000000	17.508260
1441.000000	17.445230
1442.000000	17.380400
1443.000000	17.315230
1444.000000	17.250970
1445.000000	17.189800
1446.000000	17.129530
1447.000000	17.066240
1448.000000	17.000890
1449.000000	16.934770
1450.000000	16.869480
1451.000000	16.806530
1452.000000	16.747670
1453.000000	16.690530
1454.000000	16.632440
1455.000000	16.574550
1456.000000	16.516330
1457.000000	16.462020
1458.000000	16.410150
1459.000000	16.363320
1460.000000	16.314470
1461.000000	16.269960
1462.000000	16.223150
1463.000000	16.178710
1464.000000	16.139810
1465.000000	16.101580
1466.000000	16.067040
1467.000000	16.034450
1468.000000	16.005710
1469.000000	15.977140
1470.000000	15.952320
1471.000000	15.928850
1472.000000	15.906760
1473.000000	15.886490
1474.000000	15.865130
1475.000000	15.843910
1476.000000	15.820960
1477.000000	15.799430
1478.000000	15.778400
1479.000000	15.755980
1480.000000	15.731840
1481.000000	15.706020
1482.000000	15.683710
1483.000000	15.662410
1484.000000	15.641420
1485.000000	15.621460
1486.000000	15.604010
1487.000000	15.587040
1488.000000	15.569530
1489.000000	15.551710
1490.000000	15.535490
1491.000000	15.521620
1492.000000	15.506150
1493.000000	15.491090
1494.000000	15.477270
1495.000000	15.465360
1496.000000	15.451440
1497.000000	15.438710
1498.000000	15.427130
1499.000000	15.418790
1500.000000	15.409490
1501.000000	15.400120
1502.000000	15.392850
1503.000000	15.385690
1504.000000	15.379540
1505.000000	15.371890
1506.000000	15.367320
1507.000000	15.363110
1508.000000	15.359170
1509.000000	15.355700
1510.000000	15.356710
1511.000000	15.357380
1512.000000	15.355410
1513.000000	15.352450
1514.000000	15.350670
1515.000000	15.350470
1516.000000	15.348160
1517.000000	15.346440
1518.000000	15.346970
1519.000000	15.346470
1520.000000	15.342960
1521.000000	15.339070
1522.000000	15.338050
1523.000000	15.338050
1524.000000	15.336570
1525.000000	15.334400
1526.000000	15.332490
1527.000000	15.329960
1528.000000	15.324790
1529.000000	15.319870
1530.000000	15.315300
1531.000000	15.311600
1532.000000	15.305730
1533.000000	15.299520
1534.000000	15.294130
1535.000000	15.288560
1536.000000	15.283220
1537.000000	15.276970
1538.000000	15.270490
1539.000000	15.263560
1540.000000	15.256730
1541.000000	15.249690
1542.000000	15.243960
1543.000000	15.239790
1544.000000	15.236190
1545.000000	15.232950
1546.000000	15.230730
1547.000000	15.228300
1548.000000	15.226560
1549.000000	15.225610
1550.000000	15.226170
1551.000000	15.227710
1552.000000	15.231290
1553.000000	15.233270
1554.000000	15.233230
1555.000000	15.232720
1556.000000	15.231090
1557.000000	15.228930
1558.000000	15.224320
1559.000000	15.218380
1560.000000	15.209290
1561.000000	15.196980
1562.000000	15.182120
1563.000000	15.167090
1564.000000	15.151060
1565.000000	15.133800
1566.000000	15.116260
1567.000000	15.097410
1568.000000	15.080170
1569.000000	15.064090
1570.000000	15.046570
1571.000000	15.029730
1572.000000	15.014140
1573.000000	14.998670
1574.000000	14.984000
1575.000000	14.971540
1576.000000	14.960690
1577.000000	14.952010
1578.000000	14.944310
1579.000000	14.937510
1580.000000	14.933920
1581.000000	14.933890
1582.000000	14.934580
1583.000000	14.937250
1584.000000	14.942160
1585.000000	14.946330
1586.000000	14.948830
1587.000000	14.953730
1588.000000	14.961660
1589.000000	14.970900
1590.000000	14.982850
1591.000000	14.993750
1592.000000	15.006010
1593.000000	15.020980
1594.000000	15.036830
1595.000000	15.054830
1596.000000	15.077880
1597.000000	15.102380
1598.000000	15.127810
1599.000000	15.155530
1600.000000	15.184000
1601.000000	15.213540
1602.000000	15.243510
1603.000000	15.275640
1604.000000	15.311050
1605.000000	15.349550
1606.000000	15.388000
1607.000000	15.428460
1608.000000	15.469690
1609.000000	15.510700
1610.000000	15.552870
1611.000000	15.597010
1612.000000	15.642280
1613.000000	15.685520
1614.000000	15.729870
1615.000000	15.775610
1616.000000	15.822200
1617.000000	15.869720
1618.000000	15.917350
1619.000000	15.964410
1620.000000	16.013310
1621.000000	16.063270
1622.000000	16.115160
1623.000000	16.167090
1624.000000	16.218780
1625.000000	16.268600
1626.000000	16.319250
1627.000000	16.369840
1628.000000	16.421930
1629.000000	16.476800
1630.000000	16.528940
1631.000000	16.580160
1632.000000	16.631330
1633.000000	16.685440
1634.000000	16.738400
1635.000000	16.792150
1636.000000	16.847350
1637.000000	16.900760
1638.000000	16.950860
1639.000000	16.999820
1640.000000	17.051380
1641.000000	17.103690
1642.000000	17.153350
1643.000000	17.199330
1644.000000	17.243870
1645.000000	17.287550
1646.000000	17.327510
1647.000000	17.367600
1648.000000	17.406370
1649.000000	17.444020
1650.000000	17.478560
1651.000000	17.510020
1652.000000	17.539000
1653.000000	17.568650
1654.000000	17.595620
1655.000000	17.617990
1656.000000	17.639000
1657.000000	17.652880
1658.000000	17.665840
1659.000000	17.673300
1660.000000	17.677390
1661.000000	17.676460
1662.000000	17.672050
1663.000000	17.660190
1664.000000	17.643360
1665.000000	17.623310
1666.000000	17.595500
1667.000000	17.564550
1668.000000	17.523970
1669.000000	17.475920
1670.000000	17.417370
1671.000000	17.351820
1672.000000	17.273390
1673.000000	17.184950
1674.000000	17.080890
1675.000000	16.959560
1676.000000	16.819220
1677.000000	16.657150
1678.000000	16.476430
1679.000000	16.273710
1680.000000	16.051240
1681.000000	15.812320
1682.000000	15.564040
1683.000000	15.314430
1684.000000	15.074420
1685.000000	14.847290
1686.000000	14.644700
1687.000000	14.470260
1688.000000	14.319070
1689.000000	14.194710
1690.000000	14.093950
1691.000000	14.009060
1692.000000	13.940940
1693.000000	13.877270
1694.000000	13.814250
1695.000000	13.756070
1696.000000	13.696890
1697.000000	13.635970
1698.000000	13.579910
1699.000000	13.535070
1700.000000	13.500330
1701.000000	13.484000
1702.000000	13.475190
1703.000000	13.480640
1704.000000	13.496490
1705.000000	13.514420
1706.000000	13.533420
1707.000000	13.552590
1708.000000	13.569550
1709.000000	13.578650
1710.000000	13.581850
1711.000000	13.574140
1712.000000	13.564160
1713.000000	13.545690
1714.000000	13.522210
1715.000000	13.495850
1716.000000	13.465120
1717.000000	13.432570
1718.000000	13.398370
1719.000000	13.361640
1720.000000	13.324690
1721.000000	13.288540
1722.000000	13.254110
1723.000000	13.220520
1724.000000	13.188450
1725.000000	13.156250
1726.000000	13.123690
1727.000000	13.086190
1728.000000	13.044870
1729.000000	12.998590
1730.000000	12.949330
1731.000000	12.894960
1732.000000	12.841080
1733.000000	12.791790
1734.000000	12.745940
1735.000000	12.710260
1736.000000	12.687970
1737.000000	12.683380
1738.000000	12.696530
1739.000000	12.731790
1740.000000	12.786780
1741.000000	12.864130
1742.000000	12.954060
1743.000000	13.054140
1744.000000	13.163920
1745.000000	13.277690
1746.000000	13.390420
1747.000000	13.498840
1748.000000	13.601850
1749.000000	13.695000
1750.000000	13.776950
1751.000000	13.846330
1752.000000	13.905390
1753.000000	13.952780
1754.000000	13.990880
1755.000000	14.017870
1756.000000	14.034010
1757.000000	14.040460
1758.000000	14.037640
1759.000000	14.025890
1760.000000	14.009240
1761.000000	13.986220
1762.000000	13.959490
1763.000000	13.931230
1764.000000	13.903650
1765.000000	13.880970
1766.000000	13.868830
1767.000000	13.867650
1768.000000	13.878060
1769.000000	13.902570
1770.000000	13.939220
1771.000000	13.990830
1772.000000	14.053740
1773.000000	14.129870
1774.000000	14.212500
1775.000000	14.299850
1776.000000	14.388670
1777.000000	14.478190
1778.000000	14.567140
1779.000000	14.654500
1780.000000	14.739600
1781.000000	14.819360
1782.000000	14.895310
1783.000000	14.965920
1784.000000	15.033950
1785.000000	15.101890
1786.000000	15.165820
1787.000000	15.227800
1788.000000	15.287430
1789.000000	15.344400
1790.000000	15.397020
1791.000000	15.448370
1792.000000	15.498830
1793.000000	15.548720
1794.000000	15.596290
1795.000000	15.638830
1796.000000	15.679800
1797.000000	15.717530
1798.000000	15.755100
1799.000000	15.792680
1800.000000	15.829970
1801.000000	15.868030
1802.000000	15.905740
1803.000000	15.942370
1804.000000	15.978610
1805.000000	16.014470
1806.000000	16.050010
1807.000000	16.086900
1808.000000	16.123540
1809.000000	16.158480
1810.000000	16.193500
1811.000000	16.227480
1812.000000	16.259350
1813.000000	16.288200
1814.000000	16.314650
1815.000000	16.339590
1816.000000	16.363460
1817.000000	16.383780
1818.000000	16.400980
1819.000000	16.417860
1820.000000	16.437080
1821.000000	16.455760
1822.000000	16.474010
1823.000000	16.493710
1824.000000	16.514990
1825.000000	16.537890
1826.000000	16.564040
1827.000000	16.596320
1828.000000	16.635020
1829.000000	16.679040
1830.000000	16.724030
1831.000000	16.771090
1832.000000	16.822170
1833.000000	16.877260
1834.000000	16.935980
1835.000000	16.999110
1836.000000	17.064150
1837.000000	17.126950
1838.000000	17.186850
1839.000000	17.243130
1840.000000	17.297620
1841.000000	17.351170
1842.000000	17.402930
1843.000000	17.450370
1844.000000	17.493600
1845.000000	17.533100
1846.000000	17.574040
1847.000000	17.618170
1848.000000	17.665110
1849.000000	17.715140
1850.000000	17.763110
1851.000000	17.810450
1852.000000	17.860330
1853.000000	17.915460
1854.000000	17.975730
1855.000000	18.036530
1856.000000	18.093330
1857.000000	18.146760
1858.000000	18.195300
1859.000000	18.239790
1860.000000	18.283980
1861.000000	18.324410
1862.000000	18.357770
1863.000000	18.382380
1864.000000	18.398350
1865.000000	18.408230
1866.000000	18.410180
1867.000000	18.405290
1868.000000	18.394420
1869.000000	18.373430
1870.000000	18.340100
1871.000000	18.295590
1872.000000	18.238800
1873.000000	18.167740
1874.000000	18.081990
1875.000000	17.979230
1876.000000	17.860050
1877.000000	17.722430
1878.000000	17.565770
1879.000000	17.390830
1880.000000	17.201650
1881.000000	16.999110
1882.000000	16.785660
1883.000000	16.564950
1884.000000	16.337230
1885.000000	16.105260
1886.000000	15.873020
1887.000000	15.644560
1888.000000	15.423440
1889.000000	15.212580
1890.000000	15.014020
1891.000000	14.828180
1892.000000	14.653620
1893.000000	14.488840
1894.000000	14.335260
1895.000000	14.192780
1896.000000	14.061460
1897.000000	13.936340
1898.000000	13.813270
1899.000000	13.697010
1900.000000	13.580880
1901.000000	13.464340
1902.000000	13.348840
1903.000000	13.237020
1904.000000	13.125780
1905.000000	13.016510
1906.000000	12.904730
1907.000000	12.794500
1908.000000	12.687380
1909.000000	12.576660
1910.000000	12.468960
1911.000000	12.364090
1912.000000	12.262630
1913.000000	12.163600
1914.000000	12.067300
1915.000000	11.972390
1916.000000	11.880370
1917.000000	11.788900
1918.000000	11.697940
1919.000000	11.611040
1920.000000	11.527380
1921.000000	11.446760
1922.000000	11.367020
1923.000000	11.290320
1924.000000	11.217030
1925.000000	11.143550
1926.000000	11.073570
1927.000000	11.008190
1928.000000	10.949710
1929.000000	10.895110
1930.000000	10.842300
1931.000000	10.790830
1932.000000	10.742540
1933.000000	10.695970
1934.000000	10.649780
1935.000000	10.610220
1936.000000	10.575040
1937.000000	10.541660
1938.000000	10.511910
1939.000000	10.483680
1940.000000	10.459070
1941.000000	10.438130
1942.000000	10.422720
1943.000000	10.408290
1944.000000	10.398910
1945.000000	10.395050
1946.000000	10.390030
1947.000000	10.389180
1948.000000	10.388840
1949.000000	10.392290
1950.000000	10.395510
1951.000000	10.402170
1952.000000	10.407170
1953.000000	10.416840
1954.000000	10.428560
1955.000000	10.440430
1956.000000	10.454520
1957.000000	10.467950
1958.000000	10.482070
1959.000000	10.496190
1960.000000	10.515080
1961.000000	10.534860
1962.000000	10.556540
1963.000000	10.576320
1964.000000	10.593580
1965.000000	10.611030
1966.000000	10.631870
1967.000000	10.655970
1968.000000	10.676030
1969.000000	10.698480
1970.000000	10.717660
1971.000000	10.737260
1972.000000	10.758230
1973.000000	10.779060
1974.000000	10.802090
1975.000000	10.825530
1976.000000	10.847820
1977.000000	10.867200
1978.000000	10.891280
1979.000000	10.914730
1980.000000	10.939890
1981.000000	10.963410
1982.000000	10.987020
1983.000000	11.010710
1984.000000	11.034280
1985.000000	11.057170
1986.000000	11.080470
1987.000000	11.104960
1988.000000	11.129340
1989.000000	11.152900
1990.000000	11.175340
1991.000000	11.198670
1992.000000	11.220480
1993.000000	11.240120
1994.000000	11.260680
1995.000000	11.278610
1996.000000	11.296240
1997.000000	11.310800
1998.000000	11.324130
1999.000000	11.334180
2000.000000	11.345000
2001.000000	11.352810
2002.000000	11.357420
2003.000000	11.362750
2004.000000	11.365780
2005.000000	11.368990
2006.000000	11.367150
2007.000000	11.364820
2008.000000	11.358230
2009.000000	11.352760
2010.000000	11.342380
2011.000000	11.330190
2012.000000	11.317380
2013.000000	11.305490
2014.000000	11.290750
2015.000000	11.271230
2016.000000	11.254320
2017.000000	11.235450
2018.000000	11.216420
2019.000000	11.196270
2020.000000	11.175810
2021.000000	11.153840
2022.000000	11.130320
2023.000000	11.102940
2024.000000	11.075420
2025.000000	11.048310
2026.000000	11.018280
2027.000000	10.988540
2028.000000	10.956710
2029.000000	10.921900
2030.000000	10.885790
2031.000000	10.850220
2032.000000	10.814240
2033.000000	10.775360
2034.000000	10.733720
2035.000000	10.691130
2036.000000	10.646290
2037.000000	10.596390
2038.000000	10.545050
2039.000000	10.491540
2040.000000	10.436800
2041.000000	10.378390
2042.000000	10.317140
2043.000000	10.255640
2044.000000	10.193450
2045.000000	10.132140
2046.000000	10.071820
2047.000000	10.013720
2048.000000	9.956990
2049.000000	9.904240
2050.000000	9.853560
2051.000000	9.808280
2052.000000	9.769240
2053.000000	9.737640
2054.000000	9.711920
2055.000000	9.688430
2056.000000	9.671040
2057.000000	9.660820
2058.000000	9.656460
2059.000000	9.655290
2060.000000	9.660080
2061.000000	9.666940
2062.000000	9.676210
2063.000000	9.686860
2064.000000	9.701820
2065.000000	9.718410
2066.000000	9.737080
2067.000000	9.755850
2068.000000	9.775250
2069.000000	9.796250
2070.000000	9.816400
2071.000000	9.837100
2072.000000	9.857940
2073.000000	9.877220
2074.000000	9.895300
2075.000000	9.913360
2076.000000	9.929510
2077.000000	9.946070
2078.000000	9.962960
2079.000000	9.976760
2080.000000	9.989270
2081.000000	10.001230
2082.000000	10.011340
2083.000000	10.021810
2084.000000	10.031440
2085.000000	10.042520
2086.000000	10.051440
2087.000000	10.058320
2088.000000	10.064290
2089.000000	10.069750
2090.000000	10.074340
2091.000000	10.079060
2092.000000	10.084280
2093.000000	10.089720
2094.000000	10.094290
2095.000000	10.096880
2096.000000	10.099730
2097.000000	10.103170
2098.000000	10.106890
2099.000000	10.112210
2100.000000	10.119330
2101.000000	10.126930
2102.000000	10.136090
2103.000000	10.145550
2104.000000	10.153210
2105.000000	10.161660
2106.000000	10.171610
2107.000000	10.180210
2108.000000	10.187830
2109.000000	10.196100
2110.000000	10.204420
2111.000000	10.212240
2112.000000	10.219540
2113.000000	10.226640
2114.000000	10.235320
2115.000000	10.244180
2116.000000	10.251470
2117.000000	10.260270
2118.000000	10.268970
2119.000000	10.277200
2120.000000	10.285450
2121.000000	10.292930
2122.000000	10.298950
2123.000000	10.303290
2124.000000	10.307210
2125.000000	10.310610
2126.000000	10.314000
2127.000000	10.316690
2128.000000	10.320360
2129.000000	10.321280
2130.000000	10.318900
2131.000000	10.316530
2132.000000	10.314010
2133.000000	10.310180
2134.000000	10.304760
2135.000000	10.297610
2136.000000	10.289130
2137.000000	10.278760
2138.000000	10.265220
2139.000000	10.250170
2140.000000	10.235260
2141.000000	10.217430
2142.000000	10.196580
2143.000000	10.176210
2144.000000	10.155660
2145.000000	10.135270
2146.000000	10.113110
2147.000000	10.088290
2148.000000	10.064110
2149.000000	10.040120
2150.000000	10.015420
2151.000000	9.990440
2152.000000	9.965280
2153.000000	9.938930
2154.000000	9.910830
2155.000000	9.879430
2156.000000	9.848110
2157.000000	9.818090
2158.000000	9.788150
2159.000000	9.758560
2160.000000	9.728530
2161.000000	9.698430
2162.000000	9.668320
2163.000000	9.638710
2164.000000	9.609760
2165.000000	9.580840
2166.000000	9.552520
2167.000000	9.524880
2168.000000	9.496360
2169.000000	9.466550
2170.000000	9.437310
2171.000000	9.407170
2172.000000	9.378560
2173.000000	9.350810
2174.000000	9.323020
2175.000000	9.297180
2176.000000	9.270610
2177.000000	9.243600
2178.000000	9.217170
2179.000000	9.192150
2180.000000	9.165410
2181.000000	9.141860
2182.000000	9.114840
2183.000000	9.087770
2184.000000	9.058390
2185.000000	9.026250
2186.000000	8.993650
2187.000000	8.958710
2188.000000	8.918090
2189.000000	8.873880
2190.000000	8.824670
2191.000000	8.768970
2192.000000	8.711270
2193.000000	8.643080
2194.000000	8.568640
2195.000000	8.490380
2196.000000	8.405710
2197.000000	8.315000
2198.000000	8.220470
2199.000000	8.118300
2200.000000	8.015040
2201.000000	7.909060
2202.000000	7.799620
2203.000000	7.690460
2204.000000	7.584880
2205.000000	7.478780
2206.000000	7.376800
2207.000000	7.279710
2208.000000	7.190770
2209.000000	7.110960
2210.000000	7.038260
2211.000000	6.973630
2212.000000	6.919690
2213.000000	6.880430
2214.000000	6.850270
2215.000000	6.831620
2216.000000	6.822890
2217.000000	6.822360
2218.000000	6.828580
2219.000000	6.843220
2220.000000	6.863570
2221.000000	6.891800
2222.000000	6.925180
2223.000000	6.957220
2224.000000	6.988730
2225.000000	7.023600
2226.000000	7.057200
2227.000000	7.089820
2228.000000	7.123220
2229.000000	7.154260
2230.000000	7.185100
2231.000000	7.209990
2232.000000	7.227970
2233.000000	7.243390
2234.000000	7.259120
2235.000000	7.267800
2236.000000	7.273980
2237.000000	7.278090
2238.000000	7.274880
2239.000000	7.268340
2240.000000	7.255890
2241.000000	7.242420
2242.000000	7.225870
2243.000000	7.206810
2244.000000	7.182970
2245.000000	7.161250
2246.000000	7.134530
2247.000000	7.105320
2248.000000	7.073910
2249.000000	7.039020
2250.000000	7.002860
2251.000000	6.961670
2252.000000	6.920080
2253.000000	6.875230
2254.000000	6.829220
2255.000000	6.779630
2256.000000	6.727810
2257.000000	6.672700
2258.000000	6.616680
2259.000000	6.558400
2260.000000	6.500010
2261.000000	6.440150
2262.000000	6.381210
2263.000000	6.324400
2264.000000	6.268250
2265.000000	6.211900
2266.000000	6.158360
2267.000000	6.109320
2268.000000	6.065320
2269.000000	6.026310
2270.000000	5.990970
2271.000000	5.963080
2272.000000	5.941970
2273.000000	5.924490
2274.000000	5.909790
2275.000000	5.901170
2276.000000	5.898990
2277.000000	5.900080
2278.000000	5.903990
2279.000000	5.913020
2280.000000	5.923880
2281.000000	5.936070
2282.000000	5.948640
2283.000000	5.965130
2284.000000	5.983880
2285.000000	6.001560
2286.000000	6.019220
2287.000000	6.039140
2288.000000	6.057280
2289.000000	6.074060
2290.000000	6.090120
2291.000000	6.104700
2292.000000	6.116070
2293.000000	6.123020
2294.000000	6.126720
2295.000000	6.125810
2296.000000	6.121920
2297.000000	6.111050
2298.000000	6.096610
2299.000000	6.078020
2300.000000	6.058750
2301.000000	6.037260
2302.000000	6.013210
2303.000000	5.987460
2304.000000	5.961920
2305.000000	5.938870
2306.000000	5.916410
2307.000000	5.897550
2308.000000	5.883730
2309.000000	5.875220
2310.000000	5.870960
2311.000000	5.873020
2312.000000	5.883520
2313.000000	5.900490
2314.000000	5.926820
2315.000000	5.959480
2316.000000	5.998640
2317.000000	6.044390
2318.000000	6.096590
2319.000000	6.152720
2320.000000	6.211120
2321.000000	6.270640
2322.000000	6.330140
2323.000000	6.392640
2324.000000	6.451610
2325.000000	6.508750
2326.000000	6.564620
2327.000000	6.617550
2328.000000	6.665020
2329.000000	6.708590
2330.000000	6.748250
2331.000000	6.785360
2332.000000	6.818760
2333.000000	6.847330
2334.000000	6.873000
2335.000000	6.895510
2336.000000	6.912070
2337.000000	6.924890
2338.000000	6.934590
2339.000000	6.941800
2340.000000	6.944950
2341.000000	6.944740
2342.000000	6.941210
2343.000000	6.933700
2344.000000	6.923650
2345.000000	6.909640
2346.000000	6.893800
2347.000000	6.876740
2348.000000	6.860110
2349.000000	6.843250
2350.000000	6.828760
2351.000000	6.813820
2352.000000	6.799840
2353.000000	6.788590
2354.000000	6.779040
2355.000000	6.775710
2356.000000	6.777730
2357.000000	6.782180
2358.000000	6.787810
2359.000000	6.796010
2360.000000	6.807460
2361.000000	6.824060
2362.000000	6.844220
2363.000000	6.865210
2364.000000	6.889160
2365.000000	6.914600
2366.000000	6.939180
2367.000000	6.964260
2368.000000	6.991380
2369.000000	7.017140
2370.000000	7.040830
2371.000000	7.062620
2372.000000	7.082160
2373.000000	7.101250
2374.000000	7.119760
2375.000000	7.134030
2376.000000	7.147320
2377.000000	7.160830
2378.000000	7.170200
2379.000000	7.180040
2380.000000	7.189820
2381.000000	7.197400
2382.000000	7.205100
2383.000000	7.213210
2384.000000	7.220770
2385.000000	7.228880
2386.000000	7.235830
2387.000000	7.241200
2388.000000	7.248760
2389.000000	7.254350
2390.000000	7.256450
2391.000000	7.258110
2392.000000	7.259260
2393.000000	7.257980
2394.000000	7.254150
2395.000000	7.249260
2396.000000	7.243500
2397.000000	7.237600
2398.000000	7.229210
2399.000000	7.220420
2400.000000	7.212480
2401.000000	7.204350
2402.000000	7.194000
2403.000000	7.183790
2404.000000	7.173820
2405.000000	7.162870
2406.000000	7.152980
2407.000000	7.141050
2408.000000	7.129470
2409.000000	7.118290
2410.000000	7.107830
2411.000000	7.096630
2412.000000	7.087630
2413.000000	7.078490
2414.000000	7.067960
2415.000000	7.057320
2416.000000	7.044260
2417.000000	7.033100
2418.000000	7.022410
2419.000000	7.011590
2420.000000	6.999740
2421.000000	6.988290
2422.000000	6.974780
2423.000000	6.960550
2424.000000	6.947180
2425.000000	6.932770
2426.000000	6.919600
2427.000000	6.904820
2428.000000	6.889000
2429.000000	6.872790
2430.000000	6.855110
2431.000000	6.836920
2432.000000	6.821630
2433.000000	6.804630
2434.000000	6.787230
2435.000000	6.769490
2436.000000	6.749070
2437.000000	6.728540
2438.000000	6.706280
2439.000000	6.683770
2440.000000	6.660460
2441.000000	6.635300
2442.000000	6.607400
2443.000000	6.579500
2444.000000	6.549730
2445.000000	6.519270
2446.000000	6.492040
2447.000000	6.462860
2448.000000	6.435080
2449.000000	6.403150
2450.000000	6.374110
2451.000000	6.344540
2452.000000	6.313840
2453.000000	6.282780
2454.000000	6.253920
2455.000000	6.222020
2456.000000	6.189270
2457.000000	6.158730
2458.000000	6.129460
2459.000000	6.099160
2460.000000	6.068940
2461.000000	6.043600
2462.000000	6.017540
2463.000000	5.994880
2464.000000	5.968480
2465.000000	5.948880
2466.000000	5.926080
2467.000000	5.904570
2468.000000	5.883580
2469.000000	5.867540
2470.000000	5.850310
2471.000000	5.834890
2472.000000	5.824110
2473.000000	5.807210
2474.000000	5.800070
2475.000000	5.787690
2476.000000	5.777910
2477.000000	5.768300
2478.000000	5.757180
2479.000000	5.749600
2480.000000	5.733320
2481.000000	5.713730
2482.000000	5.706730
2483.000000	5.697330
2484.000000	5.691160
2485.000000	5.688800
2486.000000	5.677350
2487.000000	5.664020
2488.000000	5.654120
2489.000000	5.659730
2490.000000	5.658770
2491.000000	5.655600
2492.000000	5.645740
2493.000000	5.640610
2494.000000	5.624270
2495.000000	5.633330
2496.000000	5.635480
2497.000000	5.645930
2498.000000	5.653930
2499.000000	5.636300
2500.000000	5.621300
