PE UV       SUBTECH     SPECTRUM    ASCII       PEDS        4.00        
   -1
CICIMAUCR0001-1.Sample.ASC
24/03/08
10:42:50.00
24/03/08
10:42:50.00
Vinicio Soto Monge
C. kalinini
250,000000
1
Lambda 1050
1050L1511233
PerkinElmer UV WinLab 6.3.2.0749 / 2.02.05 Lambda 900 UV/VIS/NIR, Aug  7 2015 09:38:08

0
0
3350/servo 860,8/2
0
0
UV/VIS
1
1
1
DoubleDePol,CommonBeamDepol,RBeamAtt,SBeamAtt,60mm sphere, WB InGaAs Detector
0
0
0
0
Program
Program
3350/servo 860,8/2
3350/0,2 860,8/0,2
3350/0,2 860,8/0,2
0
15.00
 
 
 
0
 
860,8
319,2
860,8
Front
100
on
S:100 R:100
0
0
0
0
 
0
 
 
 
0
 
 
0
0
0
0
0
 
 
 
 
0
0


0
0
#HDR
-1
-1
#GR
nm
%R
1.0
0.0
2500,000000
-1,000000
2251
8
36,425100
2,679800
#DATA

250.000000	nan
251.000000	nan
252.000000	nan
253.000000	nan
254.000000	nan
255.000000	nan
256.000000	nan
257.000000	nan
258.000000	nan
259.000000	2.805899
260.000000	2.804697
261.000000	2.800948
262.000000	2.792287
263.000000	2.788500
264.000000	2.782839
265.000000	2.771953
266.000000	2.764030
267.000000	2.753788
268.000000	2.745496
269.000000	2.727908
270.000000	2.717126
271.000000	2.708161
272.000000	2.701109
273.000000	2.693252
274.000000	2.685821
275.000000	2.677908
276.000000	2.667883
277.000000	2.655701
278.000000	2.649018
279.000000	2.649453
280.000000	2.648080
281.000000	2.646812
282.000000	2.639116
283.000000	2.635169
284.000000	2.631335
285.000000	2.629006
286.000000	2.632556
287.000000	2.638349
288.000000	2.637488
289.000000	2.632878
290.000000	2.626517
291.000000	2.621821
292.000000	2.626744
293.000000	2.625343
294.000000	2.629744
295.000000	2.625125
296.000000	2.619994
297.000000	2.618309
298.000000	2.618215
299.000000	2.619691
300.000000	2.621074
301.000000	2.616776
302.000000	2.610519
303.000000	2.609667
304.000000	2.601602
305.000000	2.598857
306.000000	2.594654
307.000000	2.587459
308.000000	2.586390
309.000000	2.585396
310.000000	2.582471
311.000000	2.583796
312.000000	2.588756
313.000000	2.590044
314.000000	2.594578
315.000000	2.601630
316.000000	2.604801
317.000000	2.634335
318.000000	2.685462
319.000000	2.737724
320.000000	2.798459
321.000000	2.835802
322.000000	2.884628
323.000000	2.919539
324.000000	2.943394
325.000000	2.958123
326.000000	3.010707
327.000000	3.028077
328.000000	2.998079
329.000000	2.974149
330.000000	2.935527
331.000000	2.906732
332.000000	2.874102
333.000000	2.862515
334.000000	2.869937
335.000000	2.875588
336.000000	2.829413
337.000000	2.803731
338.000000	2.792921
339.000000	2.790564
340.000000	2.792476
341.000000	2.805000
342.000000	2.795770
343.000000	2.777094
344.000000	2.756959
345.000000	2.759771
346.000000	2.775655
347.000000	2.780435
348.000000	2.784042
349.000000	2.775721
350.000000	2.774490
351.000000	2.777898
352.000000	2.789239
353.000000	2.805776
354.000000	2.813746
355.000000	2.814769
356.000000	2.812213
357.000000	2.816312
358.000000	2.823260
359.000000	2.830132
360.000000	2.827188
361.000000	2.827264
362.000000	2.828759
363.000000	2.820250
364.000000	2.817788
365.000000	2.807679
366.000000	2.799973
367.000000	2.798544
368.000000	2.797474
369.000000	2.784098
370.000000	2.786446
371.000000	2.786825
372.000000	2.775948
373.000000	2.762923
374.000000	2.741889
375.000000	2.734837
376.000000	2.740630
377.000000	2.713671
378.000000	2.687649
379.000000	2.670723
380.000000	2.646026
381.000000	2.620913
382.000000	2.607281
383.000000	2.605767
384.000000	2.609033
385.000000	2.603419
386.000000	2.589353
387.000000	2.598696
388.000000	2.608427
389.000000	2.619038
390.000000	2.628798
391.000000	2.640015
392.000000	2.652804
393.000000	2.663359
394.000000	2.673137
395.000000	2.682906
396.000000	2.693518
397.000000	2.704044
398.000000	2.713803
399.000000	2.723241
400.000000	2.732480
401.000000	2.741198
402.000000	2.748885
403.000000	2.757243
404.000000	2.766813
405.000000	2.776971
406.000000	2.786380
407.000000	2.797029
408.000000	2.809610
409.000000	2.823051
410.000000	2.837818
411.000000	2.852690
412.000000	2.869691
413.000000	2.887752
414.000000	2.905880
415.000000	2.926213
416.000000	2.948997
417.000000	2.973467
418.000000	2.999603
419.000000	3.028390
420.000000	3.060186
421.000000	3.095192
422.000000	3.132905
423.000000	3.175351
424.000000	3.222795
425.000000	3.274148
426.000000	3.330632
427.000000	3.392257
428.000000	3.459986
429.000000	3.533746
430.000000	3.613772
431.000000	3.701211
432.000000	3.796506
433.000000	3.899146
434.000000	4.009767
435.000000	4.127828
436.000000	4.254143
437.000000	4.387653
438.000000	4.528584
439.000000	4.678423
440.000000	4.835456
441.000000	4.998547
442.000000	5.167024
443.000000	5.340878
444.000000	5.519967
445.000000	5.704556
446.000000	5.892609
447.000000	6.084013
448.000000	6.277462
449.000000	6.471101
450.000000	6.666424
451.000000	6.861841
452.000000	7.056332
453.000000	7.249856
454.000000	7.440872
455.000000	7.627581
456.000000	7.810968
457.000000	7.991637
458.000000	8.168189
459.000000	8.340056
460.000000	8.505295
461.000000	8.665632
462.000000	8.822106
463.000000	8.973422
464.000000	9.120051
465.000000	9.262686
466.000000	9.399424
467.000000	9.529942
468.000000	9.656220
469.000000	9.778266
470.000000	9.895494
471.000000	10.007563
472.000000	10.114227
473.000000	10.215429
474.000000	10.310383
475.000000	10.399658
476.000000	10.485165
477.000000	10.566942
478.000000	10.644271
479.000000	10.717586
480.000000	10.786877
481.000000	10.852335
482.000000	10.914755
483.000000	10.976019
484.000000	11.038457
485.000000	11.101833
486.000000	11.165407
487.000000	11.230468
488.000000	11.296674
489.000000	11.364470
490.000000	11.436014
491.000000	11.511307
492.000000	11.588778
493.000000	11.666816
494.000000	11.744874
495.000000	11.823934
496.000000	11.903743
497.000000	11.982870
498.000000	12.061306
499.000000	12.140045
500.000000	12.220999
501.000000	12.301915
502.000000	12.384128
503.000000	12.470297
504.000000	12.557168
505.000000	12.644890
506.000000	12.733795
507.000000	12.822890
508.000000	12.916093
509.000000	13.011729
510.000000	13.106494
511.000000	13.203275
512.000000	13.303748
513.000000	13.405868
514.000000	13.511358
515.000000	13.621127
516.000000	13.737910
517.000000	13.864964
518.000000	14.000878
519.000000	14.147725
520.000000	14.309406
521.000000	14.489091
522.000000	14.686904
523.000000	14.908004
524.000000	15.155513
525.000000	15.427635
526.000000	15.724586
527.000000	16.046565
528.000000	16.393800
529.000000	16.765448
530.000000	17.160733
531.000000	17.575640
532.000000	18.007199
533.000000	18.449247
534.000000	18.898876
535.000000	19.355217
536.000000	19.810839
537.000000	20.263990
538.000000	20.710230
539.000000	21.145983
540.000000	21.567857
541.000000	21.971151
542.000000	22.355824
543.000000	22.721347
544.000000	23.066906
545.000000	23.391603
546.000000	23.698389
547.000000	23.986385
548.000000	24.256008
549.000000	24.509680
550.000000	24.745944
551.000000	24.968472
552.000000	25.178553
553.000000	25.376243
554.000000	25.561740
555.000000	25.739873
556.000000	25.910868
557.000000	26.072691
558.000000	26.227338
559.000000	26.372151
560.000000	26.439047
561.000000	26.491234
562.000000	26.536917
563.000000	26.576798
564.000000	26.609030
565.000000	26.635128
566.000000	26.653729
567.000000	26.667369
568.000000	26.674128
569.000000	26.674819
570.000000	26.740325
571.000000	26.809626
572.000000	26.869527
573.000000	26.923645
574.000000	26.976182
575.000000	27.022953
576.000000	27.064084
577.000000	27.100500
578.000000	27.134530
579.000000	27.165418
580.000000	27.190418
581.000000	27.210742
582.000000	27.229731
583.000000	27.237663
584.000000	27.239405
585.000000	27.234464
586.000000	27.221278
587.000000	27.198824
588.000000	27.165570
589.000000	27.121931
590.000000	27.068135
591.000000	27.003520
592.000000	26.923011
593.000000	26.830915
594.000000	26.721250
595.000000	26.594632
596.000000	26.451278
597.000000	26.293090
598.000000	26.119312
599.000000	25.928977
600.000000	25.723516
601.000000	25.499472
602.000000	25.262319
603.000000	25.013105
604.000000	24.754672
605.000000	24.483970
606.000000	24.207570
607.000000	23.924297
608.000000	23.638970
609.000000	23.354969
610.000000	23.072056
611.000000	22.795826
612.000000	22.525778
613.000000	22.266483
614.000000	22.011467
615.000000	21.764156
616.000000	21.523528
617.000000	21.289877
618.000000	21.060703
619.000000	20.839830
620.000000	20.629191
621.000000	20.423503
622.000000	20.227725
623.000000	20.043695
624.000000	19.877092
625.000000	19.731645
626.000000	19.608908
627.000000	19.515478
628.000000	19.450351
629.000000	19.412411
630.000000	19.402898
631.000000	19.424206
632.000000	19.473174
633.000000	19.548221
634.000000	19.643677
635.000000	19.754762
636.000000	19.877461
637.000000	20.003493
638.000000	20.132108
639.000000	20.259948
640.000000	20.384654
641.000000	20.499809
642.000000	20.605355
643.000000	20.696495
644.000000	20.773918
645.000000	20.838306
646.000000	20.889934
647.000000	20.928565
648.000000	20.956755
649.000000	20.978641
650.000000	20.993134
651.000000	21.005477
652.000000	21.016127
653.000000	21.029796
654.000000	21.046977
655.000000	21.064621
656.000000	21.084775
657.000000	21.109737
658.000000	21.138230
659.000000	21.164063
660.000000	21.193133
661.000000	21.221901
662.000000	21.252665
663.000000	21.279861
664.000000	21.306158
665.000000	21.335730
666.000000	21.370016
667.000000	21.407029
668.000000	21.450667
669.000000	21.503639
670.000000	21.567450
671.000000	21.645309
672.000000	21.740150
673.000000	21.855712
674.000000	21.990963
675.000000	22.145402
676.000000	22.321973
677.000000	22.517675
678.000000	22.729280
679.000000	22.961861
680.000000	23.207279
681.000000	23.465533
682.000000	23.729144
683.000000	23.996504
684.000000	24.264821
685.000000	24.527183
686.000000	24.777343
687.000000	25.021047
688.000000	25.256166
689.000000	25.474965
690.000000	25.682026
691.000000	25.872096
692.000000	26.047474
693.000000	26.212893
694.000000	26.367058
695.000000	26.513858
696.000000	26.651978
697.000000	26.783026
698.000000	26.915353
699.000000	27.046392
700.000000	27.171883
701.000000	27.301957
702.000000	27.440105
703.000000	27.579304
704.000000	27.720074
705.000000	27.868133
706.000000	28.024721
707.000000	28.186913
708.000000	28.350714
709.000000	28.517175
710.000000	28.685283
711.000000	28.850703
712.000000	29.010102
713.000000	29.165602
714.000000	29.317930
715.000000	29.460716
716.000000	29.600322
717.000000	29.734684
718.000000	29.860289
719.000000	29.977470
720.000000	30.096619
721.000000	30.218136
722.000000	30.338289
723.000000	30.453226
724.000000	30.567718
725.000000	30.689016
726.000000	30.810637
727.000000	30.929909
728.000000	31.050602
729.000000	31.178337
730.000000	31.301482
731.000000	31.421985
732.000000	31.541721
733.000000	31.664459
734.000000	31.788994
735.000000	31.910577
736.000000	32.029726
737.000000	32.147532
738.000000	32.259535
739.000000	32.366615
740.000000	32.473705
741.000000	32.571243
742.000000	32.659392
743.000000	32.745722
744.000000	32.829393
745.000000	32.907999
746.000000	32.981778
747.000000	33.050397
748.000000	33.119680
749.000000	33.188574
750.000000	33.258348
751.000000	33.332108
752.000000	33.406862
753.000000	33.478548
754.000000	33.543287
755.000000	33.606123
756.000000	33.669527
757.000000	33.734521
758.000000	33.802658
759.000000	33.867699
760.000000	33.926218
761.000000	33.984037
762.000000	34.045529
763.000000	34.104408
764.000000	34.162416
765.000000	34.217613
766.000000	34.272024
767.000000	34.321494
768.000000	34.357086
769.000000	34.384339
770.000000	34.408932
771.000000	34.427627
772.000000	34.439621
773.000000	34.448860
774.000000	34.454161
775.000000	34.453527
776.000000	34.444051
777.000000	34.438144
778.000000	34.432758
779.000000	34.426567
780.000000	34.417575
781.000000	34.404350
782.000000	34.388750
783.000000	34.377268
784.000000	34.369723
785.000000	34.368663
786.000000	34.367717
787.000000	34.356471
788.000000	34.341647
789.000000	34.322582
790.000000	34.305487
791.000000	34.297156
792.000000	34.289640
793.000000	34.267357
794.000000	34.232721
795.000000	34.197195
796.000000	34.161157
797.000000	34.126710
798.000000	34.096958
799.000000	34.071977
800.000000	34.044857
801.000000	34.004115
802.000000	33.954276
803.000000	33.904702
804.000000	33.862673
805.000000	33.810297
806.000000	33.755961
807.000000	33.698010
808.000000	33.637550
809.000000	33.567179
810.000000	33.489122
811.000000	33.408585
812.000000	33.325472
813.000000	33.235459
814.000000	33.141366
815.000000	33.040297
816.000000	32.928380
817.000000	32.811227
818.000000	32.679251
819.000000	32.548705
820.000000	32.406713
821.000000	32.246434
822.000000	32.084687
823.000000	31.920848
824.000000	31.741626
825.000000	31.565500
826.000000	31.388390
827.000000	31.207521
828.000000	31.021683
829.000000	30.820756
830.000000	30.621959
831.000000	30.434455
832.000000	30.231407
833.000000	30.035232
834.000000	29.849015
835.000000	29.662798
836.000000	29.468469
837.000000	29.270581
838.000000	29.092069
839.000000	28.919767
840.000000	28.752928
841.000000	28.587489
842.000000	28.425647
843.000000	28.246208
844.000000	28.085105
845.000000	27.917830
846.000000	27.759188
847.000000	27.633544
848.000000	27.509983
849.000000	27.374486
850.000000	27.241620
851.000000	27.096978
852.000000	26.979921
853.000000	26.878889
854.000000	26.749062
855.000000	26.617265
856.000000	26.504827
857.000000	26.419386
858.000000	26.266216
859.000000	26.268361
860.000000	26.273574
861.000000	26.301121
862.000000	26.330621
863.000000	26.386219
864.000000	26.473907
865.000000	26.595048
866.000000	26.726019
867.000000	26.832062
868.000000	27.013120
869.000000	27.077880
870.000000	27.153350
871.000000	27.241330
872.000000	27.332470
873.000000	27.418300
874.000000	27.501000
875.000000	27.580550
876.000000	27.654090
877.000000	27.721560
878.000000	27.791370
879.000000	27.862970
880.000000	27.931800
881.000000	27.996620
882.000000	28.057340
883.000000	28.110570
884.000000	28.165820
885.000000	28.212890
886.000000	28.259030
887.000000	28.297700
888.000000	28.330130
889.000000	28.351950
890.000000	28.371880
891.000000	28.386990
892.000000	28.401240
893.000000	28.411920
894.000000	28.411550
895.000000	28.410210
896.000000	28.399880
897.000000	28.387630
898.000000	28.369040
899.000000	28.350820
900.000000	28.332770
901.000000	28.311990
902.000000	28.287110
903.000000	28.261880
904.000000	28.236110
905.000000	28.206520
906.000000	28.178950
907.000000	28.150220
908.000000	28.123030
909.000000	28.093330
910.000000	28.061300
911.000000	28.031780
912.000000	28.001860
913.000000	27.974030
914.000000	27.947980
915.000000	27.920920
916.000000	27.892380
917.000000	27.865300
918.000000	27.839670
919.000000	27.812660
920.000000	27.786520
921.000000	27.758750
922.000000	27.733290
923.000000	27.708030
924.000000	27.684490
925.000000	27.661260
926.000000	27.639140
927.000000	27.616840
928.000000	27.593790
929.000000	27.577520
930.000000	27.561350
931.000000	27.549070
932.000000	27.537360
933.000000	27.526900
934.000000	27.514340
935.000000	27.507820
936.000000	27.502440
937.000000	27.498020
938.000000	27.499610
939.000000	27.495620
940.000000	27.493100
941.000000	27.490550
942.000000	27.489270
943.000000	27.482390
944.000000	27.477650
945.000000	27.472170
946.000000	27.465300
947.000000	27.458230
948.000000	27.448780
949.000000	27.443190
950.000000	27.437080
951.000000	27.431650
952.000000	27.422080
953.000000	27.417570
954.000000	27.413400
955.000000	27.407230
956.000000	27.400920
957.000000	27.394700
958.000000	27.386690
959.000000	27.377730
960.000000	27.368850
961.000000	27.358470
962.000000	27.350760
963.000000	27.342460
964.000000	27.333970
965.000000	27.325510
966.000000	27.319240
967.000000	27.311840
968.000000	27.304050
969.000000	27.298230
970.000000	27.292810
971.000000	27.287830
972.000000	27.282040
973.000000	27.277240
974.000000	27.272940
975.000000	27.268910
976.000000	27.262580
977.000000	27.256730
978.000000	27.253160
979.000000	27.248430
980.000000	27.242680
981.000000	27.238050
982.000000	27.234620
983.000000	27.231460
984.000000	27.228820
985.000000	27.225190
986.000000	27.223690
987.000000	27.222070
988.000000	27.218830
989.000000	27.216710
990.000000	27.214830
991.000000	27.213010
992.000000	27.210640
993.000000	27.207730
994.000000	27.205330
995.000000	27.204540
996.000000	27.204150
997.000000	27.204160
998.000000	27.204020
999.000000	27.202030
1000.000000	27.201520
1001.000000	27.200850
1002.000000	27.202100
1003.000000	27.204680
1004.000000	27.204300
1005.000000	27.202420
1006.000000	27.199730
1007.000000	27.198160
1008.000000	27.195990
1009.000000	27.194110
1010.000000	27.191430
1011.000000	27.188460
1012.000000	27.183750
1013.000000	27.177010
1014.000000	27.170490
1015.000000	27.165840
1016.000000	27.163350
1017.000000	27.160120
1018.000000	27.157570
1019.000000	27.154540
1020.000000	27.151320
1021.000000	27.148090
1022.000000	27.145140
1023.000000	27.143730
1024.000000	27.142890
1025.000000	27.140840
1026.000000	27.136570
1027.000000	27.133050
1028.000000	27.130640
1029.000000	27.131380
1030.000000	27.133020
1031.000000	27.133180
1032.000000	27.133400
1033.000000	27.135140
1034.000000	27.138050
1035.000000	27.141430
1036.000000	27.144740
1037.000000	27.147240
1038.000000	27.149210
1039.000000	27.149040
1040.000000	27.148910
1041.000000	27.150760
1042.000000	27.151870
1043.000000	27.151540
1044.000000	27.151510
1045.000000	27.150020
1046.000000	27.149140
1047.000000	27.149680
1048.000000	27.150850
1049.000000	27.151640
1050.000000	27.152640
1051.000000	27.154200
1052.000000	27.157000
1053.000000	27.159880
1054.000000	27.162590
1055.000000	27.168000
1056.000000	27.174090
1057.000000	27.179620
1058.000000	27.184950
1059.000000	27.191880
1060.000000	27.198180
1061.000000	27.203360
1062.000000	27.206490
1063.000000	27.208670
1064.000000	27.211240
1065.000000	27.214110
1066.000000	27.217490
1067.000000	27.220640
1068.000000	27.223610
1069.000000	27.226780
1070.000000	27.230850
1071.000000	27.234890
1072.000000	27.241400
1073.000000	27.248850
1074.000000	27.255610
1075.000000	27.262760
1076.000000	27.267900
1077.000000	27.272690
1078.000000	27.278740
1079.000000	27.285150
1080.000000	27.290950
1081.000000	27.296530
1082.000000	27.300680
1083.000000	27.304980
1084.000000	27.308340
1085.000000	27.310420
1086.000000	27.315110
1087.000000	27.321760
1088.000000	27.326940
1089.000000	27.331070
1090.000000	27.334710
1091.000000	27.338610
1092.000000	27.344440
1093.000000	27.350270
1094.000000	27.356070
1095.000000	27.361420
1096.000000	27.366280
1097.000000	27.368220
1098.000000	27.369680
1099.000000	27.371860
1100.000000	27.375940
1101.000000	27.380030
1102.000000	27.382910
1103.000000	27.384970
1104.000000	27.386920
1105.000000	27.389120
1106.000000	27.390810
1107.000000	27.393340
1108.000000	27.396570
1109.000000	27.398420
1110.000000	27.399650
1111.000000	27.399270
1112.000000	27.399670
1113.000000	27.399840
1114.000000	27.399920
1115.000000	27.399340
1116.000000	27.396810
1117.000000	27.396300
1118.000000	27.395740
1119.000000	27.395830
1120.000000	27.394290
1121.000000	27.394760
1122.000000	27.394000
1123.000000	27.392430
1124.000000	27.389420
1125.000000	27.387520
1126.000000	27.383490
1127.000000	27.378150
1128.000000	27.369540
1129.000000	27.356130
1130.000000	27.340370
1131.000000	27.320490
1132.000000	27.296770
1133.000000	27.268230
1134.000000	27.240790
1135.000000	27.211530
1136.000000	27.181010
1137.000000	27.143830
1138.000000	27.102570
1139.000000	27.060180
1140.000000	27.017740
1141.000000	26.975240
1142.000000	26.932280
1143.000000	26.891170
1144.000000	26.845960
1145.000000	26.802420
1146.000000	26.759920
1147.000000	26.719910
1148.000000	26.686590
1149.000000	26.654920
1150.000000	26.621940
1151.000000	26.588980
1152.000000	26.557010
1153.000000	26.523800
1154.000000	26.496710
1155.000000	26.464330
1156.000000	26.429210
1157.000000	26.395460
1158.000000	26.356960
1159.000000	26.314560
1160.000000	26.274190
1161.000000	26.231310
1162.000000	26.183860
1163.000000	26.137910
1164.000000	26.081190
1165.000000	26.025290
1166.000000	25.968940
1167.000000	25.908750
1168.000000	25.848690
1169.000000	25.791740
1170.000000	25.731510
1171.000000	25.671300
1172.000000	25.616020
1173.000000	25.560940
1174.000000	25.512150
1175.000000	25.463810
1176.000000	25.416620
1177.000000	25.374990
1178.000000	25.335890
1179.000000	25.296160
1180.000000	25.260000
1181.000000	25.229120
1182.000000	25.197590
1183.000000	25.167260
1184.000000	25.139600
1185.000000	25.115610
1186.000000	25.096650
1187.000000	25.074920
1188.000000	25.056260
1189.000000	25.044090
1190.000000	25.033910
1191.000000	25.025670
1192.000000	25.023490
1193.000000	25.026130
1194.000000	25.030270
1195.000000	25.038220
1196.000000	25.047200
1197.000000	25.061460
1198.000000	25.078600
1199.000000	25.095090
1200.000000	25.115520
1201.000000	25.136920
1202.000000	25.158180
1203.000000	25.177980
1204.000000	25.199960
1205.000000	25.221200
1206.000000	25.243560
1207.000000	25.267010
1208.000000	25.290180
1209.000000	25.314360
1210.000000	25.336880
1211.000000	25.361450
1212.000000	25.385520
1213.000000	25.410980
1214.000000	25.436400
1215.000000	25.461120
1216.000000	25.487450
1217.000000	25.511430
1218.000000	25.535080
1219.000000	25.559590
1220.000000	25.581790
1221.000000	25.602710
1222.000000	25.623040
1223.000000	25.641350
1224.000000	25.658140
1225.000000	25.672500
1226.000000	25.684830
1227.000000	25.698920
1228.000000	25.711460
1229.000000	25.721660
1230.000000	25.731570
1231.000000	25.738850
1232.000000	25.746000
1233.000000	25.752230
1234.000000	25.756870
1235.000000	25.761440
1236.000000	25.763840
1237.000000	25.762640
1238.000000	25.760530
1239.000000	25.758950
1240.000000	25.757390
1241.000000	25.756010
1242.000000	25.754300
1243.000000	25.753650
1244.000000	25.754650
1245.000000	25.758130
1246.000000	25.763980
1247.000000	25.772690
1248.000000	25.783390
1249.000000	25.794180
1250.000000	25.807270
1251.000000	25.822390
1252.000000	25.839180
1253.000000	25.855510
1254.000000	25.871440
1255.000000	25.886600
1256.000000	25.902810
1257.000000	25.919260
1258.000000	25.932910
1259.000000	25.948090
1260.000000	25.964200
1261.000000	25.976780
1262.000000	25.987060
1263.000000	26.000490
1264.000000	26.013380
1265.000000	26.025180
1266.000000	26.034260
1267.000000	26.040760
1268.000000	26.049120
1269.000000	26.056410
1270.000000	26.060100
1271.000000	26.064550
1272.000000	26.068610
1273.000000	26.068840
1274.000000	26.068580
1275.000000	26.066060
1276.000000	26.060830
1277.000000	26.056060
1278.000000	26.051320
1279.000000	26.046160
1280.000000	26.040580
1281.000000	26.035470
1282.000000	26.031730
1283.000000	26.030380
1284.000000	26.029620
1285.000000	26.029930
1286.000000	26.033870
1287.000000	26.038700
1288.000000	26.043000
1289.000000	26.045980
1290.000000	26.050430
1291.000000	26.056070
1292.000000	26.060350
1293.000000	26.063860
1294.000000	26.068220
1295.000000	26.073230
1296.000000	26.077050
1297.000000	26.080240
1298.000000	26.082510
1299.000000	26.084590
1300.000000	26.087220
1301.000000	26.089670
1302.000000	26.092030
1303.000000	26.091470
1304.000000	26.088430
1305.000000	26.085490
1306.000000	26.081450
1307.000000	26.075600
1308.000000	26.069370
1309.000000	26.064220
1310.000000	26.056870
1311.000000	26.046620
1312.000000	26.034210
1313.000000	26.020190
1314.000000	26.004740
1315.000000	25.988570
1316.000000	25.971480
1317.000000	25.951640
1318.000000	25.928930
1319.000000	25.902760
1320.000000	25.875860
1321.000000	25.847550
1322.000000	25.817330
1323.000000	25.788290
1324.000000	25.759040
1325.000000	25.726640
1326.000000	25.691470
1327.000000	25.654960
1328.000000	25.617450
1329.000000	25.578700
1330.000000	25.538220
1331.000000	25.495590
1332.000000	25.453210
1333.000000	25.408250
1334.000000	25.359890
1335.000000	25.308350
1336.000000	25.256640
1337.000000	25.205460
1338.000000	25.153090
1339.000000	25.098080
1340.000000	25.039760
1341.000000	24.979440
1342.000000	24.916500
1343.000000	24.851650
1344.000000	24.786980
1345.000000	24.721680
1346.000000	24.652730
1347.000000	24.581610
1348.000000	24.510380
1349.000000	24.439230
1350.000000	24.365600
1351.000000	24.290510
1352.000000	24.213930
1353.000000	24.136690
1354.000000	24.060950
1355.000000	23.989640
1356.000000	23.921800
1357.000000	23.855730
1358.000000	23.790940
1359.000000	23.728480
1360.000000	23.668870
1361.000000	23.615010
1362.000000	23.570000
1363.000000	23.531510
1364.000000	23.488770
1365.000000	23.442030
1366.000000	23.396220
1367.000000	23.349180
1368.000000	23.297170
1369.000000	23.241210
1370.000000	23.180490
1371.000000	23.108000
1372.000000	23.021240
1373.000000	22.916920
1374.000000	22.797150
1375.000000	22.659890
1376.000000	22.503600
1377.000000	22.327500
1378.000000	22.134120
1379.000000	21.925770
1380.000000	21.709160
1381.000000	21.488400
1382.000000	21.268480
1383.000000	21.055930
1384.000000	20.856390
1385.000000	20.672280
1386.000000	20.499380
1387.000000	20.344170
1388.000000	20.208510
1389.000000	20.094480
1390.000000	19.988590
1391.000000	19.893690
1392.000000	19.805950
1393.000000	19.725430
1394.000000	19.650340
1395.000000	19.575710
1396.000000	19.510440
1397.000000	19.447150
1398.000000	19.378770
1399.000000	19.297300
1400.000000	19.219700
1401.000000	19.147880
1402.000000	19.069730
1403.000000	18.978890
1404.000000	18.878160
1405.000000	18.776740
1406.000000	18.667520
1407.000000	18.553450
1408.000000	18.438420
1409.000000	18.327090
1410.000000	18.211890
1411.000000	18.083540
1412.000000	17.952880
1413.000000	17.822240
1414.000000	17.698590
1415.000000	17.577320
1416.000000	17.453670
1417.000000	17.328560
1418.000000	17.206120
1419.000000	17.085890
1420.000000	16.969620
1421.000000	16.859070
1422.000000	16.749550
1423.000000	16.648330
1424.000000	16.549600
1425.000000	16.448140
1426.000000	16.352690
1427.000000	16.262450
1428.000000	16.176540
1429.000000	16.092890
1430.000000	16.010580
1431.000000	15.930040
1432.000000	15.858660
1433.000000	15.791710
1434.000000	15.721660
1435.000000	15.658190
1436.000000	15.596550
1437.000000	15.538940
1438.000000	15.484560
1439.000000	15.431420
1440.000000	15.380580
1441.000000	15.334940
1442.000000	15.289100
1443.000000	15.242630
1444.000000	15.203310
1445.000000	15.163790
1446.000000	15.126900
1447.000000	15.093660
1448.000000	15.058330
1449.000000	15.024200
1450.000000	14.992040
1451.000000	14.961310
1452.000000	14.933490
1453.000000	14.906010
1454.000000	14.877720
1455.000000	14.850380
1456.000000	14.823290
1457.000000	14.794930
1458.000000	14.770720
1459.000000	14.747520
1460.000000	14.724510
1461.000000	14.701220
1462.000000	14.675220
1463.000000	14.652000
1464.000000	14.630810
1465.000000	14.610720
1466.000000	14.590780
1467.000000	14.571500
1468.000000	14.552230
1469.000000	14.534140
1470.000000	14.516290
1471.000000	14.498910
1472.000000	14.485750
1473.000000	14.474400
1474.000000	14.461470
1475.000000	14.450980
1476.000000	14.440810
1477.000000	14.431810
1478.000000	14.426400
1479.000000	14.422110
1480.000000	14.419760
1481.000000	14.417900
1482.000000	14.415980
1483.000000	14.414710
1484.000000	14.416010
1485.000000	14.416690
1486.000000	14.420600
1487.000000	14.424120
1488.000000	14.427340
1489.000000	14.433370
1490.000000	14.438250
1491.000000	14.444010
1492.000000	14.450670
1493.000000	14.455360
1494.000000	14.462390
1495.000000	14.470740
1496.000000	14.478110
1497.000000	14.486910
1498.000000	14.494990
1499.000000	14.502660
1500.000000	14.512420
1501.000000	14.524540
1502.000000	14.538130
1503.000000	14.554540
1504.000000	14.572690
1505.000000	14.590820
1506.000000	14.610370
1507.000000	14.633300
1508.000000	14.658310
1509.000000	14.684470
1510.000000	14.712420
1511.000000	14.739920
1512.000000	14.767940
1513.000000	14.798950
1514.000000	14.826720
1515.000000	14.855080
1516.000000	14.885550
1517.000000	14.913890
1518.000000	14.941100
1519.000000	14.969580
1520.000000	14.997490
1521.000000	15.025080
1522.000000	15.053000
1523.000000	15.077920
1524.000000	15.104110
1525.000000	15.130220
1526.000000	15.155450
1527.000000	15.181500
1528.000000	15.207050
1529.000000	15.231380
1530.000000	15.253960
1531.000000	15.276100
1532.000000	15.298980
1533.000000	15.322940
1534.000000	15.347160
1535.000000	15.371690
1536.000000	15.393740
1537.000000	15.413370
1538.000000	15.433410
1539.000000	15.452750
1540.000000	15.473770
1541.000000	15.495460
1542.000000	15.513820
1543.000000	15.529990
1544.000000	15.545550
1545.000000	15.561540
1546.000000	15.581000
1547.000000	15.601850
1548.000000	15.623290
1549.000000	15.645790
1550.000000	15.668930
1551.000000	15.693840
1552.000000	15.721850
1553.000000	15.751530
1554.000000	15.782530
1555.000000	15.813840
1556.000000	15.844640
1557.000000	15.875880
1558.000000	15.905410
1559.000000	15.934030
1560.000000	15.961450
1561.000000	15.986000
1562.000000	16.007290
1563.000000	16.027810
1564.000000	16.045950
1565.000000	16.060070
1566.000000	16.071020
1567.000000	16.080130
1568.000000	16.087600
1569.000000	16.093810
1570.000000	16.100350
1571.000000	16.106190
1572.000000	16.110510
1573.000000	16.112270
1574.000000	16.113290
1575.000000	16.116480
1576.000000	16.120540
1577.000000	16.126350
1578.000000	16.134680
1579.000000	16.142650
1580.000000	16.150310
1581.000000	16.160030
1582.000000	16.172010
1583.000000	16.187620
1584.000000	16.203850
1585.000000	16.220120
1586.000000	16.237700
1587.000000	16.253950
1588.000000	16.271640
1589.000000	16.292440
1590.000000	16.313400
1591.000000	16.332000
1592.000000	16.350580
1593.000000	16.370030
1594.000000	16.392920
1595.000000	16.416980
1596.000000	16.439740
1597.000000	16.463180
1598.000000	16.486550
1599.000000	16.509870
1600.000000	16.534270
1601.000000	16.561130
1602.000000	16.589050
1603.000000	16.615520
1604.000000	16.640190
1605.000000	16.664950
1606.000000	16.691450
1607.000000	16.717970
1608.000000	16.742610
1609.000000	16.767480
1610.000000	16.792780
1611.000000	16.816750
1612.000000	16.840340
1613.000000	16.861480
1614.000000	16.882820
1615.000000	16.903730
1616.000000	16.923660
1617.000000	16.942680
1618.000000	16.961200
1619.000000	16.977380
1620.000000	16.990500
1621.000000	17.003960
1622.000000	17.017640
1623.000000	17.031230
1624.000000	17.044920
1625.000000	17.059560
1626.000000	17.072260
1627.000000	17.084300
1628.000000	17.097410
1629.000000	17.110560
1630.000000	17.125610
1631.000000	17.140110
1632.000000	17.154710
1633.000000	17.170870
1634.000000	17.184480
1635.000000	17.195730
1636.000000	17.208050
1637.000000	17.221440
1638.000000	17.233550
1639.000000	17.244420
1640.000000	17.254660
1641.000000	17.263210
1642.000000	17.272040
1643.000000	17.279470
1644.000000	17.287200
1645.000000	17.294170
1646.000000	17.301960
1647.000000	17.310540
1648.000000	17.317810
1649.000000	17.324020
1650.000000	17.329560
1651.000000	17.338270
1652.000000	17.344360
1653.000000	17.348490
1654.000000	17.352520
1655.000000	17.355980
1656.000000	17.355860
1657.000000	17.351550
1658.000000	17.346460
1659.000000	17.337640
1660.000000	17.324660
1661.000000	17.307050
1662.000000	17.285890
1663.000000	17.265660
1664.000000	17.238950
1665.000000	17.207680
1666.000000	17.174950
1667.000000	17.140130
1668.000000	17.094630
1669.000000	17.046710
1670.000000	16.995890
1671.000000	16.942240
1672.000000	16.885110
1673.000000	16.823800
1674.000000	16.763590
1675.000000	16.701510
1676.000000	16.637890
1677.000000	16.572550
1678.000000	16.512350
1679.000000	16.453520
1680.000000	16.391940
1681.000000	16.329030
1682.000000	16.265970
1683.000000	16.200430
1684.000000	16.134910
1685.000000	16.067530
1686.000000	15.999740
1687.000000	15.933830
1688.000000	15.870280
1689.000000	15.812970
1690.000000	15.762100
1691.000000	15.720480
1692.000000	15.688180
1693.000000	15.667450
1694.000000	15.652800
1695.000000	15.651310
1696.000000	15.657090
1697.000000	15.666130
1698.000000	15.681950
1699.000000	15.697470
1700.000000	15.713880
1701.000000	15.729670
1702.000000	15.740760
1703.000000	15.746480
1704.000000	15.753240
1705.000000	15.752630
1706.000000	15.748920
1707.000000	15.743470
1708.000000	15.733110
1709.000000	15.718460
1710.000000	15.699030
1711.000000	15.673070
1712.000000	15.646090
1713.000000	15.613950
1714.000000	15.573560
1715.000000	15.529200
1716.000000	15.478110
1717.000000	15.422200
1718.000000	15.363490
1719.000000	15.297210
1720.000000	15.231510
1721.000000	15.161810
1722.000000	15.090410
1723.000000	15.022180
1724.000000	14.960190
1725.000000	14.903030
1726.000000	14.852780
1727.000000	14.808640
1728.000000	14.773000
1729.000000	14.749570
1730.000000	14.733740
1731.000000	14.726580
1732.000000	14.727010
1733.000000	14.733950
1734.000000	14.740640
1735.000000	14.750880
1736.000000	14.763450
1737.000000	14.777970
1738.000000	14.792200
1739.000000	14.806480
1740.000000	14.821270
1741.000000	14.838630
1742.000000	14.856230
1743.000000	14.871480
1744.000000	14.890440
1745.000000	14.910750
1746.000000	14.929820
1747.000000	14.951330
1748.000000	14.971280
1749.000000	14.991200
1750.000000	15.011270
1751.000000	15.027940
1752.000000	15.041390
1753.000000	15.053940
1754.000000	15.063330
1755.000000	15.069480
1756.000000	15.075100
1757.000000	15.076960
1758.000000	15.080430
1759.000000	15.083910
1760.000000	15.082940
1761.000000	15.081440
1762.000000	15.083280
1763.000000	15.085840
1764.000000	15.088530
1765.000000	15.091220
1766.000000	15.093360
1767.000000	15.098590
1768.000000	15.102150
1769.000000	15.106560
1770.000000	15.113780
1771.000000	15.124820
1772.000000	15.133350
1773.000000	15.142940
1774.000000	15.153830
1775.000000	15.168040
1776.000000	15.184540
1777.000000	15.200500
1778.000000	15.217110
1779.000000	15.233010
1780.000000	15.249620
1781.000000	15.264150
1782.000000	15.278940
1783.000000	15.291630
1784.000000	15.303470
1785.000000	15.313230
1786.000000	15.322180
1787.000000	15.330600
1788.000000	15.337570
1789.000000	15.344320
1790.000000	15.347590
1791.000000	15.350730
1792.000000	15.355310
1793.000000	15.360880
1794.000000	15.366800
1795.000000	15.373660
1796.000000	15.380420
1797.000000	15.386980
1798.000000	15.393830
1799.000000	15.400760
1800.000000	15.410660
1801.000000	15.421660
1802.000000	15.433750
1803.000000	15.447800
1804.000000	15.458810
1805.000000	15.469400
1806.000000	15.481270
1807.000000	15.493950
1808.000000	15.507080
1809.000000	15.518320
1810.000000	15.529080
1811.000000	15.539740
1812.000000	15.549670
1813.000000	15.557560
1814.000000	15.568230
1815.000000	15.579250
1816.000000	15.588930
1817.000000	15.596340
1818.000000	15.602190
1819.000000	15.608110
1820.000000	15.613850
1821.000000	15.621910
1822.000000	15.633160
1823.000000	15.645610
1824.000000	15.652800
1825.000000	15.652380
1826.000000	15.650490
1827.000000	15.651690
1828.000000	15.655740
1829.000000	15.664040
1830.000000	15.673680
1831.000000	15.680330
1832.000000	15.683980
1833.000000	15.685590
1834.000000	15.690490
1835.000000	15.699920
1836.000000	15.711480
1837.000000	15.725390
1838.000000	15.740870
1839.000000	15.754180
1840.000000	15.764860
1841.000000	15.777950
1842.000000	15.793800
1843.000000	15.812740
1844.000000	15.829040
1845.000000	15.837490
1846.000000	15.836910
1847.000000	15.832790
1848.000000	15.831580
1849.000000	15.838430
1850.000000	15.847380
1851.000000	15.844520
1852.000000	15.830100
1853.000000	15.809520
1854.000000	15.792020
1855.000000	15.782220
1856.000000	15.777940
1857.000000	15.767720
1858.000000	15.745400
1859.000000	15.712480
1860.000000	15.676080
1861.000000	15.644000
1862.000000	15.613290
1863.000000	15.580590
1864.000000	15.540820
1865.000000	15.492670
1866.000000	15.437700
1867.000000	15.379700
1868.000000	15.319890
1869.000000	15.255030
1870.000000	15.185030
1871.000000	15.115070
1872.000000	15.044430
1873.000000	14.970630
1874.000000	14.892950
1875.000000	14.812680
1876.000000	14.728840
1877.000000	14.636680
1878.000000	14.536140
1879.000000	14.427470
1880.000000	14.308560
1881.000000	14.174740
1882.000000	14.026780
1883.000000	13.869270
1884.000000	13.707610
1885.000000	13.539160
1886.000000	13.361060
1887.000000	13.176970
1888.000000	12.985920
1889.000000	12.786840
1890.000000	12.579740
1891.000000	12.370870
1892.000000	12.162040
1893.000000	11.948210
1894.000000	11.727380
1895.000000	11.503060
1896.000000	11.276850
1897.000000	11.050370
1898.000000	10.824920
1899.000000	10.600970
1900.000000	10.382820
1901.000000	10.166780
1902.000000	9.951630
1903.000000	9.742990
1904.000000	9.538140
1905.000000	9.340120
1906.000000	9.151610
1907.000000	8.971990
1908.000000	8.797690
1909.000000	8.629960
1910.000000	8.467020
1911.000000	8.311150
1912.000000	8.165710
1913.000000	8.027450
1914.000000	7.900360
1915.000000	7.778380
1916.000000	7.662650
1917.000000	7.551150
1918.000000	7.450240
1919.000000	7.355900
1920.000000	7.270250
1921.000000	7.189960
1922.000000	7.113110
1923.000000	7.043730
1924.000000	6.977650
1925.000000	6.917110
1926.000000	6.859890
1927.000000	6.809820
1928.000000	6.761090
1929.000000	6.718900
1930.000000	6.680560
1931.000000	6.646160
1932.000000	6.615520
1933.000000	6.588490
1934.000000	6.563260
1935.000000	6.543230
1936.000000	6.527510
1937.000000	6.515960
1938.000000	6.509370
1939.000000	6.503250
1940.000000	6.502090
1941.000000	6.505140
1942.000000	6.513290
1943.000000	6.520080
1944.000000	6.530610
1945.000000	6.543500
1946.000000	6.560020
1947.000000	6.575890
1948.000000	6.593450
1949.000000	6.617340
1950.000000	6.639470
1951.000000	6.662560
1952.000000	6.684830
1953.000000	6.709090
1954.000000	6.736840
1955.000000	6.767400
1956.000000	6.798350
1957.000000	6.830230
1958.000000	6.864010
1959.000000	6.895700
1960.000000	6.928650
1961.000000	6.963800
1962.000000	7.000540
1963.000000	7.037890
1964.000000	7.070940
1965.000000	7.106490
1966.000000	7.142430
1967.000000	7.180790
1968.000000	7.216320
1969.000000	7.249920
1970.000000	7.285730
1971.000000	7.320350
1972.000000	7.353890
1973.000000	7.388130
1974.000000	7.427520
1975.000000	7.462700
1976.000000	7.497730
1977.000000	7.533430
1978.000000	7.569160
1979.000000	7.607150
1980.000000	7.646730
1981.000000	7.684630
1982.000000	7.722380
1983.000000	7.762290
1984.000000	7.800090
1985.000000	7.838560
1986.000000	7.876420
1987.000000	7.912010
1988.000000	7.950190
1989.000000	7.989460
1990.000000	8.026440
1991.000000	8.062630
1992.000000	8.100000
1993.000000	8.135580
1994.000000	8.171630
1995.000000	8.207960
1996.000000	8.243540
1997.000000	8.277790
1998.000000	8.311900
1999.000000	8.343850
2000.000000	8.376730
2001.000000	8.408640
2002.000000	8.439840
2003.000000	8.471990
2004.000000	8.501030
2005.000000	8.526960
2006.000000	8.552950
2007.000000	8.578610
2008.000000	8.602520
2009.000000	8.623520
2010.000000	8.641540
2011.000000	8.659350
2012.000000	8.675230
2013.000000	8.689190
2014.000000	8.700320
2015.000000	8.711300
2016.000000	8.720460
2017.000000	8.728600
2018.000000	8.732610
2019.000000	8.737660
2020.000000	8.740060
2021.000000	8.742250
2022.000000	8.741990
2023.000000	8.737950
2024.000000	8.735140
2025.000000	8.730570
2026.000000	8.722290
2027.000000	8.713080
2028.000000	8.702980
2029.000000	8.691230
2030.000000	8.678420
2031.000000	8.662260
2032.000000	8.644300
2033.000000	8.625710
2034.000000	8.606890
2035.000000	8.585760
2036.000000	8.563740
2037.000000	8.538670
2038.000000	8.512160
2039.000000	8.483220
2040.000000	8.452490
2041.000000	8.420280
2042.000000	8.385740
2043.000000	8.349860
2044.000000	8.311800
2045.000000	8.272710
2046.000000	8.233110
2047.000000	8.191810
2048.000000	8.151710
2049.000000	8.111970
2050.000000	8.074760
2051.000000	8.040370
2052.000000	8.009320
2053.000000	7.980620
2054.000000	7.955210
2055.000000	7.934800
2056.000000	7.919680
2057.000000	7.910690
2058.000000	7.907620
2059.000000	7.909990
2060.000000	7.916450
2061.000000	7.928600
2062.000000	7.945360
2063.000000	7.965580
2064.000000	7.990030
2065.000000	8.018840
2066.000000	8.052340
2067.000000	8.087980
2068.000000	8.123990
2069.000000	8.161870
2070.000000	8.201000
2071.000000	8.241390
2072.000000	8.281580
2073.000000	8.322200
2074.000000	8.362930
2075.000000	8.402290
2076.000000	8.438280
2077.000000	8.473970
2078.000000	8.507920
2079.000000	8.539770
2080.000000	8.569270
2081.000000	8.595100
2082.000000	8.619650
2083.000000	8.643080
2084.000000	8.663620
2085.000000	8.680810
2086.000000	8.697960
2087.000000	8.712620
2088.000000	8.725390
2089.000000	8.736150
2090.000000	8.745790
2091.000000	8.755070
2092.000000	8.761030
2093.000000	8.763870
2094.000000	8.765130
2095.000000	8.767280
2096.000000	8.768350
2097.000000	8.767580
2098.000000	8.766710
2099.000000	8.766670
2100.000000	8.767020
2101.000000	8.765630
2102.000000	8.765880
2103.000000	8.767100
2104.000000	8.769270
2105.000000	8.769900
2106.000000	8.769910
2107.000000	8.771850
2108.000000	8.773760
2109.000000	8.775730
2110.000000	8.776260
2111.000000	8.776110
2112.000000	8.776040
2113.000000	8.776730
2114.000000	8.776490
2115.000000	8.775830
2116.000000	8.774280
2117.000000	8.771190
2118.000000	8.767920
2119.000000	8.763570
2120.000000	8.759060
2121.000000	8.754040
2122.000000	8.747630
2123.000000	8.739220
2124.000000	8.729800
2125.000000	8.719330
2126.000000	8.706960
2127.000000	8.694160
2128.000000	8.680600
2129.000000	8.663900
2130.000000	8.646950
2131.000000	8.628720
2132.000000	8.608240
2133.000000	8.588130
2134.000000	8.566180
2135.000000	8.542540
2136.000000	8.518990
2137.000000	8.493820
2138.000000	8.465370
2139.000000	8.435600
2140.000000	8.403920
2141.000000	8.372500
2142.000000	8.341370
2143.000000	8.306110
2144.000000	8.269590
2145.000000	8.232500
2146.000000	8.194900
2147.000000	8.154730
2148.000000	8.113720
2149.000000	8.073720
2150.000000	8.033910
2151.000000	7.992670
2152.000000	7.948700
2153.000000	7.906420
2154.000000	7.866730
2155.000000	7.826510
2156.000000	7.786030
2157.000000	7.746320
2158.000000	7.708620
2159.000000	7.672070
2160.000000	7.635350
2161.000000	7.600960
2162.000000	7.568420
2163.000000	7.536970
2164.000000	7.505360
2165.000000	7.475890
2166.000000	7.448710
2167.000000	7.423950
2168.000000	7.400650
2169.000000	7.377420
2170.000000	7.355030
2171.000000	7.332880
2172.000000	7.313490
2173.000000	7.293750
2174.000000	7.274120
2175.000000	7.254000
2176.000000	7.234600
2177.000000	7.215980
2178.000000	7.197840
2179.000000	7.180900
2180.000000	7.162550
2181.000000	7.143240
2182.000000	7.123730
2183.000000	7.103080
2184.000000	7.081600
2185.000000	7.059920
2186.000000	7.036150
2187.000000	7.009370
2188.000000	6.979410
2189.000000	6.946710
2190.000000	6.912010
2191.000000	6.872470
2192.000000	6.827650
2193.000000	6.778310
2194.000000	6.724640
2195.000000	6.667840
2196.000000	6.604290
2197.000000	6.537480
2198.000000	6.468400
2199.000000	6.392900
2200.000000	6.314260
2201.000000	6.235710
2202.000000	6.155950
2203.000000	6.077980
2204.000000	5.999840
2205.000000	5.922670
2206.000000	5.850960
2207.000000	5.781500
2208.000000	5.716680
2209.000000	5.660910
2210.000000	5.611480
2211.000000	5.572840
2212.000000	5.541080
2213.000000	5.519840
2214.000000	5.507240
2215.000000	5.502710
2216.000000	5.506240
2217.000000	5.520030
2218.000000	5.539780
2219.000000	5.565170
2220.000000	5.597830
2221.000000	5.634080
2222.000000	5.674740
2223.000000	5.716350
2224.000000	5.759940
2225.000000	5.807580
2226.000000	5.855120
2227.000000	5.899520
2228.000000	5.944180
2229.000000	5.987520
2230.000000	6.028740
2231.000000	6.065980
2232.000000	6.103450
2233.000000	6.136040
2234.000000	6.166980
2235.000000	6.190740
2236.000000	6.211680
2237.000000	6.230710
2238.000000	6.245320
2239.000000	6.258660
2240.000000	6.265960
2241.000000	6.269220
2242.000000	6.269780
2243.000000	6.266960
2244.000000	6.261740
2245.000000	6.252620
2246.000000	6.238290
2247.000000	6.224990
2248.000000	6.209880
2249.000000	6.188330
2250.000000	6.167150
2251.000000	6.143940
2252.000000	6.120300
2253.000000	6.095940
2254.000000	6.070050
2255.000000	6.043750
2256.000000	6.019050
2257.000000	5.992840
2258.000000	5.967520
2259.000000	5.946140
2260.000000	5.924470
2261.000000	5.906790
2262.000000	5.887530
2263.000000	5.872350
2264.000000	5.857680
2265.000000	5.847350
2266.000000	5.841210
2267.000000	5.835620
2268.000000	5.834400
2269.000000	5.835850
2270.000000	5.839080
2271.000000	5.843100
2272.000000	5.849390
2273.000000	5.859240
2274.000000	5.870640
2275.000000	5.884120
2276.000000	5.895610
2277.000000	5.909080
2278.000000	5.919730
2279.000000	5.929910
2280.000000	5.944820
2281.000000	5.958290
2282.000000	5.971340
2283.000000	5.980370
2284.000000	5.988820
2285.000000	5.996740
2286.000000	6.007070
2287.000000	6.013740
2288.000000	6.023280
2289.000000	6.031670
2290.000000	6.037100
2291.000000	6.042530
2292.000000	6.048920
2293.000000	6.056880
2294.000000	6.066270
2295.000000	6.075180
2296.000000	6.081740
2297.000000	6.091980
2298.000000	6.100180
2299.000000	6.111440
2300.000000	6.121870
2301.000000	6.132700
2302.000000	6.145180
2303.000000	6.158500
2304.000000	6.171560
2305.000000	6.184700
2306.000000	6.199390
2307.000000	6.214940
2308.000000	6.232000
2309.000000	6.247830
2310.000000	6.266630
2311.000000	6.285340
2312.000000	6.302740
2313.000000	6.318360
2314.000000	6.334350
2315.000000	6.349860
2316.000000	6.365900
2317.000000	6.381150
2318.000000	6.395830
2319.000000	6.407700
2320.000000	6.417310
2321.000000	6.426940
2322.000000	6.433370
2323.000000	6.439210
2324.000000	6.442950
2325.000000	6.444590
2326.000000	6.443760
2327.000000	6.439450
2328.000000	6.433740
2329.000000	6.427920
2330.000000	6.420820
2331.000000	6.412510
2332.000000	6.402810
2333.000000	6.392600
2334.000000	6.384200
2335.000000	6.378700
2336.000000	6.371550
2337.000000	6.364860
2338.000000	6.358320
2339.000000	6.351050
2340.000000	6.346650
2341.000000	6.343710
2342.000000	6.342170
2343.000000	6.340950
2344.000000	6.337500
2345.000000	6.332390
2346.000000	6.328960
2347.000000	6.328330
2348.000000	6.328220
2349.000000	6.329230
2350.000000	6.328190
2351.000000	6.326470
2352.000000	6.326290
2353.000000	6.326680
2354.000000	6.329180
2355.000000	6.331410
2356.000000	6.332150
2357.000000	6.330260
2358.000000	6.327360
2359.000000	6.323850
2360.000000	6.320260
2361.000000	6.315620
2362.000000	6.310070
2363.000000	6.305290
2364.000000	6.299740
2365.000000	6.292650
2366.000000	6.286760
2367.000000	6.279840
2368.000000	6.270830
2369.000000	6.262780
2370.000000	6.255020
2371.000000	6.248100
2372.000000	6.240990
2373.000000	6.233020
2374.000000	6.224560
2375.000000	6.216240
2376.000000	6.207610
2377.000000	6.202700
2378.000000	6.198800
2379.000000	6.192130
2380.000000	6.184670
2381.000000	6.177900
2382.000000	6.171020
2383.000000	6.162680
2384.000000	6.154540
2385.000000	6.146840
2386.000000	6.137770
2387.000000	6.127940
2388.000000	6.117930
2389.000000	6.109280
2390.000000	6.098450
2391.000000	6.085090
2392.000000	6.071480
2393.000000	6.057240
2394.000000	6.040780
2395.000000	6.024570
2396.000000	6.008630
2397.000000	5.989110
2398.000000	5.969610
2399.000000	5.947640
2400.000000	5.927580
2401.000000	5.908320
2402.000000	5.886340
2403.000000	5.864380
2404.000000	5.844260
2405.000000	5.821740
2406.000000	5.798340
2407.000000	5.773800
2408.000000	5.747180
2409.000000	5.722610
2410.000000	5.697220
2411.000000	5.670900
2412.000000	5.643530
2413.000000	5.615440
2414.000000	5.586710
2415.000000	5.555830
2416.000000	5.524220
2417.000000	5.493940
2418.000000	5.463420
2419.000000	5.431500
2420.000000	5.395930
2421.000000	5.359720
2422.000000	5.326020
2423.000000	5.292360
2424.000000	5.255410
2425.000000	5.217550
2426.000000	5.176240
2427.000000	5.130250
2428.000000	5.081370
2429.000000	5.031610
2430.000000	4.983650
2431.000000	4.935240
2432.000000	4.886410
2433.000000	4.835990
2434.000000	4.788020
2435.000000	4.742030
2436.000000	4.700610
2437.000000	4.662310
2438.000000	4.626070
2439.000000	4.592480
2440.000000	4.557690
2441.000000	4.523050
2442.000000	4.486960
2443.000000	4.452410
2444.000000	4.417970
2445.000000	4.383910
2446.000000	4.349060
2447.000000	4.314290
2448.000000	4.280770
2449.000000	4.245900
2450.000000	4.210370
2451.000000	4.176110
2452.000000	4.142780
2453.000000	4.111590
2454.000000	4.078780
2455.000000	4.049580
2456.000000	4.020740
2457.000000	3.990280
2458.000000	3.961320
2459.000000	3.932340
2460.000000	3.910000
2461.000000	3.884830
2462.000000	3.862150
2463.000000	3.838950
2464.000000	3.815880
2465.000000	3.790010
2466.000000	3.765990
2467.000000	3.744610
2468.000000	3.723860
2469.000000	3.701940
2470.000000	3.677170
2471.000000	3.656250
2472.000000	3.636110
2473.000000	3.621710
2474.000000	3.608830
2475.000000	3.596730
2476.000000	3.584770
2477.000000	3.574600
2478.000000	3.565480
2479.000000	3.557350
2480.000000	3.550190
2481.000000	3.542010
2482.000000	3.530910
2483.000000	3.520950
2484.000000	3.507650
2485.000000	3.503990
2486.000000	3.499800
2487.000000	3.491530
2488.000000	3.486240
2489.000000	3.481030
2490.000000	3.480150
2491.000000	3.478460
2492.000000	3.483900
2493.000000	3.485020
2494.000000	3.489880
2495.000000	3.489850
2496.000000	3.481080
2497.000000	3.475720
2498.000000	3.479510
2499.000000	3.475610
2500.000000	3.472760
