PE UV       SUBTECH     SPECTRUM    ASCII       PEDS        4.00        
   -1
CICIMAUCR0100-1.ASC
24/04/03
15:40:25.00
24/04/03
15:40:25.00
Vinicio Soto Monge
C. cupreomarginata
250,000000
1
Lambda 1050
1050L1511233
PerkinElmer UV WinLab 6.3.2.0749 / 2.02.05 Lambda 900 UV/VIS/NIR, Aug  7 2015 09:38:08

0
0
3350/servo 860,8/2
0
0
UV/VIS
1
1
1
DoubleDePol,CommonBeamDepol,RBeamAtt,SBeamAtt,60mm sphere, WB InGaAs Detector
0
0
0
0
Program
Program
3350/servo 860,8/2
3350/0,2 860,8/0,2
3350/0,2 860,8/0,2
0
15.00
 
 
 
0
 
860,8
319,2
860,8
Front
100
on
S:100 R:100
0
0
0
0
 
0
 
 
 
0
 
 
0
0
0
0
0
 
 
 
 
0
0


0
0
#HDR
-1
-1
#GR
nm
%R
1.0
0.0
2500,000000
-1,000000
2251
8
57,680700
4,945700
#DATA

250.000000	nan
251.000000	nan
252.000000	nan
253.000000	nan
254.000000	nan
255.000000	nan
256.000000	nan
257.000000	nan
258.000000	nan
259.000000	5.235325
260.000000	5.226030
261.000000	5.214909
262.000000	5.200790
263.000000	5.193636
264.000000	5.175103
265.000000	5.166664
266.000000	5.144154
267.000000	5.126906
268.000000	5.107726
269.000000	5.081972
270.000000	5.063515
271.000000	5.052821
272.000000	5.034526
273.000000	5.013691
274.000000	4.998116
275.000000	4.983684
276.000000	4.975578
277.000000	4.959519
278.000000	4.953534
279.000000	4.947931
280.000000	4.936238
281.000000	4.923547
282.000000	4.918695
283.000000	4.916706
284.000000	4.908905
285.000000	4.894215
286.000000	4.889401
287.000000	4.885815
288.000000	4.872419
289.000000	4.869670
290.000000	4.868519
291.000000	4.870155
292.000000	4.864028
293.000000	4.850328
294.000000	4.843706
295.000000	4.847169
296.000000	4.845590
297.000000	4.840167
298.000000	4.840434
299.000000	4.832689
300.000000	4.826001
301.000000	4.821520
302.000000	4.810684
303.000000	4.811388
304.000000	4.805137
305.000000	4.796736
306.000000	4.793273
307.000000	4.791494
308.000000	4.794396
309.000000	4.790562
310.000000	4.787109
311.000000	4.782922
312.000000	4.779136
313.000000	4.772372
314.000000	4.773589
315.000000	4.774826
316.000000	4.775587
317.000000	4.839806
318.000000	4.869841
319.000000	4.936343
320.000000	5.006945
321.000000	5.077900
322.000000	5.130416
323.000000	5.167254
324.000000	5.182429
325.000000	5.229218
326.000000	5.227991
327.000000	5.187614
328.000000	5.160233
329.000000	5.118096
330.000000	5.088061
331.000000	5.045153
332.000000	5.017249
333.000000	5.003254
334.000000	5.002616
335.000000	4.973228
336.000000	4.972895
337.000000	4.961536
338.000000	4.964732
339.000000	4.955979
340.000000	4.936200
341.000000	4.909390
342.000000	4.890895
343.000000	4.873589
344.000000	4.864247
345.000000	4.851099
346.000000	4.870507
347.000000	4.870126
348.000000	4.865617
349.000000	4.847550
350.000000	4.839168
351.000000	4.855113
352.000000	4.863039
353.000000	4.878603
354.000000	4.897317
355.000000	4.911740
356.000000	4.904367
357.000000	4.908524
358.000000	4.917077
359.000000	4.935296
360.000000	4.943126
361.000000	4.940986
362.000000	4.952573
363.000000	4.941014
364.000000	4.935372
365.000000	4.930264
366.000000	4.930692
367.000000	4.932328
368.000000	4.936942
369.000000	4.942946
370.000000	4.939197
371.000000	4.941300
372.000000	4.935116
373.000000	4.935468
374.000000	4.931891
375.000000	4.947103
376.000000	4.972715
377.000000	4.988203
378.000000	5.001827
379.000000	5.018019
380.000000	5.042736
381.000000	5.064561
382.000000	5.095681
383.000000	5.134555
384.000000	5.170346
385.000000	5.193465
386.000000	5.204776
387.000000	5.226972
388.000000	5.252032
389.000000	5.279774
390.000000	5.311484
391.000000	5.344478
392.000000	5.380336
393.000000	5.420170
394.000000	5.463363
395.000000	5.512084
396.000000	5.565628
397.000000	5.627477
398.000000	5.695273
399.000000	5.769196
400.000000	5.847856
401.000000	5.934042
402.000000	6.028772
403.000000	6.133386
404.000000	6.248713
405.000000	6.371309
406.000000	6.503200
407.000000	6.643834
408.000000	6.792478
409.000000	6.949714
410.000000	7.116292
411.000000	7.292260
412.000000	7.475478
413.000000	7.665128
414.000000	7.860428
415.000000	8.060057
416.000000	8.264453
417.000000	8.472521
418.000000	8.683396
419.000000	8.898248
420.000000	9.115516
421.000000	9.332565
422.000000	9.549452
423.000000	9.764818
424.000000	9.977947
425.000000	10.190458
426.000000	10.400144
427.000000	10.606585
428.000000	10.811019
429.000000	11.011343
430.000000	11.206139
431.000000	11.396216
432.000000	11.583364
433.000000	11.767362
434.000000	11.945490
435.000000	12.119451
436.000000	12.289244
437.000000	12.452578
438.000000	12.611032
439.000000	12.765385
440.000000	12.915913
441.000000	13.063321
442.000000	13.203688
443.000000	13.337510
444.000000	13.467308
445.000000	13.589380
446.000000	13.703366
447.000000	13.811814
448.000000	13.911643
449.000000	14.002272
450.000000	14.084282
451.000000	14.153771
452.000000	14.213651
453.000000	14.262714
454.000000	14.299419
455.000000	14.326857
456.000000	14.343316
457.000000	14.350061
458.000000	14.350442
459.000000	14.343525
460.000000	14.329968
461.000000	14.315250
462.000000	14.300170
463.000000	14.286061
464.000000	14.276804
465.000000	14.275472
466.000000	14.284967
467.000000	14.304908
468.000000	14.336675
469.000000	14.384320
470.000000	14.449509
471.000000	14.532527
472.000000	14.632851
473.000000	14.751470
474.000000	14.889868
475.000000	15.045791
476.000000	15.217449
477.000000	15.404910
478.000000	15.607422
479.000000	15.822293
480.000000	16.047543
481.000000	16.281270
482.000000	16.521571
483.000000	16.767105
484.000000	17.012667
485.000000	17.255328
486.000000	17.496466
487.000000	17.733980
488.000000	17.964824
489.000000	18.190160
490.000000	18.408560
491.000000	18.617418
492.000000	18.819254
493.000000	19.014945
494.000000	19.208267
495.000000	19.400599
496.000000	19.591333
497.000000	19.783941
498.000000	19.979146
499.000000	20.177006
500.000000	20.381468
501.000000	20.598651
502.000000	20.827421
503.000000	21.068198
504.000000	21.320248
505.000000	21.584981
506.000000	21.861644
507.000000	22.148896
508.000000	22.448003
509.000000	22.759705
510.000000	23.083338
511.000000	23.413288
512.000000	23.748034
513.000000	24.086118
514.000000	24.427694
515.000000	24.770060
516.000000	25.111360
517.000000	25.452213
518.000000	25.791830
519.000000	26.127954
520.000000	26.457895
521.000000	26.783174
522.000000	27.107711
523.000000	27.432029
524.000000	27.756328
525.000000	28.086744
526.000000	28.427949
527.000000	28.782417
528.000000	29.155132
529.000000	29.549301
530.000000	29.972116
531.000000	30.428914
532.000000	30.920276
533.000000	31.451568
534.000000	32.028565
535.000000	32.649820
536.000000	33.317132
537.000000	34.029796
538.000000	34.786110
539.000000	35.584970
540.000000	36.418375
541.000000	37.284735
542.000000	38.178601
543.000000	39.086956
544.000000	40.005243
545.000000	40.925509
546.000000	41.840905
547.000000	42.741487
548.000000	43.619150
549.000000	44.468918
550.000000	45.289203
551.000000	46.072251
552.000000	46.813010
553.000000	47.518254
554.000000	48.180951
555.000000	48.803605
556.000000	49.385492
557.000000	49.925489
558.000000	50.428506
559.000000	50.893486
560.000000	51.336880
561.000000	51.746147
562.000000	52.121840
563.000000	52.463873
564.000000	52.771123
565.000000	53.045864
566.000000	53.288182
567.000000	53.502995
568.000000	53.689048
569.000000	53.853372
570.000000	53.978450
571.000000	54.082865
572.000000	54.174084
573.000000	54.250718
574.000000	54.317353
575.000000	54.377671
576.000000	54.437247
577.000000	54.493988
578.000000	54.548569
579.000000	54.601066
580.000000	54.653183
581.000000	54.697984
582.000000	54.735212
583.000000	54.761384
584.000000	54.778366
585.000000	54.776787
586.000000	54.753098
587.000000	54.707317
588.000000	54.645429
589.000000	54.558463
590.000000	54.448464
591.000000	54.319104
592.000000	54.174731
593.000000	54.019313
594.000000	53.852744
595.000000	53.684501
596.000000	53.517618
597.000000	53.356539
598.000000	53.195507
599.000000	53.048899
600.000000	52.909369
601.000000	52.778429
602.000000	52.652647
603.000000	52.529233
604.000000	52.410880
605.000000	52.286477
606.000000	52.150381
607.000000	52.005809
608.000000	51.851969
609.000000	51.677504
610.000000	51.489425
611.000000	51.283554
612.000000	51.058818
613.000000	50.823959
614.000000	50.570386
615.000000	50.306719
616.000000	50.030760
617.000000	49.743917
618.000000	49.452859
619.000000	49.149348
620.000000	48.837122
621.000000	48.517827
622.000000	48.184681
623.000000	47.837682
624.000000	47.472397
625.000000	47.090644
626.000000	46.698844
627.000000	46.287645
628.000000	45.852776
629.000000	45.399640
630.000000	44.927115
631.000000	44.440443
632.000000	43.944334
633.000000	43.434990
634.000000	42.923354
635.000000	42.413610
636.000000	41.901612
637.000000	41.398967
638.000000	40.911762
639.000000	40.442653
640.000000	39.997718
641.000000	39.580840
642.000000	39.197954
643.000000	38.859166
644.000000	38.568945
645.000000	38.329253
646.000000	38.151201
647.000000	38.029842
648.000000	37.968269
649.000000	37.975642
650.000000	38.042467
651.000000	38.169391
652.000000	38.351239
653.000000	38.576918
654.000000	38.841888
655.000000	39.137760
656.000000	39.454191
657.000000	39.785311
658.000000	40.120228
659.000000	40.452261
660.000000	40.778739
661.000000	41.092877
662.000000	41.394676
663.000000	41.679397
664.000000	41.947622
665.000000	42.197684
666.000000	42.428338
667.000000	42.642029
668.000000	42.842962
669.000000	43.027340
670.000000	43.194718
671.000000	43.347653
672.000000	43.483711
673.000000	43.605935
674.000000	43.710121
675.000000	43.793292
676.000000	43.862410
677.000000	43.914755
678.000000	43.942241
679.000000	43.953753
680.000000	43.954019
681.000000	43.932165
682.000000	43.895832
683.000000	43.847492
684.000000	43.790228
685.000000	43.728730
686.000000	43.662638
687.000000	43.592539
688.000000	43.526732
689.000000	43.458613
690.000000	43.388772
691.000000	43.326970
692.000000	43.272284
693.000000	43.224286
694.000000	43.179362
695.000000	43.136036
696.000000	43.097039
697.000000	43.067374
698.000000	43.045426
699.000000	43.033838
700.000000	43.026275
701.000000	43.030213
702.000000	43.045540
703.000000	43.069239
704.000000	43.103936
705.000000	43.156348
706.000000	43.221128
707.000000	43.294052
708.000000	43.378420
709.000000	43.469249
710.000000	43.577527
711.000000	43.689904
712.000000	43.804689
713.000000	43.923346
714.000000	44.044496
715.000000	44.164247
716.000000	44.282295
717.000000	44.400266
718.000000	44.510028
719.000000	44.615793
720.000000	44.707241
721.000000	44.797166
722.000000	44.885635
723.000000	44.971812
724.000000	45.054963
725.000000	45.124595
726.000000	45.185407
727.000000	45.240188
728.000000	45.291221
729.000000	45.334442
730.000000	45.379728
731.000000	45.419562
732.000000	45.446848
733.000000	45.465924
734.000000	45.475390
735.000000	45.480242
736.000000	45.481878
737.000000	45.481079
738.000000	45.470195
739.000000	45.454421
740.000000	45.438552
741.000000	45.417393
742.000000	45.393866
743.000000	45.367522
744.000000	45.340740
745.000000	45.317945
746.000000	45.292923
747.000000	45.260272
748.000000	45.228867
749.000000	45.198803
750.000000	45.160224
751.000000	45.117336
752.000000	45.074913
753.000000	45.032253
754.000000	44.983266
755.000000	44.935469
756.000000	44.894787
757.000000	44.860471
758.000000	44.829437
759.000000	44.801827
760.000000	44.789307
761.000000	44.778870
762.000000	44.767435
763.000000	44.762830
764.000000	44.770612
765.000000	44.788308
766.000000	44.802427
767.000000	44.818990
768.000000	44.842937
769.000000	44.876207
770.000000	44.907974
771.000000	44.948855
772.000000	45.000039
773.000000	45.056666
774.000000	45.123434
775.000000	45.186092
776.000000	45.264391
777.000000	45.361014
778.000000	45.460872
779.000000	45.560767
780.000000	45.661281
781.000000	45.763802
782.000000	45.871461
783.000000	45.986046
784.000000	46.097292
785.000000	46.213504
786.000000	46.325529
787.000000	46.429991
788.000000	46.544006
789.000000	46.662158
790.000000	46.790196
791.000000	46.928917
792.000000	47.067487
793.000000	47.212145
794.000000	47.363434
795.000000	47.511346
796.000000	47.666651
797.000000	47.829937
798.000000	47.993709
799.000000	48.161286
800.000000	48.316657
801.000000	48.463798
802.000000	48.616134
803.000000	48.761820
804.000000	48.901797
805.000000	49.043830
806.000000	49.189325
807.000000	49.328446
808.000000	49.472781
809.000000	49.626344
810.000000	49.786139
811.000000	49.948788
812.000000	50.101371
813.000000	50.250644
814.000000	50.405767
815.000000	50.558979
816.000000	50.696264
817.000000	50.819896
818.000000	50.934510
819.000000	51.041588
820.000000	51.141265
821.000000	51.222970
822.000000	51.311030
823.000000	51.398853
824.000000	51.474460
825.000000	51.543968
826.000000	51.608710
827.000000	51.690167
828.000000	51.761959
829.000000	51.835777
830.000000	51.890824
831.000000	51.960037
832.000000	52.024523
833.000000	52.079103
834.000000	52.132590
835.000000	52.177867
836.000000	52.254016
837.000000	52.306646
838.000000	52.346738
839.000000	52.378990
840.000000	52.432401
841.000000	52.480046
842.000000	52.527235
843.000000	52.573063
844.000000	52.615647
845.000000	52.663644
846.000000	52.684965
847.000000	52.735132
848.000000	52.760201
849.000000	52.788276
850.000000	52.838347
851.000000	52.872341
852.000000	52.869924
853.000000	52.873406
854.000000	52.897762
855.000000	52.912175
856.000000	52.879000
857.000000	52.892034
858.000000	52.797628
859.000000	52.928556
860.000000	53.036285
861.000000	53.167335
862.000000	53.335122
863.000000	53.500141
864.000000	53.651315
865.000000	53.819471
866.000000	54.029001
867.000000	54.173456
868.000000	54.458300
869.000000	54.504350
870.000000	54.545080
871.000000	54.576850
872.000000	54.601610
873.000000	54.622180
874.000000	54.638230
875.000000	54.653440
876.000000	54.671990
877.000000	54.687570
878.000000	54.707620
879.000000	54.728230
880.000000	54.751180
881.000000	54.776860
882.000000	54.802260
883.000000	54.824190
884.000000	54.843920
885.000000	54.861220
886.000000	54.876270
887.000000	54.889090
888.000000	54.893170
889.000000	54.893360
890.000000	54.887070
891.000000	54.871710
892.000000	54.852770
893.000000	54.832950
894.000000	54.807580
895.000000	54.774560
896.000000	54.734420
897.000000	54.690150
898.000000	54.641870
899.000000	54.587860
900.000000	54.528310
901.000000	54.466240
902.000000	54.400150
903.000000	54.328200
904.000000	54.255460
905.000000	54.179200
906.000000	54.103330
907.000000	54.026170
908.000000	53.952360
909.000000	53.882970
910.000000	53.822460
911.000000	53.765240
912.000000	53.713650
913.000000	53.673170
914.000000	53.639600
915.000000	53.616560
916.000000	53.600420
917.000000	53.591580
918.000000	53.586200
919.000000	53.585170
920.000000	53.579660
921.000000	53.575810
922.000000	53.570470
923.000000	53.559260
924.000000	53.544790
925.000000	53.528390
926.000000	53.504800
927.000000	53.477600
928.000000	53.447230
929.000000	53.416010
930.000000	53.384090
931.000000	53.350530
932.000000	53.319190
933.000000	53.285960
934.000000	53.252310
935.000000	53.217690
936.000000	53.186100
937.000000	53.150740
938.000000	53.115440
939.000000	53.074880
940.000000	53.033060
941.000000	52.990850
942.000000	52.946380
943.000000	52.903320
944.000000	52.855000
945.000000	52.806790
946.000000	52.760110
947.000000	52.715650
948.000000	52.670900
949.000000	52.628020
950.000000	52.588730
951.000000	52.545660
952.000000	52.501640
953.000000	52.452970
954.000000	52.408170
955.000000	52.357770
956.000000	52.298570
957.000000	52.235330
958.000000	52.167140
959.000000	52.088060
960.000000	51.999320
961.000000	51.904980
962.000000	51.802580
963.000000	51.697030
964.000000	51.583710
965.000000	51.466800
966.000000	51.348870
967.000000	51.231270
968.000000	51.113100
969.000000	50.998260
970.000000	50.885550
971.000000	50.775760
972.000000	50.668420
973.000000	50.563990
974.000000	50.461820
975.000000	50.360300
976.000000	50.260480
977.000000	50.161070
978.000000	50.061060
979.000000	49.961850
980.000000	49.864510
981.000000	49.769440
982.000000	49.676000
983.000000	49.584650
984.000000	49.495680
985.000000	49.411250
986.000000	49.328920
987.000000	49.246950
988.000000	49.169300
989.000000	49.097620
990.000000	49.030120
991.000000	48.966500
992.000000	48.904180
993.000000	48.843810
994.000000	48.788270
995.000000	48.733680
996.000000	48.681620
997.000000	48.631900
998.000000	48.582680
999.000000	48.533850
1000.000000	48.484190
1001.000000	48.432820
1002.000000	48.381470
1003.000000	48.329060
1004.000000	48.274420
1005.000000	48.217950
1006.000000	48.158240
1007.000000	48.095760
1008.000000	48.030960
1009.000000	47.960520
1010.000000	47.887930
1011.000000	47.814680
1012.000000	47.739020
1013.000000	47.662300
1014.000000	47.584310
1015.000000	47.508500
1016.000000	47.436500
1017.000000	47.367960
1018.000000	47.303290
1019.000000	47.245230
1020.000000	47.191160
1021.000000	47.141060
1022.000000	47.096650
1023.000000	47.057620
1024.000000	47.024250
1025.000000	46.993920
1026.000000	46.966330
1027.000000	46.941750
1028.000000	46.920520
1029.000000	46.901480
1030.000000	46.883160
1031.000000	46.865570
1032.000000	46.849560
1033.000000	46.834940
1034.000000	46.820940
1035.000000	46.807590
1036.000000	46.793410
1037.000000	46.780900
1038.000000	46.770240
1039.000000	46.758880
1040.000000	46.748580
1041.000000	46.740210
1042.000000	46.733850
1043.000000	46.728740
1044.000000	46.725170
1045.000000	46.723190
1046.000000	46.724750
1047.000000	46.728930
1048.000000	46.733510
1049.000000	46.741200
1050.000000	46.752910
1051.000000	46.767800
1052.000000	46.784830
1053.000000	46.806900
1054.000000	46.832980
1055.000000	46.863650
1056.000000	46.899670
1057.000000	46.938110
1058.000000	46.980780
1059.000000	47.027380
1060.000000	47.076260
1061.000000	47.127780
1062.000000	47.180830
1063.000000	47.233530
1064.000000	47.285530
1065.000000	47.337150
1066.000000	47.385970
1067.000000	47.434610
1068.000000	47.482220
1069.000000	47.528430
1070.000000	47.573400
1071.000000	47.617280
1072.000000	47.661040
1073.000000	47.704680
1074.000000	47.746370
1075.000000	47.787570
1076.000000	47.829230
1077.000000	47.868820
1078.000000	47.909710
1079.000000	47.949900
1080.000000	47.990190
1081.000000	48.029640
1082.000000	48.070240
1083.000000	48.109880
1084.000000	48.150850
1085.000000	48.192310
1086.000000	48.234060
1087.000000	48.278520
1088.000000	48.321760
1089.000000	48.366010
1090.000000	48.409110
1091.000000	48.452550
1092.000000	48.494700
1093.000000	48.537040
1094.000000	48.580390
1095.000000	48.621590
1096.000000	48.662070
1097.000000	48.700000
1098.000000	48.736480
1099.000000	48.770510
1100.000000	48.802890
1101.000000	48.834480
1102.000000	48.864150
1103.000000	48.890430
1104.000000	48.912050
1105.000000	48.933040
1106.000000	48.952500
1107.000000	48.969110
1108.000000	48.983830
1109.000000	48.997520
1110.000000	49.009760
1111.000000	49.018010
1112.000000	49.026190
1113.000000	49.034180
1114.000000	49.041440
1115.000000	49.046880
1116.000000	49.051300
1117.000000	49.054260
1118.000000	49.054690
1119.000000	49.052090
1120.000000	49.045090
1121.000000	49.031850
1122.000000	49.011780
1123.000000	48.981760
1124.000000	48.944620
1125.000000	48.899280
1126.000000	48.840770
1127.000000	48.771400
1128.000000	48.687370
1129.000000	48.586100
1130.000000	48.465630
1131.000000	48.324660
1132.000000	48.158550
1133.000000	47.970140
1134.000000	47.750000
1135.000000	47.498610
1136.000000	47.215740
1137.000000	46.899260
1138.000000	46.551520
1139.000000	46.178320
1140.000000	45.785060
1141.000000	45.380370
1142.000000	44.963580
1143.000000	44.537680
1144.000000	44.115840
1145.000000	43.702100
1146.000000	43.308920
1147.000000	42.947780
1148.000000	42.629470
1149.000000	42.356510
1150.000000	42.130480
1151.000000	41.944790
1152.000000	41.802790
1153.000000	41.700260
1154.000000	41.624640
1155.000000	41.564960
1156.000000	41.508550
1157.000000	41.438200
1158.000000	41.338090
1159.000000	41.200780
1160.000000	41.019890
1161.000000	40.802310
1162.000000	40.543100
1163.000000	40.242250
1164.000000	39.908980
1165.000000	39.549880
1166.000000	39.170540
1167.000000	38.781160
1168.000000	38.385690
1169.000000	37.990550
1170.000000	37.596470
1171.000000	37.202640
1172.000000	36.813240
1173.000000	36.432110
1174.000000	36.061740
1175.000000	35.698340
1176.000000	35.346910
1177.000000	34.999630
1178.000000	34.655170
1179.000000	34.304820
1180.000000	33.947570
1181.000000	33.572820
1182.000000	33.185460
1183.000000	32.786490
1184.000000	32.386100
1185.000000	31.998890
1186.000000	31.633010
1187.000000	31.304560
1188.000000	31.033760
1189.000000	30.834350
1190.000000	30.721680
1191.000000	30.709300
1192.000000	30.794080
1193.000000	30.974500
1194.000000	31.227770
1195.000000	31.533830
1196.000000	31.874630
1197.000000	32.230780
1198.000000	32.582940
1199.000000	32.917310
1200.000000	33.219540
1201.000000	33.479250
1202.000000	33.693410
1203.000000	33.859040
1204.000000	33.984050
1205.000000	34.079260
1206.000000	34.149650
1207.000000	34.204210
1208.000000	34.249360
1209.000000	34.290420
1210.000000	34.330800
1211.000000	34.375430
1212.000000	34.426800
1213.000000	34.486710
1214.000000	34.555790
1215.000000	34.636780
1216.000000	34.725250
1217.000000	34.823950
1218.000000	34.928450
1219.000000	35.038860
1220.000000	35.156870
1221.000000	35.280110
1222.000000	35.408560
1223.000000	35.545070
1224.000000	35.690610
1225.000000	35.837760
1226.000000	35.992700
1227.000000	36.151940
1228.000000	36.315660
1229.000000	36.485290
1230.000000	36.658890
1231.000000	36.834280
1232.000000	37.011360
1233.000000	37.187870
1234.000000	37.361710
1235.000000	37.535970
1236.000000	37.708470
1237.000000	37.879080
1238.000000	38.047630
1239.000000	38.210560
1240.000000	38.368130
1241.000000	38.525320
1242.000000	38.680540
1243.000000	38.831340
1244.000000	38.977830
1245.000000	39.121230
1246.000000	39.260610
1247.000000	39.394640
1248.000000	39.524120
1249.000000	39.648410
1250.000000	39.768870
1251.000000	39.882260
1252.000000	39.989790
1253.000000	40.091890
1254.000000	40.189970
1255.000000	40.282880
1256.000000	40.371260
1257.000000	40.454460
1258.000000	40.532170
1259.000000	40.608620
1260.000000	40.682230
1261.000000	40.751590
1262.000000	40.818450
1263.000000	40.883540
1264.000000	40.947140
1265.000000	41.010860
1266.000000	41.073630
1267.000000	41.137650
1268.000000	41.203260
1269.000000	41.266900
1270.000000	41.330260
1271.000000	41.395590
1272.000000	41.461590
1273.000000	41.529240
1274.000000	41.596460
1275.000000	41.663300
1276.000000	41.731580
1277.000000	41.801000
1278.000000	41.871640
1279.000000	41.945220
1280.000000	42.021990
1281.000000	42.101670
1282.000000	42.184300
1283.000000	42.269990
1284.000000	42.358150
1285.000000	42.447160
1286.000000	42.536680
1287.000000	42.626550
1288.000000	42.715650
1289.000000	42.803940
1290.000000	42.887700
1291.000000	42.968510
1292.000000	43.045420
1293.000000	43.116050
1294.000000	43.181710
1295.000000	43.242680
1296.000000	43.298380
1297.000000	43.348000
1298.000000	43.392010
1299.000000	43.431080
1300.000000	43.467190
1301.000000	43.497770
1302.000000	43.522830
1303.000000	43.545130
1304.000000	43.564640
1305.000000	43.581180
1306.000000	43.593910
1307.000000	43.602610
1308.000000	43.606880
1309.000000	43.605450
1310.000000	43.597500
1311.000000	43.583110
1312.000000	43.562240
1313.000000	43.533880
1314.000000	43.497900
1315.000000	43.455130
1316.000000	43.405530
1317.000000	43.350110
1318.000000	43.290300
1319.000000	43.224300
1320.000000	43.151270
1321.000000	43.073820
1322.000000	42.991770
1323.000000	42.905000
1324.000000	42.813750
1325.000000	42.715200
1326.000000	42.611130
1327.000000	42.500130
1328.000000	42.380920
1329.000000	42.256090
1330.000000	42.125790
1331.000000	41.986520
1332.000000	41.838240
1333.000000	41.681040
1334.000000	41.512410
1335.000000	41.334820
1336.000000	41.148050
1337.000000	40.952350
1338.000000	40.744110
1339.000000	40.524080
1340.000000	40.293540
1341.000000	40.051910
1342.000000	39.798060
1343.000000	39.532550
1344.000000	39.257110
1345.000000	38.968750
1346.000000	38.665010
1347.000000	38.345390
1348.000000	38.013690
1349.000000	37.662700
1350.000000	37.289020
1351.000000	36.889640
1352.000000	36.462380
1353.000000	36.008310
1354.000000	35.528940
1355.000000	35.029760
1356.000000	34.523790
1357.000000	34.028550
1358.000000	33.554500
1359.000000	33.113920
1360.000000	32.714590
1361.000000	32.365520
1362.000000	32.064130
1363.000000	31.804690
1364.000000	31.582780
1365.000000	31.395470
1366.000000	31.227400
1367.000000	31.063450
1368.000000	30.889730
1369.000000	30.692050
1370.000000	30.465380
1371.000000	30.200840
1372.000000	29.900510
1373.000000	29.564160
1374.000000	29.197990
1375.000000	28.804020
1376.000000	28.393280
1377.000000	27.972720
1378.000000	27.551880
1379.000000	27.144410
1380.000000	26.746500
1381.000000	26.377970
1382.000000	26.034830
1383.000000	25.719570
1384.000000	25.426590
1385.000000	25.153390
1386.000000	24.899050
1387.000000	24.661820
1388.000000	24.445900
1389.000000	24.243160
1390.000000	24.061300
1391.000000	23.888960
1392.000000	23.740320
1393.000000	23.614740
1394.000000	23.516810
1395.000000	23.451750
1396.000000	23.415140
1397.000000	23.389560
1398.000000	23.356760
1399.000000	23.324170
1400.000000	23.292270
1401.000000	23.253790
1402.000000	23.188740
1403.000000	23.099080
1404.000000	22.987810
1405.000000	22.854730
1406.000000	22.694580
1407.000000	22.519030
1408.000000	22.334740
1409.000000	22.145410
1410.000000	21.945620
1411.000000	21.742580
1412.000000	21.546550
1413.000000	21.368290
1414.000000	21.205590
1415.000000	21.052230
1416.000000	20.904170
1417.000000	20.765220
1418.000000	20.640200
1419.000000	20.518360
1420.000000	20.403880
1421.000000	20.287150
1422.000000	20.173040
1423.000000	20.054950
1424.000000	19.931770
1425.000000	19.805600
1426.000000	19.678860
1427.000000	19.554690
1428.000000	19.432220
1429.000000	19.308530
1430.000000	19.183410
1431.000000	19.068030
1432.000000	18.959000
1433.000000	18.857600
1434.000000	18.758060
1435.000000	18.663630
1436.000000	18.576200
1437.000000	18.489380
1438.000000	18.409580
1439.000000	18.331300
1440.000000	18.256220
1441.000000	18.180090
1442.000000	18.104710
1443.000000	18.024740
1444.000000	17.946490
1445.000000	17.867100
1446.000000	17.789920
1447.000000	17.714670
1448.000000	17.628090
1449.000000	17.545680
1450.000000	17.463810
1451.000000	17.384830
1452.000000	17.306500
1453.000000	17.230830
1454.000000	17.154710
1455.000000	17.079430
1456.000000	17.004170
1457.000000	16.927840
1458.000000	16.858290
1459.000000	16.790270
1460.000000	16.725400
1461.000000	16.659020
1462.000000	16.593980
1463.000000	16.529990
1464.000000	16.470530
1465.000000	16.411190
1466.000000	16.355140
1467.000000	16.305060
1468.000000	16.256220
1469.000000	16.209410
1470.000000	16.165330
1471.000000	16.125720
1472.000000	16.087730
1473.000000	16.051960
1474.000000	16.014400
1475.000000	15.979740
1476.000000	15.946970
1477.000000	15.911910
1478.000000	15.878210
1479.000000	15.844760
1480.000000	15.810550
1481.000000	15.774610
1482.000000	15.739470
1483.000000	15.705520
1484.000000	15.672380
1485.000000	15.640840
1486.000000	15.608370
1487.000000	15.579130
1488.000000	15.550340
1489.000000	15.523950
1490.000000	15.497790
1491.000000	15.472300
1492.000000	15.447300
1493.000000	15.423310
1494.000000	15.401070
1495.000000	15.377850
1496.000000	15.355350
1497.000000	15.334550
1498.000000	15.316090
1499.000000	15.297570
1500.000000	15.278400
1501.000000	15.261130
1502.000000	15.246120
1503.000000	15.231810
1504.000000	15.221840
1505.000000	15.214270
1506.000000	15.209800
1507.000000	15.204120
1508.000000	15.197860
1509.000000	15.193520
1510.000000	15.192340
1511.000000	15.192330
1512.000000	15.193100
1513.000000	15.194020
1514.000000	15.195140
1515.000000	15.196140
1516.000000	15.195740
1517.000000	15.195890
1518.000000	15.197670
1519.000000	15.198390
1520.000000	15.200350
1521.000000	15.201420
1522.000000	15.201940
1523.000000	15.202780
1524.000000	15.198910
1525.000000	15.184950
1526.000000	15.166110
1527.000000	15.147280
1528.000000	15.127300
1529.000000	15.110210
1530.000000	15.091800
1531.000000	15.072140
1532.000000	15.053440
1533.000000	15.036770
1534.000000	15.022970
1535.000000	15.018960
1536.000000	15.019370
1537.000000	15.020700
1538.000000	15.022340
1539.000000	15.020570
1540.000000	15.017470
1541.000000	15.014940
1542.000000	15.012570
1543.000000	15.008960
1544.000000	15.005580
1545.000000	15.002110
1546.000000	14.999110
1547.000000	14.995780
1548.000000	14.992410
1549.000000	14.990810
1550.000000	14.991630
1551.000000	14.994420
1552.000000	14.995140
1553.000000	14.994340
1554.000000	14.995310
1555.000000	14.997120
1556.000000	14.999270
1557.000000	15.000530
1558.000000	15.001750
1559.000000	15.000960
1560.000000	14.997240
1561.000000	14.992140
1562.000000	14.986550
1563.000000	14.981080
1564.000000	14.972760
1565.000000	14.962150
1566.000000	14.951380
1567.000000	14.941060
1568.000000	14.928670
1569.000000	14.916720
1570.000000	14.907380
1571.000000	14.897150
1572.000000	14.888360
1573.000000	14.881120
1574.000000	14.873860
1575.000000	14.869270
1576.000000	14.866420
1577.000000	14.863970
1578.000000	14.865150
1579.000000	14.868160
1580.000000	14.871970
1581.000000	14.879090
1582.000000	14.887700
1583.000000	14.897190
1584.000000	14.909220
1585.000000	14.923330
1586.000000	14.939860
1587.000000	14.960250
1588.000000	14.981590
1589.000000	15.003670
1590.000000	15.027440
1591.000000	15.052560
1592.000000	15.079770
1593.000000	15.109810
1594.000000	15.142520
1595.000000	15.176680
1596.000000	15.212010
1597.000000	15.248380
1598.000000	15.285600
1599.000000	15.324970
1600.000000	15.365800
1601.000000	15.408800
1602.000000	15.453910
1603.000000	15.498200
1604.000000	15.544900
1605.000000	15.592640
1606.000000	15.639350
1607.000000	15.686710
1608.000000	15.736100
1609.000000	15.786680
1610.000000	15.838020
1611.000000	15.888480
1612.000000	15.939140
1613.000000	15.993050
1614.000000	16.045600
1615.000000	16.098090
1616.000000	16.154340
1617.000000	16.210160
1618.000000	16.265020
1619.000000	16.321480
1620.000000	16.378310
1621.000000	16.436880
1622.000000	16.495420
1623.000000	16.552750
1624.000000	16.610090
1625.000000	16.669800
1626.000000	16.726300
1627.000000	16.785080
1628.000000	16.846160
1629.000000	16.906220
1630.000000	16.964970
1631.000000	17.024560
1632.000000	17.084190
1633.000000	17.144970
1634.000000	17.206250
1635.000000	17.265940
1636.000000	17.325490
1637.000000	17.382390
1638.000000	17.438080
1639.000000	17.491020
1640.000000	17.545110
1641.000000	17.596140
1642.000000	17.646210
1643.000000	17.694410
1644.000000	17.739020
1645.000000	17.782670
1646.000000	17.825650
1647.000000	17.866370
1648.000000	17.904640
1649.000000	17.942490
1650.000000	17.976300
1651.000000	18.007300
1652.000000	18.036350
1653.000000	18.061950
1654.000000	18.085220
1655.000000	18.105750
1656.000000	18.121670
1657.000000	18.134940
1658.000000	18.142750
1659.000000	18.145200
1660.000000	18.141780
1661.000000	18.134600
1662.000000	18.121700
1663.000000	18.103660
1664.000000	18.079650
1665.000000	18.046040
1666.000000	18.007310
1667.000000	17.959510
1668.000000	17.907220
1669.000000	17.846900
1670.000000	17.776350
1671.000000	17.692470
1672.000000	17.594220
1673.000000	17.479810
1674.000000	17.348210
1675.000000	17.197640
1676.000000	17.023330
1677.000000	16.824700
1678.000000	16.594320
1679.000000	16.335280
1680.000000	16.048790
1681.000000	15.741130
1682.000000	15.421620
1683.000000	15.100590
1684.000000	14.789320
1685.000000	14.500150
1686.000000	14.238490
1687.000000	14.011470
1688.000000	13.820720
1689.000000	13.664850
1690.000000	13.539910
1691.000000	13.440620
1692.000000	13.360430
1693.000000	13.289590
1694.000000	13.223050
1695.000000	13.157950
1696.000000	13.097060
1697.000000	13.037160
1698.000000	12.986440
1699.000000	12.949820
1700.000000	12.933200
1701.000000	12.934720
1702.000000	12.959490
1703.000000	13.000390
1704.000000	13.053660
1705.000000	13.116270
1706.000000	13.180280
1707.000000	13.240550
1708.000000	13.296000
1709.000000	13.343400
1710.000000	13.380350
1711.000000	13.410760
1712.000000	13.424660
1713.000000	13.431280
1714.000000	13.433010
1715.000000	13.423730
1716.000000	13.407870
1717.000000	13.389470
1718.000000	13.369050
1719.000000	13.343580
1720.000000	13.318400
1721.000000	13.294490
1722.000000	13.274390
1723.000000	13.255340
1724.000000	13.236140
1725.000000	13.218300
1726.000000	13.198020
1727.000000	13.174820
1728.000000	13.141460
1729.000000	13.105210
1730.000000	13.061750
1731.000000	13.009510
1732.000000	12.953670
1733.000000	12.895970
1734.000000	12.840640
1735.000000	12.792120
1736.000000	12.753410
1737.000000	12.731750
1738.000000	12.733530
1739.000000	12.754890
1740.000000	12.798870
1741.000000	12.867280
1742.000000	12.955740
1743.000000	13.063600
1744.000000	13.184730
1745.000000	13.314970
1746.000000	13.450450
1747.000000	13.585290
1748.000000	13.715260
1749.000000	13.837190
1750.000000	13.948390
1751.000000	14.047040
1752.000000	14.132060
1753.000000	14.202560
1754.000000	14.260870
1755.000000	14.307170
1756.000000	14.342820
1757.000000	14.364370
1758.000000	14.375430
1759.000000	14.375970
1760.000000	14.369160
1761.000000	14.353320
1762.000000	14.331870
1763.000000	14.311160
1764.000000	14.289890
1765.000000	14.272920
1766.000000	14.261810
1767.000000	14.263350
1768.000000	14.275300
1769.000000	14.301050
1770.000000	14.340830
1771.000000	14.395050
1772.000000	14.463260
1773.000000	14.541590
1774.000000	14.628540
1775.000000	14.722200
1776.000000	14.821880
1777.000000	14.922240
1778.000000	15.021440
1779.000000	15.119760
1780.000000	15.215770
1781.000000	15.308800
1782.000000	15.396420
1783.000000	15.481040
1784.000000	15.563280
1785.000000	15.641290
1786.000000	15.715790
1787.000000	15.787570
1788.000000	15.859350
1789.000000	15.928660
1790.000000	15.994500
1791.000000	16.059030
1792.000000	16.123560
1793.000000	16.183710
1794.000000	16.241170
1795.000000	16.296140
1796.000000	16.349660
1797.000000	16.400930
1798.000000	16.448750
1799.000000	16.495070
1800.000000	16.542310
1801.000000	16.589430
1802.000000	16.634100
1803.000000	16.679320
1804.000000	16.724240
1805.000000	16.766750
1806.000000	16.809150
1807.000000	16.854380
1808.000000	16.899660
1809.000000	16.942200
1810.000000	16.980570
1811.000000	17.020610
1812.000000	17.061980
1813.000000	17.098380
1814.000000	17.130970
1815.000000	17.162950
1816.000000	17.191730
1817.000000	17.213780
1818.000000	17.229520
1819.000000	17.245470
1820.000000	17.267450
1821.000000	17.290590
1822.000000	17.314270
1823.000000	17.338190
1824.000000	17.358650
1825.000000	17.377200
1826.000000	17.399830
1827.000000	17.431100
1828.000000	17.471660
1829.000000	17.519770
1830.000000	17.568930
1831.000000	17.617340
1832.000000	17.665560
1833.000000	17.717300
1834.000000	17.775360
1835.000000	17.839770
1836.000000	17.907030
1837.000000	17.975150
1838.000000	18.041510
1839.000000	18.101100
1840.000000	18.157620
1841.000000	18.213420
1842.000000	18.269880
1843.000000	18.324780
1844.000000	18.373280
1845.000000	18.413860
1846.000000	18.449170
1847.000000	18.485750
1848.000000	18.532550
1849.000000	18.588200
1850.000000	18.641360
1851.000000	18.687720
1852.000000	18.728470
1853.000000	18.772330
1854.000000	18.828170
1855.000000	18.891460
1856.000000	18.953790
1857.000000	19.007180
1858.000000	19.047650
1859.000000	19.079850
1860.000000	19.111410
1861.000000	19.144700
1862.000000	19.175390
1863.000000	19.196240
1864.000000	19.201650
1865.000000	19.196000
1866.000000	19.181080
1867.000000	19.157760
1868.000000	19.126850
1869.000000	19.085160
1870.000000	19.031220
1871.000000	18.965910
1872.000000	18.887850
1873.000000	18.797590
1874.000000	18.695970
1875.000000	18.576800
1876.000000	18.439040
1877.000000	18.281970
1878.000000	18.102270
1879.000000	17.900630
1880.000000	17.676880
1881.000000	17.428680
1882.000000	17.163070
1883.000000	16.885350
1884.000000	16.599150
1885.000000	16.309380
1886.000000	16.021720
1887.000000	15.737410
1888.000000	15.464290
1889.000000	15.202260
1890.000000	14.957390
1891.000000	14.731880
1892.000000	14.524290
1893.000000	14.331290
1894.000000	14.148820
1895.000000	13.976970
1896.000000	13.813960
1897.000000	13.658270
1898.000000	13.502450
1899.000000	13.352940
1900.000000	13.206780
1901.000000	13.062210
1902.000000	12.916550
1903.000000	12.770740
1904.000000	12.627960
1905.000000	12.487820
1906.000000	12.348130
1907.000000	12.211380
1908.000000	12.077250
1909.000000	11.942740
1910.000000	11.806490
1911.000000	11.670710
1912.000000	11.541580
1913.000000	11.416720
1914.000000	11.292910
1915.000000	11.169670
1916.000000	11.050140
1917.000000	10.932540
1918.000000	10.816770
1919.000000	10.704750
1920.000000	10.598950
1921.000000	10.499540
1922.000000	10.399520
1923.000000	10.301180
1924.000000	10.209330
1925.000000	10.122160
1926.000000	10.034640
1927.000000	9.953370
1928.000000	9.879490
1929.000000	9.811030
1930.000000	9.745630
1931.000000	9.680170
1932.000000	9.619230
1933.000000	9.562600
1934.000000	9.507100
1935.000000	9.456220
1936.000000	9.412330
1937.000000	9.372950
1938.000000	9.338720
1939.000000	9.307590
1940.000000	9.280260
1941.000000	9.258640
1942.000000	9.240640
1943.000000	9.227150
1944.000000	9.217020
1945.000000	9.209050
1946.000000	9.205040
1947.000000	9.203150
1948.000000	9.202470
1949.000000	9.204590
1950.000000	9.207010
1951.000000	9.214360
1952.000000	9.225340
1953.000000	9.237170
1954.000000	9.253960
1955.000000	9.274570
1956.000000	9.295300
1957.000000	9.317430
1958.000000	9.338950
1959.000000	9.362670
1960.000000	9.388900
1961.000000	9.413250
1962.000000	9.437680
1963.000000	9.465670
1964.000000	9.491280
1965.000000	9.517630
1966.000000	9.547410
1967.000000	9.577340
1968.000000	9.604660
1969.000000	9.632010
1970.000000	9.663750
1971.000000	9.693370
1972.000000	9.723700
1973.000000	9.752320
1974.000000	9.784810
1975.000000	9.817760
1976.000000	9.846880
1977.000000	9.875500
1978.000000	9.912010
1979.000000	9.948510
1980.000000	9.980640
1981.000000	10.016250
1982.000000	10.052720
1983.000000	10.090300
1984.000000	10.125360
1985.000000	10.161470
1986.000000	10.199350
1987.000000	10.237940
1988.000000	10.274030
1989.000000	10.309960
1990.000000	10.345030
1991.000000	10.379370
1992.000000	10.415820
1993.000000	10.448390
1994.000000	10.480190
1995.000000	10.509830
1996.000000	10.538780
1997.000000	10.567070
1998.000000	10.591240
1999.000000	10.613390
2000.000000	10.635770
2001.000000	10.656330
2002.000000	10.672520
2003.000000	10.691290
2004.000000	10.705780
2005.000000	10.718890
2006.000000	10.730390
2007.000000	10.736850
2008.000000	10.743520
2009.000000	10.748010
2010.000000	10.749230
2011.000000	10.747460
2012.000000	10.743270
2013.000000	10.737030
2014.000000	10.731520
2015.000000	10.721070
2016.000000	10.708600
2017.000000	10.695500
2018.000000	10.678500
2019.000000	10.659290
2020.000000	10.639400
2021.000000	10.616890
2022.000000	10.592400
2023.000000	10.564810
2024.000000	10.534430
2025.000000	10.502220
2026.000000	10.468400
2027.000000	10.434510
2028.000000	10.400790
2029.000000	10.365830
2030.000000	10.328760
2031.000000	10.289360
2032.000000	10.248790
2033.000000	10.207290
2034.000000	10.165320
2035.000000	10.122120
2036.000000	10.075970
2037.000000	10.028610
2038.000000	9.979370
2039.000000	9.926950
2040.000000	9.873580
2041.000000	9.819800
2042.000000	9.764460
2043.000000	9.704770
2044.000000	9.643070
2045.000000	9.581800
2046.000000	9.521730
2047.000000	9.459180
2048.000000	9.396690
2049.000000	9.337830
2050.000000	9.279970
2051.000000	9.225100
2052.000000	9.172640
2053.000000	9.125840
2054.000000	9.082940
2055.000000	9.043100
2056.000000	9.007430
2057.000000	8.976920
2058.000000	8.951240
2059.000000	8.930420
2060.000000	8.913970
2061.000000	8.901630
2062.000000	8.893420
2063.000000	8.888270
2064.000000	8.885720
2065.000000	8.886910
2066.000000	8.891550
2067.000000	8.897130
2068.000000	8.905610
2069.000000	8.914360
2070.000000	8.924600
2071.000000	8.935850
2072.000000	8.946990
2073.000000	8.958970
2074.000000	8.971610
2075.000000	8.986430
2076.000000	9.001830
2077.000000	9.017260
2078.000000	9.030530
2079.000000	9.044560
2080.000000	9.059560
2081.000000	9.074270
2082.000000	9.090020
2083.000000	9.105500
2084.000000	9.120760
2085.000000	9.134610
2086.000000	9.147330
2087.000000	9.160640
2088.000000	9.175390
2089.000000	9.189730
2090.000000	9.201680
2091.000000	9.213020
2092.000000	9.223860
2093.000000	9.233930
2094.000000	9.245340
2095.000000	9.257140
2096.000000	9.267590
2097.000000	9.279640
2098.000000	9.291750
2099.000000	9.302050
2100.000000	9.314000
2101.000000	9.327030
2102.000000	9.340980
2103.000000	9.356020
2104.000000	9.370540
2105.000000	9.385020
2106.000000	9.401540
2107.000000	9.417920
2108.000000	9.434330
2109.000000	9.451070
2110.000000	9.467210
2111.000000	9.483290
2112.000000	9.498230
2113.000000	9.514530
2114.000000	9.531340
2115.000000	9.546880
2116.000000	9.562040
2117.000000	9.577120
2118.000000	9.591900
2119.000000	9.607990
2120.000000	9.623360
2121.000000	9.637780
2122.000000	9.652060
2123.000000	9.664000
2124.000000	9.675480
2125.000000	9.686590
2126.000000	9.695220
2127.000000	9.702600
2128.000000	9.709220
2129.000000	9.713660
2130.000000	9.718190
2131.000000	9.720320
2132.000000	9.721410
2133.000000	9.721520
2134.000000	9.719750
2135.000000	9.715930
2136.000000	9.712390
2137.000000	9.706570
2138.000000	9.701300
2139.000000	9.693700
2140.000000	9.682720
2141.000000	9.672540
2142.000000	9.659320
2143.000000	9.644840
2144.000000	9.628810
2145.000000	9.611270
2146.000000	9.592990
2147.000000	9.573630
2148.000000	9.550330
2149.000000	9.527190
2150.000000	9.504300
2151.000000	9.479550
2152.000000	9.454770
2153.000000	9.428630
2154.000000	9.401910
2155.000000	9.376920
2156.000000	9.350200
2157.000000	9.323140
2158.000000	9.296610
2159.000000	9.269810
2160.000000	9.244040
2161.000000	9.218350
2162.000000	9.191470
2163.000000	9.166340
2164.000000	9.141490
2165.000000	9.117310
2166.000000	9.092570
2167.000000	9.068840
2168.000000	9.044430
2169.000000	9.021520
2170.000000	8.995870
2171.000000	8.970350
2172.000000	8.948240
2173.000000	8.923670
2174.000000	8.899970
2175.000000	8.875090
2176.000000	8.850220
2177.000000	8.824610
2178.000000	8.798320
2179.000000	8.770610
2180.000000	8.743210
2181.000000	8.716080
2182.000000	8.685980
2183.000000	8.656620
2184.000000	8.624280
2185.000000	8.590890
2186.000000	8.553860
2187.000000	8.515040
2188.000000	8.474350
2189.000000	8.429810
2190.000000	8.381680
2191.000000	8.328970
2192.000000	8.270420
2193.000000	8.205710
2194.000000	8.135870
2195.000000	8.057580
2196.000000	7.975140
2197.000000	7.885910
2198.000000	7.791000
2199.000000	7.691600
2200.000000	7.588410
2201.000000	7.480880
2202.000000	7.373910
2203.000000	7.266100
2204.000000	7.160190
2205.000000	7.059280
2206.000000	6.962240
2207.000000	6.873280
2208.000000	6.791750
2209.000000	6.717920
2210.000000	6.653170
2211.000000	6.599240
2212.000000	6.553930
2213.000000	6.520030
2214.000000	6.494890
2215.000000	6.479920
2216.000000	6.471860
2217.000000	6.470140
2218.000000	6.475330
2219.000000	6.489540
2220.000000	6.506790
2221.000000	6.528540
2222.000000	6.557330
2223.000000	6.589050
2224.000000	6.620050
2225.000000	6.650290
2226.000000	6.681520
2227.000000	6.709410
2228.000000	6.739310
2229.000000	6.764080
2230.000000	6.788770
2231.000000	6.809810
2232.000000	6.824350
2233.000000	6.831920
2234.000000	6.836850
2235.000000	6.838340
2236.000000	6.836500
2237.000000	6.832360
2238.000000	6.821340
2239.000000	6.804870
2240.000000	6.783760
2241.000000	6.759680
2242.000000	6.730670
2243.000000	6.700310
2244.000000	6.668110
2245.000000	6.632830
2246.000000	6.593730
2247.000000	6.551300
2248.000000	6.506980
2249.000000	6.460570
2250.000000	6.409480
2251.000000	6.353820
2252.000000	6.297970
2253.000000	6.238300
2254.000000	6.174240
2255.000000	6.107760
2256.000000	6.038740
2257.000000	5.971290
2258.000000	5.898000
2259.000000	5.827360
2260.000000	5.756010
2261.000000	5.686500
2262.000000	5.618930
2263.000000	5.553310
2264.000000	5.492210
2265.000000	5.434120
2266.000000	5.384740
2267.000000	5.338050
2268.000000	5.301770
2269.000000	5.267890
2270.000000	5.243150
2271.000000	5.227130
2272.000000	5.214520
2273.000000	5.209640
2274.000000	5.211460
2275.000000	5.219970
2276.000000	5.229740
2277.000000	5.246100
2278.000000	5.265910
2279.000000	5.292240
2280.000000	5.318550
2281.000000	5.345600
2282.000000	5.374940
2283.000000	5.405410
2284.000000	5.437610
2285.000000	5.469190
2286.000000	5.502250
2287.000000	5.534010
2288.000000	5.563370
2289.000000	5.587970
2290.000000	5.613050
2291.000000	5.636570
2292.000000	5.655030
2293.000000	5.669770
2294.000000	5.679350
2295.000000	5.683660
2296.000000	5.683250
2297.000000	5.678430
2298.000000	5.668490
2299.000000	5.656000
2300.000000	5.641200
2301.000000	5.621300
2302.000000	5.601290
2303.000000	5.581580
2304.000000	5.562740
2305.000000	5.545450
2306.000000	5.532260
2307.000000	5.520170
2308.000000	5.514720
2309.000000	5.514890
2310.000000	5.519990
2311.000000	5.532970
2312.000000	5.553530
2313.000000	5.576610
2314.000000	5.604700
2315.000000	5.639820
2316.000000	5.678580
2317.000000	5.723030
2318.000000	5.770160
2319.000000	5.818400
2320.000000	5.868300
2321.000000	5.918210
2322.000000	5.969360
2323.000000	6.022530
2324.000000	6.074480
2325.000000	6.123760
2326.000000	6.171640
2327.000000	6.217560
2328.000000	6.261990
2329.000000	6.305190
2330.000000	6.346650
2331.000000	6.385690
2332.000000	6.420980
2333.000000	6.453520
2334.000000	6.483860
2335.000000	6.512070
2336.000000	6.536950
2337.000000	6.557760
2338.000000	6.574260
2339.000000	6.586440
2340.000000	6.596160
2341.000000	6.603700
2342.000000	6.606970
2343.000000	6.607040
2344.000000	6.603220
2345.000000	6.596050
2346.000000	6.586860
2347.000000	6.577090
2348.000000	6.565330
2349.000000	6.554020
2350.000000	6.542910
2351.000000	6.530270
2352.000000	6.518340
2353.000000	6.508790
2354.000000	6.504820
2355.000000	6.505140
2356.000000	6.507750
2357.000000	6.514300
2358.000000	6.525670
2359.000000	6.541370
2360.000000	6.559170
2361.000000	6.580760
2362.000000	6.607480
2363.000000	6.637700
2364.000000	6.668180
2365.000000	6.699330
2366.000000	6.731410
2367.000000	6.762400
2368.000000	6.792850
2369.000000	6.821480
2370.000000	6.849440
2371.000000	6.877780
2372.000000	6.904980
2373.000000	6.929360
2374.000000	6.950010
2375.000000	6.968200
2376.000000	6.985470
2377.000000	7.001530
2378.000000	7.017470
2379.000000	7.032800
2380.000000	7.045850
2381.000000	7.056560
2382.000000	7.064770
2383.000000	7.071320
2384.000000	7.079320
2385.000000	7.086600
2386.000000	7.092910
2387.000000	7.098700
2388.000000	7.100710
2389.000000	7.101180
2390.000000	7.100090
2391.000000	7.096430
2392.000000	7.093130
2393.000000	7.089670
2394.000000	7.083210
2395.000000	7.074920
2396.000000	7.064750
2397.000000	7.052860
2398.000000	7.040530
2399.000000	7.027870
2400.000000	7.016900
2401.000000	7.006330
2402.000000	6.994250
2403.000000	6.980260
2404.000000	6.966830
2405.000000	6.954190
2406.000000	6.940750
2407.000000	6.929480
2408.000000	6.919250
2409.000000	6.909430
2410.000000	6.897170
2411.000000	6.886110
2412.000000	6.875150
2413.000000	6.863840
2414.000000	6.852660
2415.000000	6.842140
2416.000000	6.832650
2417.000000	6.821160
2418.000000	6.810380
2419.000000	6.797900
2420.000000	6.787210
2421.000000	6.777450
2422.000000	6.766610
2423.000000	6.756140
2424.000000	6.743560
2425.000000	6.729980
2426.000000	6.717300
2427.000000	6.701030
2428.000000	6.681410
2429.000000	6.662530
2430.000000	6.641780
2431.000000	6.617250
2432.000000	6.590440
2433.000000	6.563230
2434.000000	6.535310
2435.000000	6.505660
2436.000000	6.474140
2437.000000	6.444010
2438.000000	6.412530
2439.000000	6.379470
2440.000000	6.342910
2441.000000	6.306680
2442.000000	6.272210
2443.000000	6.236520
2444.000000	6.201240
2445.000000	6.165490
2446.000000	6.126640
2447.000000	6.089380
2448.000000	6.051700
2449.000000	6.013560
2450.000000	5.977980
2451.000000	5.942660
2452.000000	5.905500
2453.000000	5.869190
2454.000000	5.832650
2455.000000	5.797400
2456.000000	5.765560
2457.000000	5.731580
2458.000000	5.699410
2459.000000	5.672720
2460.000000	5.647040
2461.000000	5.620810
2462.000000	5.594950
2463.000000	5.569040
2464.000000	5.546450
2465.000000	5.526030
2466.000000	5.505490
2467.000000	5.484120
2468.000000	5.467790
2469.000000	5.449030
2470.000000	5.429990
2471.000000	5.415840
2472.000000	5.408920
2473.000000	5.401810
2474.000000	5.391020
2475.000000	5.385170
2476.000000	5.377540
2477.000000	5.370990
2478.000000	5.366870
2479.000000	5.362120
2480.000000	5.362690
2481.000000	5.359240
2482.000000	5.348240
2483.000000	5.341200
2484.000000	5.340410
2485.000000	5.328880
2486.000000	5.331380
2487.000000	5.333290
2488.000000	5.336980
2489.000000	5.339210
2490.000000	5.330120
2491.000000	5.331900
2492.000000	5.339420
2493.000000	5.347530
2494.000000	5.343700
2495.000000	5.362210
2496.000000	5.368510
2497.000000	5.371950
2498.000000	5.377150
2499.000000	5.369170
2500.000000	5.378410
