PE UV       SUBTECH     SPECTRUM    ASCII       PEDS        4.00        
   -1
CICIMAUCR0001-3.Sample.ASC
24/04/11
16:53:49.00
24/04/11
16:53:49.00
Vinicio Soto Monge
C. kalinini
250,000000
1
Lambda 1050
1050L1511233
PerkinElmer UV WinLab 6.3.2.0749 / 2.02.05 Lambda 900 UV/VIS/NIR, Aug  7 2015 09:38:08

0
0
3350/2 860,8/2
0
0
UV/VIS
1
1
1
DoubleDePol,CommonBeamDepol,RBeamAtt,SBeamAtt,60mm sphere, WB InGaAs Detector
0
0
0
0
Program
Program
3350/2 860,8/2
3350/0,2 860,8/0,2
3350/0,2 860,8/0,2
0
15.00
 
 
 
0
 
860,8
319,2
860,8
Front
100
on
S:100 R:100
0
0
0
0
 
0
 
 
 
0
 
 
0
0
0
0
0
 
 
 
 
0
0


0
0
#HDR
-1
-1
#GR
nm
%R
1.0
0.0
2400,000000
-1,000000
2151
8
102,016800
5,507100
#DATA
250.000000	4.096707
251.000000	4.105321
252.000000	4.098513
253.000000	4.064661
254.000000	4.064855
255.000000	4.072298
256.000000	4.060658
257.000000	4.041092
258.000000	4.025963
259.000000	4.013089
260.000000	3.979202
261.000000	3.971451
262.000000	3.957930
263.000000	3.941833
264.000000	3.920737
265.000000	3.924586
266.000000	3.898769
267.000000	3.893004
268.000000	3.913060
269.000000	3.893107
270.000000	3.850125
271.000000	3.845504
272.000000	3.841373
273.000000	3.819359
274.000000	3.823054
275.000000	3.805154
276.000000	3.788227
277.000000	3.805853
278.000000	3.800824
279.000000	3.816265
280.000000	3.814986
281.000000	3.816304
282.000000	3.792708
283.000000	3.767299
284.000000	3.767736
285.000000	3.776068
286.000000	3.768488
287.000000	3.763303
288.000000	3.777450
289.000000	3.793446
290.000000	3.781999
291.000000	3.771417
292.000000	3.778751
293.000000	3.769256
294.000000	3.756002
295.000000	3.766411
296.000000	3.795454
297.000000	3.809307
298.000000	3.806378
299.000000	3.765338
300.000000	3.766513
301.000000	3.759198
302.000000	3.756856
303.000000	3.753620
304.000000	3.747137
305.000000	3.755239
306.000000	3.755487
307.000000	3.743983
308.000000	3.766561
309.000000	3.767258
310.000000	3.765768
311.000000	3.770232
312.000000	3.742073
313.000000	3.736631
314.000000	3.736414
315.000000	3.729286
316.000000	3.881051
317.000000	4.069522
318.000000	4.005185
319.000000	3.899846
320.000000	4.004891
321.000000	4.070106
322.000000	3.986398
323.000000	3.975042
324.000000	4.005001
325.000000	4.043416
326.000000	3.983294
327.000000	3.941147
328.000000	3.938439
329.000000	3.947159
330.000000	3.926339
331.000000	3.872733
332.000000	3.939297
333.000000	3.950259
334.000000	3.881110
335.000000	3.881939
336.000000	3.892242
337.000000	3.905364
338.000000	3.935684
339.000000	3.906761
340.000000	3.862490
341.000000	3.866215
342.000000	3.924320
343.000000	3.921678
344.000000	3.928214
345.000000	3.924945
346.000000	3.858317
347.000000	3.844468
348.000000	3.882995
349.000000	3.923024
350.000000	3.948145
351.000000	3.961052
352.000000	3.994253
353.000000	3.974010
354.000000	3.997123
355.000000	3.999622
356.000000	4.012665
357.000000	4.038638
358.000000	4.062683
359.000000	4.064961
360.000000	4.075373
361.000000	4.133374
362.000000	4.123101
363.000000	4.151392
364.000000	4.172418
365.000000	4.169468
366.000000	4.184341
367.000000	4.223981
368.000000	4.250065
369.000000	4.214274
370.000000	4.222119
371.000000	4.277449
372.000000	4.252571
373.000000	4.181711
374.000000	4.221420
375.000000	4.362701
376.000000	4.446772
377.000000	4.478837
378.000000	4.503428
379.000000	4.517098
380.000000	4.540422
381.000000	4.564992
382.000000	4.589768
383.000000	4.624458
384.000000	4.660064
385.000000	4.691443
386.000000	4.725721
387.000000	4.756921
388.000000	4.793037
389.000000	4.827448
390.000000	4.856463
391.000000	4.896006
392.000000	4.931943
393.000000	4.979452
394.000000	5.028364
395.000000	5.065671
396.000000	5.114068
397.000000	5.160296
398.000000	5.209477
399.000000	5.269802
400.000000	5.328415
401.000000	5.393437
402.000000	5.453875
403.000000	5.530897
404.000000	5.600587
405.000000	5.677336
406.000000	5.763748
407.000000	5.856030
408.000000	5.950773
409.000000	6.043758
410.000000	6.154126
411.000000	6.258541
412.000000	6.378556
413.000000	6.492773
414.000000	6.616264
415.000000	6.751819
416.000000	6.891797
417.000000	7.041077
418.000000	7.197710
419.000000	7.360479
420.000000	7.535336
421.000000	7.712949
422.000000	7.889381
423.000000	8.088180
424.000000	8.282522
425.000000	8.490372
426.000000	8.707999
427.000000	8.928241
428.000000	9.164318
429.000000	9.411762
430.000000	9.660336
431.000000	9.904457
432.000000	10.160958
433.000000	10.431741
434.000000	10.706677
435.000000	10.979713
436.000000	11.260157
437.000000	11.543341
438.000000	11.805464
439.000000	12.094117
440.000000	12.382139
441.000000	12.665254
442.000000	12.962915
443.000000	13.249730
444.000000	13.532101
445.000000	13.783639
446.000000	14.044927
447.000000	14.297357
448.000000	14.566825
449.000000	14.828577
450.000000	15.059919
451.000000	15.300568
452.000000	15.533289
453.000000	15.755524
454.000000	15.976864
455.000000	16.200888
456.000000	16.421852
457.000000	16.629943
458.000000	16.843410
459.000000	17.026676
460.000000	17.225495
461.000000	17.425566
462.000000	17.618900
463.000000	17.807907
464.000000	18.009817
465.000000	18.184287
466.000000	18.366559
467.000000	18.553792
468.000000	18.732822
469.000000	18.923034
470.000000	19.097704
471.000000	19.292062
472.000000	19.486404
473.000000	19.682978
474.000000	19.863359
475.000000	20.045229
476.000000	20.238142
477.000000	20.439965
478.000000	20.635135
479.000000	20.835498
480.000000	21.060804
481.000000	21.318973
482.000000	21.595078
483.000000	21.816409
484.000000	22.013332
485.000000	22.226941
486.000000	22.417479
487.000000	22.617281
488.000000	22.802924
489.000000	23.007393
490.000000	23.209240
491.000000	23.428802
492.000000	23.649753
493.000000	23.889107
494.000000	24.136228
495.000000	24.367880
496.000000	24.625218
497.000000	24.872736
498.000000	25.143933
499.000000	25.436432
500.000000	25.709061
501.000000	26.039950
502.000000	26.356051
503.000000	26.672445
504.000000	27.037152
505.000000	27.363800
506.000000	27.706673
507.000000	28.064940
508.000000	28.429067
509.000000	28.818233
510.000000	29.202340
511.000000	29.596836
512.000000	30.013057
513.000000	30.466059
514.000000	30.922205
515.000000	31.377480
516.000000	31.855174
517.000000	32.333729
518.000000	32.834062
519.000000	33.325654
520.000000	33.822160
521.000000	34.337723
522.000000	34.864386
523.000000	35.411860
524.000000	35.945519
525.000000	36.459257
526.000000	36.989171
527.000000	37.503036
528.000000	38.027486
529.000000	38.540574
530.000000	39.026797
531.000000	39.514200
532.000000	39.979987
533.000000	40.430324
534.000000	40.864101
535.000000	41.296550
536.000000	41.689840
537.000000	42.062666
538.000000	42.400969
539.000000	42.724596
540.000000	43.042609
541.000000	43.339169
542.000000	43.604436
543.000000	43.876145
544.000000	44.101716
545.000000	44.332974
546.000000	44.539534
547.000000	44.694141
548.000000	44.862312
549.000000	44.997352
550.000000	45.123611
551.000000	45.242894
552.000000	45.344441
553.000000	45.443000
554.000000	45.515022
555.000000	45.597097
556.000000	45.680331
557.000000	45.719043
558.000000	45.760584
559.000000	45.784607
560.000000	45.731029
561.000000	45.777223
562.000000	45.810961
563.000000	45.833686
564.000000	45.844736
565.000000	45.854697
566.000000	45.860444
567.000000	45.860124
568.000000	45.821333
569.000000	45.790699
570.000000	45.752691
571.000000	45.691374
572.000000	45.619845
573.000000	45.529577
574.000000	45.436998
575.000000	45.363365
576.000000	45.275286
577.000000	45.143212
578.000000	45.014018
579.000000	44.871601
580.000000	44.719373
581.000000	44.561107
582.000000	44.356653
583.000000	44.161607
584.000000	43.958624
585.000000	43.740126
586.000000	43.502359
587.000000	43.257239
588.000000	43.007905
589.000000	42.745580
590.000000	42.470707
591.000000	42.180048
592.000000	41.869915
593.000000	41.570906
594.000000	41.277092
595.000000	40.965571
596.000000	40.652719
597.000000	40.349799
598.000000	40.028690
599.000000	39.727992
600.000000	39.425403
601.000000	39.133791
602.000000	38.855261
603.000000	38.577386
604.000000	38.315427
605.000000	38.083053
606.000000	37.869652
607.000000	37.673059
608.000000	37.501512
609.000000	37.364615
610.000000	37.232743
611.000000	37.124993
612.000000	37.054657
613.000000	37.015835
614.000000	36.999955
615.000000	36.996855
616.000000	36.989046
617.000000	37.002367
618.000000	37.021257
619.000000	37.048385
620.000000	37.099790
621.000000	37.162249
622.000000	37.239881
623.000000	37.320889
624.000000	37.410324
625.000000	37.526173
626.000000	37.659742
627.000000	37.819438
628.000000	37.989217
629.000000	38.162168
630.000000	38.327926
631.000000	38.511378
632.000000	38.710616
633.000000	38.915241
634.000000	39.105835
635.000000	39.287144
636.000000	39.462029
637.000000	39.619624
638.000000	39.765360
639.000000	39.897204
640.000000	40.025042
641.000000	40.124959
642.000000	40.198542
643.000000	40.280261
644.000000	40.349369
645.000000	40.410359
646.000000	40.470005
647.000000	40.524413
648.000000	40.590007
649.000000	40.681190
650.000000	40.786151
651.000000	40.896537
652.000000	41.027937
653.000000	41.170668
654.000000	41.339740
655.000000	41.543309
656.000000	41.758592
657.000000	41.997036
658.000000	42.232425
659.000000	42.489933
660.000000	42.775737
661.000000	43.038383
662.000000	43.302873
663.000000	43.582387
664.000000	43.868493
665.000000	44.127482
666.000000	44.379386
667.000000	44.618802
668.000000	44.864944
669.000000	45.114868
670.000000	45.397353
671.000000	45.652844
672.000000	45.896650
673.000000	46.144597
674.000000	46.420521
675.000000	46.710778
676.000000	47.007307
677.000000	47.306934
678.000000	47.601942
679.000000	47.919395
680.000000	48.213486
681.000000	48.571527
682.000000	48.922260
683.000000	49.243230
684.000000	49.579220
685.000000	49.908049
686.000000	50.219671
687.000000	50.521134
688.000000	50.805053
689.000000	51.091646
690.000000	51.405548
691.000000	51.677934
692.000000	51.942679
693.000000	52.216326
694.000000	52.455036
695.000000	52.688144
696.000000	52.943292
697.000000	53.218363
698.000000	53.482929
699.000000	53.777765
700.000000	54.072694
701.000000	54.356625
702.000000	54.640046
703.000000	54.949214
704.000000	55.225177
705.000000	55.541284
706.000000	55.852135
707.000000	56.181436
708.000000	56.495157
709.000000	56.815072
710.000000	57.138868
711.000000	57.425802
712.000000	57.707080
713.000000	58.031045
714.000000	58.285921
715.000000	58.543465
716.000000	58.818667
717.000000	59.066513
718.000000	59.277400
719.000000	59.488786
720.000000	59.717280
721.000000	59.928747
722.000000	60.118034
723.000000	60.325940
724.000000	60.494904
725.000000	60.643263
726.000000	60.824378
727.000000	60.956409
728.000000	61.130753
729.000000	61.319591
730.000000	61.417596
731.000000	61.587435
732.000000	61.741956
733.000000	61.891181
734.000000	61.970854
735.000000	62.140511
736.000000	62.257648
737.000000	62.343500
738.000000	62.438335
739.000000	62.591937
740.000000	62.656711
741.000000	62.748423
742.000000	62.821431
743.000000	62.912025
744.000000	62.974180
745.000000	63.051300
746.000000	63.053400
747.000000	63.136204
748.000000	63.158813
749.000000	63.201575
750.000000	63.208080
751.000000	63.245264
752.000000	63.313355
753.000000	63.303400
754.000000	63.335377
755.000000	63.391794
756.000000	63.319852
757.000000	63.414913
758.000000	63.364168
759.000000	63.435638
760.000000	63.410604
761.000000	63.389069
762.000000	63.354064
763.000000	63.339925
764.000000	63.331855
765.000000	63.341930
766.000000	63.319469
767.000000	63.208921
768.000000	63.213241
769.000000	63.093545
770.000000	62.986756
771.000000	62.979637
772.000000	62.930010
773.000000	62.857004
774.000000	62.768770
775.000000	62.625409
776.000000	62.566242
777.000000	62.451961
778.000000	62.310165
779.000000	62.277017
780.000000	62.156215
781.000000	62.015304
782.000000	61.906661
783.000000	61.788877
784.000000	61.592446
785.000000	61.487329
786.000000	61.448670
787.000000	61.294803
788.000000	61.234851
789.000000	60.974862
790.000000	60.807940
791.000000	60.696681
792.000000	60.559688
793.000000	60.318530
794.000000	60.162632
795.000000	60.016975
796.000000	59.926597
797.000000	59.687839
798.000000	59.545682
799.000000	59.344647
800.000000	59.060229
801.000000	58.898240
802.000000	58.686913
803.000000	58.390452
804.000000	58.242636
805.000000	58.034512
806.000000	57.832684
807.000000	57.639029
808.000000	57.422715
809.000000	57.254201
810.000000	56.956762
811.000000	56.676814
812.000000	56.482064
813.000000	56.358829
814.000000	56.184333
815.000000	55.895092
816.000000	55.644296
817.000000	55.548420
818.000000	55.380031
819.000000	55.121591
820.000000	54.841803
821.000000	54.604832
822.000000	54.380316
823.000000	54.139111
824.000000	54.023362
825.000000	53.811350
826.000000	53.595796
827.000000	53.425026
828.000000	53.112126
829.000000	53.002908
830.000000	52.788886
831.000000	52.591377
832.000000	52.310220
833.000000	52.199438
834.000000	52.035447
835.000000	51.856876
836.000000	51.682893
837.000000	51.535668
838.000000	51.370986
839.000000	51.222287
840.000000	51.059947
841.000000	50.852268
842.000000	50.761907
843.000000	50.796687
844.000000	50.534976
845.000000	50.451324
846.000000	50.268150
847.000000	50.096986
848.000000	50.031166
849.000000	49.879061
850.000000	49.967090
851.000000	49.828606
852.000000	49.740924
853.000000	49.628007
854.000000	49.488525
855.000000	49.380230
856.000000	49.405789
857.000000	49.514760
858.000000	48.722067
859.000000	49.842533
860.000000	49.669733
861.000000	50.163067
862.000000	50.287533
863.000000	49.691333
864.000000	49.011667
865.000000	48.924300
866.000000	49.162633
867.000000	49.246133
868.000000	48.924667
869.000000	49.000200
870.000000	48.619733
871.000000	48.752433
872.000000	48.438467
873.000000	48.263167
874.000000	48.037433
875.000000	47.969200
876.000000	48.065633
877.000000	47.911733
878.000000	47.648800
879.000000	47.607767
880.000000	47.753400
881.000000	47.685933
882.000000	47.624967
883.000000	47.174233
884.000000	47.113000
885.000000	47.372300
886.000000	47.049700
887.000000	46.868267
888.000000	46.869400
889.000000	46.760367
890.000000	46.493933
891.000000	46.329100
892.000000	46.372833
893.000000	46.389067
894.000000	46.537500
895.000000	46.517867
896.000000	46.245033
897.000000	46.188367
898.000000	46.204033
899.000000	46.041367
900.000000	45.952433
901.000000	46.026533
902.000000	46.045933
903.000000	45.890033
904.000000	45.904333
905.000000	45.824267
906.000000	45.726200
907.000000	45.665600
908.000000	45.711233
909.000000	45.558167
910.000000	45.528133
911.000000	45.607867
912.000000	45.466300
913.000000	45.425967
914.000000	45.412533
915.000000	45.325000
916.000000	45.315267
917.000000	45.364867
918.000000	45.284633
919.000000	45.207500
920.000000	45.226100
921.000000	45.121733
922.000000	45.144433
923.000000	45.249767
924.000000	45.230700
925.000000	45.168800
926.000000	45.055700
927.000000	45.055967
928.000000	45.104500
929.000000	45.094733
930.000000	45.137400
931.000000	45.124000
932.000000	45.115233
933.000000	45.118933
934.000000	45.105733
935.000000	45.037700
936.000000	44.985033
937.000000	45.025467
938.000000	45.031167
939.000000	45.023800
940.000000	44.988767
941.000000	45.031967
942.000000	45.098733
943.000000	45.053400
944.000000	45.035533
945.000000	45.002067
946.000000	44.929367
947.000000	44.897833
948.000000	44.963033
949.000000	45.021267
950.000000	44.981800
951.000000	44.950833
952.000000	44.956700
953.000000	44.959033
954.000000	44.945633
955.000000	44.917500
956.000000	44.882800
957.000000	44.894867
958.000000	44.930433
959.000000	44.962067
960.000000	44.926133
961.000000	44.918500
962.000000	44.930500
963.000000	44.886300
964.000000	44.941067
965.000000	44.920533
966.000000	44.886000
967.000000	44.898967
968.000000	44.861333
969.000000	44.939833
970.000000	44.932133
971.000000	44.923600
972.000000	44.906867
973.000000	44.946433
974.000000	44.930633
975.000000	44.909433
976.000000	44.907100
977.000000	44.935333
978.000000	44.933800
979.000000	44.928800
980.000000	44.951367
981.000000	44.947133
982.000000	44.951467
983.000000	44.903267
984.000000	44.945533
985.000000	44.982333
986.000000	44.980900
987.000000	44.971400
988.000000	44.970133
989.000000	44.993233
990.000000	45.019633
991.000000	45.029333
992.000000	45.043633
993.000000	45.020800
994.000000	45.041933
995.000000	45.070967
996.000000	45.075167
997.000000	45.057033
998.000000	45.128800
999.000000	45.134567
1000.000000	45.132133
1001.000000	45.150833
1002.000000	45.186167
1003.000000	45.185067
1004.000000	45.196167
1005.000000	45.182267
1006.000000	45.211133
1007.000000	45.283267
1008.000000	45.306967
1009.000000	45.325667
1010.000000	45.308567
1011.000000	45.325667
1012.000000	45.324200
1013.000000	45.353767
1014.000000	45.343267
1015.000000	45.349667
1016.000000	45.389867
1017.000000	45.426967
1018.000000	45.450233
1019.000000	45.464300
1020.000000	45.495567
1021.000000	45.493367
1022.000000	45.531233
1023.000000	45.524867
1024.000000	45.507467
1025.000000	45.543900
1026.000000	45.570767
1027.000000	45.595633
1028.000000	45.606900
1029.000000	45.642900
1030.000000	45.671167
1031.000000	45.704000
1032.000000	45.717733
1033.000000	45.751533
1034.000000	45.773300
1035.000000	45.780467
1036.000000	45.831767
1037.000000	45.859067
1038.000000	45.874933
1039.000000	45.893500
1040.000000	45.917967
1041.000000	45.898033
1042.000000	45.889567
1043.000000	45.933467
1044.000000	45.987667
1045.000000	46.000333
1046.000000	46.005933
1047.000000	46.079933
1048.000000	46.110200
1049.000000	46.172800
1050.000000	46.160300
1051.000000	46.202667
1052.000000	46.213267
1053.000000	46.242167
1054.000000	46.277800
1055.000000	46.313400
1056.000000	46.340033
1057.000000	46.430933
1058.000000	46.444133
1059.000000	46.481200
1060.000000	46.493000
1061.000000	46.541167
1062.000000	46.565600
1063.000000	46.620367
1064.000000	46.624900
1065.000000	46.647533
1066.000000	46.672400
1067.000000	46.718433
1068.000000	46.771633
1069.000000	46.795633
1070.000000	46.821367
1071.000000	46.820467
1072.000000	46.880300
1073.000000	46.895933
1074.000000	46.931300
1075.000000	46.945800
1076.000000	47.003167
1077.000000	46.990167
1078.000000	47.018467
1079.000000	47.042800
1080.000000	47.064600
1081.000000	47.116567
1082.000000	47.136833
1083.000000	47.182067
1084.000000	47.174100
1085.000000	47.237400
1086.000000	47.235100
1087.000000	47.282833
1088.000000	47.323567
1089.000000	47.348600
1090.000000	47.365533
1091.000000	47.387733
1092.000000	47.417400
1093.000000	47.463000
1094.000000	47.503100
1095.000000	47.518500
1096.000000	47.557800
1097.000000	47.577300
1098.000000	47.590433
1099.000000	47.615767
1100.000000	47.630733
1101.000000	47.657333
1102.000000	47.699167
1103.000000	47.730067
1104.000000	47.763833
1105.000000	47.786400
1106.000000	47.820500
1107.000000	47.822167
1108.000000	47.824567
1109.000000	47.837067
1110.000000	47.888600
1111.000000	47.910367
1112.000000	47.925933
1113.000000	47.951600
1114.000000	47.973400
1115.000000	48.009033
1116.000000	48.055833
1117.000000	48.051467
1118.000000	48.064900
1119.000000	48.104667
1120.000000	48.112500
1121.000000	48.109800
1122.000000	48.139300
1123.000000	48.126500
1124.000000	48.106233
1125.000000	48.117700
1126.000000	48.107300
1127.000000	48.087100
1128.000000	48.084567
1129.000000	48.064333
1130.000000	48.015833
1131.000000	47.976833
1132.000000	47.964133
1133.000000	47.957833
1134.000000	47.968233
1135.000000	47.903833
1136.000000	47.792800
1137.000000	47.743000
1138.000000	47.694267
1139.000000	47.660500
1140.000000	47.616800
1141.000000	47.573700
1142.000000	47.537167
1143.000000	47.528300
1144.000000	47.520467
1145.000000	47.503900
1146.000000	47.485700
1147.000000	47.454733
1148.000000	47.397067
1149.000000	47.364833
1150.000000	47.337000
1151.000000	47.310300
1152.000000	47.296333
1153.000000	47.248233
1154.000000	47.211200
1155.000000	47.184033
1156.000000	47.125167
1157.000000	47.073633
1158.000000	47.017400
1159.000000	46.955100
1160.000000	46.894200
1161.000000	46.826500
1162.000000	46.770200
1163.000000	46.691367
1164.000000	46.600900
1165.000000	46.538867
1166.000000	46.488733
1167.000000	46.435033
1168.000000	46.390367
1169.000000	46.339067
1170.000000	46.269133
1171.000000	46.226400
1172.000000	46.185433
1173.000000	46.139500
1174.000000	46.098633
1175.000000	46.060067
1176.000000	46.048133
1177.000000	46.016767
1178.000000	45.986633
1179.000000	45.956967
1180.000000	45.921033
1181.000000	45.893333
1182.000000	45.877033
1183.000000	45.861133
1184.000000	45.849400
1185.000000	45.851700
1186.000000	45.857933
1187.000000	45.877967
1188.000000	45.914267
1189.000000	45.940467
1190.000000	45.961133
1191.000000	46.007967
1192.000000	46.057833
1193.000000	46.103867
1194.000000	46.158133
1195.000000	46.214167
1196.000000	46.264633
1197.000000	46.321667
1198.000000	46.379200
1199.000000	46.414367
1200.000000	46.453267
1201.000000	46.492633
1202.000000	46.522900
1203.000000	46.568667
1204.000000	46.618667
1205.000000	46.660633
1206.000000	46.704167
1207.000000	46.745533
1208.000000	46.775567
1209.000000	46.820267
1210.000000	46.874367
1211.000000	46.921400
1212.000000	46.962733
1213.000000	46.993000
1214.000000	47.026000
1215.000000	47.061133
1216.000000	47.080000
1217.000000	47.106400
1218.000000	47.140333
1219.000000	47.168667
1220.000000	47.208733
1221.000000	47.251300
1222.000000	47.291300
1223.000000	47.310167
1224.000000	47.329733
1225.000000	47.365600
1226.000000	47.395400
1227.000000	47.422967
1228.000000	47.458967
1229.000000	47.505033
1230.000000	47.533267
1231.000000	47.548933
1232.000000	47.565700
1233.000000	47.594467
1234.000000	47.620367
1235.000000	47.646367
1236.000000	47.666867
1237.000000	47.684400
1238.000000	47.708500
1239.000000	47.732900
1240.000000	47.763233
1241.000000	47.785800
1242.000000	47.807167
1243.000000	47.833733
1244.000000	47.864000
1245.000000	47.892767
1246.000000	47.926867
1247.000000	47.960400
1248.000000	47.990200
1249.000000	48.013000
1250.000000	48.041367
1251.000000	48.056000
1252.000000	48.073767
1253.000000	48.083000
1254.000000	48.099000
1255.000000	48.111333
1256.000000	48.126067
1257.000000	48.122600
1258.000000	48.142367
1259.000000	48.146333
1260.000000	48.158400
1261.000000	48.174733
1262.000000	48.167433
1263.000000	48.151833
1264.000000	48.144533
1265.000000	48.147367
1266.000000	48.177333
1267.000000	48.172833
1268.000000	48.165700
1269.000000	48.159733
1270.000000	48.176867
1271.000000	48.186633
1272.000000	48.189633
1273.000000	48.207767
1274.000000	48.207567
1275.000000	48.209733
1276.000000	48.218067
1277.000000	48.230400
1278.000000	48.235100
1279.000000	48.247067
1280.000000	48.260267
1281.000000	48.276700
1282.000000	48.287867
1283.000000	48.306433
1284.000000	48.331067
1285.000000	48.339267
1286.000000	48.370533
1287.000000	48.387367
1288.000000	48.401333
1289.000000	48.419533
1290.000000	48.427367
1291.000000	48.448533
1292.000000	48.448033
1293.000000	48.456700
1294.000000	48.463933
1295.000000	48.462933
1296.000000	48.470933
1297.000000	48.488333
1298.000000	48.473633
1299.000000	48.478500
1300.000000	48.486667
1301.000000	48.489867
1302.000000	48.488733
1303.000000	48.475933
1304.000000	48.465067
1305.000000	48.463500
1306.000000	48.447500
1307.000000	48.446800
1308.000000	48.446367
1309.000000	48.412733
1310.000000	48.408900
1311.000000	48.392733
1312.000000	48.391467
1313.000000	48.358433
1314.000000	48.336567
1315.000000	48.305233
1316.000000	48.269267
1317.000000	48.246567
1318.000000	48.225733
1319.000000	48.208733
1320.000000	48.171500
1321.000000	48.117033
1322.000000	48.090467
1323.000000	48.044333
1324.000000	48.038567
1325.000000	48.008567
1326.000000	47.950000
1327.000000	47.917633
1328.000000	47.863200
1329.000000	47.817767
1330.000000	47.763533
1331.000000	47.719533
1332.000000	47.640867
1333.000000	47.584767
1334.000000	47.534400
1335.000000	47.466400
1336.000000	47.372533
1337.000000	47.299233
1338.000000	47.241833
1339.000000	47.153800
1340.000000	47.062500
1341.000000	46.977000
1342.000000	46.876233
1343.000000	46.795633
1344.000000	46.689900
1345.000000	46.588733
1346.000000	46.487633
1347.000000	46.436400
1348.000000	46.288800
1349.000000	46.147200
1350.000000	46.078467
1351.000000	45.937933
1352.000000	45.840067
1353.000000	45.727233
1354.000000	45.704900
1355.000000	45.581667
1356.000000	45.483267
1357.000000	45.474333
1358.000000	45.412767
1359.000000	45.349033
1360.000000	45.343167
1361.000000	45.471233
1362.000000	45.323967
1363.000000	45.129500
1364.000000	45.213100
1365.000000	45.087833
1366.000000	44.962533
1367.000000	45.032033
1368.000000	44.932633
1369.000000	44.733967
1370.000000	44.734500
1371.000000	44.697633
1372.000000	44.571300
1373.000000	44.437967
1374.000000	44.359733
1375.000000	44.296067
1376.000000	44.241467
1377.000000	44.143100
1378.000000	44.065700
1379.000000	44.009300
1380.000000	44.019833
1381.000000	43.901300
1382.000000	43.839600
1383.000000	43.582967
1384.000000	43.395667
1385.000000	43.258533
1386.000000	42.980133
1387.000000	42.884700
1388.000000	42.702167
1389.000000	42.387400
1390.000000	42.164200
1391.000000	42.038433
1392.000000	41.852800
1393.000000	41.524467
1394.000000	41.415667
1395.000000	41.305900
1396.000000	40.973267
1397.000000	40.607667
1398.000000	40.354967
1399.000000	40.221700
1400.000000	40.072133
1401.000000	39.691733
1402.000000	39.302733
1403.000000	39.072933
1404.000000	38.893233
1405.000000	38.545000
1406.000000	38.266300
1407.000000	38.014567
1408.000000	37.708133
1409.000000	37.449233
1410.000000	37.110600
1411.000000	36.826100
1412.000000	36.576200
1413.000000	36.386467
1414.000000	36.181400
1415.000000	35.859000
1416.000000	35.598367
1417.000000	35.392967
1418.000000	35.244533
1419.000000	35.056767
1420.000000	34.814400
1421.000000	34.616267
1422.000000	34.462900
1423.000000	34.324633
1424.000000	34.140800
1425.000000	33.956133
1426.000000	33.802333
1427.000000	33.669767
1428.000000	33.539233
1429.000000	33.395967
1430.000000	33.280933
1431.000000	33.177367
1432.000000	33.050500
1433.000000	32.929533
1434.000000	32.848433
1435.000000	32.745733
1436.000000	32.647433
1437.000000	32.581800
1438.000000	32.503900
1439.000000	32.400933
1440.000000	32.313733
1441.000000	32.242633
1442.000000	32.179167
1443.000000	32.093033
1444.000000	32.038333
1445.000000	32.013767
1446.000000	31.942800
1447.000000	31.839167
1448.000000	31.766333
1449.000000	31.723533
1450.000000	31.683700
1451.000000	31.621667
1452.000000	31.542967
1453.000000	31.471267
1454.000000	31.415000
1455.000000	31.352533
1456.000000	31.285400
1457.000000	31.219100
1458.000000	31.140400
1459.000000	31.082167
1460.000000	31.037533
1461.000000	30.976433
1462.000000	30.912700
1463.000000	30.855233
1464.000000	30.802267
1465.000000	30.749133
1466.000000	30.690867
1467.000000	30.631767
1468.000000	30.586600
1469.000000	30.558767
1470.000000	30.523267
1471.000000	30.472833
1472.000000	30.434900
1473.000000	30.394200
1474.000000	30.342167
1475.000000	30.308500
1476.000000	30.293933
1477.000000	30.273500
1478.000000	30.234733
1479.000000	30.202733
1480.000000	30.190200
1481.000000	30.180600
1482.000000	30.154667
1483.000000	30.139400
1484.000000	30.131167
1485.000000	30.120867
1486.000000	30.115800
1487.000000	30.094400
1488.000000	30.083700
1489.000000	30.069533
1490.000000	30.057333
1491.000000	30.046633
1492.000000	30.029633
1493.000000	30.024033
1494.000000	30.026833
1495.000000	30.031900
1496.000000	30.042433
1497.000000	30.057467
1498.000000	30.065067
1499.000000	30.086533
1500.000000	30.107100
1501.000000	30.132900
1502.000000	30.167033
1503.000000	30.207700
1504.000000	30.241067
1505.000000	30.274100
1506.000000	30.309667
1507.000000	30.363933
1508.000000	30.424567
1509.000000	30.457100
1510.000000	30.497633
1511.000000	30.537967
1512.000000	30.577600
1513.000000	30.625600
1514.000000	30.689400
1515.000000	30.738633
1516.000000	30.785467
1517.000000	30.824433
1518.000000	30.862067
1519.000000	30.919800
1520.000000	30.954900
1521.000000	30.994567
1522.000000	31.026167
1523.000000	31.070767
1524.000000	31.121633
1525.000000	31.165833
1526.000000	31.202733
1527.000000	31.241333
1528.000000	31.275400
1529.000000	31.299533
1530.000000	31.335667
1531.000000	31.375100
1532.000000	31.426100
1533.000000	31.457567
1534.000000	31.501767
1535.000000	31.535367
1536.000000	31.562900
1537.000000	31.586333
1538.000000	31.598933
1539.000000	31.616133
1540.000000	31.640867
1541.000000	31.680067
1542.000000	31.719067
1543.000000	31.740600
1544.000000	31.772467
1545.000000	31.826233
1546.000000	31.853267
1547.000000	31.912433
1548.000000	31.965067
1549.000000	32.027067
1550.000000	32.085167
1551.000000	32.123667
1552.000000	32.175533
1553.000000	32.229267
1554.000000	32.276233
1555.000000	32.322633
1556.000000	32.349467
1557.000000	32.374167
1558.000000	32.399467
1559.000000	32.433300
1560.000000	32.443467
1561.000000	32.443100
1562.000000	32.448067
1563.000000	32.452533
1564.000000	32.460167
1565.000000	32.432967
1566.000000	32.411200
1567.000000	32.393733
1568.000000	32.395700
1569.000000	32.386867
1570.000000	32.378800
1571.000000	32.368600
1572.000000	32.376833
1573.000000	32.380233
1574.000000	32.381733
1575.000000	32.392733
1576.000000	32.373667
1577.000000	32.381967
1578.000000	32.396667
1579.000000	32.397700
1580.000000	32.406467
1581.000000	32.431100
1582.000000	32.433267
1583.000000	32.467533
1584.000000	32.512400
1585.000000	32.545967
1586.000000	32.566100
1587.000000	32.589533
1588.000000	32.618000
1589.000000	32.636233
1590.000000	32.672067
1591.000000	32.704000
1592.000000	32.721767
1593.000000	32.751200
1594.000000	32.776500
1595.000000	32.801400
1596.000000	32.854233
1597.000000	32.893767
1598.000000	32.928467
1599.000000	32.989067
1600.000000	33.036833
1601.000000	33.071800
1602.000000	33.107700
1603.000000	33.178767
1604.000000	33.216633
1605.000000	33.253033
1606.000000	33.289667
1607.000000	33.343600
1608.000000	33.368433
1609.000000	33.415467
1610.000000	33.448067
1611.000000	33.490367
1612.000000	33.489367
1613.000000	33.535533
1614.000000	33.572533
1615.000000	33.579300
1616.000000	33.607000
1617.000000	33.639067
1618.000000	33.648567
1619.000000	33.669900
1620.000000	33.691067
1621.000000	33.695767
1622.000000	33.737367
1623.000000	33.761333
1624.000000	33.781533
1625.000000	33.823533
1626.000000	33.850900
1627.000000	33.854233
1628.000000	33.892333
1629.000000	33.921967
1630.000000	33.934067
1631.000000	33.993900
1632.000000	34.019867
1633.000000	34.035000
1634.000000	34.042567
1635.000000	34.065300
1636.000000	34.069600
1637.000000	34.094067
1638.000000	34.084233
1639.000000	34.115667
1640.000000	34.107967
1641.000000	34.114500
1642.000000	34.119967
1643.000000	34.123467
1644.000000	34.155467
1645.000000	34.148667
1646.000000	34.156100
1647.000000	34.168033
1648.000000	34.215100
1649.000000	34.236100
1650.000000	34.199700
1651.000000	34.178167
1652.000000	34.185067
1653.000000	34.175533
1654.000000	34.150267
1655.000000	34.107700
1656.000000	34.078500
1657.000000	34.050567
1658.000000	33.987833
1659.000000	33.919100
1660.000000	33.855000
1661.000000	33.788200
1662.000000	33.704167
1663.000000	33.610400
1664.000000	33.558233
1665.000000	33.474533
1666.000000	33.390867
1667.000000	33.275600
1668.000000	33.162533
1669.000000	33.050033
1670.000000	32.926333
1671.000000	32.801233
1672.000000	32.682467
1673.000000	32.568967
1674.000000	32.440033
1675.000000	32.330300
1676.000000	32.249467
1677.000000	32.141967
1678.000000	31.992833
1679.000000	31.839833
1680.000000	31.706833
1681.000000	31.569133
1682.000000	31.423033
1683.000000	31.282233
1684.000000	31.129967
1685.000000	31.015067
1686.000000	30.902833
1687.000000	30.849233
1688.000000	30.799300
1689.000000	30.801033
1690.000000	30.825733
1691.000000	30.858833
1692.000000	30.902233
1693.000000	30.941300
1694.000000	30.985200
1695.000000	31.026500
1696.000000	31.051133
1697.000000	31.054267
1698.000000	31.056733
1699.000000	31.067200
1700.000000	31.055700
1701.000000	31.025433
1702.000000	31.014867
1703.000000	31.014933
1704.000000	30.996633
1705.000000	30.950633
1706.000000	30.907033
1707.000000	30.865500
1708.000000	30.796100
1709.000000	30.713133
1710.000000	30.637000
1711.000000	30.542467
1712.000000	30.441567
1713.000000	30.326467
1714.000000	30.188033
1715.000000	30.061767
1716.000000	29.914467
1717.000000	29.761800
1718.000000	29.607267
1719.000000	29.461700
1720.000000	29.343433
1721.000000	29.214667
1722.000000	29.132400
1723.000000	29.099500
1724.000000	29.091833
1725.000000	29.091733
1726.000000	29.092333
1727.000000	29.100800
1728.000000	29.117467
1729.000000	29.148233
1730.000000	29.179367
1731.000000	29.205100
1732.000000	29.234200
1733.000000	29.258533
1734.000000	29.283633
1735.000000	29.308400
1736.000000	29.342567
1737.000000	29.383067
1738.000000	29.415100
1739.000000	29.451333
1740.000000	29.508200
1741.000000	29.553700
1742.000000	29.599833
1743.000000	29.659933
1744.000000	29.700800
1745.000000	29.737800
1746.000000	29.770800
1747.000000	29.796700
1748.000000	29.842133
1749.000000	29.875133
1750.000000	29.884333
1751.000000	29.915067
1752.000000	29.925267
1753.000000	29.927667
1754.000000	29.924000
1755.000000	29.919967
1756.000000	29.931367
1757.000000	29.926000
1758.000000	29.912067
1759.000000	29.925300
1760.000000	29.954100
1761.000000	29.962133
1762.000000	29.967000
1763.000000	29.981033
1764.000000	30.005233
1765.000000	30.030867
1766.000000	30.046633
1767.000000	30.066600
1768.000000	30.090133
1769.000000	30.122233
1770.000000	30.125667
1771.000000	30.162133
1772.000000	30.193933
1773.000000	30.218367
1774.000000	30.257433
1775.000000	30.306767
1776.000000	30.326700
1777.000000	30.339600
1778.000000	30.353800
1779.000000	30.384400
1780.000000	30.395833
1781.000000	30.403567
1782.000000	30.419033
1783.000000	30.431967
1784.000000	30.458267
1785.000000	30.449400
1786.000000	30.444367
1787.000000	30.445633
1788.000000	30.421400
1789.000000	30.411267
1790.000000	30.414767
1791.000000	30.420767
1792.000000	30.438500
1793.000000	30.461100
1794.000000	30.474767
1795.000000	30.499000
1796.000000	30.508200
1797.000000	30.513700
1798.000000	30.533667
1799.000000	30.574367
1800.000000	30.596200
1801.000000	30.625000
1802.000000	30.616800
1803.000000	30.635333
1804.000000	30.626633
1805.000000	30.663433
1806.000000	30.714300
1807.000000	30.730167
1808.000000	30.719667
1809.000000	30.737467
1810.000000	30.791767
1811.000000	30.821467
1812.000000	30.858800
1813.000000	30.790633
1814.000000	30.854233
1815.000000	30.950633
1816.000000	30.876233
1817.000000	30.871667
1818.000000	30.860867
1819.000000	30.934033
1820.000000	31.076200
1821.000000	30.994733
1822.000000	30.926400
1823.000000	30.848367
1824.000000	30.810500
1825.000000	30.897567
1826.000000	30.962667
1827.000000	30.923333
1828.000000	30.988133
1829.000000	30.967367
1830.000000	31.025200
1831.000000	31.077200
1832.000000	31.055833
1833.000000	30.997967
1834.000000	31.071967
1835.000000	31.166800
1836.000000	31.348567
1837.000000	31.337833
1838.000000	31.215167
1839.000000	31.235433
1840.000000	31.308733
1841.000000	31.437767
1842.000000	31.382233
1843.000000	31.205933
1844.000000	31.184533
1845.000000	31.192267
1846.000000	31.378133
1847.000000	31.619300
1848.000000	31.488433
1849.000000	31.280867
1850.000000	31.271533
1851.000000	31.143967
1852.000000	31.237700
1853.000000	31.353267
1854.000000	31.129867
1855.000000	31.096367
1856.000000	31.205100
1857.000000	31.036067
1858.000000	31.000267
1859.000000	31.143833
1860.000000	31.046033
1861.000000	30.844167
1862.000000	30.661467
1863.000000	30.706767
1864.000000	30.649067
1865.000000	30.438133
1866.000000	30.488100
1867.000000	30.511800
1868.000000	30.424467
1869.000000	30.364733
1870.000000	30.323267
1871.000000	30.019367
1872.000000	29.878100
1873.000000	29.800833
1874.000000	29.428300
1875.000000	29.246967
1876.000000	29.115633
1877.000000	28.888467
1878.000000	28.420933
1879.000000	28.262767
1880.000000	28.040100
1881.000000	27.750833
1882.000000	27.416400
1883.000000	27.194367
1884.000000	26.866367
1885.000000	26.470700
1886.000000	26.125800
1887.000000	25.695633
1888.000000	25.309333
1889.000000	25.018833
1890.000000	24.553100
1891.000000	24.136733
1892.000000	23.771167
1893.000000	23.363133
1894.000000	22.849433
1895.000000	22.404900
1896.000000	22.017667
1897.000000	21.671467
1898.000000	21.340733
1899.000000	21.090800
1900.000000	20.449367
1901.000000	20.034100
1902.000000	19.717067
1903.000000	19.375533
1904.000000	19.096433
1905.000000	18.901667
1906.000000	18.553433
1907.000000	18.058733
1908.000000	17.706567
1909.000000	17.517767
1910.000000	17.309600
1911.000000	17.100833
1912.000000	16.865100
1913.000000	16.711700
1914.000000	16.484733
1915.000000	16.237100
1916.000000	16.074067
1917.000000	15.842800
1918.000000	15.647233
1919.000000	15.617500
1920.000000	15.620433
1921.000000	15.385367
1922.000000	15.123333
1923.000000	15.134033
1924.000000	15.005900
1925.000000	14.904700
1926.000000	14.888033
1927.000000	14.844500
1928.000000	14.713000
1929.000000	14.641733
1930.000000	14.630400
1931.000000	14.525500
1932.000000	14.476067
1933.000000	14.502767
1934.000000	14.417833
1935.000000	14.412333
1936.000000	14.421167
1937.000000	14.470500
1938.000000	14.512233
1939.000000	14.527200
1940.000000	14.515733
1941.000000	14.499800
1942.000000	14.522867
1943.000000	14.511533
1944.000000	14.569700
1945.000000	14.639667
1946.000000	14.696700
1947.000000	14.731600
1948.000000	14.750267
1949.000000	14.804400
1950.000000	14.907333
1951.000000	14.944633
1952.000000	15.029133
1953.000000	15.100500
1954.000000	15.204433
1955.000000	15.240667
1956.000000	15.283967
1957.000000	15.340600
1958.000000	15.431833
1959.000000	15.494633
1960.000000	15.565900
1961.000000	15.655500
1962.000000	15.679667
1963.000000	15.718167
1964.000000	15.799067
1965.000000	15.890767
1966.000000	15.961100
1967.000000	16.028700
1968.000000	16.102833
1969.000000	16.156467
1970.000000	16.234867
1971.000000	16.324500
1972.000000	16.404133
1973.000000	16.476033
1974.000000	16.541300
1975.000000	16.580033
1976.000000	16.625900
1977.000000	16.714033
1978.000000	16.796267
1979.000000	16.867967
1980.000000	16.933567
1981.000000	17.005500
1982.000000	17.111300
1983.000000	17.198533
1984.000000	17.232600
1985.000000	17.292400
1986.000000	17.419167
1987.000000	17.479867
1988.000000	17.522567
1989.000000	17.629300
1990.000000	17.708667
1991.000000	17.783800
1992.000000	17.879033
1993.000000	17.952767
1994.000000	18.024767
1995.000000	18.033267
1996.000000	18.079567
1997.000000	18.173033
1998.000000	18.230700
1999.000000	18.250500
2000.000000	18.269867
2001.000000	18.370167
2002.000000	18.443867
2003.000000	18.473867
2004.000000	18.493633
2005.000000	18.530433
2006.000000	18.583033
2007.000000	18.625967
2008.000000	18.639000
2009.000000	18.650867
2010.000000	18.663400
2011.000000	18.681500
2012.000000	18.734433
2013.000000	18.731767
2014.000000	18.652433
2015.000000	18.680433
2016.000000	18.713433
2017.000000	18.718667
2018.000000	18.704133
2019.000000	18.654400
2020.000000	18.642500
2021.000000	18.574533
2022.000000	18.560267
2023.000000	18.514400
2024.000000	18.458700
2025.000000	18.433600
2026.000000	18.472667
2027.000000	18.442333
2028.000000	18.416767
2029.000000	18.338500
2030.000000	18.283367
2031.000000	18.247067
2032.000000	18.215100
2033.000000	18.122933
2034.000000	17.980367
2035.000000	17.939533
2036.000000	17.885000
2037.000000	17.744233
2038.000000	17.712133
2039.000000	17.634833
2040.000000	17.565967
2041.000000	17.428933
2042.000000	17.401500
2043.000000	17.329167
2044.000000	17.132533
2045.000000	17.037567
2046.000000	16.973100
2047.000000	16.898067
2048.000000	16.790833
2049.000000	16.800700
2050.000000	16.812200
2051.000000	16.696533
2052.000000	16.597533
2053.000000	16.619267
2054.000000	16.645633
2055.000000	16.625400
2056.000000	16.695667
2057.000000	16.753500
2058.000000	16.796233
2059.000000	16.795733
2060.000000	16.906000
2061.000000	16.975433
2062.000000	17.025633
2063.000000	17.059967
2064.000000	16.999700
2065.000000	17.114533
2066.000000	17.353267
2067.000000	17.488100
2068.000000	17.509167
2069.000000	17.600500
2070.000000	17.686733
2071.000000	17.744733
2072.000000	17.834233
2073.000000	17.857733
2074.000000	17.977900
2075.000000	17.975300
2076.000000	17.948233
2077.000000	18.044233
2078.000000	18.139133
2079.000000	18.186700
2080.000000	18.220033
2081.000000	18.249967
2082.000000	18.149867
2083.000000	18.300833
2084.000000	18.387700
2085.000000	18.404333
2086.000000	18.280033
2087.000000	18.378767
2088.000000	18.329167
2089.000000	18.350367
2090.000000	18.327700
2091.000000	18.351533
2092.000000	18.302067
2093.000000	18.266467
2094.000000	18.190467
2095.000000	18.304367
2096.000000	18.179000
2097.000000	18.418600
2098.000000	18.374400
2099.000000	18.440633
2100.000000	18.500400
2101.000000	18.514700
2102.000000	18.518700
2103.000000	18.507800
2104.000000	18.409167
2105.000000	18.568633
2106.000000	18.372900
2107.000000	18.307933
2108.000000	18.382267
2109.000000	18.575267
2110.000000	18.398500
2111.000000	18.436400
2112.000000	18.360800
2113.000000	18.233400
2114.000000	18.382400
2115.000000	18.515100
2116.000000	18.428333
2117.000000	18.160233
2118.000000	18.510467
2119.000000	18.580233
2120.000000	18.247000
2121.000000	18.331967
2122.000000	18.203967
2123.000000	18.188000
2124.000000	18.384933
2125.000000	18.407167
2126.000000	18.111233
2127.000000	18.208200
2128.000000	18.224300
2129.000000	18.196500
2130.000000	18.123367
2131.000000	18.149700
2132.000000	17.804600
2133.000000	18.124067
2134.000000	18.105033
2135.000000	17.787600
2136.000000	17.905667
2137.000000	18.313333
2138.000000	17.718433
2139.000000	17.483633
2140.000000	17.841367
2141.000000	17.830533
2142.000000	17.703433
2143.000000	17.367600
2144.000000	17.451667
2145.000000	17.287733
2146.000000	17.394633
2147.000000	17.559067
2148.000000	17.208267
2149.000000	17.352900
2150.000000	17.009333
2151.000000	16.810800
2152.000000	16.833300
2153.000000	16.854000
2154.000000	16.682333
2155.000000	16.827500
2156.000000	16.624767
2157.000000	16.420833
2158.000000	16.334467
2159.000000	16.366633
2160.000000	16.297000
2161.000000	16.229633
2162.000000	16.166233
2163.000000	16.443533
2164.000000	16.267533
2165.000000	15.936533
2166.000000	15.911167
2167.000000	15.967500
2168.000000	15.937733
2169.000000	16.106267
2170.000000	15.985667
2171.000000	15.906467
2172.000000	15.919800
2173.000000	15.666633
2174.000000	15.787933
2175.000000	15.953933
2176.000000	15.820767
2177.000000	15.881233
2178.000000	15.999167
2179.000000	15.999933
2180.000000	15.716533
2181.000000	15.899100
2182.000000	15.901433
2183.000000	15.965900
2184.000000	15.910800
2185.000000	15.906600
2186.000000	15.858533
2187.000000	16.009300
2188.000000	15.799233
2189.000000	15.897000
2190.000000	16.138067
2191.000000	16.051267
2192.000000	15.943000
2193.000000	16.071067
2194.000000	16.161933
2195.000000	16.138900
2196.000000	15.969100
2197.000000	16.062067
2198.000000	15.984233
2199.000000	16.003167
2200.000000	16.097400
2201.000000	15.986233
2202.000000	16.239567
2203.000000	16.346100
2204.000000	16.266800
2205.000000	16.185700
2206.000000	16.292633
2207.000000	16.262400
2208.000000	16.432233
2209.000000	16.520367
2210.000000	16.281533
2211.000000	16.438133
2212.000000	16.530233
2213.000000	16.585433
2214.000000	16.558800
2215.000000	16.676900
2216.000000	16.740700
2217.000000	16.940767
2218.000000	16.988033
2219.000000	16.742633
2220.000000	17.017000
2221.000000	17.088333
2222.000000	17.006300
2223.000000	16.951467
2224.000000	17.011533
2225.000000	17.147633
2226.000000	17.282400
2227.000000	17.399067
2228.000000	17.533100
2229.000000	17.509967
2230.000000	17.504800
2231.000000	17.496467
2232.000000	17.341933
2233.000000	17.324200
2234.000000	17.321967
2235.000000	17.267267
2236.000000	17.356633
2237.000000	17.537333
2238.000000	17.456067
2239.000000	17.296700
2240.000000	17.234167
2241.000000	17.047267
2242.000000	17.059367
2243.000000	17.027133
2244.000000	17.080800
2245.000000	17.070133
2246.000000	16.901100
2247.000000	16.940900
2248.000000	16.796000
2249.000000	16.602400
2250.000000	16.629733
2251.000000	16.430000
2252.000000	16.268700
2253.000000	16.141900
2254.000000	16.154633
2255.000000	16.129833
2256.000000	16.071333
2257.000000	15.906133
2258.000000	15.782200
2259.000000	15.693000
2260.000000	15.519233
2261.000000	15.249167
2262.000000	15.408033
2263.000000	15.604200
2264.000000	15.495867
2265.000000	15.433100
2266.000000	15.193133
2267.000000	15.117067
2268.000000	15.050033
2269.000000	15.038800
2270.000000	15.106033
2271.000000	15.165767
2272.000000	15.179467
2273.000000	14.987733
2274.000000	14.978333
2275.000000	15.094967
2276.000000	15.101967
2277.000000	15.192033
2278.000000	15.089400
2279.000000	15.006967
2280.000000	15.195733
2281.000000	15.129900
2282.000000	14.986967
2283.000000	14.961333
2284.000000	14.903067
2285.000000	14.992533
2286.000000	15.073100
2287.000000	14.925467
2288.000000	14.800033
2289.000000	14.915167
2290.000000	14.906633
2291.000000	14.998067
2292.000000	15.168467
2293.000000	15.122733
2294.000000	14.977567
2295.000000	15.053067
2296.000000	15.220133
2297.000000	15.072600
2298.000000	14.881467
2299.000000	14.985233
2300.000000	15.054767
2301.000000	14.978767
2302.000000	14.912400
2303.000000	15.050133
2304.000000	14.948667
2305.000000	15.019933
2306.000000	15.298867
2307.000000	15.478700
2308.000000	15.429967
2309.000000	15.403367
2310.000000	15.169900
2311.000000	15.254433
2312.000000	15.242067
2313.000000	15.092300
2314.000000	15.344033
2315.000000	15.459967
2316.000000	15.461633
2317.000000	15.641433
2318.000000	15.821833
2319.000000	15.816200
2320.000000	15.591567
2321.000000	15.467233
2322.000000	15.785333
2323.000000	15.866167
2324.000000	15.666200
2325.000000	15.586400
2326.000000	15.565300
2327.000000	15.467933
2328.000000	15.579867
2329.000000	15.616967
2330.000000	15.617333
2331.000000	15.502400
2332.000000	15.421900
2333.000000	15.553700
2334.000000	15.741567
2335.000000	15.702800
2336.000000	15.667467
2337.000000	15.654900
2338.000000	15.643267
2339.000000	15.926633
2340.000000	16.007600
2341.000000	16.245600
2342.000000	16.006833
2343.000000	15.968167
2344.000000	16.210567
2345.000000	15.975200
2346.000000	15.976567
2347.000000	16.193633
2348.000000	16.248167
2349.000000	16.151867
2350.000000	16.187267
2351.000000	15.804967
2352.000000	15.871400
2353.000000	16.326833
2354.000000	16.289367
2355.000000	16.040467
2356.000000	16.327967
2357.000000	16.162200
2358.000000	16.358167
2359.000000	16.349867
2360.000000	16.217300
2361.000000	15.983167
2362.000000	16.055133
2363.000000	16.527600
2364.000000	16.446667
2365.000000	16.528867
2366.000000	16.662500
2367.000000	16.364600
2368.000000	16.704433
2369.000000	16.321733
2370.000000	16.412033
2371.000000	16.522167
2372.000000	16.161567
2373.000000	16.539133
2374.000000	16.145033
2375.000000	16.475900
2376.000000	16.455533
2377.000000	16.621133
2378.000000	16.525433
2379.000000	16.097100
2380.000000	15.698700
2381.000000	16.104833
2382.000000	17.455700
2383.000000	16.678533
2384.000000	16.479900
2385.000000	16.941333
2386.000000	16.763433
2387.000000	16.511533
2388.000000	17.190867
2389.000000	17.110533
2390.000000	16.195567
2391.000000	16.983067
2392.000000	16.177900
2393.000000	17.163033
2394.000000	16.086733
2395.000000	16.664867
2396.000000	17.132967
2397.000000	17.009833
2398.000000	16.688400
2399.000000	16.639100
2400.000000	16.611733
