PE UV       SUBTECH     SPECTRUM    ASCII       PEDS        4.00        
   -1
INBUCR0143-1.Sample.ASC
24/04/29
12:58:45.00
24/04/29
12:58:45.00
Vinicio Soto Monge
C. kalinini
250,000000
1
Lambda 1050
1050L1511233
PerkinElmer UV WinLab 6.3.2.0749 / 2.02.05 Lambda 900 UV/VIS/NIR, Aug  7 2015 09:38:08

0
0
3350/servo 860,8/2
0
0
UV/VIS
1
1
1
DoubleDePol,CommonBeamDepol,RBeamAtt,SBeamAtt,60mm sphere, WB InGaAs Detector
0
0
0
0
Program
Program
3350/servo 860,8/2
3350/0,2 860,8/0,2
3350/0,2 860,8/0,2
0
15.00
 
 
 
0
 
860,8
319,2
860,8
Front
100
on
S:100 R:100
0
0
0
0
 
0
 
 
 
0
 
 
0
0
0
0
0
 
 
 
 
0
0


0
0
#HDR
-1
-1
#GR
nm
%R
1.0
0.0
2500,000000
-1,000000
2251
8
70,853600
4,079500
#DATA
2482.000000	11.259180
2481.000000	11.267539
2480.000000	11.292903
2479.000000	11.250630
2478.000000	11.276279
2477.000000	11.343252
2476.000000	11.334417
2475.000000	11.313803
2474.000000	11.377545
2473.000000	11.380490
2472.000000	11.403384
2471.000000	11.433403
2470.000000	11.443378
2469.000000	11.458007
2468.000000	11.515005
2467.000000	11.560889
2466.000000	11.578463
2465.000000	11.645626
2464.000000	11.638691
2463.000000	11.657880
2462.000000	11.732262
2461.000000	11.821464
2460.000000	11.844738
2459.000000	11.903921
2458.000000	11.940115
2457.000000	11.973744
2456.000000	12.056391
2455.000000	12.114718
2454.000000	12.147967
2453.000000	12.207435
2452.000000	12.275073
2451.000000	12.356485
2450.000000	12.432482
2449.000000	12.524344
2448.000000	12.580486
2447.000000	12.660379
2446.000000	12.737991
2445.000000	12.820638
2444.000000	12.903475
2443.000000	12.968547
2442.000000	13.050244
2441.000000	13.140491
2440.000000	13.214778
2439.000000	13.272821
2438.000000	13.371808
2437.000000	13.453695
2436.000000	13.521807
2435.000000	13.600179
2434.000000	13.694131
2433.000000	13.759394
2432.000000	13.835296
2431.000000	13.891914
2430.000000	13.973516
2429.000000	14.049798
2428.000000	14.103376
2427.000000	14.167214
2426.000000	14.242261
2425.000000	14.302869
2424.000000	14.353407
2423.000000	14.413160
2422.000000	14.485452
2421.000000	14.550050
2420.000000	14.580829
2419.000000	14.630607
2418.000000	14.688365
2417.000000	14.728073
2416.000000	14.766927
2415.000000	14.809010
2414.000000	14.836464
2413.000000	14.877028
2412.000000	14.917401
2411.000000	14.948750
2410.000000	14.976964
2409.000000	14.992354
2408.000000	15.025127
2407.000000	15.039852
2406.000000	15.071771
2405.000000	15.115469
2404.000000	15.130574
2403.000000	15.143683
2402.000000	15.152043
2401.000000	15.185957
2400.000000	15.202296
2399.000000	15.212271
2398.000000	15.244949
2397.000000	15.258629
2396.000000	15.266229
2395.000000	15.285228
2394.000000	15.276963
2393.000000	15.284373
2392.000000	15.301282
2391.000000	15.307457
2390.000000	15.316672
2389.000000	15.314962
2388.000000	15.306127
2387.000000	15.312112
2386.000000	15.310022
2385.000000	15.308597
2384.000000	15.310497
2383.000000	15.300237
2382.000000	15.284088
2381.000000	15.279433
2380.000000	15.272023
2379.000000	15.255874
2378.000000	15.233740
2377.000000	15.232885
2376.000000	15.230890
2375.000000	15.215500
2374.000000	15.203246
2373.000000	15.195171
2372.000000	15.179212
2371.000000	15.152613
2370.000000	15.141308
2369.000000	15.134848
2368.000000	15.133328
2367.000000	15.136178
2366.000000	15.124494
2365.000000	15.109674
2364.000000	15.101030
2363.000000	15.106539
2362.000000	15.095045
2361.000000	15.072341
2360.000000	15.061511
2359.000000	15.047927
2358.000000	15.027977
2357.000000	15.010403
2356.000000	14.985514
2355.000000	14.963475
2354.000000	14.953120
2353.000000	14.928706
2352.000000	14.900302
2351.000000	14.868003
2350.000000	14.841974
2349.000000	14.835039
2348.000000	14.827155
2347.000000	14.802740
2346.000000	14.791341
2345.000000	14.779846
2344.000000	14.760087
2343.000000	14.749257
2342.000000	14.747262
2341.000000	14.735673
2340.000000	14.717434
2339.000000	14.716009
2338.000000	14.716959
2337.000000	14.707649
2336.000000	14.707839
2335.000000	14.698244
2334.000000	14.687035
2333.000000	14.702139
2332.000000	14.729688
2331.000000	14.743653
2330.000000	14.752487
2329.000000	14.759897
2328.000000	14.768827
2327.000000	14.775761
2326.000000	14.782981
2325.000000	14.794001
2324.000000	14.804070
2323.000000	14.819935
2322.000000	14.813950
2321.000000	14.793336
2320.000000	14.780606
2319.000000	14.771012
2318.000000	14.773292
2317.000000	14.753342
2316.000000	14.721803
2315.000000	14.697294
2314.000000	14.671265
2313.000000	14.628992
2312.000000	14.596408
2311.000000	14.571044
2310.000000	14.538460
2309.000000	14.499512
2308.000000	14.460943
2307.000000	14.448023
2306.000000	14.430924
2305.000000	14.412305
2304.000000	14.399195
2303.000000	14.377061
2302.000000	14.365471
2301.000000	14.365376
2300.000000	14.367276
2299.000000	14.379721
2298.000000	14.379531
2297.000000	14.370601
2296.000000	14.392355
2295.000000	14.401475
2294.000000	14.429879
2293.000000	14.443464
2292.000000	14.456953
2291.000000	14.474242
2290.000000	14.500177
2289.000000	14.518606
2288.000000	14.548150
2287.000000	14.572089
2286.000000	14.611892
2285.000000	14.634312
2284.000000	14.663001
2283.000000	14.696819
2282.000000	14.717719
2281.000000	14.740708
2280.000000	14.783646
2279.000000	14.797231
2278.000000	14.841689
2277.000000	14.869998
2276.000000	14.892797
2275.000000	14.933741
2274.000000	14.970599
2273.000000	14.983709
2272.000000	15.004988
2271.000000	15.028737
2270.000000	15.062841
2269.000000	15.103785
2268.000000	15.134468
2267.000000	15.201441
2266.000000	15.243144
2265.000000	15.324176
2264.000000	15.375950
2263.000000	15.445392
2262.000000	15.523859
2261.000000	15.635670
2260.000000	15.708817
2259.000000	15.826518
2258.000000	15.923130
2257.000000	16.046435
2256.000000	16.171071
2255.000000	16.286206
2254.000000	16.409132
2253.000000	16.548872
2252.000000	16.649093
2251.000000	16.802418
2250.000000	16.921828
2249.000000	17.042189
2248.000000	17.150105
2247.000000	17.250991
2246.000000	17.347793
2245.000000	17.445259
2244.000000	17.528191
2243.000000	17.618153
2242.000000	17.692820
2241.000000	17.747348
2240.000000	17.811661
2239.000000	17.870939
2238.000000	17.902572
2237.000000	17.943231
2236.000000	17.947221
2235.000000	17.994054
2234.000000	18.014478
2233.000000	17.990539
2232.000000	17.987309
2231.000000	17.974865
2230.000000	17.976100
2229.000000	17.948456
2228.000000	17.921667
2227.000000	17.882148
2226.000000	17.851559
2225.000000	17.813656
2224.000000	17.753333
2223.000000	17.724074
2222.000000	17.680091
2221.000000	17.617203
2220.000000	17.560775
2219.000000	17.493137
2218.000000	17.440699
2217.000000	17.383701
2216.000000	17.337438
2215.000000	17.286995
2214.000000	17.232467
2213.000000	17.165779
2212.000000	17.112581
2211.000000	17.080852
2210.000000	17.026799
2209.000000	16.985856
2208.000000	16.939973
2207.000000	16.889719
2206.000000	16.848681
2205.000000	16.821417
2204.000000	16.779713
2203.000000	16.748175
2202.000000	16.731550
2201.000000	16.675217
2200.000000	16.667238
2199.000000	16.630284
2198.000000	16.602450
2197.000000	16.588390
2196.000000	16.551627
2195.000000	16.532247
2194.000000	16.504223
2193.000000	16.489689
2192.000000	16.469740
2191.000000	16.443521
2190.000000	16.433736
2189.000000	16.417302
2188.000000	16.403337
2187.000000	16.384908
2186.000000	16.361349
2185.000000	16.345864
2184.000000	16.319170
2183.000000	16.309576
2182.000000	16.303876
2181.000000	16.272242
2180.000000	16.262647
2179.000000	16.261792
2178.000000	16.259227
2177.000000	16.248588
2176.000000	16.245643
2175.000000	16.255048
2174.000000	16.257042
2173.000000	16.269487
2172.000000	16.275852
2171.000000	16.295611
2170.000000	16.308816
2169.000000	16.338265
2168.000000	16.359734
2167.000000	16.377213
2166.000000	16.416257
2165.000000	16.455395
2164.000000	16.498049
2163.000000	16.546117
2162.000000	16.582406
2161.000000	16.628574
2160.000000	16.668377
2159.000000	16.738010
2158.000000	16.816952
2157.000000	16.872715
2156.000000	16.935508
2155.000000	17.033829
2154.000000	17.105457
2153.000000	17.184019
2152.000000	17.274360
2151.000000	17.370212
2150.000000	17.438894
2149.000000	17.527526
2148.000000	17.626228
2147.000000	17.706690
2146.000000	17.801116
2145.000000	17.890793
2144.000000	17.970590
2143.000000	18.057322
2142.000000	18.144434
2141.000000	18.236010
2140.000000	18.318752
2139.000000	18.400639
2138.000000	18.478632
2137.000000	18.562038
2136.000000	18.622646
2135.000000	18.697979
2134.000000	18.769986
2133.000000	18.825654
2132.000000	18.886167
2131.000000	18.958744
2130.000000	19.002442
2129.000000	19.067705
2128.000000	19.123278
2127.000000	19.166881
2126.000000	19.214000
2125.000000	19.259883
2124.000000	19.298262
2123.000000	19.337115
2122.000000	19.358774
2121.000000	19.390788
2120.000000	19.422137
2119.000000	19.436767
2118.000000	19.452916
2117.000000	19.473435
2116.000000	19.497184
2115.000000	19.502029
2114.000000	19.519414
2113.000000	19.537273
2112.000000	19.528153
2111.000000	19.529768
2110.000000	19.544303
2109.000000	19.553232
2108.000000	19.548388
2107.000000	19.545728
2106.000000	19.552187
2105.000000	19.547248
2104.000000	19.540978
2103.000000	19.542783
2102.000000	19.548293
2101.000000	19.554087
2100.000000	19.564727
2099.000000	19.560072
2098.000000	19.564537
2097.000000	19.571947
2096.000000	19.578216
2095.000000	19.589711
2094.000000	19.593321
2093.000000	19.607380
2092.000000	19.635024
2091.000000	19.650509
2090.000000	19.667133
2089.000000	19.665423
2088.000000	19.671408
2087.000000	19.690217
2086.000000	19.686892
2085.000000	19.666943
2084.000000	19.656304
2083.000000	19.642244
2082.000000	19.611940
2081.000000	19.599591
2080.000000	19.569572
2079.000000	19.523403
2078.000000	19.473720
2077.000000	19.418052
2076.000000	19.356210
2075.000000	19.292467
2074.000000	19.210105
2073.000000	19.133253
2072.000000	19.056305
2071.000000	18.966629
2070.000000	18.881797
2069.000000	18.783000
2068.000000	18.676034
2067.000000	18.579043
2066.000000	18.477872
2065.000000	18.371665
2064.000000	18.269164
2063.000000	18.177587
2062.000000	18.088766
2061.000000	17.981420
2060.000000	17.893358
2059.000000	17.816696
2058.000000	17.752383
2057.000000	17.713814
2056.000000	17.680661
2055.000000	17.646367
2054.000000	17.645797
2053.000000	17.646367
2052.000000	17.669641
2051.000000	17.708495
2050.000000	17.764543
2049.000000	17.831420
2048.000000	17.923472
2047.000000	18.004979
2046.000000	18.104440
2045.000000	18.223566
2044.000000	18.346111
2043.000000	18.470842
2042.000000	18.589207
2041.000000	18.700068
2040.000000	18.835913
2039.000000	18.976508
2038.000000	19.085089
2037.000000	19.184551
2036.000000	19.303201
2035.000000	19.404468
2034.000000	19.516564
2033.000000	19.603296
2032.000000	19.709027
2031.000000	19.785689
2030.000000	19.864916
2029.000000	19.947278
2028.000000	20.019285
2027.000000	20.089393
2026.000000	20.158265
2025.000000	20.218873
2024.000000	20.251742
2023.000000	20.311400
2022.000000	20.374382
2021.000000	20.416561
2020.000000	20.464439
2019.000000	20.507378
2018.000000	20.537016
2017.000000	20.567985
2016.000000	20.611969
2015.000000	20.610829
2014.000000	20.611494
2013.000000	20.630683
2012.000000	20.645788
2011.000000	20.640848
2010.000000	20.635813
2009.000000	20.640468
2008.000000	20.620328
2007.000000	20.597339
2006.000000	20.574540
2005.000000	20.561716
2004.000000	20.540341
2003.000000	20.512127
2002.000000	20.465294
2001.000000	20.420836
2000.000000	20.378942
1999.000000	20.327074
1998.000000	20.251362
1997.000000	20.199969
1996.000000	20.152660
1995.000000	20.117037
1994.000000	20.034105
1993.000000	19.964092
1992.000000	19.887240
1991.000000	19.837272
1990.000000	19.754530
1989.000000	19.673783
1988.000000	19.607475
1987.000000	19.530623
1986.000000	19.441706
1985.000000	19.365899
1984.000000	19.289997
1983.000000	19.205545
1982.000000	19.141137
1981.000000	19.066280
1980.000000	18.981068
1979.000000	18.901176
1978.000000	18.824894
1977.000000	18.763716
1976.000000	18.672614
1975.000000	18.588922
1974.000000	18.525275
1973.000000	18.459157
1972.000000	18.384775
1971.000000	18.317232
1970.000000	18.253205
1969.000000	18.179962
1968.000000	18.138544
1967.000000	18.047062
1966.000000	17.972205
1965.000000	17.913782
1964.000000	17.862389
1963.000000	17.760458
1962.000000	17.710489
1961.000000	17.645892
1960.000000	17.554410
1959.000000	17.479553
1958.000000	17.396621
1957.000000	17.342758
1956.000000	17.290320
1955.000000	17.211283
1954.000000	17.129206
1953.000000	17.079333
1952.000000	17.015495
1951.000000	16.948142
1950.000000	16.872715
1949.000000	16.830157
1948.000000	16.769074
1947.000000	16.703431
1946.000000	16.661728
1945.000000	16.613944
1944.000000	16.571861
1943.000000	16.551722
1942.000000	16.511728
1941.000000	16.475819
1940.000000	16.457865
1939.000000	16.469455
1938.000000	16.451690
1937.000000	16.458625
1936.000000	16.443521
1935.000000	16.442856
1934.000000	16.478099
1933.000000	16.492444
1932.000000	16.510873
1931.000000	16.560366
1930.000000	16.622969
1929.000000	16.677402
1928.000000	16.755489
1927.000000	16.859890
1926.000000	16.924773
1925.000000	17.012740
1924.000000	17.082182
1923.000000	17.178984
1922.000000	17.340573
1921.000000	17.513942
1920.000000	17.668596
1919.000000	17.816031
1918.000000	17.953681
1917.000000	18.082496
1916.000000	18.227176
1915.000000	18.418784
1914.000000	18.681829
1913.000000	18.956179
1912.000000	19.222549
1911.000000	19.428502
1910.000000	19.618685
1909.000000	19.841927
1908.000000	20.132521
1907.000000	20.475174
1906.000000	20.881854
1905.000000	21.287299
1904.000000	21.677260
1903.000000	22.040242
1902.000000	22.426308
1901.000000	22.840683
1900.000000	23.347204
1899.000000	23.858380
1898.000000	24.299734
1897.000000	24.676491
1896.000000	25.011068
1895.000000	25.355526
1894.000000	25.730477
1893.000000	26.218094
1892.000000	26.781234
1891.000000	27.277591
1890.000000	27.713150
1889.000000	28.109380
1888.000000	28.469132
1887.000000	28.812830
1886.000000	29.172487
1885.000000	29.541833
1884.000000	29.938539
1883.000000	30.273117
1882.000000	30.559721
1881.000000	30.788663
1880.000000	30.986066
1879.000000	31.204083
1878.000000	31.424570
1877.000000	31.630142
1876.000000	31.878083
1875.000000	32.105790
1874.000000	32.384320
1873.000000	32.660950
1872.000000	32.901481
1871.000000	33.147997
1870.000000	33.364494
1869.000000	33.497394
1868.000000	33.536058
1867.000000	33.561612
1866.000000	33.518483
1865.000000	33.477350
1864.000000	33.425387
1863.000000	33.426147
1862.000000	33.501194
1861.000000	33.592201
1860.000000	33.690997
1859.000000	33.814018
1858.000000	33.876050
1857.000000	33.872915
1856.000000	33.879755
1855.000000	33.937133
1854.000000	33.977792
1853.000000	33.970857
1852.000000	33.920889
1851.000000	33.843087
1850.000000	33.811263
1849.000000	33.899229
1848.000000	34.080863
1847.000000	34.163890
1846.000000	34.086848
1845.000000	33.919939
1844.000000	33.734980
1843.000000	33.712656
1842.000000	33.801763
1841.000000	33.842802
1840.000000	33.852111
1839.000000	33.838052
1838.000000	33.809933
1837.000000	33.829597
1836.000000	33.842707
1835.000000	33.760155
1834.000000	33.633619
1833.000000	33.519718
1832.000000	33.455881
1831.000000	33.436976
1830.000000	33.439351
1829.000000	33.436216
1828.000000	33.425672
1827.000000	33.418927
1826.000000	33.401163
1825.000000	33.321841
1824.000000	33.213259
1823.000000	33.182861
1822.000000	33.252683
1821.000000	33.370194
1820.000000	33.437166
1819.000000	33.408857
1818.000000	33.329630
1817.000000	33.267407
1816.000000	33.258668
1815.000000	33.253633
1814.000000	33.229219
1813.000000	33.207370
1812.000000	33.210600
1811.000000	33.205090
1810.000000	33.169276
1809.000000	33.117978
1808.000000	33.071430
1807.000000	33.066015
1806.000000	33.061360
1805.000000	33.034571
1804.000000	33.002937
1803.000000	32.978903
1802.000000	32.995812
1801.000000	32.998852
1800.000000	32.981278
1799.000000	32.948124
1798.000000	32.909556
1797.000000	32.883336
1796.000000	32.862057
1795.000000	32.859017
1794.000000	32.853128
1793.000000	32.845433
1792.000000	32.831373
1791.000000	32.829473
1790.000000	32.832323
1789.000000	32.836313
1788.000000	32.835078
1787.000000	32.833748
1786.000000	32.840018
1785.000000	32.836978
1784.000000	32.840683
1783.000000	32.831183
1782.000000	32.811804
1781.000000	32.790620
1780.000000	32.778270
1779.000000	32.753856
1778.000000	32.732007
1777.000000	32.701323
1776.000000	32.657720
1775.000000	32.608512
1774.000000	32.564908
1773.000000	32.531184
1772.000000	32.474756
1771.000000	32.405884
1770.000000	32.343566
1769.000000	32.282388
1768.000000	32.234225
1767.000000	32.202306
1766.000000	32.179412
1765.000000	32.152908
1764.000000	32.109875
1763.000000	32.093060
1762.000000	32.086696
1761.000000	32.069121
1760.000000	32.070166
1759.000000	32.072446
1758.000000	32.071876
1757.000000	32.077576
1756.000000	32.086981
1755.000000	32.086221
1754.000000	32.087266
1753.000000	32.065701
1752.000000	32.060951
1751.000000	32.034637
1750.000000	32.002054
1749.000000	31.985524
1748.000000	31.954080
1747.000000	31.898412
1746.000000	31.846734
1745.000000	31.767222
1744.000000	31.695405
1743.000000	31.619598
1742.000000	31.547685
1741.000000	31.461238
1740.000000	31.378306
1739.000000	31.278370
1738.000000	31.191638
1737.000000	31.121056
1736.000000	31.042779
1735.000000	30.975236
1734.000000	30.902564
1733.000000	30.827991
1732.000000	30.782298
1731.000000	30.711146
1730.000000	30.667257
1729.000000	30.632679
1728.000000	30.595440
1727.000000	30.583660
1726.000000	30.569221
1725.000000	30.567796
1724.000000	30.594205
1723.000000	30.635908
1722.000000	30.747909
1721.000000	30.870455
1720.000000	31.023114
1719.000000	31.210447
1718.000000	31.424475
1717.000000	31.614278
1716.000000	31.793346
1715.000000	31.993884
1714.000000	32.167253
1713.000000	32.337011
1712.000000	32.488151
1711.000000	32.599487
1710.000000	32.712533
1709.000000	32.844008
1708.000000	32.935585
1707.000000	33.016522
1706.000000	33.081784
1705.000000	33.150277
1704.000000	33.216109
1703.000000	33.268547
1702.000000	33.320606
1701.000000	33.340935
1700.000000	33.347585
1699.000000	33.371429
1698.000000	33.374374
1697.000000	33.371144
1696.000000	33.341410
1695.000000	33.301511
1694.000000	33.247173
1693.000000	33.190365
1692.000000	33.135647
1691.000000	33.075134
1690.000000	33.047301
1689.000000	33.031911
1688.000000	33.061455
1687.000000	33.159111
1686.000000	33.263893
1685.000000	33.422442
1684.000000	33.593436
1683.000000	33.771649
1682.000000	33.944828
1681.000000	34.131211
1680.000000	34.314839
1679.000000	34.498183
1678.000000	34.660627
1677.000000	34.831810
1676.000000	34.967181
1675.000000	35.097516
1674.000000	35.236876
1673.000000	35.378136
1672.000000	35.500681
1671.000000	35.660940
1670.000000	35.814930
1669.000000	35.946785
1668.000000	36.117209
1667.000000	36.270438
1666.000000	36.406283
1665.000000	36.535478
1664.000000	36.671703
1663.000000	36.798999
1662.000000	36.913660
1661.000000	37.009036
1660.000000	37.111062
1659.000000	37.208244
1658.000000	37.284716
1657.000000	37.355298
1656.000000	37.418186
1655.000000	37.455710
1654.000000	37.501403
1653.000000	37.543107
1652.000000	37.556121
1651.000000	37.595450
1650.000000	37.603144
1649.000000	37.616064
1648.000000	37.619199
1647.000000	37.625564
1646.000000	37.626229
1645.000000	37.634018
1644.000000	37.637248
1643.000000	37.638483
1642.000000	37.627749
1641.000000	37.618724
1640.000000	37.620054
1639.000000	37.615494
1638.000000	37.603049
1637.000000	37.587945
1636.000000	37.563246
1635.000000	37.552701
1634.000000	37.541397
1633.000000	37.529427
1632.000000	37.505393
1631.000000	37.478224
1630.000000	37.449725
1629.000000	37.426736
1628.000000	37.405742
1627.000000	37.373728
1626.000000	37.334684
1625.000000	37.315780
1624.000000	37.288041
1623.000000	37.250232
1622.000000	37.215559
1621.000000	37.177275
1620.000000	37.154951
1619.000000	37.128922
1618.000000	37.100898
1617.000000	37.069644
1616.000000	37.053020
1615.000000	37.028605
1614.000000	36.997637
1613.000000	36.950138
1612.000000	36.908815
1611.000000	36.864831
1610.000000	36.827593
1609.000000	36.788074
1608.000000	36.734496
1607.000000	36.684433
1606.000000	36.647384
1605.000000	36.593236
1604.000000	36.526834
1603.000000	36.455586
1602.000000	36.401723
1601.000000	36.337411
1600.000000	36.279938
1599.000000	36.225505
1598.000000	36.173922
1597.000000	36.128038
1596.000000	36.080445
1595.000000	36.020217
1594.000000	35.976804
1593.000000	35.946880
1592.000000	35.896437
1591.000000	35.849698
1590.000000	35.814360
1589.000000	35.785196
1588.000000	35.762682
1587.000000	35.721738
1586.000000	35.695424
1585.000000	35.659895
1584.000000	35.614582
1583.000000	35.568129
1582.000000	35.546944
1581.000000	35.528325
1580.000000	35.504291
1579.000000	35.490801
1578.000000	35.473797
1577.000000	35.458788
1576.000000	35.460973
1575.000000	35.465437
1574.000000	35.464107
1573.000000	35.477597
1572.000000	35.487192
1571.000000	35.496691
1570.000000	35.503911
1569.000000	35.507426
1568.000000	35.525095
1567.000000	35.547039
1566.000000	35.579908
1565.000000	35.602232
1564.000000	35.604227
1563.000000	35.611447
1562.000000	35.623322
1561.000000	35.628546
1560.000000	35.625412
1559.000000	35.615722
1558.000000	35.598053
1557.000000	35.566609
1556.000000	35.533550
1555.000000	35.495266
1554.000000	35.442448
1553.000000	35.377186
1552.000000	35.312778
1551.000000	35.258345
1550.000000	35.186718
1549.000000	35.127060
1548.000000	35.079561
1547.000000	35.020094
1546.000000	34.960721
1545.000000	34.900398
1544.000000	34.851475
1543.000000	34.799797
1542.000000	34.767403
1541.000000	34.733869
1540.000000	34.700525
1539.000000	34.674496
1538.000000	34.628518
1537.000000	34.586909
1536.000000	34.567055
1535.000000	34.528962
1534.000000	34.495523
1533.000000	34.458284
1532.000000	34.404706
1531.000000	34.368132
1530.000000	34.327474
1529.000000	34.287670
1528.000000	34.228582
1527.000000	34.165125
1526.000000	34.120286
1525.000000	34.075923
1524.000000	34.029850
1523.000000	33.994226
1522.000000	33.941693
1521.000000	33.879660
1520.000000	33.830167
1519.000000	33.761199
1518.000000	33.705627
1517.000000	33.660408
1516.000000	33.605500
1515.000000	33.540808
1514.000000	33.482670
1513.000000	33.422917
1512.000000	33.360979
1511.000000	33.313861
1510.000000	33.248123
1509.000000	33.186470
1508.000000	33.126528
1507.000000	33.067535
1506.000000	33.016617
1505.000000	32.970543
1504.000000	32.920575
1503.000000	32.880962
1502.000000	32.853128
1501.000000	32.806864
1500.000000	32.767061
1499.000000	32.758701
1498.000000	32.746636
1497.000000	32.733337
1496.000000	32.729727
1495.000000	32.727732
1494.000000	32.735237
1493.000000	32.734857
1492.000000	32.756516
1491.000000	32.766681
1490.000000	32.783020
1489.000000	32.810284
1488.000000	32.834888
1487.000000	32.879727
1486.000000	32.899961
1485.000000	32.931310
1484.000000	32.950974
1483.000000	32.984888
1482.000000	33.014432
1481.000000	33.048535
1480.000000	33.074185
1479.000000	33.117503
1478.000000	33.152177
1477.000000	33.203380
1476.000000	33.261613
1475.000000	33.291537
1474.000000	33.344070
1473.000000	33.402303
1472.000000	33.479820
1471.000000	33.540998
1470.000000	33.615000
1469.000000	33.666583
1468.000000	33.727761
1467.000000	33.769844
1466.000000	33.846126
1465.000000	33.901034
1464.000000	33.984251
1463.000000	34.041059
1462.000000	34.129216
1461.000000	34.192294
1460.000000	34.271711
1459.000000	34.360248
1458.000000	34.431115
1457.000000	34.501792
1456.000000	34.605624
1455.000000	34.680291
1454.000000	34.746314
1453.000000	34.825161
1452.000000	34.900493
1451.000000	34.998149
1450.000000	35.079086
1449.000000	35.131810
1448.000000	35.158124
1447.000000	35.252075
1446.000000	35.362271
1445.000000	35.452518
1444.000000	35.481492
1443.000000	35.541055
1442.000000	35.624367
1441.000000	35.731618
1440.000000	35.809800
1439.000000	35.875727
1438.000000	35.984783
1437.000000	36.077120
1436.000000	36.161857
1435.000000	36.275378
1434.000000	36.373889
1433.000000	36.522084
1432.000000	36.640165
1431.000000	36.762995
1430.000000	36.843932
1429.000000	36.998871
1428.000000	37.144311
1427.000000	37.298016
1426.000000	37.436616
1425.000000	37.594500
1424.000000	37.799407
1423.000000	38.006310
1422.000000	38.128380
1421.000000	38.309729
1420.000000	38.553870
1419.000000	38.798486
1418.000000	39.007098
1417.000000	39.159093
1416.000000	39.346331
1415.000000	39.672169
1414.000000	39.988508
1413.000000	40.220774
1412.000000	40.386258
1411.000000	40.669253
1410.000000	41.027010
1409.000000	41.368332
1408.000000	41.692175
1407.000000	41.937931
1406.000000	42.271274
1405.000000	42.598157
1404.000000	42.887897
1403.000000	43.025642
1402.000000	43.250214
1401.000000	43.757495
1400.000000	44.180800
1399.000000	44.280356
1398.000000	44.299355
1397.000000	44.524877
1396.000000	44.996440
1395.000000	45.268130
1394.000000	45.379276
1393.000000	45.570124
1392.000000	45.809990
1391.000000	45.986589
1390.000000	46.059546
1389.000000	46.357835
1388.000000	46.657264
1387.000000	46.844123
1386.000000	47.017681
1385.000000	47.151816
1384.000000	47.415717
1383.000000	47.699091
1382.000000	48.010300
1381.000000	48.166189
1380.000000	48.202098
1379.000000	48.234302
1378.000000	48.212738
1377.000000	48.273156
1376.000000	48.328159
1375.000000	48.413845
1374.000000	48.465049
1373.000000	48.544846
1372.000000	48.717359
1371.000000	48.892153
1370.000000	48.958556
1369.000000	49.076731
1368.000000	49.201462
1367.000000	49.279739
1366.000000	49.335502
1365.000000	49.429643
1364.000000	49.482746
1363.000000	49.549149
1362.000000	49.709598
1361.000000	49.853043
1360.000000	49.845823
1359.000000	49.836799
1358.000000	49.824639
1357.000000	49.831004
1356.000000	49.964189
1355.000000	50.122928
1354.000000	50.229419
1353.000000	50.270363
1352.000000	50.398133
1351.000000	50.531223
1350.000000	50.643319
1349.000000	50.794934
1348.000000	50.962508
1347.000000	51.105952
1346.000000	51.190214
1345.000000	51.327389
1344.000000	51.465324
1343.000000	51.558991
1342.000000	51.665577
1341.000000	51.796197
1340.000000	51.911143
1339.000000	52.016494
1338.000000	52.127925
1337.000000	52.229001
1336.000000	52.316683
1335.000000	52.404935
1334.000000	52.467253
1333.000000	52.546860
1332.000000	52.621337
1331.000000	52.682135
1330.000000	52.759177
1329.000000	52.833084
1328.000000	52.880013
1327.000000	52.940050
1326.000000	52.994198
1325.000000	53.043787
1324.000000	53.082545
1323.000000	53.112564
1322.000000	53.149423
1321.000000	53.189796
1320.000000	53.226845
1319.000000	53.253064
1318.000000	53.293248
1317.000000	53.344831
1316.000000	53.381879
1315.000000	53.415128
1314.000000	53.451227
1313.000000	53.475641
1312.000000	53.482956
1311.000000	53.501575
1310.000000	53.525229
1309.000000	53.537674
1308.000000	53.564938
1307.000000	53.591157
1306.000000	53.608446
1305.000000	53.611201
1304.000000	53.605976
1303.000000	53.593532
1302.000000	53.594672
1301.000000	53.600276
1300.000000	53.607401
1299.000000	53.621176
1298.000000	53.628490
1297.000000	53.636660
1296.000000	53.633335
1295.000000	53.632195
1294.000000	53.648535
1293.000000	53.634855
1292.000000	53.616996
1291.000000	53.619371
1290.000000	53.605501
1289.000000	53.586122
1288.000000	53.566268
1287.000000	53.556388
1286.000000	53.548978
1285.000000	53.528079
1284.000000	53.518389
1283.000000	53.497490
1282.000000	53.478491
1281.000000	53.470986
1280.000000	53.460347
1279.000000	53.448377
1278.000000	53.441727
1277.000000	53.438212
1276.000000	53.425293
1275.000000	53.414843
1274.000000	53.426623
1273.000000	53.430993
1272.000000	53.423678
1271.000000	53.430708
1270.000000	53.433367
1269.000000	53.449232
1268.000000	53.471461
1267.000000	53.475356
1266.000000	53.462246
1265.000000	53.447522
1264.000000	53.457497
1263.000000	53.465951
1262.000000	53.458257
1261.000000	53.471366
1260.000000	53.467376
1259.000000	53.461201
1258.000000	53.478776
1257.000000	53.472411
1256.000000	53.456262
1255.000000	53.457782
1254.000000	53.451037
1253.000000	53.434507
1252.000000	53.428238
1251.000000	53.398504
1250.000000	53.364780
1249.000000	53.343596
1248.000000	53.317852
1247.000000	53.290113
1246.000000	53.267694
1245.000000	53.246319
1244.000000	53.211456
1243.000000	53.184002
1242.000000	53.168707
1241.000000	53.137263
1240.000000	53.111804
1239.000000	53.059176
1238.000000	53.001418
1237.000000	52.984414
1236.000000	52.977194
1235.000000	52.967029
1234.000000	52.928081
1233.000000	52.904522
1232.000000	52.898727
1231.000000	52.853509
1230.000000	52.810760
1229.000000	52.765067
1228.000000	52.741603
1227.000000	52.690875
1226.000000	52.646036
1225.000000	52.593503
1224.000000	52.574219
1223.000000	52.553320
1222.000000	52.522921
1221.000000	52.473712
1220.000000	52.424504
1219.000000	52.389926
1218.000000	52.338057
1217.000000	52.308513
1216.000000	52.255980
1215.000000	52.210762
1214.000000	52.172098
1213.000000	52.124220
1212.000000	52.077862
1211.000000	52.049838
1210.000000	52.016684
1209.000000	51.980585
1208.000000	51.959781
1207.000000	51.906963
1206.000000	51.874189
1205.000000	51.840181
1204.000000	51.806457
1203.000000	51.787267
1202.000000	51.765703
1201.000000	51.711935
1200.000000	51.678971
1199.000000	51.639358
1198.000000	51.575900
1197.000000	51.533342
1196.000000	51.469789
1195.000000	51.420961
1194.000000	51.364248
1193.000000	51.307630
1192.000000	51.280461
1191.000000	51.251677
1190.000000	51.211113
1189.000000	51.167320
1188.000000	51.136446
1187.000000	51.137966
1186.000000	51.167890
1185.000000	51.175395
1184.000000	51.199524
1183.000000	51.226503
1182.000000	51.291766
1181.000000	51.358168
1180.000000	51.387997
1179.000000	51.467984
1178.000000	51.529162
1177.000000	51.584545
1176.000000	51.642113
1175.000000	51.695786
1174.000000	51.752784
1173.000000	51.822036
1172.000000	51.919598
1171.000000	51.984575
1170.000000	52.060763
1169.000000	52.140465
1168.000000	52.243061
1167.000000	52.363326
1166.000000	52.477892
1165.000000	52.607278
1164.000000	52.711489
1163.000000	52.815130
1162.000000	52.941950
1161.000000	53.041982
1160.000000	53.163672
1159.000000	53.257814
1158.000000	53.334001
1157.000000	53.449232
1156.000000	53.563133
1155.000000	53.644925
1154.000000	53.733082
1153.000000	53.806419
1152.000000	53.861517
1151.000000	53.909205
1150.000000	53.958698
1149.000000	53.998977
1148.000000	54.065949
1147.000000	54.107938
1146.000000	54.183270
1145.000000	54.215569
1144.000000	54.252143
1143.000000	54.303536
1142.000000	54.362529
1141.000000	54.433016
1140.000000	54.467880
1139.000000	54.540457
1138.000000	54.603630
1137.000000	54.698531
1136.000000	54.817562
1135.000000	54.974876
1134.000000	55.094002
1133.000000	55.109201
1132.000000	55.109391
1131.000000	55.152045
1130.000000	55.238587
1129.000000	55.319144
1128.000000	55.365312
1127.000000	55.421075
1126.000000	55.452899
1125.000000	55.488523
1124.000000	55.511227
1123.000000	55.544951
1122.000000	55.578484
1121.000000	55.588079
1120.000000	55.582379
1119.000000	55.566325
1118.000000	55.565850
1117.000000	55.570695
1116.000000	55.549035
1115.000000	55.548750
1114.000000	55.538111
1113.000000	55.554355
1112.000000	55.540011
1111.000000	55.551790
1110.000000	55.533076
1109.000000	55.511987
1108.000000	55.478453
1107.000000	55.471043
1106.000000	55.493557
1105.000000	55.483678
1104.000000	55.485293
1103.000000	55.477978
1102.000000	55.475318
1101.000000	55.452139
1100.000000	55.425065
1099.000000	55.419175
1098.000000	55.405496
1097.000000	55.365977
1096.000000	55.360087
1095.000000	55.371962
1094.000000	55.357047
1093.000000	55.350778
1092.000000	55.360087
1091.000000	55.356952
1090.000000	55.338903
1089.000000	55.322564
1088.000000	55.302899
1087.000000	55.296155
1086.000000	55.280575
1085.000000	55.252931
1084.000000	55.248181
1083.000000	55.233742
1082.000000	55.212653
1081.000000	55.203343
1080.000000	55.188524
1079.000000	55.168669
1078.000000	55.168479
1077.000000	55.157650
1076.000000	55.125826
1075.000000	55.103502
1074.000000	55.089347
1073.000000	55.087447
1072.000000	55.061893
1071.000000	55.039379
1070.000000	55.021615
1069.000000	55.007935
1068.000000	54.997200
1067.000000	54.985706
1066.000000	54.974116
1065.000000	54.963002
1064.000000	54.942577
1063.000000	54.907619
1062.000000	54.886815
1061.000000	54.880640
1060.000000	54.868670
1059.000000	54.856796
1058.000000	54.842926
1057.000000	54.825732
1056.000000	54.806162
1055.000000	54.794193
1054.000000	54.795808
1053.000000	54.774624
1052.000000	54.750874
1051.000000	54.736245
1050.000000	54.714871
1049.000000	54.706986
1048.000000	54.713256
1047.000000	54.699386
1046.000000	54.686657
1045.000000	54.680387
1044.000000	54.674687
1043.000000	54.673927
1042.000000	54.674117
1041.000000	54.677442
1040.000000	54.675637
1039.000000	54.673547
1038.000000	54.657968
1037.000000	54.649228
1036.000000	54.647328
1035.000000	54.638779
1034.000000	54.643813
1033.000000	54.654643
1032.000000	54.648088
1031.000000	54.648753
1030.000000	54.652933
1029.000000	54.642008
1028.000000	54.631749
1027.000000	54.643433
1026.000000	54.660818
1025.000000	54.656923
1024.000000	54.653313
1023.000000	54.667278
1022.000000	54.673452
1021.000000	54.681052
1020.000000	54.695776
1019.000000	54.686657
1018.000000	54.684662
1017.000000	54.702901
1016.000000	54.705181
1015.000000	54.713921
1014.000000	54.745460
1013.000000	54.780608
1012.000000	54.801603
1011.000000	54.793148
1010.000000	54.792483
1009.000000	54.801413
1008.000000	54.833331
1007.000000	54.865725
1006.000000	54.892894
1005.000000	54.906764
1004.000000	54.927378
1003.000000	54.960532
1002.000000	54.971456
1001.000000	54.981051
1000.000000	55.003850
999.000000	55.010310
998.000000	55.029974
997.000000	55.057238
996.000000	55.058283
995.000000	55.081367
994.000000	55.111956
993.000000	55.128106
992.000000	55.147200
991.000000	55.169809
990.000000	55.191183
989.000000	55.207238
988.000000	55.233742
987.000000	55.255781
986.000000	55.294730
985.000000	55.342798
984.000000	55.367212
983.000000	55.409960
982.000000	55.443969
981.000000	55.449669
980.000000	55.470853
979.000000	55.516832
978.000000	55.579244
977.000000	55.615058
976.000000	55.645742
975.000000	55.683550
974.000000	55.724874
973.000000	55.745678
972.000000	55.760023
971.000000	55.798781
970.000000	55.864044
969.000000	55.897958
968.000000	55.943366
967.000000	55.967210
966.000000	56.007109
965.000000	56.069141
964.000000	56.106950
963.000000	56.152168
962.000000	56.209166
961.000000	56.246025
960.000000	56.264264
959.000000	56.317082
958.000000	56.376645
957.000000	56.440578
956.000000	56.490166
955.000000	56.529210
954.000000	56.579083
953.000000	56.611857
952.000000	56.666480
951.000000	56.728417
950.000000	56.764801
949.000000	56.792730
948.000000	56.856378
947.000000	56.922590
946.000000	56.962489
945.000000	57.006377
944.000000	57.069645
943.000000	57.084749
942.000000	57.129588
941.000000	57.176041
940.000000	57.260588
939.000000	57.281297
938.000000	57.304571
937.000000	57.377339
936.000000	57.461791
935.000000	57.529998
934.000000	57.602766
933.000000	57.631549
932.000000	57.669358
931.000000	57.723031
930.000000	57.729396
929.000000	57.758655
928.000000	57.803398
927.000000	57.847572
926.000000	57.903810
925.000000	57.931644
924.000000	57.954158
923.000000	58.028350
922.000000	58.115557
921.000000	58.182719
920.000000	58.267171
919.000000	58.352478
918.000000	58.419736
917.000000	58.503903
916.000000	58.550071
915.000000	58.612199
914.000000	58.727335
913.000000	58.811406
912.000000	58.900513
911.000000	58.970526
910.000000	59.064952
909.000000	59.117580
908.000000	59.203457
907.000000	59.294559
906.000000	59.364666
905.000000	59.439334
904.000000	59.517136
903.000000	59.576794
902.000000	59.689174
901.000000	59.803550
900.000000	59.886387
899.000000	59.963429
898.000000	60.039997
897.000000	60.088445
896.000000	60.193986
895.000000	60.298957
894.000000	60.363080
893.000000	60.431857
892.000000	60.495695
891.000000	60.621471
890.000000	60.701648
889.000000	60.791514
888.000000	60.870171
887.000000	60.916910
886.000000	61.031286
885.000000	61.091228
884.000000	61.163141
883.000000	61.250538
882.000000	61.324350
881.000000	61.374413
880.000000	61.412222
879.000000	61.454115
878.000000	61.481379
877.000000	61.488409
876.000000	61.451265
875.000000	61.448225
874.000000	61.347814
873.000000	61.276472
872.000000	61.245883
871.000000	61.299271
870.000000	61.338124
869.000000	61.410892
868.000000	61.469980
867.000000	61.548162
866.000000	61.622164
865.000000	61.680777
864.000000	61.772639
863.000000	61.845976
862.000000	61.917413
861.000000	61.995120
860.000000	62.104746
859.000000	62.189768
858.000000	61.778433
857.000000	61.841500
856.000000	61.679200
855.000000	61.814600
854.000000	62.011400
853.000000	62.088500
852.000000	62.676800
851.000000	63.272700
850.000000	62.900200
849.000000	62.888400
848.000000	63.165400
847.000000	63.356900
846.000000	63.686800
845.000000	63.824000
844.000000	63.933600
843.000000	64.444000
842.000000	64.578500
841.000000	64.542500
840.000000	64.934500
839.000000	65.020700
838.000000	65.298700
837.000000	65.394200
836.000000	65.763300
835.000000	66.099200
834.000000	66.437200
833.000000	66.572400
832.000000	66.734700
831.000000	66.735000
830.000000	67.298200
829.000000	67.490000
828.000000	67.793700
827.000000	67.946100
826.000000	67.967400
825.000000	68.359300
824.000000	68.413600
823.000000	68.590600
822.000000	68.768000
821.000000	69.242300
820.000000	69.318400
819.000000	69.435000
818.000000	69.667800
817.000000	69.801400
816.000000	69.866100
815.000000	69.836700
814.000000	70.088100
813.000000	70.279400
812.000000	70.537400
811.000000	70.477900
810.000000	70.497100
809.000000	70.534700
808.000000	70.674900
807.000000	70.790500
806.000000	70.828700
805.000000	70.725100
804.000000	70.784900
803.000000	70.740100
802.000000	70.654500
801.000000	70.775000
800.000000	70.853600
799.000000	70.714600
798.000000	70.681400
797.000000	70.486600
796.000000	70.580300
795.000000	70.508100
794.000000	70.408300
793.000000	70.277700
792.000000	70.226900
791.000000	70.202300
790.000000	70.059100
789.000000	69.909300
788.000000	69.829600
787.000000	69.762400
786.000000	69.701200
785.000000	69.730900
784.000000	69.611300
783.000000	69.469000
782.000000	69.423300
781.000000	69.381400
780.000000	69.174200
779.000000	69.061000
778.000000	69.025500
777.000000	68.982500
776.000000	68.901100
775.000000	68.797600
774.000000	68.716400
773.000000	68.725700
772.000000	68.718300
771.000000	68.607800
770.000000	68.560200
769.000000	68.442600
768.000000	68.382800
767.000000	68.293200
766.000000	68.207400
765.000000	68.155000
764.000000	68.054000
763.000000	68.065800
762.000000	68.017200
761.000000	67.998700
760.000000	67.982000
759.000000	67.761100
758.000000	67.700900
757.000000	67.647500
756.000000	67.575900
755.000000	67.558100
754.000000	67.467500
753.000000	67.350400
752.000000	67.294800
751.000000	67.169400
750.000000	67.099600
749.000000	67.099200
748.000000	66.964100
747.000000	66.867900
746.000000	66.824700
745.000000	66.725900
744.000000	66.674500
743.000000	66.645200
742.000000	66.549000
741.000000	66.423500
740.000000	66.328500
739.000000	66.275300
738.000000	66.196700
737.000000	66.099600
736.000000	65.992000
735.000000	65.779300
734.000000	65.613400
733.000000	65.510200
732.000000	65.287800
731.000000	64.988400
730.000000	64.717100
729.000000	64.536000
728.000000	64.293300
727.000000	63.955500
726.000000	63.631100
725.000000	63.231300
724.000000	62.797500
723.000000	62.401000
722.000000	61.948400
721.000000	61.377300
720.000000	60.864200
719.000000	60.338600
718.000000	59.860900
717.000000	59.358700
716.000000	58.824500
715.000000	58.283700
714.000000	57.648700
713.000000	57.150200
712.000000	56.676500
711.000000	56.153900
710.000000	55.703700
709.000000	55.258900
708.000000	54.846900
707.000000	54.472800
706.000000	54.138800
705.000000	53.785700
704.000000	53.433600
703.000000	53.168800
702.000000	52.918100
701.000000	52.647800
700.000000	52.438300
699.000000	52.218400
698.000000	52.048500
697.000000	51.919800
696.000000	51.805500
695.000000	51.750900
694.000000	51.597300
693.000000	51.515000
692.000000	51.401800
691.000000	51.298800
690.000000	51.165600
689.000000	51.068300
688.000000	50.964400
687.000000	50.859400
686.000000	50.747800
685.000000	50.665700
684.000000	50.569500
683.000000	50.334200
682.000000	50.121000
681.000000	49.929600
680.000000	49.770100
679.000000	49.511200
678.000000	49.310700
677.000000	49.013900
676.000000	48.798000
675.000000	48.576900
674.000000	48.250100
673.000000	48.006600
672.000000	47.723200
671.000000	47.482200
670.000000	47.273300
669.000000	47.046900
668.000000	46.901000
667.000000	46.728800
666.000000	46.586300
665.000000	46.456600
664.000000	46.315800
663.000000	46.249000
662.000000	46.197500
661.000000	46.153200
660.000000	46.122700
659.000000	46.061000
658.000000	45.975100
657.000000	45.916900
656.000000	45.903500
655.000000	45.825100
654.000000	45.666700
653.000000	45.554500
652.000000	45.475100
651.000000	45.294700
650.000000	45.144700
649.000000	44.980200
648.000000	44.754400
647.000000	44.500000
646.000000	44.282000
645.000000	43.989000
644.000000	43.680000
643.000000	43.352500
642.000000	43.001800
641.000000	42.636300
640.000000	42.270200
639.000000	41.901000
638.000000	41.530300
637.000000	41.114600
636.000000	40.754900
635.000000	40.386800
634.000000	39.995700
633.000000	39.668800
632.000000	39.361200
631.000000	39.103000
630.000000	38.871500
629.000000	38.721100
628.000000	38.630100
627.000000	38.603100
626.000000	38.588500
625.000000	38.635900
624.000000	38.765300
623.000000	39.004400
622.000000	39.253500
621.000000	39.552800
620.000000	39.941400
619.000000	40.342700
618.000000	40.748300
617.000000	41.252300
616.000000	41.693900
615.000000	42.137800
614.000000	42.622500
613.000000	43.111300
612.000000	43.539300
611.000000	43.999600
610.000000	44.468700
609.000000	44.886200
608.000000	45.304700
607.000000	45.716000
606.000000	46.128800
605.000000	46.521600
604.000000	46.871800
603.000000	47.256800
602.000000	47.635500
601.000000	48.010000
600.000000	48.408100
599.000000	48.750800
598.000000	49.079800
597.000000	49.314700
596.000000	49.592500
595.000000	49.819300
594.000000	50.066700
593.000000	50.337200
592.000000	50.469000
591.000000	50.668900
590.000000	50.869400
589.000000	51.029700
588.000000	51.186100
587.000000	51.363800
586.000000	51.463400
585.000000	51.591500
584.000000	51.693200
583.000000	51.754100
582.000000	51.781000
581.000000	51.782500
580.000000	51.830700
579.000000	51.848000
578.000000	51.858200
577.000000	51.833200
576.000000	51.820200
575.000000	51.791600
574.000000	51.768400
573.000000	51.639000
572.000000	51.548700
571.000000	51.469700
570.000000	51.330400
569.000000	51.168100
568.000000	51.003900
567.000000	50.849400
566.000000	50.714700
565.000000	50.525100
564.000000	50.375900
563.000000	50.166900
562.000000	49.950500
561.000000	49.681400
560.000000	49.486800
559.000000	49.477400
558.000000	49.224800
557.000000	48.963800
556.000000	48.697700
555.000000	48.410300
554.000000	48.118800
553.000000	47.742700
552.000000	47.405800
551.000000	47.052400
550.000000	46.693100
549.000000	46.326300
548.000000	45.926000
547.000000	45.535000
546.000000	45.135300
545.000000	44.683200
544.000000	44.245100
543.000000	43.820800
542.000000	43.375600
541.000000	42.929300
540.000000	42.454200
539.000000	41.964100
538.000000	41.462800
537.000000	40.941500
536.000000	40.381200
535.000000	39.839600
534.000000	39.298200
533.000000	38.739900
532.000000	38.116100
531.000000	37.460900
530.000000	36.827800
529.000000	36.204500
528.000000	35.565300
527.000000	34.933900
526.000000	34.301600
525.000000	33.693100
524.000000	33.082500
523.000000	32.465200
522.000000	31.852400
521.000000	31.231000
520.000000	30.638500
519.000000	30.069400
518.000000	29.509400
517.000000	28.960700
516.000000	28.414700
515.000000	27.905500
514.000000	27.397500
513.000000	26.912500
512.000000	26.416000
511.000000	25.965000
510.000000	25.532300
509.000000	25.101600
508.000000	24.681000
507.000000	24.299500
506.000000	23.924100
505.000000	23.586000
504.000000	23.249100
503.000000	22.917000
502.000000	22.574500
501.000000	22.250600
500.000000	21.929100
499.000000	21.607500
498.000000	21.311400
497.000000	21.020000
496.000000	20.717300
495.000000	20.426200
494.000000	20.131900
493.000000	19.856700
492.000000	19.566600
491.000000	19.272500
490.000000	18.984400
489.000000	18.706800
488.000000	18.433000
487.000000	18.159300
486.000000	17.913400
485.000000	17.683200
484.000000	17.458200
483.000000	17.243700
482.000000	17.021300
481.000000	16.800000
480.000000	16.616900
479.000000	16.477700
478.000000	16.358300
477.000000	16.248600
476.000000	16.148600
475.000000	16.073900
474.000000	16.004900
473.000000	15.908800
472.000000	15.867000
471.000000	15.848900
470.000000	15.816100
469.000000	15.785900
468.000000	15.753100
467.000000	15.726000
466.000000	15.702300
465.000000	15.679200
464.000000	15.661500
463.000000	15.641400
462.000000	15.621300
461.000000	15.583000
460.000000	15.547600
459.000000	15.524800
458.000000	15.481800
457.000000	15.428600
456.000000	15.354300
455.000000	15.293500
454.000000	15.245600
453.000000	15.171600
452.000000	15.094900
451.000000	15.020700
450.000000	14.925700
449.000000	14.796500
448.000000	14.692700
447.000000	14.602400
446.000000	14.505900
445.000000	14.396000
444.000000	14.254400
443.000000	14.096400
442.000000	13.946300
441.000000	13.799000
440.000000	13.635500
439.000000	13.465400
438.000000	13.302700
437.000000	13.130900
436.000000	12.952600
435.000000	12.770900
434.000000	12.614700
433.000000	12.423800
432.000000	12.213600
431.000000	12.015800
430.000000	11.810600
429.000000	11.609900
428.000000	11.419400
427.000000	11.218700
426.000000	11.012000
425.000000	10.792900
424.000000	10.591800
423.000000	10.382200
422.000000	10.171100
421.000000	9.976100
420.000000	9.762800
419.000000	9.550300
418.000000	9.368200
417.000000	9.165300
416.000000	8.948800
415.000000	8.738700
414.000000	8.546600
413.000000	8.385300
412.000000	8.178000
411.000000	8.004800
410.000000	7.840300
409.000000	7.648800
408.000000	7.500200
407.000000	7.352700
406.000000	7.213600
405.000000	7.070700
404.000000	6.917300
403.000000	6.794200
402.000000	6.685500
401.000000	6.590400
400.000000	6.487400
399.000000	6.373000
398.000000	6.273400
397.000000	6.203900
396.000000	6.119400
395.000000	6.050700
394.000000	5.978200
393.000000	5.893100
392.000000	5.824200
391.000000	5.766200
390.000000	5.710200
389.000000	5.664400
388.000000	5.640300
387.000000	5.604700
386.000000	5.543100
385.000000	5.481900
384.000000	5.450100
383.000000	5.441600
382.000000	5.417600
381.000000	5.403100
380.000000	5.369100
379.000000	5.320700
378.000000	5.306600
377.000000	5.295200
376.000000	4.976100
375.000000	4.405900
374.000000	4.079500
373.000000	4.261000
372.000000	4.400000
371.000000	4.749000
370.000000	4.993700
369.000000	4.944300
368.000000	5.005800
367.000000	5.192900
366.000000	5.068200
365.000000	5.131800
364.000000	4.982600
363.000000	5.193300
362.000000	5.088900
361.000000	5.200500
360.000000	5.310100
359.000000	5.296000
358.000000	5.135800
357.000000	5.264600
356.000000	5.282300
355.000000	5.296900
354.000000	5.230900
353.000000	5.390200
352.000000	5.094400
351.000000	5.300000
350.000000	5.414700
349.000000	5.254200
348.000000	5.403100
347.000000	5.437900
346.000000	5.649800
345.000000	5.482700
344.000000	5.926200
343.000000	5.761200
342.000000	5.035700
341.000000	5.536900
340.000000	5.730000
339.000000	5.442500
338.000000	6.137400
337.000000	5.656000
336.000000	6.094500
335.000000	6.086800
334.000000	6.347300
333.000000	5.862300
332.000000	5.978600
331.000000	5.801600
330.000000	5.189700
329.000000	5.709800
328.000000	6.191500
327.000000	6.133200
326.000000	5.948300
325.000000	5.734900
324.000000	6.619000
323.000000	7.362100
322.000000	7.425400
321.000000	9.670100
320.000000	13.247900
319.000000	16.334200
318.000000	18.918200
317.000000	20.639100
316.000000	6.561500
315.000000	4.978000
314.000000	5.017800
313.000000	4.999000
312.000000	4.964400
311.000000	4.980000
310.000000	5.065300
309.000000	4.970500
308.000000	5.040100
307.000000	4.822300
306.000000	4.910700
305.000000	5.004800
304.000000	5.102400
303.000000	5.033100
302.000000	5.013100
301.000000	4.893500
300.000000	4.959900
299.000000	5.011100
298.000000	4.951400
297.000000	4.930500
296.000000	5.072900
295.000000	5.023600
294.000000	4.919500
293.000000	4.964600
292.000000	4.965600
291.000000	5.035400
290.000000	5.005600
289.000000	4.951600
288.000000	4.884200
287.000000	4.966700
286.000000	5.014300
285.000000	4.986700
284.000000	5.037800
283.000000	5.039400
282.000000	5.008300
281.000000	4.983800
280.000000	5.034200
279.000000	5.042900
278.000000	5.045200
277.000000	5.040900
276.000000	5.090400
275.000000	4.980000
274.000000	5.008700
273.000000	4.978800
272.000000	5.079200
271.000000	5.171400
270.000000	5.134300
269.000000	5.178300
268.000000	5.096000
267.000000	5.258900
266.000000	5.207100
265.000000	5.213000
264.000000	5.324900
263.000000	5.359500
262.000000	5.278900
261.000000	5.333400
260.000000	5.375400
259.000000	5.426100
258.000000	5.459800
257.000000	5.428200
256.000000	5.427300
255.000000	5.418700
254.000000	5.443300
253.000000	5.509000
252.000000	5.484600
251.000000	5.525800
250.000000	5.488900
