PE UV       SUBTECH     SPECTRUM    ASCII       PEDS        4.00        
   -1
CICIMAUCR0108-1.Sample.ASC
24/04/19
15:08:26.00
24/04/19
15:08:26.00
Vinicio Soto Monge
C. resplendens
250,000000
1
Lambda 1050
1050L1511233
PerkinElmer UV WinLab 6.3.2.0749 / 2.02.05 Lambda 900 UV/VIS/NIR, Aug  7 2015 09:38:08

0
0
3350/servo 860,8/2
0
0
UV/VIS
1
1
1
DoubleDePol,CommonBeamDepol,RBeamAtt,SBeamAtt,60mm sphere, WB InGaAs Detector
0
0
0
0
Program
Program
3350/servo 860,8/2
3350/0,2 860,8/0,2
3350/0,2 860,8/0,2
0
15.00
 
 
 
0
 
860,8
319,2
860,8
Front
100
on
S:100 R:100
0
0
0
0
 
0
 
 
 
0
 
 
0
0
0
0
0
 
 
 
 
0
0


0
0
#HDR
-1
-1
#GR
nm
%R
1.0
0.0
2500,000000
-1,000000
2251
8
90,129700
4,967600
#DATA
2482.000000	7.547654
2481.000000	7.566060
2480.000000	7.552821
2479.000000	7.526665
2478.000000	7.567136
2477.000000	7.526773
2476.000000	7.596198
2475.000000	7.560032
2474.000000	7.523113
2473.000000	7.563262
2472.000000	7.515256
2471.000000	7.556803
2470.000000	7.543241
2469.000000	7.518377
2468.000000	7.506753
2467.000000	7.509444
2466.000000	7.505461
2465.000000	7.593292
2464.000000	7.561862
2463.000000	7.608146
2462.000000	7.623861
2461.000000	7.634517
2460.000000	7.640975
2459.000000	7.691671
2458.000000	7.703081
2457.000000	7.748718
2456.000000	7.822019
2455.000000	7.867872
2454.000000	7.892843
2453.000000	7.939557
2452.000000	7.957640
2451.000000	8.045148
2450.000000	8.091647
2449.000000	8.143420
2448.000000	8.220487
2447.000000	8.258698
2446.000000	8.316176
2445.000000	8.377313
2444.000000	8.439527
2443.000000	8.496789
2442.000000	8.515410
2441.000000	8.548024
2440.000000	8.617772
2439.000000	8.665455
2438.000000	8.715505
2437.000000	8.765879
2436.000000	8.809041
2435.000000	8.852849
2434.000000	8.899348
2433.000000	8.931639
2432.000000	8.961346
2431.000000	9.004939
2430.000000	9.026466
2429.000000	9.053267
2428.000000	9.084805
2427.000000	9.106762
2426.000000	9.137223
2425.000000	9.157782
2424.000000	9.177802
2423.000000	9.218166
2422.000000	9.243460
2421.000000	9.282209
2420.000000	9.307288
2419.000000	9.312240
2418.000000	9.328600
2417.000000	9.343777
2416.000000	9.357770
2415.000000	9.399102
2414.000000	9.399425
2413.000000	9.399102
2412.000000	9.421383
2411.000000	9.440865
2410.000000	9.448937
2409.000000	9.468635
2408.000000	9.497158
2407.000000	9.511797
2406.000000	9.528911
2405.000000	9.526866
2404.000000	9.544949
2403.000000	9.566045
2402.000000	9.582944
2401.000000	9.603287
2400.000000	9.620294
2399.000000	9.633103
2398.000000	9.664640
2397.000000	9.672928
2396.000000	9.691441
2395.000000	9.698007
2394.000000	9.719427
2393.000000	9.748704
2392.000000	9.751825
2391.000000	9.763019
2390.000000	9.780779
2389.000000	9.788421
2388.000000	9.806504
2387.000000	9.824587
2386.000000	9.819743
2385.000000	9.817053
2384.000000	9.809949
2383.000000	9.813285
2382.000000	9.800800
2381.000000	9.785300
2380.000000	9.772707
2379.000000	9.768832
2378.000000	9.748704
2377.000000	9.731267
2376.000000	9.705003
2375.000000	9.690796
2374.000000	9.674327
2373.000000	9.637946
2372.000000	9.612652
2371.000000	9.586819
2370.000000	9.540213
2369.000000	9.511151
2368.000000	9.474555
2367.000000	9.407497
2366.000000	9.358631
2365.000000	9.311594
2364.000000	9.242491
2363.000000	9.182753
2362.000000	9.136900
2361.000000	9.066184
2360.000000	9.003109
2359.000000	8.945093
2358.000000	8.883310
2357.000000	8.849835
2356.000000	8.820450
2355.000000	8.785792
2354.000000	8.755223
2353.000000	8.738755
2352.000000	8.737463
2351.000000	8.738755
2350.000000	8.745213
2349.000000	8.790420
2348.000000	8.831537
2347.000000	8.863182
2346.000000	8.891813
2345.000000	8.934222
2344.000000	8.961346
2343.000000	9.000203
2342.000000	9.055851
2341.000000	9.099120
2340.000000	9.121401
2339.000000	9.125491
2338.000000	9.128720
2337.000000	9.140775
2336.000000	9.137008
2335.000000	9.109130
2334.000000	9.091801
2333.000000	9.070812
2332.000000	9.032709
2331.000000	8.991269
2330.000000	8.939496
2329.000000	8.892351
2328.000000	8.825617
2327.000000	8.766094
2326.000000	8.723901
2325.000000	8.649524
2324.000000	8.558249
2323.000000	8.474293
2322.000000	8.387646
2321.000000	8.303905
2320.000000	8.236202
2319.000000	8.160319
2318.000000	8.061078
2317.000000	7.956348
2316.000000	7.863458
2315.000000	7.774336
2314.000000	7.692640
2313.000000	7.602872
2312.000000	7.536568
2311.000000	7.460684
2310.000000	7.418922
2309.000000	7.372423
2308.000000	7.327216
2307.000000	7.320973
2306.000000	7.312039
2305.000000	7.312577
2304.000000	7.344653
2303.000000	7.391044
2302.000000	7.441310
2301.000000	7.492329
2300.000000	7.549807
2299.000000	7.632902
2298.000000	7.696730
2297.000000	7.775520
2296.000000	7.855278
2295.000000	7.928255
2294.000000	8.003924
2293.000000	8.026742
2292.000000	8.055912
2291.000000	8.108438
2290.000000	8.144281
2289.000000	8.125014
2288.000000	8.122000
2287.000000	8.128997
2286.000000	8.102841
2285.000000	8.061401
2284.000000	8.055912
2283.000000	8.022652
2282.000000	7.992406
2281.000000	7.935036
2280.000000	7.892305
2279.000000	7.854202
2278.000000	7.829553
2277.000000	7.775305
2276.000000	7.755715
2275.000000	7.720303
2274.000000	7.706740
2273.000000	7.680262
2272.000000	7.681231
2271.000000	7.685213
2270.000000	7.721809
2269.000000	7.746028
2268.000000	7.800384
2267.000000	7.862597
2266.000000	7.943109
2265.000000	8.043641
2264.000000	8.154937
2263.000000	8.282593
2262.000000	8.444155
2261.000000	8.615404
2260.000000	8.767601
2259.000000	8.973832
2258.000000	9.183184
2257.000000	9.394473
2256.000000	9.612221
2255.000000	9.805643
2254.000000	10.044810
2253.000000	10.259006
2252.000000	10.445647
2251.000000	10.638208
2250.000000	10.815807
2249.000000	10.997928
2248.000000	11.150125
2247.000000	11.307704
2246.000000	11.444187
2245.000000	11.565600
2244.000000	11.701652
2243.000000	11.824680
2242.000000	11.947600
2241.000000	12.033171
2240.000000	12.114544
2239.000000	12.233589
2238.000000	12.299140
2237.000000	12.386110
2236.000000	12.468021
2235.000000	12.541751
2234.000000	12.596538
2233.000000	12.637978
2232.000000	12.692657
2231.000000	12.729791
2230.000000	12.786516
2229.000000	12.816223
2228.000000	12.851958
2227.000000	12.897058
2226.000000	12.889416
2225.000000	12.924505
2224.000000	12.924290
2223.000000	12.927626
2222.000000	12.930102
2221.000000	12.952383
2220.000000	12.926550
2219.000000	12.940005
2218.000000	12.915248
2217.000000	12.913849
2216.000000	12.923106
2215.000000	12.921384
2214.000000	12.901148
2213.000000	12.887586
2212.000000	12.874131
2211.000000	12.858632
2210.000000	12.860139
2209.000000	12.848945
2208.000000	12.829678
2207.000000	12.834844
2206.000000	12.812564
2205.000000	12.797710
2204.000000	12.792974
2203.000000	12.797279
2202.000000	12.785332
2201.000000	12.787377
2200.000000	12.783287
2199.000000	12.760252
2198.000000	12.766172
2197.000000	12.744322
2196.000000	12.757992
2195.000000	12.772092
2194.000000	12.768218
2193.000000	12.758853
2192.000000	12.753471
2191.000000	12.755732
2190.000000	12.754332
2189.000000	12.744215
2188.000000	12.718813
2187.000000	12.716229
2186.000000	12.715261
2185.000000	12.695133
2184.000000	12.693088
2183.000000	12.668439
2182.000000	12.669623
2181.000000	12.663380
2180.000000	12.643575
2179.000000	12.622371
2178.000000	12.642929
2177.000000	12.634964
2176.000000	12.629475
2175.000000	12.627214
2174.000000	12.629367
2173.000000	12.635718
2172.000000	12.638624
2171.000000	12.630336
2170.000000	12.651432
2169.000000	12.667685
2168.000000	12.674789
2167.000000	12.701698
2166.000000	12.708372
2165.000000	12.719889
2164.000000	12.703851
2163.000000	12.731729
2162.000000	12.753579
2161.000000	12.781349
2160.000000	12.810949
2159.000000	12.806213
2158.000000	12.811918
2157.000000	12.848299
2156.000000	12.867350
2155.000000	12.879513
2154.000000	12.905884
2153.000000	12.925366
2152.000000	12.951091
2151.000000	12.973479
2150.000000	13.005986
2149.000000	13.044089
2148.000000	13.063033
2147.000000	13.088865
2146.000000	13.095323
2145.000000	13.106948
2144.000000	13.118358
2143.000000	13.133857
2142.000000	13.140531
2141.000000	13.162165
2140.000000	13.169485
2139.000000	13.182509
2138.000000	13.183047
2137.000000	13.188644
2136.000000	13.199946
2135.000000	13.201991
2134.000000	13.202637
2133.000000	13.219213
2132.000000	13.203928
2131.000000	13.208557
2130.000000	13.208664
2129.000000	13.199623
2128.000000	13.188536
2127.000000	13.179818
2126.000000	13.166794
2125.000000	13.168731
2124.000000	13.164749
2123.000000	13.137409
2122.000000	13.112438
2121.000000	13.089726
2120.000000	13.086174
2119.000000	13.056897
2118.000000	13.014381
2117.000000	12.980368
2116.000000	12.956365
2115.000000	12.922245
2114.000000	12.894690
2113.000000	12.880051
2112.000000	12.870364
2111.000000	12.848406
2110.000000	12.810303
2109.000000	12.778443
2108.000000	12.756162
2107.000000	12.738295
2106.000000	12.718490
2105.000000	12.678449
2104.000000	12.643144
2103.000000	12.619895
2102.000000	12.613867
2101.000000	12.584483
2100.000000	12.540783
2099.000000	12.530127
2098.000000	12.525498
2097.000000	12.490732
2096.000000	12.465760
2095.000000	12.439928
2094.000000	12.423675
2093.000000	12.435837
2092.000000	12.403762
2091.000000	12.380190
2090.000000	12.384818
2089.000000	12.363398
2088.000000	12.349298
2087.000000	12.331323
2086.000000	12.319913
2085.000000	12.318837
2084.000000	12.307212
2083.000000	12.287084
2082.000000	12.276536
2081.000000	12.259637
2080.000000	12.241877
2079.000000	12.234558
2078.000000	12.214753
2077.000000	12.216583
2076.000000	12.198177
2075.000000	12.188382
2074.000000	12.183000
2073.000000	12.164918
2072.000000	12.177080
2071.000000	12.166317
2070.000000	12.136286
2069.000000	12.118849
2068.000000	12.131766
2067.000000	12.122186
2066.000000	12.105180
2065.000000	12.114867
2064.000000	12.108731
2063.000000	12.105502
2062.000000	12.112606
2061.000000	12.116051
2060.000000	12.129290
2059.000000	12.136717
2058.000000	12.165779
2057.000000	12.204635
2056.000000	12.226270
2055.000000	12.257700
2054.000000	12.293650
2053.000000	12.353819
2052.000000	12.420445
2051.000000	12.489117
2050.000000	12.578563
2049.000000	12.654016
2048.000000	12.729253
2047.000000	12.833553
2046.000000	12.944633
2045.000000	13.033110
2044.000000	13.159475
2043.000000	13.258823
2042.000000	13.363122
2041.000000	13.502403
2040.000000	13.605734
2039.000000	13.713262
2038.000000	13.822190
2037.000000	13.909375
2036.000000	14.006785
2035.000000	14.119157
2034.000000	14.219044
2033.000000	14.313656
2032.000000	14.403209
2031.000000	14.490071
2030.000000	14.585437
2029.000000	14.671976
2028.000000	14.719982
2027.000000	14.775307
2026.000000	14.850006
2025.000000	14.935900
2024.000000	15.014797
2023.000000	15.057851
2022.000000	15.144068
2021.000000	15.184647
2020.000000	15.235343
2019.000000	15.309504
2018.000000	15.369458
2017.000000	15.405300
2016.000000	15.465038
2015.000000	15.491732
2014.000000	15.545550
2013.000000	15.581608
2012.000000	15.586344
2011.000000	15.631444
2010.000000	15.661582
2009.000000	15.683109
2008.000000	15.693119
2007.000000	15.702914
2006.000000	15.727455
2005.000000	15.727563
2004.000000	15.726271
2003.000000	15.725841
2002.000000	15.725302
2001.000000	15.727132
2000.000000	15.709049
1999.000000	15.707327
1998.000000	15.675575
1997.000000	15.657061
1996.000000	15.615621
1995.000000	15.604535
1994.000000	15.579994
1993.000000	15.527037
1992.000000	15.512291
1991.000000	15.477201
1990.000000	15.422092
1989.000000	15.385280
1988.000000	15.339750
1987.000000	15.292498
1986.000000	15.246430
1985.000000	15.188737
1984.000000	15.128461
1983.000000	15.058605
1982.000000	15.033848
1981.000000	14.954521
1980.000000	14.901026
1979.000000	14.847961
1978.000000	14.782518
1977.000000	14.735374
1976.000000	14.672837
1975.000000	14.613530
1974.000000	14.575104
1973.000000	14.529251
1972.000000	14.434208
1971.000000	14.392338
1970.000000	14.355311
1969.000000	14.302462
1968.000000	14.247567
1967.000000	14.184385
1966.000000	14.149403
1965.000000	14.066416
1964.000000	14.039076
1963.000000	13.969974
1962.000000	13.915510
1961.000000	13.862553
1960.000000	13.805829
1959.000000	13.779566
1958.000000	13.707019
1957.000000	13.670100
1956.000000	13.617681
1955.000000	13.564939
1954.000000	13.503049
1953.000000	13.439328
1952.000000	13.407683
1951.000000	13.369257
1950.000000	13.315224
1949.000000	13.277013
1948.000000	13.248812
1947.000000	13.181970
1946.000000	13.163134
1945.000000	13.125677
1944.000000	13.098014
1943.000000	13.092310
1942.000000	13.098983
1941.000000	13.074442
1940.000000	13.088327
1939.000000	13.072182
1938.000000	13.062817
1937.000000	13.074980
1936.000000	13.118465
1935.000000	13.119864
1934.000000	13.164103
1933.000000	13.206296
1932.000000	13.275937
1931.000000	13.334060
1930.000000	13.365813
1929.000000	13.443418
1928.000000	13.501757
1927.000000	13.594001
1926.000000	13.674513
1925.000000	13.765788
1924.000000	13.903778
1923.000000	14.017334
1922.000000	14.117758
1921.000000	14.222703
1920.000000	14.358217
1919.000000	14.461978
1918.000000	14.610085
1917.000000	14.799848
1916.000000	14.962271
1915.000000	15.106503
1914.000000	15.277214
1913.000000	15.445987
1912.000000	15.593018
1911.000000	15.759961
1910.000000	15.961348
1909.000000	16.161121
1908.000000	16.326665
1907.000000	16.531173
1906.000000	16.718245
1905.000000	16.902518
1904.000000	17.103905
1903.000000	17.301417
1902.000000	17.524762
1901.000000	17.736589
1900.000000	17.921293
1899.000000	18.104597
1898.000000	18.305876
1897.000000	18.538155
1896.000000	18.742556
1895.000000	18.964609
1894.000000	19.185371
1893.000000	19.369536
1892.000000	19.578888
1891.000000	19.785980
1890.000000	20.012553
1889.000000	20.222228
1888.000000	20.439653
1887.000000	20.722736
1886.000000	21.005065
1885.000000	21.298697
1884.000000	21.660569
1883.000000	22.027392
1882.000000	22.426615
1881.000000	22.820132
1880.000000	23.189754
1879.000000	23.578428
1878.000000	23.931366
1877.000000	24.247278
1876.000000	24.545322
1875.000000	24.824530
1874.000000	25.064451
1873.000000	25.294900
1872.000000	25.498870
1871.000000	25.658817
1870.000000	25.815966
1869.000000	25.955677
1868.000000	26.038557
1867.000000	26.116378
1866.000000	26.190970
1865.000000	26.262332
1864.000000	26.314644
1863.000000	26.340261
1862.000000	26.369538
1861.000000	26.384930
1860.000000	26.381270
1859.000000	26.365125
1858.000000	26.349087
1857.000000	26.329605
1856.000000	26.301943
1855.000000	26.260395
1854.000000	26.183005
1853.000000	26.088285
1852.000000	26.037265
1851.000000	26.014339
1850.000000	26.011756
1849.000000	25.956754
1848.000000	25.840722
1847.000000	25.737069
1846.000000	25.647408
1845.000000	25.598649
1844.000000	25.591437
1843.000000	25.607905
1842.000000	25.583257
1841.000000	25.525779
1840.000000	25.464534
1839.000000	25.415775
1838.000000	25.377672
1837.000000	25.321271
1836.000000	25.253460
1835.000000	25.187694
1834.000000	25.120960
1833.000000	25.061760
1832.000000	25.018490
1831.000000	24.950895
1830.000000	24.872213
1829.000000	24.793208
1828.000000	24.693752
1827.000000	24.622390
1826.000000	24.552534
1825.000000	24.496994
1824.000000	24.471592
1823.000000	24.477404
1822.000000	24.482678
1821.000000	24.439516
1820.000000	24.383868
1819.000000	24.342428
1818.000000	24.332203
1817.000000	24.334571
1816.000000	24.335863
1815.000000	24.326821
1814.000000	24.335863
1813.000000	24.329512
1812.000000	24.300343
1811.000000	24.260087
1810.000000	24.228011
1809.000000	24.204008
1808.000000	24.166982
1807.000000	24.131892
1806.000000	24.077967
1805.000000	24.021458
1804.000000	23.967855
1803.000000	23.933842
1802.000000	23.906072
1801.000000	23.852900
1800.000000	23.794884
1799.000000	23.739774
1798.000000	23.695643
1797.000000	23.658724
1796.000000	23.626649
1795.000000	23.569386
1794.000000	23.506957
1793.000000	23.471007
1792.000000	23.419449
1791.000000	23.360034
1790.000000	23.297282
1789.000000	23.236145
1788.000000	23.178560
1787.000000	23.106444
1786.000000	23.036803
1785.000000	22.938316
1784.000000	22.854791
1783.000000	22.770619
1782.000000	22.690861
1781.000000	22.633599
1780.000000	22.549212
1779.000000	22.463426
1778.000000	22.362571
1777.000000	22.267744
1776.000000	22.163444
1775.000000	22.046336
1774.000000	21.922340
1773.000000	21.801142
1772.000000	21.671655
1771.000000	21.538940
1770.000000	21.406225
1769.000000	21.281905
1768.000000	21.171255
1767.000000	21.087730
1766.000000	20.998069
1765.000000	20.942206
1764.000000	20.918526
1763.000000	20.893339
1762.000000	20.915405
1761.000000	20.965994
1760.000000	21.039939
1759.000000	21.114747
1758.000000	21.167919
1757.000000	21.219369
1756.000000	21.271142
1755.000000	21.298158
1754.000000	21.312797
1753.000000	21.323345
1752.000000	21.298158
1751.000000	21.260486
1750.000000	21.204407
1749.000000	21.149405
1748.000000	21.074598
1747.000000	20.996132
1746.000000	20.888280
1745.000000	20.737267
1744.000000	20.576351
1743.000000	20.397029
1742.000000	20.202962
1741.000000	19.980155
1740.000000	19.765206
1739.000000	19.549826
1738.000000	19.361786
1737.000000	19.189030
1736.000000	19.060513
1735.000000	19.001743
1734.000000	18.987643
1733.000000	19.005403
1732.000000	19.071169
1731.000000	19.171916
1730.000000	19.270080
1729.000000	19.387296
1728.000000	19.501605
1727.000000	19.597724
1726.000000	19.711065
1725.000000	19.766282
1724.000000	19.806646
1723.000000	19.843673
1722.000000	19.850131
1721.000000	19.843995
1720.000000	19.867675
1719.000000	19.882099
1718.000000	19.891248
1717.000000	19.925153
1716.000000	19.970145
1715.000000	20.013845
1714.000000	20.048073
1713.000000	20.089621
1712.000000	20.147421
1711.000000	20.164536
1710.000000	20.173577
1709.000000	20.151189
1708.000000	20.151404
1707.000000	20.095110
1706.000000	20.078750
1705.000000	20.052379
1704.000000	19.996300
1703.000000	19.918264
1702.000000	19.817194
1701.000000	19.687493
1700.000000	19.546167
1699.000000	19.402472
1698.000000	19.239404
1697.000000	19.151573
1696.000000	19.089682
1695.000000	19.121435
1694.000000	19.184294
1693.000000	19.294944
1692.000000	19.443805
1691.000000	19.588145
1690.000000	19.764345
1689.000000	19.854544
1688.000000	19.881668
1687.000000	19.888772
1686.000000	19.882314
1685.000000	19.894800
1684.000000	19.955937
1683.000000	20.151512
1682.000000	20.479479
1681.000000	20.886558
1680.000000	21.394708
1679.000000	21.907486
1678.000000	22.380869
1677.000000	22.813781
1676.000000	23.232701
1675.000000	23.603507
1674.000000	23.888743
1673.000000	24.137597
1672.000000	24.353838
1671.000000	24.534451
1670.000000	24.706346
1669.000000	24.835294
1668.000000	24.947666
1667.000000	25.036789
1666.000000	25.103092
1665.000000	25.184680
1664.000000	25.245495
1663.000000	25.277570
1662.000000	25.315673
1661.000000	25.369492
1660.000000	25.375196
1659.000000	25.391772
1658.000000	25.406734
1657.000000	25.398876
1656.000000	25.396723
1655.000000	25.379717
1654.000000	25.357544
1653.000000	25.341183
1652.000000	25.316965
1651.000000	25.290810
1650.000000	25.252383
1649.000000	25.217294
1648.000000	25.179944
1647.000000	25.125804
1646.000000	25.066066
1645.000000	25.020858
1644.000000	24.978127
1643.000000	24.907518
1642.000000	24.848533
1641.000000	24.776094
1640.000000	24.715387
1639.000000	24.655326
1638.000000	24.608182
1637.000000	24.526917
1636.000000	24.482248
1635.000000	24.404427
1634.000000	24.352761
1633.000000	24.272142
1632.000000	24.176561
1631.000000	24.110473
1630.000000	24.023933
1629.000000	23.983785
1628.000000	23.906825
1627.000000	23.827282
1626.000000	23.732132
1625.000000	23.659801
1624.000000	23.605660
1623.000000	23.533651
1622.000000	23.473375
1621.000000	23.384360
1620.000000	23.323976
1619.000000	23.249169
1618.000000	23.196966
1617.000000	23.118822
1616.000000	23.036373
1615.000000	22.984600
1614.000000	22.931212
1613.000000	22.867492
1612.000000	22.822392
1611.000000	22.749092
1610.000000	22.683542
1609.000000	22.658570
1608.000000	22.600339
1607.000000	22.550934
1606.000000	22.501529
1605.000000	22.435871
1604.000000	22.379039
1603.000000	22.322638
1602.000000	22.282920
1601.000000	22.243849
1600.000000	22.208544
1599.000000	22.161830
1598.000000	22.111887
1597.000000	22.067110
1596.000000	22.034604
1595.000000	22.013292
1594.000000	21.971206
1593.000000	21.937516
1592.000000	21.900382
1591.000000	21.874980
1590.000000	21.861956
1589.000000	21.838599
1588.000000	21.806846
1587.000000	21.795006
1586.000000	21.778107
1585.000000	21.767021
1584.000000	21.759486
1583.000000	21.749799
1582.000000	21.728918
1581.000000	21.711481
1580.000000	21.716109
1579.000000	21.725689
1578.000000	21.726550
1577.000000	21.739036
1576.000000	21.743233
1575.000000	21.747431
1574.000000	21.768097
1573.000000	21.786611
1572.000000	21.811905
1571.000000	21.833971
1570.000000	21.845703
1569.000000	21.868952
1568.000000	21.907809
1567.000000	21.933426
1566.000000	21.943759
1565.000000	21.972929
1564.000000	21.999945
1563.000000	22.012646
1562.000000	22.051826
1561.000000	22.074752
1560.000000	22.092405
1559.000000	22.115762
1558.000000	22.130508
1557.000000	22.139549
1556.000000	22.143424
1555.000000	22.145900
1554.000000	22.160323
1553.000000	22.162583
1552.000000	22.161184
1551.000000	22.171732
1550.000000	22.169042
1549.000000	22.166028
1548.000000	22.169580
1547.000000	22.165167
1546.000000	22.161722
1545.000000	22.169472
1544.000000	22.165597
1543.000000	22.166889
1542.000000	22.173347
1541.000000	22.168611
1540.000000	22.158386
1539.000000	22.174316
1538.000000	22.171625
1537.000000	22.171087
1536.000000	22.174746
1535.000000	22.168611
1534.000000	22.155802
1533.000000	22.145146
1532.000000	22.140195
1531.000000	22.140087
1530.000000	22.120067
1529.000000	22.093912
1528.000000	22.090037
1527.000000	22.090575
1526.000000	22.066895
1525.000000	22.043968
1524.000000	22.025347
1523.000000	21.998977
1522.000000	21.982831
1521.000000	21.981324
1520.000000	21.968838
1519.000000	21.948280
1518.000000	21.925138
1517.000000	21.910823
1516.000000	21.884990
1515.000000	21.866692
1514.000000	21.846779
1513.000000	21.828804
1512.000000	21.827297
1511.000000	21.796406
1510.000000	21.767559
1509.000000	21.763038
1508.000000	21.750230
1507.000000	21.726873
1506.000000	21.717939
1505.000000	21.701901
1504.000000	21.682204
1503.000000	21.668319
1502.000000	21.653357
1501.000000	21.647975
1500.000000	21.636135
1499.000000	21.624941
1498.000000	21.627632
1497.000000	21.628493
1496.000000	21.635382
1495.000000	21.643993
1494.000000	21.663583
1493.000000	21.672732
1492.000000	21.679943
1491.000000	21.680589
1490.000000	21.691999
1489.000000	21.737852
1488.000000	21.746140
1487.000000	21.764222
1486.000000	21.783274
1485.000000	21.807707
1484.000000	21.823960
1483.000000	21.852269
1482.000000	21.875626
1481.000000	21.931704
1480.000000	21.943436
1479.000000	21.970776
1478.000000	22.016844
1477.000000	22.045152
1476.000000	22.089068
1475.000000	22.125664
1474.000000	22.176899
1473.000000	22.224044
1472.000000	22.261824
1471.000000	22.307031
1470.000000	22.311121
1469.000000	22.339645
1468.000000	22.392924
1467.000000	22.440823
1466.000000	22.500561
1465.000000	22.531883
1464.000000	22.583763
1463.000000	22.642532
1462.000000	22.717770
1461.000000	22.794084
1460.000000	22.855975
1459.000000	22.914744
1458.000000	23.006988
1457.000000	23.072000
1456.000000	23.172209
1455.000000	23.266606
1454.000000	23.341521
1453.000000	23.456691
1452.000000	23.558515
1451.000000	23.657756
1450.000000	23.759902
1449.000000	23.816088
1448.000000	23.964626
1447.000000	24.086039
1446.000000	24.227581
1445.000000	24.307877
1444.000000	24.401736
1443.000000	24.543277
1442.000000	24.631646
1441.000000	24.775771
1440.000000	24.871675
1439.000000	24.985123
1438.000000	25.109120
1437.000000	25.220954
1436.000000	25.315028
1435.000000	25.435149
1434.000000	25.539449
1433.000000	25.661939
1432.000000	25.771727
1431.000000	25.894863
1430.000000	26.021766
1429.000000	26.182036
1428.000000	26.349733
1427.000000	26.493319
1426.000000	26.695352
1425.000000	26.878226
1424.000000	27.077783
1423.000000	27.238484
1422.000000	27.420281
1421.000000	27.627911
1420.000000	27.856099
1419.000000	28.031008
1418.000000	28.211836
1417.000000	28.338201
1416.000000	28.547661
1415.000000	28.756259
1414.000000	28.934505
1413.000000	29.067328
1412.000000	29.200043
1411.000000	29.440394
1410.000000	29.691294
1409.000000	29.949836
1408.000000	30.252939
1407.000000	30.548938
1406.000000	30.861728
1405.000000	31.202504
1404.000000	31.521752
1403.000000	31.856931
1402.000000	32.196307
1401.000000	32.580353
1400.000000	32.838787
1399.000000	33.014126
1398.000000	33.192479
1397.000000	33.406136
1396.000000	33.612798
1395.000000	33.687497
1394.000000	33.768224
1393.000000	33.845722
1392.000000	33.987156
1391.000000	34.103833
1390.000000	34.250433
1389.000000	34.487017
1388.000000	34.705088
1387.000000	34.912933
1386.000000	35.177826
1385.000000	35.534208
1384.000000	35.877567
1383.000000	36.206826
1382.000000	36.428126
1381.000000	36.595392
1380.000000	36.661158
1379.000000	36.705934
1378.000000	36.765134
1377.000000	36.834882
1376.000000	36.946609
1375.000000	37.127114
1374.000000	37.395020
1373.000000	37.739133
1372.000000	38.116828
1371.000000	38.477301
1370.000000	38.774699
1369.000000	39.076080
1368.000000	39.357979
1367.000000	39.580785
1366.000000	39.774530
1365.000000	39.964185
1364.000000	40.160083
1363.000000	40.317769
1362.000000	40.451453
1361.000000	40.527767
1360.000000	40.535302
1359.000000	40.591057
1358.000000	40.697617
1357.000000	40.872525
1356.000000	41.208027
1355.000000	41.680872
1354.000000	42.222066
1353.000000	42.750667
1352.000000	43.375386
1351.000000	43.967923
1350.000000	44.470368
1349.000000	44.924592
1348.000000	45.351799
1347.000000	45.724328
1346.000000	46.068548
1345.000000	46.426868
1344.000000	46.767321
1343.000000	47.081080
1342.000000	47.382568
1341.000000	47.670064
1340.000000	47.921072
1339.000000	48.155503
1338.000000	48.402743
1337.000000	48.636851
1336.000000	48.851370
1335.000000	49.060291
1334.000000	49.268782
1333.000000	49.460590
1332.000000	49.643894
1331.000000	49.818480
1330.000000	49.988437
1329.000000	50.128041
1328.000000	50.270443
1327.000000	50.406818
1326.000000	50.544162
1325.000000	50.663207
1324.000000	50.781392
1323.000000	50.881385
1322.000000	50.982025
1321.000000	51.081911
1320.000000	51.180076
1319.000000	51.272642
1318.000000	51.369623
1317.000000	51.457454
1316.000000	51.526448
1315.000000	51.602978
1314.000000	51.675309
1313.000000	51.739891
1312.000000	51.794462
1311.000000	51.835364
1310.000000	51.890689
1309.000000	51.943323
1308.000000	51.983579
1307.000000	52.012963
1306.000000	52.045900
1305.000000	52.063444
1304.000000	52.072916
1303.000000	52.087232
1302.000000	52.086371
1301.000000	52.068719
1300.000000	52.073239
1299.000000	52.077114
1298.000000	52.067642
1297.000000	52.041594
1296.000000	52.019314
1295.000000	52.018883
1294.000000	52.013178
1293.000000	51.988315
1292.000000	51.946121
1291.000000	51.910386
1290.000000	51.885522
1289.000000	51.849572
1288.000000	51.791018
1287.000000	51.729342
1286.000000	51.663254
1285.000000	51.580482
1284.000000	51.514070
1283.000000	51.439048
1282.000000	51.368654
1281.000000	51.289434
1280.000000	51.201065
1279.000000	51.128625
1278.000000	51.061891
1277.000000	50.989775
1276.000000	50.913030
1275.000000	50.851463
1274.000000	50.791617
1273.000000	50.719393
1272.000000	50.656534
1271.000000	50.600348
1270.000000	50.538242
1269.000000	50.485285
1268.000000	50.430175
1267.000000	50.376788
1266.000000	50.308546
1265.000000	50.232771
1264.000000	50.178630
1263.000000	50.132884
1262.000000	50.063352
1261.000000	50.005766
1260.000000	49.950011
1259.000000	49.877895
1258.000000	49.816542
1257.000000	49.736999
1256.000000	49.659178
1255.000000	49.596104
1254.000000	49.525279
1253.000000	49.435403
1252.000000	49.350801
1251.000000	49.262862
1250.000000	49.157271
1249.000000	49.059430
1248.000000	48.950072
1247.000000	48.831995
1246.000000	48.685180
1245.000000	48.540732
1244.000000	48.405541
1243.000000	48.253344
1242.000000	48.102438
1241.000000	47.934957
1240.000000	47.766937
1239.000000	47.588046
1238.000000	47.413568
1237.000000	47.231232
1236.000000	47.035012
1235.000000	46.839760
1234.000000	46.658501
1233.000000	46.474981
1232.000000	46.277469
1231.000000	46.068655
1230.000000	45.873726
1229.000000	45.674707
1228.000000	45.477841
1227.000000	45.272687
1226.000000	45.081956
1225.000000	44.895853
1224.000000	44.704153
1223.000000	44.514283
1222.000000	44.344434
1221.000000	44.183733
1220.000000	44.007533
1219.000000	43.846402
1218.000000	43.716162
1217.000000	43.589259
1216.000000	43.472905
1215.000000	43.352137
1214.000000	43.232338
1213.000000	43.123087
1212.000000	43.015990
1211.000000	42.940214
1210.000000	42.833439
1209.000000	42.782204
1208.000000	42.737750
1207.000000	42.697817
1206.000000	42.669079
1205.000000	42.661329
1204.000000	42.654655
1203.000000	42.662728
1202.000000	42.659176
1201.000000	42.657454
1200.000000	42.622042
1199.000000	42.554554
1198.000000	42.444873
1197.000000	42.294398
1196.000000	42.102483
1195.000000	41.841357
1194.000000	41.524154
1193.000000	41.101144
1192.000000	40.646382
1191.000000	40.162020
1190.000000	39.721573
1189.000000	39.338927
1188.000000	39.090826
1187.000000	38.969736
1186.000000	38.970274
1185.000000	39.112999
1184.000000	39.395759
1183.000000	39.777975
1182.000000	40.242855
1181.000000	40.772855
1180.000000	41.286278
1179.000000	41.803254
1178.000000	42.211625
1177.000000	42.556168
1176.000000	42.873049
1175.000000	43.168833
1174.000000	43.462141
1173.000000	43.788924
1172.000000	44.104620
1171.000000	44.472951
1170.000000	44.829980
1169.000000	45.155686
1168.000000	45.515621
1167.000000	45.874049
1166.000000	46.224620
1165.000000	46.595318
1164.000000	46.976135
1163.000000	47.352753
1162.000000	47.715056
1161.000000	48.075852
1160.000000	48.411461
1159.000000	48.711766
1158.000000	49.055232
1157.000000	49.332288
1156.000000	49.547560
1155.000000	49.730433
1154.000000	49.800612
1153.000000	49.830858
1152.000000	49.841298
1151.000000	49.809653
1150.000000	49.762294
1149.000000	49.718378
1148.000000	49.688455
1147.000000	49.734954
1146.000000	49.863794
1145.000000	50.057216
1144.000000	50.323831
1143.000000	50.645878
1142.000000	50.976751
1141.000000	51.337009
1140.000000	51.694253
1139.000000	52.039765
1138.000000	52.429515
1137.000000	52.807532
1136.000000	53.189102
1135.000000	53.578099
1134.000000	53.881632
1133.000000	54.134792
1132.000000	54.423580
1131.000000	54.659088
1130.000000	54.907081
1129.000000	55.064768
1128.000000	55.211153
1127.000000	55.311147
1126.000000	55.407050
1125.000000	55.478951
1124.000000	55.555265
1123.000000	55.602840
1122.000000	55.670866
1121.000000	55.697022
1120.000000	55.726514
1119.000000	55.746212
1118.000000	55.748364
1117.000000	55.753316
1116.000000	55.764294
1115.000000	55.762680
1114.000000	55.749979
1113.000000	55.741691
1112.000000	55.736201
1111.000000	55.714459
1110.000000	55.711337
1109.000000	55.688626
1108.000000	55.696161
1107.000000	55.668175
1106.000000	55.685612
1105.000000	55.660426
1104.000000	55.632871
1103.000000	55.638145
1102.000000	55.613389
1101.000000	55.592830
1100.000000	55.587987
1099.000000	55.544825
1098.000000	55.532662
1097.000000	55.513825
1096.000000	55.482934
1095.000000	55.443862
1094.000000	55.399731
1093.000000	55.374975
1092.000000	55.350757
1091.000000	55.302643
1090.000000	55.257759
1089.000000	55.204264
1088.000000	55.164546
1087.000000	55.119232
1086.000000	55.068750
1085.000000	55.017731
1084.000000	54.967788
1083.000000	54.913109
1082.000000	54.874037
1081.000000	54.824201
1080.000000	54.771244
1079.000000	54.748964
1078.000000	54.703218
1077.000000	54.645203
1076.000000	54.590954
1075.000000	54.545639
1074.000000	54.489346
1073.000000	54.434128
1072.000000	54.383216
1071.000000	54.333596
1070.000000	54.287313
1069.000000	54.240706
1068.000000	54.186350
1067.000000	54.134470
1066.000000	54.086787
1065.000000	54.029955
1064.000000	53.976998
1063.000000	53.923503
1062.000000	53.870976
1061.000000	53.811346
1060.000000	53.759358
1059.000000	53.700912
1058.000000	53.650215
1057.000000	53.591553
1056.000000	53.538381
1055.000000	53.499847
1054.000000	53.452380
1053.000000	53.412877
1052.000000	53.381986
1051.000000	53.361535
1050.000000	53.344313
1049.000000	53.308471
1048.000000	53.281884
1047.000000	53.289204
1046.000000	53.290603
1045.000000	53.288343
1044.000000	53.291249
1043.000000	53.303627
1042.000000	53.307717
1041.000000	53.298245
1040.000000	53.311269
1039.000000	53.329782
1038.000000	53.339685
1037.000000	53.354216
1036.000000	53.374021
1035.000000	53.394902
1034.000000	53.411371
1033.000000	53.416322
1032.000000	53.429346
1031.000000	53.461852
1030.000000	53.461206
1029.000000	53.470248
1028.000000	53.489514
1027.000000	53.483056
1026.000000	53.475199
1025.000000	53.455932
1024.000000	53.433759
1023.000000	53.443338
1022.000000	53.453349
1021.000000	53.453241
1020.000000	53.427731
1019.000000	53.410294
1018.000000	53.420304
1017.000000	53.422565
1016.000000	53.424610
1015.000000	53.427193
1014.000000	53.417398
1013.000000	53.429884
1012.000000	53.464005
1011.000000	53.494573
1010.000000	53.534721
1009.000000	53.558401
1008.000000	53.595859
1007.000000	53.629656
1006.000000	53.663885
1005.000000	53.706832
1004.000000	53.754299
1003.000000	53.781100
1002.000000	53.824585
1001.000000	53.874636
1000.000000	53.901437
999.000000	53.957731
998.000000	54.018976
997.000000	54.076992
996.000000	54.150400
995.000000	54.213474
994.000000	54.280424
993.000000	54.345651
992.000000	54.446937
991.000000	54.547684
990.000000	54.639175
989.000000	54.744228
988.000000	54.856707
987.000000	54.979520
986.000000	55.125367
985.000000	55.267446
984.000000	55.424918
983.000000	55.559463
982.000000	55.707785
981.000000	55.881510
980.000000	56.031124
979.000000	56.196884
978.000000	56.354355
977.000000	56.512473
976.000000	56.664562
975.000000	56.856908
974.000000	57.011904
973.000000	57.189718
972.000000	57.377651
971.000000	57.561063
970.000000	57.731343
969.000000	57.913033
968.000000	58.120770
967.000000	58.306442
966.000000	58.509013
965.000000	58.701574
964.000000	58.906190
963.000000	59.104133
962.000000	59.305843
961.000000	59.523160
960.000000	59.722179
959.000000	59.947354
958.000000	60.140776
957.000000	60.332906
956.000000	60.506308
955.000000	60.709094
954.000000	60.912311
953.000000	61.083345
952.000000	61.242000
951.000000	61.392152
950.000000	61.601827
949.000000	61.756177
948.000000	61.912680
947.000000	62.097814
946.000000	62.253348
945.000000	62.434500
944.000000	62.580024
943.000000	62.734804
942.000000	62.879575
941.000000	63.090757
940.000000	63.247367
939.000000	63.394075
938.000000	63.611930
937.000000	63.773492
936.000000	63.960564
935.000000	64.138271
934.000000	64.311565
933.000000	64.531788
932.000000	64.679465
931.000000	64.850821
930.000000	65.064802
929.000000	65.254779
928.000000	65.445295
927.000000	65.681664
926.000000	65.888110
925.000000	66.078948
924.000000	66.279905
923.000000	66.485167
922.000000	66.676651
921.000000	66.967484
920.000000	67.176513
919.000000	67.384358
918.000000	67.586068
917.000000	67.792191
916.000000	67.988950
915.000000	68.179143
914.000000	68.389787
913.000000	68.581702
912.000000	68.863923
911.000000	69.080056
910.000000	69.283489
909.000000	69.441498
908.000000	69.667642
907.000000	69.984737
906.000000	70.233592
905.000000	70.472436
904.000000	70.729256
903.000000	70.977034
902.000000	71.250107
901.000000	71.513277
900.000000	71.789686
899.000000	72.061252
898.000000	72.296006
897.000000	72.559930
896.000000	72.752706
895.000000	72.990797
894.000000	73.251491
893.000000	73.479141
892.000000	73.695705
891.000000	73.871475
890.000000	74.119683
889.000000	74.296099
888.000000	74.464226
887.000000	74.636121
886.000000	74.822547
885.000000	75.024472
884.000000	75.216279
883.000000	75.385806
882.000000	75.477727
881.000000	75.654143
880.000000	75.802465
879.000000	75.902459
878.000000	76.073493
877.000000	76.236561
876.000000	76.370353
875.000000	76.465503
874.000000	76.596389
873.000000	76.646870
872.000000	76.780662
871.000000	76.892388
870.000000	76.949220
869.000000	77.037374
868.000000	77.080966
867.000000	77.137367
866.000000	77.170089
865.000000	77.215081
864.000000	77.179023
863.000000	77.180637
862.000000	77.116378
861.000000	77.081181
860.000000	76.866017
859.000000	76.638151
858.000000	77.428200
857.000000	76.917300
856.000000	77.391900
855.000000	77.975400
854.000000	77.901200
853.000000	78.009900
852.000000	78.074100
851.000000	78.436500
850.000000	78.627000
849.000000	79.047800
848.000000	79.078900
847.000000	79.314800
846.000000	79.545700
845.000000	79.548400
844.000000	79.985100
843.000000	80.192900
842.000000	80.377400
841.000000	80.548300
840.000000	81.041900
839.000000	81.222100
838.000000	81.422500
837.000000	81.611400
836.000000	81.451600
835.000000	81.676300
834.000000	81.888900
833.000000	82.108800
832.000000	82.140500
831.000000	82.177200
830.000000	82.396800
829.000000	82.450600
828.000000	82.454600
827.000000	82.600500
826.000000	82.534400
825.000000	82.722400
824.000000	82.846200
823.000000	82.934000
822.000000	82.901800
821.000000	82.964600
820.000000	83.038500
819.000000	82.923800
818.000000	82.991300
817.000000	82.967400
816.000000	82.892100
815.000000	82.675200
814.000000	82.761900
813.000000	82.640900
812.000000	82.523000
811.000000	82.368300
810.000000	82.257600
809.000000	82.088700
808.000000	82.013100
807.000000	81.961500
806.000000	81.887800
805.000000	81.643000
804.000000	81.644400
803.000000	81.526200
802.000000	81.358200
801.000000	81.439500
800.000000	81.433500
799.000000	81.399400
798.000000	81.339900
797.000000	81.118500
796.000000	81.020900
795.000000	81.074900
794.000000	81.082400
793.000000	81.041600
792.000000	80.960000
791.000000	80.840000
790.000000	80.944800
789.000000	80.930900
788.000000	80.825500
787.000000	80.960600
786.000000	80.980500
785.000000	80.889000
784.000000	80.889400
783.000000	80.932000
782.000000	80.912800
781.000000	80.948400
780.000000	80.895200
779.000000	80.923500
778.000000	81.019600
777.000000	81.011200
776.000000	80.947700
775.000000	81.000900
774.000000	81.081900
773.000000	80.993100
772.000000	80.935100
771.000000	80.901200
770.000000	80.877500
769.000000	80.878900
768.000000	80.862100
767.000000	80.858700
766.000000	80.799400
765.000000	80.755700
764.000000	80.710800
763.000000	80.625600
762.000000	80.646000
761.000000	80.564900
760.000000	80.446700
759.000000	80.395300
758.000000	80.253500
757.000000	80.099600
756.000000	80.058500
755.000000	79.939700
754.000000	79.814800
753.000000	79.684600
752.000000	79.472400
751.000000	79.284100
750.000000	79.147700
749.000000	78.941100
748.000000	78.635200
747.000000	78.423600
746.000000	78.320000
745.000000	78.094900
744.000000	77.839500
743.000000	77.563300
742.000000	77.244800
741.000000	76.940300
740.000000	76.658000
739.000000	76.365100
738.000000	75.951000
737.000000	75.555200
736.000000	75.155000
735.000000	74.810100
734.000000	74.449200
733.000000	74.025400
732.000000	73.658800
731.000000	73.316300
730.000000	72.893500
729.000000	72.493900
728.000000	72.087600
727.000000	71.673800
726.000000	71.331800
725.000000	71.061200
724.000000	70.666200
723.000000	70.268200
722.000000	69.977700
721.000000	69.658000
720.000000	69.393300
719.000000	69.119600
718.000000	68.840000
717.000000	68.700700
716.000000	68.544600
715.000000	68.352500
714.000000	68.177900
713.000000	68.108000
712.000000	68.061000
711.000000	67.973400
710.000000	67.933500
709.000000	67.908900
708.000000	67.907900
707.000000	67.929800
706.000000	67.991200
705.000000	67.963700
704.000000	68.003700
703.000000	68.136200
702.000000	68.250400
701.000000	68.297700
700.000000	68.307500
699.000000	68.373500
698.000000	68.486500
697.000000	68.568400
696.000000	68.629300
695.000000	68.667600
694.000000	68.755300
693.000000	68.839900
692.000000	68.869200
691.000000	68.911900
690.000000	68.939800
689.000000	68.956100
688.000000	68.968400
687.000000	68.974500
686.000000	68.919100
685.000000	68.836200
684.000000	68.828300
683.000000	68.768700
682.000000	68.647000
681.000000	68.488100
680.000000	68.331200
679.000000	68.159900
678.000000	67.862400
677.000000	67.587300
676.000000	67.288400
675.000000	66.948700
674.000000	66.574500
673.000000	66.172700
672.000000	65.751900
671.000000	65.251900
670.000000	64.791500
669.000000	64.242900
668.000000	63.680300
667.000000	63.117000
666.000000	62.451600
665.000000	61.790300
664.000000	61.126700
663.000000	60.438600
662.000000	59.704300
661.000000	58.985500
660.000000	58.271700
659.000000	57.579400
658.000000	56.895000
657.000000	56.264800
656.000000	55.591000
655.000000	54.954700
654.000000	54.382000
653.000000	53.835900
652.000000	53.346600
651.000000	52.912600
650.000000	52.573100
649.000000	52.293900
648.000000	52.149600
647.000000	52.073800
646.000000	52.088400
645.000000	52.223100
644.000000	52.461700
643.000000	52.840000
642.000000	53.244900
641.000000	53.746500
640.000000	54.320300
639.000000	55.023000
638.000000	55.713100
637.000000	56.524600
636.000000	57.370100
635.000000	58.271600
634.000000	59.232900
633.000000	60.166300
632.000000	61.226700
631.000000	62.353800
630.000000	63.477200
629.000000	64.595300
628.000000	65.706500
627.000000	66.852900
626.000000	68.022600
625.000000	69.148500
624.000000	70.306100
623.000000	71.453300
622.000000	72.534900
621.000000	73.633800
620.000000	74.588800
619.000000	75.644900
618.000000	76.549000
617.000000	77.451600
616.000000	78.315600
615.000000	79.160400
614.000000	79.840500
613.000000	80.585400
612.000000	81.214000
611.000000	81.893600
610.000000	82.477500
609.000000	83.098500
608.000000	83.634900
607.000000	84.152300
606.000000	84.683700
605.000000	85.157200
604.000000	85.654200
603.000000	86.166700
602.000000	86.591300
601.000000	87.021100
600.000000	87.424000
599.000000	87.795100
598.000000	88.142300
597.000000	88.377500
596.000000	88.614700
595.000000	88.880900
594.000000	89.078600
593.000000	89.322300
592.000000	89.485800
591.000000	89.643300
590.000000	89.715600
589.000000	89.788300
588.000000	89.860900
587.000000	89.945000
586.000000	89.982500
585.000000	90.017400
584.000000	90.068200
583.000000	90.080700
582.000000	90.123200
581.000000	90.118000
580.000000	90.123600
579.000000	90.129700
578.000000	90.075900
577.000000	90.000900
576.000000	89.929700
575.000000	89.859500
574.000000	89.740400
573.000000	89.693600
572.000000	89.536500
571.000000	89.418500
570.000000	89.277900
569.000000	89.059100
568.000000	88.844800
567.000000	88.675800
566.000000	88.463600
565.000000	88.221300
564.000000	87.968100
563.000000	87.732100
562.000000	87.461400
561.000000	87.106600
560.000000	86.787400
559.000000	86.392100
558.000000	85.983600
557.000000	85.630700
556.000000	85.226900
555.000000	84.784800
554.000000	84.323700
553.000000	83.827900
552.000000	83.299000
551.000000	82.809700
550.000000	82.169600
549.000000	81.522100
548.000000	80.905600
547.000000	80.165500
546.000000	79.433300
545.000000	78.603900
544.000000	77.764700
543.000000	76.848500
542.000000	75.871700
541.000000	74.830200
540.000000	73.721700
539.000000	72.606800
538.000000	71.444100
537.000000	70.220800
536.000000	68.985800
535.000000	67.745400
534.000000	66.475400
533.000000	65.186600
532.000000	63.875100
531.000000	62.583700
530.000000	61.281200
529.000000	60.023600
528.000000	58.763300
527.000000	57.498200
526.000000	56.282400
525.000000	55.029500
524.000000	53.817600
523.000000	52.590800
522.000000	51.419700
521.000000	50.267600
520.000000	49.136900
519.000000	48.038000
518.000000	46.997700
517.000000	45.992600
516.000000	45.038600
515.000000	44.129200
514.000000	43.258600
513.000000	42.415200
512.000000	41.582700
511.000000	40.823600
510.000000	40.087800
509.000000	39.407700
508.000000	38.750700
507.000000	38.080700
506.000000	37.464000
505.000000	36.869300
504.000000	36.307900
503.000000	35.749500
502.000000	35.222800
501.000000	34.748000
500.000000	34.285100
499.000000	33.822100
498.000000	33.406500
497.000000	33.012900
496.000000	32.633100
495.000000	32.249200
494.000000	31.898100
493.000000	31.553600
492.000000	31.228100
491.000000	30.898000
490.000000	30.605600
489.000000	30.362100
488.000000	30.111200
487.000000	29.896000
486.000000	29.699300
485.000000	29.527400
484.000000	29.364800
483.000000	29.233800
482.000000	29.116200
481.000000	29.006500
480.000000	28.906900
479.000000	28.836700
478.000000	28.783800
477.000000	28.748900
476.000000	28.718200
475.000000	28.702600
474.000000	28.707000
473.000000	28.721300
472.000000	28.738900
471.000000	28.756400
470.000000	28.773400
469.000000	28.779300
468.000000	28.788700
467.000000	28.765700
466.000000	28.738800
465.000000	28.705500
464.000000	28.667600
463.000000	28.646400
462.000000	28.583500
461.000000	28.521200
460.000000	28.431000
459.000000	28.337400
458.000000	28.246400
457.000000	28.118500
456.000000	27.984800
455.000000	27.844900
454.000000	27.690400
453.000000	27.517000
452.000000	27.336800
451.000000	27.147900
450.000000	26.935500
449.000000	26.694200
448.000000	26.438400
447.000000	26.175100
446.000000	25.878900
445.000000	25.560900
444.000000	25.253800
443.000000	24.940200
442.000000	24.571500
441.000000	24.196400
440.000000	23.833300
439.000000	23.450400
438.000000	23.050200
437.000000	22.654600
436.000000	22.215800
435.000000	21.751400
434.000000	21.312200
433.000000	20.859100
432.000000	20.372100
431.000000	19.874800
430.000000	19.396400
429.000000	18.911600
428.000000	18.414100
427.000000	17.930000
426.000000	17.439400
425.000000	16.934000
424.000000	16.448700
423.000000	15.973500
422.000000	15.474700
421.000000	14.971800
420.000000	14.499400
419.000000	14.035000
418.000000	13.586600
417.000000	13.159400
416.000000	12.728700
415.000000	12.307900
414.000000	11.913800
413.000000	11.527900
412.000000	11.146400
411.000000	10.791200
410.000000	10.462300
409.000000	10.147900
408.000000	9.841500
407.000000	9.565400
406.000000	9.299900
405.000000	9.044900
404.000000	8.818600
403.000000	8.596100
402.000000	8.378100
401.000000	8.193100
400.000000	8.006600
399.000000	7.824900
398.000000	7.693900
397.000000	7.549500
396.000000	7.403700
395.000000	7.296300
394.000000	7.170800
393.000000	7.066700
392.000000	6.972800
391.000000	6.865000
390.000000	6.772100
389.000000	6.704300
388.000000	6.632100
387.000000	6.564400
386.000000	6.497600
385.000000	6.425700
384.000000	6.360700
383.000000	6.301500
382.000000	6.261000
381.000000	6.196100
380.000000	6.152900
379.000000	6.120700
378.000000	6.075700
377.000000	6.037500
376.000000	6.079400
375.000000	5.983900
374.000000	5.954000
373.000000	5.969500
372.000000	5.893000
371.000000	5.869400
370.000000	5.846300
369.000000	5.816100
368.000000	5.798300
367.000000	5.777400
366.000000	5.714200
365.000000	5.692400
364.000000	5.642800
363.000000	5.594300
362.000000	5.590000
361.000000	5.613900
360.000000	5.555400
359.000000	5.551000
358.000000	5.511700
357.000000	5.446600
356.000000	5.395400
355.000000	5.357500
354.000000	5.358300
353.000000	5.328400
352.000000	5.287400
351.000000	5.308000
350.000000	5.252400
349.000000	5.232200
348.000000	5.240300
347.000000	5.190400
346.000000	5.201700
345.000000	5.234600
344.000000	5.212200
343.000000	5.146000
342.000000	5.187200
341.000000	5.129400
340.000000	5.152100
339.000000	5.185900
338.000000	5.163700
337.000000	5.140900
336.000000	5.156700
335.000000	5.226800
334.000000	5.176000
333.000000	5.140100
332.000000	5.109700
331.000000	5.226100
330.000000	5.098900
329.000000	5.180100
328.000000	5.132800
327.000000	5.098400
326.000000	5.158100
325.000000	5.129300
324.000000	5.097800
323.000000	5.087000
322.000000	5.106400
321.000000	5.179400
320.000000	5.157600
319.000000	4.967600
318.000000	5.020400
317.000000	5.088300
316.000000	5.135900
315.000000	5.124800
314.000000	5.143400
313.000000	5.174500
312.000000	5.147200
311.000000	5.136800
310.000000	5.150900
309.000000	5.161700
308.000000	5.156000
307.000000	5.139300
306.000000	5.176900
305.000000	5.208800
304.000000	5.176400
303.000000	5.182600
302.000000	5.199500
301.000000	5.212700
300.000000	5.197500
299.000000	5.196800
298.000000	5.149400
297.000000	5.227000
296.000000	5.204800
295.000000	5.226200
294.000000	5.202200
293.000000	5.202100
292.000000	5.211800
291.000000	5.205700
290.000000	5.233300
289.000000	5.240300
288.000000	5.264200
287.000000	5.213200
286.000000	5.287800
285.000000	5.230100
284.000000	5.250100
283.000000	5.321200
282.000000	5.342500
281.000000	5.333300
280.000000	5.312600
279.000000	5.292800
278.000000	5.328900
277.000000	5.313400
276.000000	5.354300
275.000000	5.352600
274.000000	5.369300
273.000000	5.393600
272.000000	5.394900
271.000000	5.382800
270.000000	5.428700
269.000000	5.491700
268.000000	5.448900
267.000000	5.487300
266.000000	5.508200
265.000000	5.530300
264.000000	5.557400
263.000000	5.539600
262.000000	5.606000
261.000000	5.578400
260.000000	5.626200
259.000000	5.647900
258.000000	5.687600
257.000000	5.705900
256.000000	5.673400
255.000000	5.684700
254.000000	5.695700
253.000000	5.730900
252.000000	5.718100
251.000000	5.726000
250.000000	5.725300
