PE UV       SUBTECH     SPECTRUM    ASCII       PEDS        4.00        
   -1
INBUCR0313-4.Sample.ASC
24/02/08
16:30:31.00
24/02/08
16:30:31.00
Vinicio Soto Monge
COSTA RICA. Prov. Cartago. Sector La Catarata. Orilla de la carretera. 1450 m. MAY 1998. R. Delgado. En Flores de Sauravia. L_N_190750_560600 #50826. En Flores de Sauravia. INB0003014864 INBIOCRI COSTA RICA. Sin élitros
250,000000
1
Lambda 1050
1050L1511233
PerkinElmer UV WinLab 6.3.2.0749 / 2.02.05 Lambda 900 UV/VIS/NIR, Aug  7 2015 09:38:08

0
0
3350/servo 860,8/2
0
0
UV/VIS
1
1
1
DoubleDePol,CommonBeamDepol,RBeamAtt,SBeamAtt,60mm sphere, WB InGaAs Detector
0
0
0
0
Program
Program
3350/servo 860,8/2
3350/0,2 860,8/0,2
3350/0,2 860,8/0,2
0
15.00
 
 
 
0
 
860,8
319,2
860,8
Front
100
on
S:100 R:100
0
0
0
0
 
0
 
 
 
0
 
 
0
0
0
0
0
 
 
 
 
0
0


0
0
#HDR
-1
-1
#GR
nm
%R
1.0
0.0
2500,000000
-1,000000
2251
8
6,880600
0,529600
#DATA

250.000000	nan
251.000000	nan
252.000000	nan
253.000000	nan
254.000000	nan
255.000000	nan
256.000000	nan
257.000000	nan
258.000000	nan
259.000000	4.593326
260.000000	4.577720
261.000000	4.561494
262.000000	4.543785
263.000000	4.525206
264.000000	4.508606
265.000000	4.492900
266.000000	4.474044
267.000000	4.451622
268.000000	4.432869
269.000000	4.413618
270.000000	4.394891
271.000000	4.377364
272.000000	4.358544
273.000000	4.343094
274.000000	4.330151
275.000000	4.315855
276.000000	4.303294
277.000000	4.292746
278.000000	4.280990
279.000000	4.271417
280.000000	4.264479
281.000000	4.256891
282.000000	4.252925
283.000000	4.248223
284.000000	4.236885
285.000000	4.231918
286.000000	4.224952
287.000000	4.221506
288.000000	4.218022
289.000000	4.217049
290.000000	4.209200
291.000000	4.207553
292.000000	4.206197
293.000000	4.202223
294.000000	4.205778
295.000000	4.203922
296.000000	4.204633
297.000000	4.203560
298.000000	4.203661
299.000000	4.203732
300.000000	4.205780
301.000000	4.203628
302.000000	4.204158
303.000000	4.205176
304.000000	4.201244
305.000000	4.198766
306.000000	4.196570
307.000000	4.197233
308.000000	4.195053
309.000000	4.188307
310.000000	4.185622
311.000000	4.185508
312.000000	4.182297
313.000000	4.180530
314.000000	4.179051
315.000000	4.177187
316.000000	4.174945
317.000000	4.184195
318.000000	4.200829
319.000000	4.215903
320.000000	4.235121
321.000000	4.247380
322.000000	4.260626
323.000000	4.278044
324.000000	4.292967
325.000000	4.306254
326.000000	4.315395
327.000000	4.311535
328.000000	4.293774
329.000000	4.281466
330.000000	4.267307
331.000000	4.252985
332.000000	4.235916
333.000000	4.218523
334.000000	4.202892
335.000000	4.189598
336.000000	4.176934
337.000000	4.164418
338.000000	4.165315
339.000000	4.162492
340.000000	4.155840
341.000000	4.152372
342.000000	4.151710
343.000000	4.147153
344.000000	4.139319
345.000000	4.134722
346.000000	4.135105
347.000000	4.133066
348.000000	4.126247
349.000000	4.122061
350.000000	4.120342
351.000000	4.119191
352.000000	4.115711
353.000000	4.114198
354.000000	4.117176
355.000000	4.115577
356.000000	4.114583
357.000000	4.112053
358.000000	4.108096
359.000000	4.105821
360.000000	4.100321
361.000000	4.095445
362.000000	4.094684
363.000000	4.093757
364.000000	4.091196
365.000000	4.090175
366.000000	4.085277
367.000000	4.080379
368.000000	4.079622
369.000000	4.076822
370.000000	4.073175
371.000000	4.070508
372.000000	4.058361
373.000000	4.046425
374.000000	4.037124
375.000000	4.029595
376.000000	4.026716
377.000000	4.019561
378.000000	4.010476
379.000000	4.002177
380.000000	3.995843
381.000000	3.988311
382.000000	3.987034
383.000000	3.984166
384.000000	3.982747
385.000000	3.980410
386.000000	3.974461
387.000000	3.975565
388.000000	3.976979
389.000000	3.977725
390.000000	3.977998
391.000000	3.979428
392.000000	3.981269
393.000000	3.983541
394.000000	3.985040
395.000000	3.986146
396.000000	3.987357
397.000000	3.988579
398.000000	3.989709
399.000000	3.990992
400.000000	3.992682
401.000000	3.993914
402.000000	3.995457
403.000000	3.996567
404.000000	3.998226
405.000000	4.000248
406.000000	4.001945
407.000000	4.003271
408.000000	4.004674
409.000000	4.006373
410.000000	4.007714
411.000000	4.008679
412.000000	4.009514
413.000000	4.010278
414.000000	4.011205
415.000000	4.012439
416.000000	4.013906
417.000000	4.015392
418.000000	4.017096
419.000000	4.018667
420.000000	4.020478
421.000000	4.022579
422.000000	4.024849
423.000000	4.027432
424.000000	4.029235
425.000000	4.030734
426.000000	4.032649
427.000000	4.034938
428.000000	4.037163
429.000000	4.039676
430.000000	4.042526
431.000000	4.045010
432.000000	4.046838
433.000000	4.048756
434.000000	4.051391
435.000000	4.054308
436.000000	4.057225
437.000000	4.060186
438.000000	4.063496
439.000000	4.066877
440.000000	4.070353
441.000000	4.075055
442.000000	4.080788
443.000000	4.086763
444.000000	4.093478
445.000000	4.101012
446.000000	4.109379
447.000000	4.119074
448.000000	4.130068
449.000000	4.142849
450.000000	4.157327
451.000000	4.173127
452.000000	4.191301
453.000000	4.212455
454.000000	4.236498
455.000000	4.264195
456.000000	4.296325
457.000000	4.333273
458.000000	4.375241
459.000000	4.423028
460.000000	4.478066
461.000000	4.540848
462.000000	4.610681
463.000000	4.687873
464.000000	4.772261
465.000000	4.862599
466.000000	4.957886
467.000000	5.056962
468.000000	5.157634
469.000000	5.258143
470.000000	5.355749
471.000000	5.448251
472.000000	5.534704
473.000000	5.612021
474.000000	5.678492
475.000000	5.733220
476.000000	5.775207
477.000000	5.803359
478.000000	5.818350
479.000000	5.820217
480.000000	5.809411
481.000000	5.787252
482.000000	5.754617
483.000000	5.713636
484.000000	5.665389
485.000000	5.610635
486.000000	5.550917
487.000000	5.488028
488.000000	5.423041
489.000000	5.357209
490.000000	5.290963
491.000000	5.225318
492.000000	5.160545
493.000000	5.097227
494.000000	5.035888
495.000000	4.977204
496.000000	4.921714
497.000000	4.869198
498.000000	4.819674
499.000000	4.773366
500.000000	4.731104
501.000000	4.692274
502.000000	4.656479
503.000000	4.623576
504.000000	4.594210
505.000000	4.568282
506.000000	4.544983
507.000000	4.524183
508.000000	4.505931
509.000000	4.490078
510.000000	4.475841
511.000000	4.462562
512.000000	4.450934
513.000000	4.441177
514.000000	4.432125
515.000000	4.423704
516.000000	4.416113
517.000000	4.409287
518.000000	4.402773
519.000000	4.396565
520.000000	4.390801
521.000000	4.385974
522.000000	4.381606
523.000000	4.377193
524.000000	4.373094
525.000000	4.369543
526.000000	4.366326
527.000000	4.363501
528.000000	4.361009
529.000000	4.358863
530.000000	4.357086
531.000000	4.355582
532.000000	4.354290
533.000000	4.353399
534.000000	4.353116
535.000000	4.352989
536.000000	4.352942
537.000000	4.352868
538.000000	4.353584
539.000000	4.354288
540.000000	4.355105
541.000000	4.355977
542.000000	4.357103
543.000000	4.358561
544.000000	4.360147
545.000000	4.361566
546.000000	4.363283
547.000000	4.365466
548.000000	4.367581
549.000000	4.369922
550.000000	4.371972
551.000000	4.374670
552.000000	4.377475
553.000000	4.380209
554.000000	4.383155
555.000000	4.386328
556.000000	4.389443
557.000000	4.392557
558.000000	4.395520
559.000000	4.398173
560.000000	4.400240
561.000000	4.401599
562.000000	4.403069
563.000000	4.404377
564.000000	4.405649
565.000000	4.407258
566.000000	4.408798
567.000000	4.409882
568.000000	4.411452
569.000000	4.413395
570.000000	4.416114
571.000000	4.419307
572.000000	4.422427
573.000000	4.425748
574.000000	4.428973
575.000000	4.432329
576.000000	4.435488
577.000000	4.439683
578.000000	4.443703
579.000000	4.447633
580.000000	4.451985
581.000000	4.456576
582.000000	4.461213
583.000000	4.465774
584.000000	4.470195
585.000000	4.474771
586.000000	4.480214
587.000000	4.484823
588.000000	4.490068
589.000000	4.495325
590.000000	4.501328
591.000000	4.507017
592.000000	4.513144
593.000000	4.519686
594.000000	4.526753
595.000000	4.533907
596.000000	4.540813
597.000000	4.548057
598.000000	4.554840
599.000000	4.562599
600.000000	4.569750
601.000000	4.577211
602.000000	4.584471
603.000000	4.592067
604.000000	4.599263
605.000000	4.606461
606.000000	4.614027
607.000000	4.621975
608.000000	4.630001
609.000000	4.637120
610.000000	4.644524
611.000000	4.651860
612.000000	4.660049
613.000000	4.667590
614.000000	4.675383
615.000000	4.683254
616.000000	4.690701
617.000000	4.698115
618.000000	4.705477
619.000000	4.713383
620.000000	4.720788
621.000000	4.728602
622.000000	4.735780
623.000000	4.743551
624.000000	4.751034
625.000000	4.758345
626.000000	4.765749
627.000000	4.773158
628.000000	4.780379
629.000000	4.788118
630.000000	4.796176
631.000000	4.804000
632.000000	4.811969
633.000000	4.819805
634.000000	4.828423
635.000000	4.837062
636.000000	4.845790
637.000000	4.855188
638.000000	4.865029
639.000000	4.873949
640.000000	4.883322
641.000000	4.893091
642.000000	4.903518
643.000000	4.914096
644.000000	4.924253
645.000000	4.934906
646.000000	4.946302
647.000000	4.957193
648.000000	4.968740
649.000000	4.980906
650.000000	4.993541
651.000000	5.005858
652.000000	5.018266
653.000000	5.030743
654.000000	5.043923
655.000000	5.058022
656.000000	5.071851
657.000000	5.086242
658.000000	5.100672
659.000000	5.115521
660.000000	5.129764
661.000000	5.145220
662.000000	5.159707
663.000000	5.175734
664.000000	5.191542
665.000000	5.206404
666.000000	5.221156
667.000000	5.236487
668.000000	5.252169
669.000000	5.267428
670.000000	5.283250
671.000000	5.298491
672.000000	5.315062
673.000000	5.330257
674.000000	5.345974
675.000000	5.362044
676.000000	5.378724
677.000000	5.395389
678.000000	5.411599
679.000000	5.428067
680.000000	5.444719
681.000000	5.461027
682.000000	5.476568
683.000000	5.493381
684.000000	5.509929
685.000000	5.526199
686.000000	5.541964
687.000000	5.557622
688.000000	5.573448
689.000000	5.589660
690.000000	5.606053
691.000000	5.622514
692.000000	5.639482
693.000000	5.655666
694.000000	5.672299
695.000000	5.689316
696.000000	5.706906
697.000000	5.723523
698.000000	5.740179
699.000000	5.757281
700.000000	5.774654
701.000000	5.792431
702.000000	5.809832
703.000000	5.827648
704.000000	5.845640
705.000000	5.863946
706.000000	5.882182
707.000000	5.901457
708.000000	5.920721
709.000000	5.939810
710.000000	5.959669
711.000000	5.979884
712.000000	6.000222
713.000000	6.020398
714.000000	6.040638
715.000000	6.060882
716.000000	6.081390
717.000000	6.102320
718.000000	6.123325
719.000000	6.144979
720.000000	6.165789
721.000000	6.186552
722.000000	6.208165
723.000000	6.230419
724.000000	6.253412
725.000000	6.276113
726.000000	6.298307
727.000000	6.321443
728.000000	6.345396
729.000000	6.368510
730.000000	6.392153
731.000000	6.415859
732.000000	6.439909
733.000000	6.463616
734.000000	6.486642
735.000000	6.511153
736.000000	6.536759
737.000000	6.560958
738.000000	6.586070
739.000000	6.611896
740.000000	6.637666
741.000000	6.664250
742.000000	6.691037
743.000000	6.718377
744.000000	6.746198
745.000000	6.772690
746.000000	6.798710
747.000000	6.825832
748.000000	6.852723
749.000000	6.880134
750.000000	6.907670
751.000000	6.934467
752.000000	6.962329
753.000000	6.990406
754.000000	7.017765
755.000000	7.046117
756.000000	7.075819
757.000000	7.105737
758.000000	7.135362
759.000000	7.164626
760.000000	7.193636
761.000000	7.223638
762.000000	7.253804
763.000000	7.284901
764.000000	7.316517
765.000000	7.347918
766.000000	7.379051
767.000000	7.409169
768.000000	7.439507
769.000000	7.470894
770.000000	7.502735
771.000000	7.534973
772.000000	7.566858
773.000000	7.598110
774.000000	7.630936
775.000000	7.663588
776.000000	7.697310
777.000000	7.732046
778.000000	7.766695
779.000000	7.800707
780.000000	7.835530
781.000000	7.870408
782.000000	7.903762
783.000000	7.936918
784.000000	7.970840
785.000000	8.007015
786.000000	8.042837
787.000000	8.078010
788.000000	8.114600
789.000000	8.150608
790.000000	8.187498
791.000000	8.224012
792.000000	8.260777
793.000000	8.299285
794.000000	8.336498
795.000000	8.372610
796.000000	8.409713
797.000000	8.446580
798.000000	8.484226
799.000000	8.522781
800.000000	8.561301
801.000000	8.602295
802.000000	8.644919
803.000000	8.686774
804.000000	8.727010
805.000000	8.769055
806.000000	8.810516
807.000000	8.853475
808.000000	8.893821
809.000000	8.938593
810.000000	8.983324
811.000000	9.025288
812.000000	9.068686
813.000000	9.113436
814.000000	9.158802
815.000000	9.202654
816.000000	9.247055
817.000000	9.293757
818.000000	9.341437
819.000000	9.381486
820.000000	9.425338
821.000000	9.473163
822.000000	9.516735
823.000000	9.559067
824.000000	9.604158
825.000000	9.650722
826.000000	9.696934
827.000000	9.741429
828.000000	9.786337
829.000000	9.835194
830.000000	9.880036
831.000000	9.923554
832.000000	9.967813
833.000000	10.016773
834.000000	10.061586
835.000000	10.107440
836.000000	10.149580
837.000000	10.191861
838.000000	10.234625
839.000000	10.278513
840.000000	10.322491
841.000000	10.362395
842.000000	10.411667
843.000000	10.452784
844.000000	10.496171
845.000000	10.536293
846.000000	10.581869
847.000000	10.627244
848.000000	10.674305
849.000000	10.713576
850.000000	10.753837
851.000000	10.802889
852.000000	10.848481
853.000000	10.890702
854.000000	10.927511
855.000000	10.966053
856.000000	11.002695
857.000000	11.055112
858.000000	11.500364
859.000000	11.549173
860.000000	11.621713
861.000000	11.680484
862.000000	11.733807
863.000000	11.790901
864.000000	11.838763
865.000000	11.886286
866.000000	11.929126
867.000000	11.944433
868.000000	11.555345
869.000000	11.566228
870.000000	11.543207
871.000000	11.516665
872.000000	11.488930
873.000000	11.451562
874.000000	11.446327
875.000000	11.445050
876.000000	11.448330
877.000000	11.454187
878.000000	11.448915
879.000000	11.425885
880.000000	11.429120
881.000000	11.448232
882.000000	11.463087
883.000000	11.476645
884.000000	11.480308
885.000000	11.481165
886.000000	11.466418
887.000000	11.448398
888.000000	11.471488
889.000000	11.504748
890.000000	11.518722
891.000000	11.527773
892.000000	11.544937
893.000000	11.576825
894.000000	11.595497
895.000000	11.604565
896.000000	11.624525
897.000000	11.655250
898.000000	11.670622
899.000000	11.697743
900.000000	11.717130
901.000000	11.732423
902.000000	11.756168
903.000000	11.779888
904.000000	11.798925
905.000000	11.822208
906.000000	11.850450
907.000000	11.878395
908.000000	11.896393
909.000000	11.913633
910.000000	11.946517
911.000000	11.981675
912.000000	12.006157
913.000000	12.029657
914.000000	12.059667
915.000000	12.090885
916.000000	12.122885
917.000000	12.156808
918.000000	12.197455
919.000000	12.232712
920.000000	12.260430
921.000000	12.291940
922.000000	12.327858
923.000000	12.360985
924.000000	12.397747
925.000000	12.434947
926.000000	12.468307
927.000000	12.507040
928.000000	12.539905
929.000000	12.580587
930.000000	12.625797
931.000000	12.668537
932.000000	12.707237
933.000000	12.751160
934.000000	12.797805
935.000000	12.846192
936.000000	12.894475
937.000000	12.936630
938.000000	12.985720
939.000000	13.035432
940.000000	13.082360
941.000000	13.128522
942.000000	13.176352
943.000000	13.218975
944.000000	13.261278
945.000000	13.306287
946.000000	13.354907
947.000000	13.403797
948.000000	13.451905
949.000000	13.496585
950.000000	13.542922
951.000000	13.592818
952.000000	13.642017
953.000000	13.693007
954.000000	13.743110
955.000000	13.792160
956.000000	13.839860
957.000000	13.888125
958.000000	13.938817
959.000000	13.990562
960.000000	14.040183
961.000000	14.088600
962.000000	14.138975
963.000000	14.189815
964.000000	14.242030
965.000000	14.296020
966.000000	14.351532
967.000000	14.407102
968.000000	14.458418
969.000000	14.511353
970.000000	14.566913
971.000000	14.620972
972.000000	14.674315
973.000000	14.730757
974.000000	14.785540
975.000000	14.838850
976.000000	14.895098
977.000000	14.950608
978.000000	15.007307
979.000000	15.064240
980.000000	15.120372
981.000000	15.178340
982.000000	15.235907
983.000000	15.292880
984.000000	15.350682
985.000000	15.409845
986.000000	15.465768
987.000000	15.523333
988.000000	15.581960
989.000000	15.639775
990.000000	15.697755
991.000000	15.756047
992.000000	15.815910
993.000000	15.876322
994.000000	15.936327
995.000000	15.993510
996.000000	16.052808
997.000000	16.113090
998.000000	16.172078
999.000000	16.231245
1000.000000	16.290118
1001.000000	16.349900
1002.000000	16.408948
1003.000000	16.467968
1004.000000	16.526905
1005.000000	16.586863
1006.000000	16.648347
1007.000000	16.711068
1008.000000	16.774140
1009.000000	16.834743
1010.000000	16.895772
1011.000000	16.958122
1012.000000	17.020482
1013.000000	17.082133
1014.000000	17.145778
1015.000000	17.211930
1016.000000	17.276155
1017.000000	17.339745
1018.000000	17.404040
1019.000000	17.469260
1020.000000	17.534867
1021.000000	17.599107
1022.000000	17.664420
1023.000000	17.731293
1024.000000	17.796555
1025.000000	17.860408
1026.000000	17.925330
1027.000000	17.989180
1028.000000	18.052725
1029.000000	18.118555
1030.000000	18.185205
1031.000000	18.251630
1032.000000	18.317743
1033.000000	18.383580
1034.000000	18.451232
1035.000000	18.519595
1036.000000	18.587853
1037.000000	18.656375
1038.000000	18.724585
1039.000000	18.792718
1040.000000	18.861290
1041.000000	18.930525
1042.000000	18.998865
1043.000000	19.066257
1044.000000	19.134177
1045.000000	19.201793
1046.000000	19.268465
1047.000000	19.335400
1048.000000	19.403492
1049.000000	19.472025
1050.000000	19.540443
1051.000000	19.607945
1052.000000	19.677390
1053.000000	19.748390
1054.000000	19.819228
1055.000000	19.890620
1056.000000	19.961265
1057.000000	20.032198
1058.000000	20.103638
1059.000000	20.174805
1060.000000	20.245242
1061.000000	20.316962
1062.000000	20.388748
1063.000000	20.459105
1064.000000	20.528875
1065.000000	20.599175
1066.000000	20.669730
1067.000000	20.740390
1068.000000	20.810987
1069.000000	20.881535
1070.000000	20.953148
1071.000000	21.023560
1072.000000	21.094655
1073.000000	21.166230
1074.000000	21.236940
1075.000000	21.306617
1076.000000	21.377345
1077.000000	21.448372
1078.000000	21.518838
1079.000000	21.589248
1080.000000	21.657743
1081.000000	21.727512
1082.000000	21.796240
1083.000000	21.864783
1084.000000	21.934712
1085.000000	22.006135
1086.000000	22.076173
1087.000000	22.145190
1088.000000	22.214127
1089.000000	22.282610
1090.000000	22.352332
1091.000000	22.421537
1092.000000	22.489505
1093.000000	22.557775
1094.000000	22.626632
1095.000000	22.694207
1096.000000	22.761985
1097.000000	22.829470
1098.000000	22.897905
1099.000000	22.966327
1100.000000	23.034168
1101.000000	23.101370
1102.000000	23.169640
1103.000000	23.236708
1104.000000	23.303395
1105.000000	23.369397
1106.000000	23.436253
1107.000000	23.502800
1108.000000	23.568037
1109.000000	23.633385
1110.000000	23.698915
1111.000000	23.763485
1112.000000	23.826310
1113.000000	23.890418
1114.000000	23.953458
1115.000000	24.016260
1116.000000	24.078298
1117.000000	24.141785
1118.000000	24.205108
1119.000000	24.266742
1120.000000	24.326490
1121.000000	24.387448
1122.000000	24.448725
1123.000000	24.508097
1124.000000	24.566872
1125.000000	24.624613
1126.000000	24.679870
1127.000000	24.733977
1128.000000	24.786442
1129.000000	24.837713
1130.000000	24.888340
1131.000000	24.933610
1132.000000	24.977802
1133.000000	25.022388
1134.000000	25.066930
1135.000000	25.111530
1136.000000	25.154560
1137.000000	25.194650
1138.000000	25.232712
1139.000000	25.271005
1140.000000	25.310665
1141.000000	25.351420
1142.000000	25.392215
1143.000000	25.431370
1144.000000	25.468035
1145.000000	25.505010
1146.000000	25.544532
1147.000000	25.584190
1148.000000	25.625050
1149.000000	25.663520
1150.000000	25.701870
1151.000000	25.741930
1152.000000	25.781220
1153.000000	25.820240
1154.000000	25.858355
1155.000000	25.894245
1156.000000	25.927695
1157.000000	25.959615
1158.000000	25.988780
1159.000000	26.017430
1160.000000	26.043150
1161.000000	26.066902
1162.000000	26.088317
1163.000000	26.107515
1164.000000	26.124887
1165.000000	26.141250
1166.000000	26.155690
1167.000000	26.170657
1168.000000	26.185713
1169.000000	26.201630
1170.000000	26.217648
1171.000000	26.232903
1172.000000	26.249453
1173.000000	26.266850
1174.000000	26.286313
1175.000000	26.305862
1176.000000	26.327405
1177.000000	26.350153
1178.000000	26.374282
1179.000000	26.399415
1180.000000	26.426265
1181.000000	26.454708
1182.000000	26.483302
1183.000000	26.513983
1184.000000	26.546385
1185.000000	26.582105
1186.000000	26.621070
1187.000000	26.660613
1188.000000	26.700918
1189.000000	26.745580
1190.000000	26.792072
1191.000000	26.842038
1192.000000	26.896110
1193.000000	26.952778
1194.000000	27.012428
1195.000000	27.075408
1196.000000	27.140508
1197.000000	27.208708
1198.000000	27.280297
1199.000000	27.351905
1200.000000	27.423913
1201.000000	27.497015
1202.000000	27.570815
1203.000000	27.643657
1204.000000	27.717790
1205.000000	27.789070
1206.000000	27.859972
1207.000000	27.931432
1208.000000	28.002340
1209.000000	28.072587
1210.000000	28.143487
1211.000000	28.215263
1212.000000	28.285332
1213.000000	28.355618
1214.000000	28.423147
1215.000000	28.490750
1216.000000	28.557685
1217.000000	28.624000
1218.000000	28.690455
1219.000000	28.756370
1220.000000	28.821955
1221.000000	28.885008
1222.000000	28.947830
1223.000000	29.010865
1224.000000	29.073990
1225.000000	29.137022
1226.000000	29.199457
1227.000000	29.261015
1228.000000	29.321895
1229.000000	29.381800
1230.000000	29.440390
1231.000000	29.499112
1232.000000	29.558080
1233.000000	29.616920
1234.000000	29.675295
1235.000000	29.732378
1236.000000	29.789775
1237.000000	29.846638
1238.000000	29.903728
1239.000000	29.960732
1240.000000	30.018005
1241.000000	30.074645
1242.000000	30.131815
1243.000000	30.189695
1244.000000	30.248000
1245.000000	30.307768
1246.000000	30.367822
1247.000000	30.429002
1248.000000	30.491210
1249.000000	30.554355
1250.000000	30.617245
1251.000000	30.681207
1252.000000	30.744425
1253.000000	30.806767
1254.000000	30.868160
1255.000000	30.928823
1256.000000	30.988858
1257.000000	31.048130
1258.000000	31.105377
1259.000000	31.161040
1260.000000	31.216255
1261.000000	31.269802
1262.000000	31.322255
1263.000000	31.373468
1264.000000	31.424680
1265.000000	31.475738
1266.000000	31.525633
1267.000000	31.574015
1268.000000	31.621787
1269.000000	31.668958
1270.000000	31.715095
1271.000000	31.761325
1272.000000	31.807062
1273.000000	31.852197
1274.000000	31.896643
1275.000000	31.940582
1276.000000	31.984465
1277.000000	32.029313
1278.000000	32.073495
1279.000000	32.118510
1280.000000	32.164785
1281.000000	32.211230
1282.000000	32.259313
1283.000000	32.308105
1284.000000	32.357315
1285.000000	32.407367
1286.000000	32.458157
1287.000000	32.508370
1288.000000	32.560135
1289.000000	32.613150
1290.000000	32.666075
1291.000000	32.718788
1292.000000	32.770305
1293.000000	32.821123
1294.000000	32.871182
1295.000000	32.920963
1296.000000	32.970290
1297.000000	33.018550
1298.000000	33.065018
1299.000000	33.109285
1300.000000	33.152995
1301.000000	33.196205
1302.000000	33.238125
1303.000000	33.278950
1304.000000	33.319477
1305.000000	33.358025
1306.000000	33.394520
1307.000000	33.430433
1308.000000	33.465787
1309.000000	33.500203
1310.000000	33.532303
1311.000000	33.562745
1312.000000	33.591113
1313.000000	33.618823
1314.000000	33.644778
1315.000000	33.669040
1316.000000	33.691952
1317.000000	33.712937
1318.000000	33.732550
1319.000000	33.750650
1320.000000	33.767325
1321.000000	33.783775
1322.000000	33.798887
1323.000000	33.811563
1324.000000	33.822760
1325.000000	33.831700
1326.000000	33.839208
1327.000000	33.845322
1328.000000	33.849410
1329.000000	33.851202
1330.000000	33.850167
1331.000000	33.845862
1332.000000	33.839357
1333.000000	33.830807
1334.000000	33.819605
1335.000000	33.807455
1336.000000	33.792390
1337.000000	33.774470
1338.000000	33.753372
1339.000000	33.728975
1340.000000	33.703455
1341.000000	33.674300
1342.000000	33.642473
1343.000000	33.608180
1344.000000	33.570037
1345.000000	33.526978
1346.000000	33.482535
1347.000000	33.436018
1348.000000	33.386288
1349.000000	33.334085
1350.000000	33.277622
1351.000000	33.219493
1352.000000	33.158945
1353.000000	33.099888
1354.000000	33.043617
1355.000000	32.990310
1356.000000	32.935742
1357.000000	32.880027
1358.000000	32.824565
1359.000000	32.771945
1360.000000	32.727775
1361.000000	32.691018
1362.000000	32.654475
1363.000000	32.614180
1364.000000	32.573505
1365.000000	32.529017
1366.000000	32.481378
1367.000000	32.434850
1368.000000	32.387353
1369.000000	32.332352
1370.000000	32.265898
1371.000000	32.186718
1372.000000	32.097268
1373.000000	31.995265
1374.000000	31.878335
1375.000000	31.748980
1376.000000	31.608308
1377.000000	31.452978
1378.000000	31.284655
1379.000000	31.110365
1380.000000	30.934982
1381.000000	30.766350
1382.000000	30.605943
1383.000000	30.456647
1384.000000	30.314677
1385.000000	30.182850
1386.000000	30.063117
1387.000000	29.959107
1388.000000	29.868950
1389.000000	29.784300
1390.000000	29.702288
1391.000000	29.621125
1392.000000	29.540977
1393.000000	29.460532
1394.000000	29.387848
1395.000000	29.320653
1396.000000	29.249085
1397.000000	29.164898
1398.000000	29.075540
1399.000000	28.992875
1400.000000	28.911508
1401.000000	28.818180
1402.000000	28.715105
1403.000000	28.604380
1404.000000	28.484015
1405.000000	28.353127
1406.000000	28.218978
1407.000000	28.085875
1408.000000	27.950178
1409.000000	27.803473
1410.000000	27.646073
1411.000000	27.487468
1412.000000	27.330562
1413.000000	27.178515
1414.000000	27.026667
1415.000000	26.870900
1416.000000	26.717347
1417.000000	26.566635
1418.000000	26.420617
1419.000000	26.278258
1420.000000	26.139080
1421.000000	26.004010
1422.000000	25.874422
1423.000000	25.748095
1424.000000	25.621905
1425.000000	25.503565
1426.000000	25.390013
1427.000000	25.281723
1428.000000	25.174120
1429.000000	25.068703
1430.000000	24.971148
1431.000000	24.881457
1432.000000	24.794693
1433.000000	24.708413
1434.000000	24.628382
1435.000000	24.552132
1436.000000	24.478117
1437.000000	24.406543
1438.000000	24.337685
1439.000000	24.273483
1440.000000	24.211382
1441.000000	24.148042
1442.000000	24.087410
1443.000000	24.028640
1444.000000	23.972340
1445.000000	23.920668
1446.000000	23.869265
1447.000000	23.815440
1448.000000	23.762900
1449.000000	23.713260
1450.000000	23.665768
1451.000000	23.619120
1452.000000	23.571928
1453.000000	23.524962
1454.000000	23.478288
1455.000000	23.427930
1456.000000	23.378985
1457.000000	23.331988
1458.000000	23.285582
1459.000000	23.238435
1460.000000	23.188355
1461.000000	23.137898
1462.000000	23.088650
1463.000000	23.041090
1464.000000	22.992335
1465.000000	22.945023
1466.000000	22.898227
1467.000000	22.850973
1468.000000	22.803908
1469.000000	22.756342
1470.000000	22.712338
1471.000000	22.670542
1472.000000	22.628555
1473.000000	22.586272
1474.000000	22.543242
1475.000000	22.501283
1476.000000	22.460213
1477.000000	22.421708
1478.000000	22.384233
1479.000000	22.348308
1480.000000	22.311625
1481.000000	22.276125
1482.000000	22.242443
1483.000000	22.209990
1484.000000	22.179680
1485.000000	22.151112
1486.000000	22.123500
1487.000000	22.097185
1488.000000	22.072062
1489.000000	22.047672
1490.000000	22.024865
1491.000000	22.002945
1492.000000	21.982820
1493.000000	21.966072
1494.000000	21.952935
1495.000000	21.940607
1496.000000	21.931135
1497.000000	21.925402
1498.000000	21.923497
1499.000000	21.925240
1500.000000	21.930505
1501.000000	21.939065
1502.000000	21.950990
1503.000000	21.966075
1504.000000	21.985212
1505.000000	22.008200
1506.000000	22.034482
1507.000000	22.063392
1508.000000	22.094907
1509.000000	22.129055
1510.000000	22.165455
1511.000000	22.204902
1512.000000	22.245695
1513.000000	22.287317
1514.000000	22.328762
1515.000000	22.371965
1516.000000	22.416108
1517.000000	22.460562
1518.000000	22.506813
1519.000000	22.553292
1520.000000	22.599345
1521.000000	22.645265
1522.000000	22.691598
1523.000000	22.737985
1524.000000	22.785177
1525.000000	22.832140
1526.000000	22.878905
1527.000000	22.925603
1528.000000	22.970467
1529.000000	23.015105
1530.000000	23.060907
1531.000000	23.106100
1532.000000	23.150955
1533.000000	23.195767
1534.000000	23.240205
1535.000000	23.283615
1536.000000	23.326137
1537.000000	23.368420
1538.000000	23.409755
1539.000000	23.450095
1540.000000	23.489193
1541.000000	23.527740
1542.000000	23.566335
1543.000000	23.605203
1544.000000	23.644078
1545.000000	23.684162
1546.000000	23.725585
1547.000000	23.767592
1548.000000	23.811317
1549.000000	23.857408
1550.000000	23.904547
1551.000000	23.953163
1552.000000	24.002958
1553.000000	24.052695
1554.000000	24.101640
1555.000000	24.149610
1556.000000	24.196225
1557.000000	24.241695
1558.000000	24.285145
1559.000000	24.324437
1560.000000	24.360355
1561.000000	24.392505
1562.000000	24.420607
1563.000000	24.445058
1564.000000	24.466123
1565.000000	24.483800
1566.000000	24.498057
1567.000000	24.508670
1568.000000	24.516382
1569.000000	24.521988
1570.000000	24.526875
1571.000000	24.531192
1572.000000	24.534798
1573.000000	24.538850
1574.000000	24.543610
1575.000000	24.548673
1576.000000	24.554675
1577.000000	24.562215
1578.000000	24.571778
1579.000000	24.583755
1580.000000	24.596728
1581.000000	24.611673
1582.000000	24.629542
1583.000000	24.650492
1584.000000	24.673247
1585.000000	24.698017
1586.000000	24.725883
1587.000000	24.756483
1588.000000	24.788665
1589.000000	24.822450
1590.000000	24.857363
1591.000000	24.893480
1592.000000	24.930187
1593.000000	24.967222
1594.000000	25.005580
1595.000000	25.046135
1596.000000	25.086955
1597.000000	25.128740
1598.000000	25.172260
1599.000000	25.217948
1600.000000	25.266213
1601.000000	25.314600
1602.000000	25.365032
1603.000000	25.415807
1604.000000	25.467932
1605.000000	25.521005
1606.000000	25.575460
1607.000000	25.629215
1608.000000	25.681840
1609.000000	25.732605
1610.000000	25.782443
1611.000000	25.832828
1612.000000	25.880383
1613.000000	25.927248
1614.000000	25.972365
1615.000000	26.014693
1616.000000	26.053532
1617.000000	26.090782
1618.000000	26.128135
1619.000000	26.163758
1620.000000	26.197405
1621.000000	26.230665
1622.000000	26.263967
1623.000000	26.295905
1624.000000	26.328035
1625.000000	26.359233
1626.000000	26.390600
1627.000000	26.423075
1628.000000	26.454330
1629.000000	26.485413
1630.000000	26.517152
1631.000000	26.549093
1632.000000	26.578630
1633.000000	26.608025
1634.000000	26.637410
1635.000000	26.666633
1636.000000	26.695173
1637.000000	26.722517
1638.000000	26.747902
1639.000000	26.772552
1640.000000	26.795685
1641.000000	26.815537
1642.000000	26.836040
1643.000000	26.856257
1644.000000	26.872763
1645.000000	26.887330
1646.000000	26.901115
1647.000000	26.913555
1648.000000	26.923992
1649.000000	26.933925
1650.000000	26.941310
1651.000000	26.946807
1652.000000	26.948168
1653.000000	26.944297
1654.000000	26.937867
1655.000000	26.926802
1656.000000	26.909635
1657.000000	26.886685
1658.000000	26.859260
1659.000000	26.823318
1660.000000	26.781277
1661.000000	26.733812
1662.000000	26.680375
1663.000000	26.620105
1664.000000	26.553297
1665.000000	26.482340
1666.000000	26.405593
1667.000000	26.324002
1668.000000	26.234555
1669.000000	26.141233
1670.000000	26.042678
1671.000000	25.939240
1672.000000	25.832997
1673.000000	25.724625
1674.000000	25.613003
1675.000000	25.498973
1676.000000	25.384355
1677.000000	25.265255
1678.000000	25.145518
1679.000000	25.023970
1680.000000	24.902453
1681.000000	24.778878
1682.000000	24.654655
1683.000000	24.529262
1684.000000	24.404402
1685.000000	24.282185
1686.000000	24.162732
1687.000000	24.050720
1688.000000	23.950463
1689.000000	23.861630
1690.000000	23.785168
1691.000000	23.724453
1692.000000	23.676628
1693.000000	23.644175
1694.000000	23.624028
1695.000000	23.613877
1696.000000	23.614120
1697.000000	23.620977
1698.000000	23.628127
1699.000000	23.639000
1700.000000	23.648840
1701.000000	23.654870
1702.000000	23.658378
1703.000000	23.659453
1704.000000	23.656960
1705.000000	23.649307
1706.000000	23.635740
1707.000000	23.618235
1708.000000	23.596645
1709.000000	23.567080
1710.000000	23.529788
1711.000000	23.486503
1712.000000	23.434595
1713.000000	23.373370
1714.000000	23.304433
1715.000000	23.227665
1716.000000	23.144625
1717.000000	23.052722
1718.000000	22.956450
1719.000000	22.855615
1720.000000	22.755412
1721.000000	22.656240
1722.000000	22.562130
1723.000000	22.473063
1724.000000	22.391758
1725.000000	22.323215
1726.000000	22.265127
1727.000000	22.218300
1728.000000	22.184337
1729.000000	22.161340
1730.000000	22.148287
1731.000000	22.144772
1732.000000	22.150200
1733.000000	22.162502
1734.000000	22.179263
1735.000000	22.200155
1736.000000	22.225740
1737.000000	22.257223
1738.000000	22.290815
1739.000000	22.329783
1740.000000	22.372212
1741.000000	22.418057
1742.000000	22.466500
1743.000000	22.517708
1744.000000	22.571433
1745.000000	22.625420
1746.000000	22.681415
1747.000000	22.737915
1748.000000	22.793668
1749.000000	22.846675
1750.000000	22.897772
1751.000000	22.944610
1752.000000	22.989685
1753.000000	23.031028
1754.000000	23.070128
1755.000000	23.105410
1756.000000	23.135810
1757.000000	23.163615
1758.000000	23.189722
1759.000000	23.214108
1760.000000	23.235958
1761.000000	23.256818
1762.000000	23.275620
1763.000000	23.294762
1764.000000	23.314855
1765.000000	23.335592
1766.000000	23.358290
1767.000000	23.382255
1768.000000	23.406128
1769.000000	23.431868
1770.000000	23.459975
1771.000000	23.490380
1772.000000	23.521638
1773.000000	23.553887
1774.000000	23.586910
1775.000000	23.621057
1776.000000	23.655005
1777.000000	23.687788
1778.000000	23.721195
1779.000000	23.754450
1780.000000	23.785515
1781.000000	23.814612
1782.000000	23.841033
1783.000000	23.865153
1784.000000	23.887505
1785.000000	23.907325
1786.000000	23.924415
1787.000000	23.939182
1788.000000	23.950300
1789.000000	23.959587
1790.000000	23.968465
1791.000000	23.976472
1792.000000	23.985200
1793.000000	23.994180
1794.000000	24.002423
1795.000000	24.011537
1796.000000	24.021498
1797.000000	24.030833
1798.000000	24.040920
1799.000000	24.051555
1800.000000	24.064632
1801.000000	24.080235
1802.000000	24.094830
1803.000000	24.108000
1804.000000	24.120895
1805.000000	24.134510
1806.000000	24.149838
1807.000000	24.165517
1808.000000	24.181238
1809.000000	24.197657
1810.000000	24.212635
1811.000000	24.225260
1812.000000	24.238305
1813.000000	24.252710
1814.000000	24.269182
1815.000000	24.284253
1816.000000	24.294428
1817.000000	24.299635
1818.000000	24.303745
1819.000000	24.312627
1820.000000	24.327535
1821.000000	24.344423
1822.000000	24.356815
1823.000000	24.362210
1824.000000	24.362997
1825.000000	24.365343
1826.000000	24.371842
1827.000000	24.385672
1828.000000	24.403995
1829.000000	24.419227
1830.000000	24.430820
1831.000000	24.438875
1832.000000	24.447542
1833.000000	24.459688
1834.000000	24.474452
1835.000000	24.491995
1836.000000	24.513008
1837.000000	24.534845
1838.000000	24.555157
1839.000000	24.575132
1840.000000	24.597172
1841.000000	24.625945
1842.000000	24.658815
1843.000000	24.687245
1844.000000	24.705777
1845.000000	24.716082
1846.000000	24.727677
1847.000000	24.747127
1848.000000	24.769780
1849.000000	24.785407
1850.000000	24.788075
1851.000000	24.778868
1852.000000	24.767833
1853.000000	24.764515
1854.000000	24.770693
1855.000000	24.776925
1856.000000	24.769230
1857.000000	24.746938
1858.000000	24.720837
1859.000000	24.697930
1860.000000	24.680060
1861.000000	24.662722
1862.000000	24.637360
1863.000000	24.599725
1864.000000	24.552920
1865.000000	24.499372
1866.000000	24.444838
1867.000000	24.382860
1868.000000	24.309553
1869.000000	24.232768
1870.000000	24.151468
1871.000000	24.064653
1872.000000	23.976435
1873.000000	23.885300
1874.000000	23.785870
1875.000000	23.682403
1876.000000	23.569012
1877.000000	23.446648
1878.000000	23.310737
1879.000000	23.155515
1880.000000	22.983440
1881.000000	22.796747
1882.000000	22.596787
1883.000000	22.387875
1884.000000	22.173715
1885.000000	21.947678
1886.000000	21.709435
1887.000000	21.460715
1888.000000	21.206455
1889.000000	20.944730
1890.000000	20.681085
1891.000000	20.415672
1892.000000	20.142310
1893.000000	19.862455
1894.000000	19.569793
1895.000000	19.269697
1896.000000	18.966935
1897.000000	18.666735
1898.000000	18.367282
1899.000000	18.071080
1900.000000	17.771125
1901.000000	17.469995
1902.000000	17.173268
1903.000000	16.882597
1904.000000	16.601477
1905.000000	16.332565
1906.000000	16.074153
1907.000000	15.821085
1908.000000	15.575483
1909.000000	15.334958
1910.000000	15.102403
1911.000000	14.880558
1912.000000	14.673382
1913.000000	14.479002
1914.000000	14.297243
1915.000000	14.124790
1916.000000	13.959965
1917.000000	13.799177
1918.000000	13.652040
1919.000000	13.520163
1920.000000	13.401473
1921.000000	13.291628
1922.000000	13.185395
1923.000000	13.084273
1924.000000	12.988952
1925.000000	12.898435
1926.000000	12.817902
1927.000000	12.753495
1928.000000	12.693165
1929.000000	12.637187
1930.000000	12.584838
1931.000000	12.538087
1932.000000	12.499950
1933.000000	12.465510
1934.000000	12.434033
1935.000000	12.407745
1936.000000	12.385352
1937.000000	12.365475
1938.000000	12.351032
1939.000000	12.342205
1940.000000	12.338883
1941.000000	12.339735
1942.000000	12.341337
1943.000000	12.344442
1944.000000	12.356725
1945.000000	12.373140
1946.000000	12.391615
1947.000000	12.414008
1948.000000	12.435882
1949.000000	12.460035
1950.000000	12.483745
1951.000000	12.508543
1952.000000	12.537695
1953.000000	12.570925
1954.000000	12.604588
1955.000000	12.642695
1956.000000	12.678928
1957.000000	12.714060
1958.000000	12.754788
1959.000000	12.794740
1960.000000	12.837633
1961.000000	12.882062
1962.000000	12.926368
1963.000000	12.970380
1964.000000	13.011513
1965.000000	13.050910
1966.000000	13.095172
1967.000000	13.140980
1968.000000	13.182440
1969.000000	13.220955
1970.000000	13.259395
1971.000000	13.298038
1972.000000	13.336908
1973.000000	13.376320
1974.000000	13.417423
1975.000000	13.459230
1976.000000	13.498790
1977.000000	13.539468
1978.000000	13.581342
1979.000000	13.628395
1980.000000	13.676195
1981.000000	13.722220
1982.000000	13.767188
1983.000000	13.816637
1984.000000	13.864655
1985.000000	13.911320
1986.000000	13.956725
1987.000000	14.001325
1988.000000	14.048290
1989.000000	14.092702
1990.000000	14.136347
1991.000000	14.183483
1992.000000	14.231015
1993.000000	14.272495
1994.000000	14.316770
1995.000000	14.359343
1996.000000	14.405222
1997.000000	14.450447
1998.000000	14.491350
1999.000000	14.528810
2000.000000	14.566268
2001.000000	14.602972
2002.000000	14.638528
2003.000000	14.673882
2004.000000	14.706525
2005.000000	14.735740
2006.000000	14.760533
2007.000000	14.784020
2008.000000	14.805750
2009.000000	14.826050
2010.000000	14.843165
2011.000000	14.855658
2012.000000	14.862242
2013.000000	14.866238
2014.000000	14.865893
2015.000000	14.866425
2016.000000	14.864170
2017.000000	14.853903
2018.000000	14.841770
2019.000000	14.826925
2020.000000	14.808600
2021.000000	14.787965
2022.000000	14.766398
2023.000000	14.740608
2024.000000	14.713027
2025.000000	14.681778
2026.000000	14.646005
2027.000000	14.608655
2028.000000	14.566335
2029.000000	14.523235
2030.000000	14.477180
2031.000000	14.427068
2032.000000	14.375510
2033.000000	14.322910
2034.000000	14.267018
2035.000000	14.206557
2036.000000	14.145765
2037.000000	14.083073
2038.000000	14.019583
2039.000000	13.951465
2040.000000	13.880357
2041.000000	13.809275
2042.000000	13.736802
2043.000000	13.661860
2044.000000	13.587455
2045.000000	13.513257
2046.000000	13.440462
2047.000000	13.369215
2048.000000	13.302928
2049.000000	13.245285
2050.000000	13.191617
2051.000000	13.139185
2052.000000	13.090955
2053.000000	13.048337
2054.000000	13.013468
2055.000000	12.989302
2056.000000	12.971287
2057.000000	12.963165
2058.000000	12.958983
2059.000000	12.953447
2060.000000	12.956755
2061.000000	12.974998
2062.000000	13.002485
2063.000000	13.038265
2064.000000	13.076303
2065.000000	13.112595
2066.000000	13.153935
2067.000000	13.204425
2068.000000	13.262775
2069.000000	13.324313
2070.000000	13.385043
2071.000000	13.442410
2072.000000	13.499315
2073.000000	13.556172
2074.000000	13.614187
2075.000000	13.676985
2076.000000	13.740410
2077.000000	13.791785
2078.000000	13.835207
2079.000000	13.882765
2080.000000	13.933312
2081.000000	13.978692
2082.000000	14.017968
2083.000000	14.052390
2084.000000	14.084840
2085.000000	14.115615
2086.000000	14.145368
2087.000000	14.173955
2088.000000	14.202740
2089.000000	14.228037
2090.000000	14.247240
2091.000000	14.263483
2092.000000	14.278592
2093.000000	14.289747
2094.000000	14.296580
2095.000000	14.297025
2096.000000	14.294220
2097.000000	14.296698
2098.000000	14.300080
2099.000000	14.298708
2100.000000	14.297655
2101.000000	14.297555
2102.000000	14.296715
2103.000000	14.299312
2104.000000	14.309257
2105.000000	14.322408
2106.000000	14.331333
2107.000000	14.332862
2108.000000	14.332632
2109.000000	14.340125
2110.000000	14.344497
2111.000000	14.348268
2112.000000	14.353400
2113.000000	14.356180
2114.000000	14.351785
2115.000000	14.349050
2116.000000	14.352313
2117.000000	14.353162
2118.000000	14.349408
2119.000000	14.338525
2120.000000	14.327365
2121.000000	14.318552
2122.000000	14.307525
2123.000000	14.302517
2124.000000	14.292687
2125.000000	14.267825
2126.000000	14.241317
2127.000000	14.217845
2128.000000	14.192275
2129.000000	14.169945
2130.000000	14.143210
2131.000000	14.116882
2132.000000	14.079965
2133.000000	14.032797
2134.000000	13.987130
2135.000000	13.960823
2136.000000	13.930820
2137.000000	13.890545
2138.000000	13.847838
2139.000000	13.802753
2140.000000	13.760000
2141.000000	13.708452
2142.000000	13.666907
2143.000000	13.621445
2144.000000	13.572408
2145.000000	13.510503
2146.000000	13.444320
2147.000000	13.392428
2148.000000	13.344383
2149.000000	13.287460
2150.000000	13.229890
2151.000000	13.172620
2152.000000	13.112013
2153.000000	13.055953
2154.000000	12.998923
2155.000000	12.943867
2156.000000	12.889675
2157.000000	12.827650
2158.000000	12.761375
2159.000000	12.698408
2160.000000	12.645885
2161.000000	12.599958
2162.000000	12.553715
2163.000000	12.506398
2164.000000	12.467673
2165.000000	12.434878
2166.000000	12.398188
2167.000000	12.366673
2168.000000	12.347775
2169.000000	12.324098
2170.000000	12.292253
2171.000000	12.259448
2172.000000	12.229502
2173.000000	12.205043
2174.000000	12.183342
2175.000000	12.157957
2176.000000	12.128872
2177.000000	12.108287
2178.000000	12.082810
2179.000000	12.076515
2180.000000	12.074918
2181.000000	12.056102
2182.000000	12.037032
2183.000000	12.022412
2184.000000	12.000763
2185.000000	11.978265
2186.000000	11.965122
2187.000000	11.946370
2188.000000	11.913887
2189.000000	11.865715
2190.000000	11.828202
2191.000000	11.797730
2192.000000	11.768865
2193.000000	11.736945
2194.000000	11.699457
2195.000000	11.651070
2196.000000	11.605403
2197.000000	11.553680
2198.000000	11.507738
2199.000000	11.468713
2200.000000	11.406020
2201.000000	11.342788
2202.000000	11.282655
2203.000000	11.219375
2204.000000	11.174655
2205.000000	11.136475
2206.000000	11.098905
2207.000000	11.056762
2208.000000	11.027257
2209.000000	11.008682
2210.000000	10.994032
2211.000000	11.003283
2212.000000	11.011250
2213.000000	11.027202
2214.000000	11.044733
2215.000000	11.059373
2216.000000	11.075945
2217.000000	11.107988
2218.000000	11.140712
2219.000000	11.172068
2220.000000	11.220147
2221.000000	11.260048
2222.000000	11.303635
2223.000000	11.346623
2224.000000	11.386163
2225.000000	11.441012
2226.000000	11.500670
2227.000000	11.551900
2228.000000	11.593068
2229.000000	11.637473
2230.000000	11.682305
2231.000000	11.728275
2232.000000	11.762440
2233.000000	11.796988
2234.000000	11.822557
2235.000000	11.841762
2236.000000	11.852370
2237.000000	11.864905
2238.000000	11.879970
2239.000000	11.890435
2240.000000	11.876752
2241.000000	11.851723
2242.000000	11.842128
2243.000000	11.828132
2244.000000	11.813133
2245.000000	11.788977
2246.000000	11.760747
2247.000000	11.733082
2248.000000	11.709745
2249.000000	11.668833
2250.000000	11.638988
2251.000000	11.616697
2252.000000	11.578840
2253.000000	11.535308
2254.000000	11.493728
2255.000000	11.456357
2256.000000	11.424595
2257.000000	11.390420
2258.000000	11.352132
2259.000000	11.315832
2260.000000	11.268823
2261.000000	11.223257
2262.000000	11.192925
2263.000000	11.167345
2264.000000	11.138558
2265.000000	11.116008
2266.000000	11.087802
2267.000000	11.064477
2268.000000	11.046032
2269.000000	11.033120
2270.000000	11.031852
2271.000000	11.025130
2272.000000	11.019817
2273.000000	11.017000
2274.000000	11.017915
2275.000000	11.024615
2276.000000	11.047253
2277.000000	11.063745
2278.000000	11.075252
2279.000000	11.086240
2280.000000	11.102507
2281.000000	11.131930
2282.000000	11.150055
2283.000000	11.155027
2284.000000	11.160105
2285.000000	11.150637
2286.000000	11.137225
2287.000000	11.137182
2288.000000	11.145685
2289.000000	11.161452
2290.000000	11.165470
2291.000000	11.159983
2292.000000	11.165255
2293.000000	11.185985
2294.000000	11.203050
2295.000000	11.237175
2296.000000	11.266835
2297.000000	11.279800
2298.000000	11.285678
2299.000000	11.294840
2300.000000	11.312337
2301.000000	11.324970
2302.000000	11.335220
2303.000000	11.346802
2304.000000	11.364712
2305.000000	11.370587
2306.000000	11.375740
2307.000000	11.396648
2308.000000	11.432665
2309.000000	11.456923
2310.000000	11.479807
2311.000000	11.507970
2312.000000	11.537950
2313.000000	11.566562
2314.000000	11.600540
2315.000000	11.636775
2316.000000	11.671772
2317.000000	11.706323
2318.000000	11.729585
2319.000000	11.755033
2320.000000	11.788365
2321.000000	11.824755
2322.000000	11.851110
2323.000000	11.869042
2324.000000	11.875508
2325.000000	11.886548
2326.000000	11.904055
2327.000000	11.913115
2328.000000	11.918410
2329.000000	11.936580
2330.000000	11.952385
2331.000000	11.965277
2332.000000	11.980353
2333.000000	11.996815
2334.000000	12.022780
2335.000000	12.044102
2336.000000	12.052360
2337.000000	12.064880
2338.000000	12.080777
2339.000000	12.077990
2340.000000	12.070843
2341.000000	12.071545
2342.000000	12.083638
2343.000000	12.101615
2344.000000	12.123318
2345.000000	12.148085
2346.000000	12.172515
2347.000000	12.191610
2348.000000	12.220150
2349.000000	12.263378
2350.000000	12.301948
2351.000000	12.326420
2352.000000	12.346920
2353.000000	12.380155
2354.000000	12.397175
2355.000000	12.413393
2356.000000	12.435105
2357.000000	12.455547
2358.000000	12.471010
2359.000000	12.485560
2360.000000	12.513917
2361.000000	12.533105
2362.000000	12.533843
2363.000000	12.520005
2364.000000	12.521078
2365.000000	12.524240
2366.000000	12.532080
2367.000000	12.553462
2368.000000	12.569110
2369.000000	12.580493
2370.000000	12.575470
2371.000000	12.587740
2372.000000	12.618493
2373.000000	12.656020
2374.000000	12.676888
2375.000000	12.692513
2376.000000	12.704152
2377.000000	12.701025
2378.000000	12.714657
2379.000000	12.733665
2380.000000	12.775428
2381.000000	12.812043
2382.000000	12.832012
2383.000000	12.819980
2384.000000	12.829717
2385.000000	12.849102
2386.000000	12.869690
2387.000000	12.899498
2388.000000	12.909950
2389.000000	12.923575
2390.000000	12.900772
2391.000000	12.879505
2392.000000	12.878875
2393.000000	12.915555
2394.000000	12.932350
2395.000000	12.946127
2396.000000	12.948618
2397.000000	12.946355
2398.000000	12.940080
2399.000000	12.942118
2400.000000	12.958058
2401.000000	12.966980
2402.000000	12.963637
2403.000000	12.944240
2404.000000	12.941737
2405.000000	12.943417
2406.000000	12.967902
2407.000000	12.959805
2408.000000	12.967740
2409.000000	12.945315
2410.000000	12.915960
2411.000000	12.902055
2412.000000	12.910242
2413.000000	12.914793
2414.000000	12.919633
2415.000000	12.897730
2416.000000	12.860900
2417.000000	12.844878
2418.000000	12.830225
2419.000000	12.824437
2420.000000	12.843152
2421.000000	12.824232
2422.000000	12.812283
2423.000000	12.790590
2424.000000	12.752053
2425.000000	12.722445
2426.000000	12.707553
2427.000000	12.715680
2428.000000	12.702010
2429.000000	12.663780
2430.000000	12.642208
2431.000000	12.630567
2432.000000	12.589790
2433.000000	12.574993
2434.000000	12.569208
2435.000000	12.550822
2436.000000	12.523205
2437.000000	12.486268
2438.000000	12.418418
2439.000000	12.390683
2440.000000	12.345818
2441.000000	12.358593
2442.000000	12.392167
2443.000000	12.403842
2444.000000	12.364907
2445.000000	12.359703
2446.000000	12.331103
2447.000000	12.297188
2448.000000	12.316140
2449.000000	12.345557
2450.000000	12.339807
2451.000000	12.289215
2452.000000	12.264385
2453.000000	12.243607
2454.000000	12.261627
2455.000000	12.265705
2456.000000	12.307595
2457.000000	12.330430
2458.000000	12.390315
2459.000000	12.426388
2460.000000	12.485727
2461.000000	12.538775
2462.000000	12.595043
2463.000000	12.648415
2464.000000	12.671088
2465.000000	12.712240
2466.000000	12.778913
2467.000000	12.845500
2468.000000	12.866030
2469.000000	12.902350
2470.000000	12.961947
2471.000000	13.051278
2472.000000	13.012340
2473.000000	13.015285
2474.000000	13.104095
2475.000000	13.212322
2476.000000	13.264745
2477.000000	13.318887
2478.000000	13.357902
2479.000000	13.417115
2480.000000	13.434635
2481.000000	13.501133
2482.000000	13.670222
2483.000000	13.868430
2484.000000	13.943352
2485.000000	13.982470
2486.000000	14.048782
2487.000000	14.180955
2488.000000	14.370157
2489.000000	14.495105
2490.000000	14.704833
2491.000000	14.820798
2492.000000	14.927110
2493.000000	15.054345
2494.000000	15.176428
2495.000000	15.417130
2496.000000	15.709853
2497.000000	15.925798
2498.000000	16.106080
2499.000000	16.351537
2500.000000	16.544865
2501.000000	20.332868
2502.000000	24.430310
2503.000000	28.442220
2504.000000	32.407613
2505.000000	36.278120
2506.000000	40.257235
2507.000000	44.210120
2508.000000	48.439095
2509.000000	52.979750
2510.000000	57.687080
2511.000000	58.571200
2512.000000	59.301770
2513.000000	59.703170
2514.000000	60.492960
2515.000000	61.905950
2516.000000	63.068870
2517.000000	64.357390
2518.000000	65.270350
2519.000000	65.819030
2520.000000	66.327080
2521.000000	66.794630
2522.000000	67.226960
2523.000000	68.520210
2524.000000	69.932800
2525.000000	70.569170
2526.000000	70.997090
2527.000000	71.565630
2528.000000	72.658750
2529.000000	74.178450
2530.000000	75.440430
2531.000000	77.236580
2532.000000	79.169010
2533.000000	80.262650
2534.000000	80.576570
2535.000000	81.379210
2536.000000	83.143760
2537.000000	84.532690
2538.000000	85.052320
2539.000000	85.948650
2540.000000	86.265610
2541.000000	86.386740
2542.000000	86.569430
2543.000000	87.129140
2544.000000	88.135400
2545.000000	89.603130
2546.000000	90.306210
2547.000000	90.264230
2548.000000	90.734500
2549.000000	90.661260
2550.000000	91.176730
2551.000000	91.719410
2552.000000	92.015100
2553.000000	92.157200
2554.000000	91.986110
2555.000000	91.015320
2556.000000	90.322210
2557.000000	91.267370
2558.000000	92.923840
2559.000000	93.718270
2560.000000	93.686090
2561.000000	93.563570
2562.000000	93.673710
2563.000000	94.123630
2564.000000	94.469850
2565.000000	94.901890
2566.000000	95.827860
2567.000000	96.245130
2568.000000	95.171310
2569.000000	94.203490
2570.000000	94.408430
2571.000000	94.893820
2572.000000	95.478380
2573.000000	96.024450
2574.000000	96.250100
2575.000000	96.274650
2576.000000	95.880340
2577.000000	95.301320
2578.000000	95.616150
2579.000000	96.554990
2580.000000	97.047040
2581.000000	97.228950
2582.000000	96.573760
2583.000000	95.323520
2584.000000	95.243610
2585.000000	95.491050
2586.000000	95.886350
2587.000000	96.247900
2588.000000	96.282190
2589.000000	96.175830
2590.000000	96.379390
2591.000000	96.425070
2592.000000	97.296300
2593.000000	99.510640
2594.000000	101.341050
2595.000000	102.356850
2596.000000	102.867700
2597.000000	103.100140
2598.000000	102.817170
2599.000000	102.582170
2600.000000	102.942490
2601.000000	103.900690
2602.000000	104.322250
2603.000000	104.069430
2604.000000	102.890190
2605.000000	101.496070
2606.000000	100.538360
2607.000000	100.699160
2608.000000	101.691960
2609.000000	102.638250
2610.000000	102.696990
2611.000000	101.879600
2612.000000	101.132470
2613.000000	100.557930
2614.000000	101.020750
2615.000000	102.270730
2616.000000	102.910810
2617.000000	102.238770
2618.000000	101.573440
2619.000000	101.176090
2620.000000	100.249170
2621.000000	100.467380
2622.000000	101.684270
2623.000000	101.861350
2624.000000	101.569060
2625.000000	100.653960
2626.000000	100.240140
2627.000000	100.154080
2628.000000	99.831850
2629.000000	99.627700
2630.000000	100.118480
2631.000000	100.272730
2632.000000	99.521700
2633.000000	99.135630
2634.000000	99.316450
2635.000000	101.145250
2636.000000	102.479340
2637.000000	103.725980
2638.000000	104.696250
2639.000000	105.426190
2640.000000	106.335720
2641.000000	107.112150
2642.000000	108.016760
2643.000000	109.195170
2644.000000	109.914480
2645.000000	109.175290
2646.000000	108.406590
2647.000000	107.450690
2648.000000	106.811780
2649.000000	106.360010
2650.000000	104.842620
2651.000000	104.261200
2652.000000	103.790450
2653.000000	102.895550
2654.000000	101.619630
2655.000000	100.611970
2656.000000	100.059590
2657.000000	100.636340
2658.000000	101.597610
2659.000000	101.638310
2660.000000	102.230580
2661.000000	101.760520
2662.000000	100.251610
2663.000000	99.503570
2664.000000	100.095760
2665.000000	100.976030
2666.000000	101.306780
2667.000000	100.591240
2668.000000	99.406730
2669.000000	98.550980
2670.000000	98.164340
2671.000000	98.469300
2672.000000	99.827230
2673.000000	100.971940
2674.000000	101.121400
2675.000000	100.284540
2676.000000	99.446720
2677.000000	99.083000
2678.000000	99.732160
2679.000000	100.559560
2680.000000	100.962110
2681.000000	99.985880
2682.000000	99.152600
2683.000000	98.795160
2684.000000	99.173080
2685.000000	100.255400
2686.000000	101.211750
2687.000000	101.038010
2688.000000	100.028640
2689.000000	99.822990
2690.000000	99.682260
2691.000000	100.880770
2692.000000	101.642900
2693.000000	101.833940
2694.000000	101.120600
2695.000000	100.518590
2696.000000	100.411380
2697.000000	101.677590
2698.000000	103.517690
2699.000000	103.405880
2700.000000	104.095530
2701.000000	103.680770
2702.000000	102.790430
2703.000000	102.293710
2704.000000	103.103240
2705.000000	103.219980
2706.000000	103.925140
2707.000000	104.040610
2708.000000	103.053590
2709.000000	102.081580
2710.000000	100.829180
2711.000000	100.261430
2712.000000	100.926380
2713.000000	101.165920
2714.000000	101.199340
2715.000000	101.301640
2716.000000	100.483970
2717.000000	99.852640
2718.000000	98.936120
2719.000000	100.080320
2720.000000	101.447800
2721.000000	102.530780
2722.000000	102.929020
2723.000000	101.977310
2724.000000	101.594950
2725.000000	100.712030
2726.000000	100.939250
2727.000000	101.778910
2728.000000	102.821660
2729.000000	103.064930
2730.000000	101.759090
2731.000000	101.158510
2732.000000	100.645260
2733.000000	101.289120
2734.000000	100.945020
2735.000000	103.077170
2736.000000	103.460740
2737.000000	102.618850
2738.000000	101.988840
2739.000000	100.974120
2740.000000	101.842160
2741.000000	101.872830
2742.000000	102.602260
2743.000000	103.401350
2744.000000	102.813550
2745.000000	101.503460
2746.000000	101.603810
2747.000000	101.736450
2748.000000	101.621020
2749.000000	102.738290
2750.000000	103.052490
2751.000000	103.704930
2752.000000	102.784190
2753.000000	101.154570
2754.000000	100.521610
2755.000000	99.782570
2756.000000	98.933060
2757.000000	99.179010
2758.000000	101.118820
2759.000000	101.636100
2760.000000	102.359720
2761.000000	102.166090
2762.000000	102.478530
2763.000000	103.475890
2764.000000	104.746900
2765.000000	105.228860
2766.000000	105.699840
2767.000000	105.044690
2768.000000	103.798730
2769.000000	102.890890
2770.000000	102.058720
2771.000000	102.008540
2772.000000	102.814590
2773.000000	103.555850
2774.000000	103.403420
2775.000000	103.962100
2776.000000	104.027560
2777.000000	104.033570
2778.000000	104.352240
2779.000000	105.216920
2780.000000	105.384030
2781.000000	105.657910
2782.000000	104.405160
2783.000000	102.497460
2784.000000	101.571090
2785.000000	100.386130
2786.000000	99.818680
2787.000000	100.052820
2788.000000	99.836790
2789.000000	98.891920
2790.000000	98.490240
2791.000000	96.965400
2792.000000	97.359780
2793.000000	98.740930
2794.000000	99.914030
2795.000000	101.445090
2796.000000	101.789210
2797.000000	101.880250
2798.000000	100.539430
2799.000000	100.266880
2800.000000	99.864880
2801.000000	101.033770
2802.000000	101.995110
2803.000000	103.113660
2804.000000	103.189090
2805.000000	102.304110
2806.000000	101.322020
2807.000000	101.038340
2808.000000	101.689270
2809.000000	102.224310
2810.000000	103.021440
2811.000000	102.544950
2812.000000	101.488000
2813.000000	99.623350
2814.000000	98.534140
2815.000000	98.164190
2816.000000	99.255600
2817.000000	100.088540
2818.000000	101.023200
2819.000000	101.493140
2820.000000	100.818060
2821.000000	100.295140
2822.000000	99.981350
2823.000000	100.240310
2824.000000	100.735010
2825.000000	101.133670
2826.000000	100.029000
2827.000000	98.809820
2828.000000	98.345470
2829.000000	97.332690
2830.000000	97.252680
2831.000000	98.437380
2832.000000	99.226990
2833.000000	99.777140
2834.000000	100.061410
2835.000000	99.836560
2836.000000	100.274520
2837.000000	100.590780
2838.000000	100.116940
2839.000000	101.018930
2840.000000	101.914420
2841.000000	101.940770
2842.000000	102.150240
2843.000000	101.782130
2844.000000	100.981010
2845.000000	100.918360
2846.000000	101.493110
2847.000000	102.110750
2848.000000	102.686740
2849.000000	101.861510
2850.000000	100.910960
2851.000000	100.410630
2852.000000	99.379990
2853.000000	99.443430
2854.000000	100.830620
2855.000000	101.933390
2856.000000	102.409510
2857.000000	102.297100
2858.000000	101.034090
2859.000000	100.189190
2860.000000	100.186700
2861.000000	100.129550
2862.000000	101.052320
2863.000000	101.528930
2864.000000	100.417770
2865.000000	99.160980
2866.000000	97.802090
2867.000000	97.260270
2868.000000	98.642680
2869.000000	100.627340
2870.000000	101.771980
2871.000000	102.087220
2872.000000	101.545070
2873.000000	100.484850
2874.000000	100.218940
2875.000000	100.425740
2876.000000	100.868300
2877.000000	101.005310
2878.000000	100.958460
2879.000000	100.333240
2880.000000	99.178210
2881.000000	98.150900
2882.000000	98.165750
2883.000000	99.361260
2884.000000	101.107040
2885.000000	102.125980
2886.000000	102.726520
2887.000000	102.662180
2888.000000	101.649080
2889.000000	100.862690
2890.000000	100.830840
2891.000000	102.108390
2892.000000	102.859120
2893.000000	102.640190
2894.000000	101.876740
2895.000000	101.360970
2896.000000	100.758340
2897.000000	101.297130
2898.000000	102.610960
2899.000000	103.407940
2900.000000	104.241930
2901.000000	104.034770
2902.000000	102.993540
2903.000000	101.905990
2904.000000	100.878200
2905.000000	100.403920
2906.000000	100.684320
2907.000000	100.410720
2908.000000	99.790500
2909.000000	99.607950
2910.000000	98.480530
2911.000000	97.657240
2912.000000	98.198930
2913.000000	98.896390
2914.000000	99.152070
2915.000000	99.426650
2916.000000	100.435650
2917.000000	100.765310
2918.000000	100.518200
2919.000000	99.974560
2920.000000	100.878240
2921.000000	101.834510
2922.000000	102.264950
2923.000000	103.150450
2924.000000	103.802970
2925.000000	103.440720
2926.000000	101.318500
2927.000000	100.709090
2928.000000	100.889840
2929.000000	101.640560
2930.000000	101.614810
2931.000000	100.843750
2932.000000	100.325520
2933.000000	98.687940
2934.000000	98.228790
2935.000000	99.035380
2936.000000	99.973570
2937.000000	100.724400
2938.000000	101.193010
2939.000000	100.405750
2940.000000	100.237470
2941.000000	100.966890
2942.000000	100.428940
2943.000000	101.534620
2944.000000	101.966160
2945.000000	101.384540
2946.000000	102.399030
2947.000000	102.042760
2948.000000	100.967330
2949.000000	100.493910
2950.000000	99.728580
2951.000000	99.411810
2952.000000	99.813530
2953.000000	99.840280
2954.000000	100.041440
2955.000000	100.090380
2956.000000	98.704920
2957.000000	98.359310
2958.000000	99.143490
2959.000000	100.775230
2960.000000	102.819090
2961.000000	103.627310
2962.000000	103.688200
2963.000000	103.302140
2964.000000	102.302900
2965.000000	101.886200
2966.000000	101.839550
2967.000000	101.749400
2968.000000	101.602360
2969.000000	101.584370
2970.000000	99.965820
2971.000000	98.250710
2972.000000	98.035810
2973.000000	98.872840
2974.000000	100.487770
2975.000000	101.560470
2976.000000	102.561190
2977.000000	101.902510
2978.000000	101.569060
2979.000000	101.894790
2980.000000	103.008920
2981.000000	103.714450
2982.000000	104.493290
2983.000000	104.004150
2984.000000	102.943050
2985.000000	101.833660
2986.000000	101.202400
2987.000000	102.173160
2988.000000	102.275900
2989.000000	101.857820
2990.000000	101.647970
2991.000000	101.895100
2992.000000	101.224020
2993.000000	100.290220
2994.000000	99.797520
2995.000000	100.292730
2996.000000	100.318890
2997.000000	100.324840
2998.000000	100.730240
2999.000000	99.604030
3000.000000	97.913350
