PE UV       SUBTECH     SPECTRUM    ASCII       PEDS        4.00        
   -1
INBUCR0436-4.Sample.ASC
24/02/09
16:13:20.00
24/02/09
16:13:20.00
Vinicio Soto Monge
COSTA RICA. Prov. Alajuela. Guatuso. P.N. Volcán Tenorio. Punto 4: Cerro Montezuma. 1510 m. 27 AGO 2008. INB0004169209 INBIOCRI COSTA RICA .
250,000000
1
Lambda 1050
1050L1511233
PerkinElmer UV WinLab 6.3.2.0749 / 2.02.05 Lambda 900 UV/VIS/NIR, Aug  7 2015 09:38:08

0
0
3350/servo 860,8/2
0
0
UV/VIS
1
1
1
DoubleDePol,CommonBeamDepol,RBeamAtt,SBeamAtt,60mm sphere, WB InGaAs Detector
0
0
0
0
Program
Program
3350/servo 860,8/2
3350/0,2 860,8/0,2
3350/0,2 860,8/0,2
0
15.00
 
 
 
0
 
860,8
319,2
860,8
Front
100
on
S:100 R:100
0
0
0
0
 
0
 
 
 
0
 
 
0
0
0
0
0
 
 
 
 
0
0


0
0
#HDR
-1
-1
#GR
nm
%R
1.0
0.0
2500,000000
-1,000000
2251
8
16,644400
0,693400
#DATA

250.000000	nan
251.000000	nan
252.000000	nan
253.000000	nan
254.000000	nan
255.000000	nan
256.000000	nan
257.000000	nan
258.000000	nan
259.000000	3.561989
260.000000	3.560949
261.000000	3.559630
262.000000	3.559859
263.000000	3.559918
264.000000	3.557432
265.000000	3.554587
266.000000	3.552657
267.000000	3.548791
268.000000	3.548179
269.000000	3.547394
270.000000	3.545727
271.000000	3.544248
272.000000	3.541946
273.000000	3.539653
274.000000	3.539577
275.000000	3.537606
276.000000	3.535963
277.000000	3.534981
278.000000	3.532558
279.000000	3.531386
280.000000	3.530553
281.000000	3.529693
282.000000	3.529398
283.000000	3.529467
284.000000	3.530221
285.000000	3.531096
286.000000	3.533394
287.000000	3.534953
288.000000	3.536311
289.000000	3.538715
290.000000	3.541304
291.000000	3.543236
292.000000	3.545746
293.000000	3.548560
294.000000	3.551867
295.000000	3.554225
296.000000	3.556276
297.000000	3.559060
298.000000	3.564017
299.000000	3.567350
300.000000	3.569250
301.000000	3.572614
302.000000	3.577068
303.000000	3.579805
304.000000	3.581718
305.000000	3.586745
306.000000	3.590004
307.000000	3.593784
308.000000	3.596288
309.000000	3.596428
310.000000	3.600164
311.000000	3.601976
312.000000	3.605609
313.000000	3.609449
314.000000	3.613723
315.000000	3.616142
316.000000	3.620851
317.000000	3.644795
318.000000	3.653482
319.000000	3.679130
320.000000	3.694180
321.000000	3.712093
322.000000	3.725622
323.000000	3.741718
324.000000	3.758378
325.000000	3.777124
326.000000	3.784666
327.000000	3.772735
328.000000	3.771892
329.000000	3.761283
330.000000	3.768099
331.000000	3.767321
332.000000	3.767100
333.000000	3.756483
334.000000	3.747194
335.000000	3.741716
336.000000	3.743300
337.000000	3.743765
338.000000	3.746886
339.000000	3.748073
340.000000	3.735695
341.000000	3.732577
342.000000	3.729418
343.000000	3.730571
344.000000	3.731728
345.000000	3.727942
346.000000	3.729999
347.000000	3.732325
348.000000	3.732558
349.000000	3.730898
350.000000	3.733241
351.000000	3.731273
352.000000	3.729689
353.000000	3.731078
354.000000	3.730860
355.000000	3.735243
356.000000	3.733651
357.000000	3.733576
358.000000	3.738719
359.000000	3.739524
360.000000	3.741409
361.000000	3.743369
362.000000	3.744328
363.000000	3.746909
364.000000	3.751063
365.000000	3.749492
366.000000	3.750061
367.000000	3.748926
368.000000	3.748379
369.000000	3.749372
370.000000	3.746957
371.000000	3.744854
372.000000	3.747067
373.000000	3.745821
374.000000	3.740361
375.000000	3.735860
376.000000	3.733890
377.000000	3.760129
378.000000	3.784039
379.000000	3.809869
380.000000	3.838404
381.000000	3.867468
382.000000	3.893697
383.000000	3.923304
384.000000	3.955039
385.000000	3.987019
386.000000	4.016856
387.000000	4.020253
388.000000	4.023280
389.000000	4.026289
390.000000	4.029883
391.000000	4.033559
392.000000	4.036980
393.000000	4.040050
394.000000	4.042846
395.000000	4.045834
396.000000	4.049159
397.000000	4.052428
398.000000	4.055644
399.000000	4.058940
400.000000	4.062347
401.000000	4.065657
402.000000	4.069197
403.000000	4.072695
404.000000	4.076248
405.000000	4.080059
406.000000	4.083450
407.000000	4.086942
408.000000	4.090616
409.000000	4.094128
410.000000	4.097288
411.000000	4.100554
412.000000	4.103814
413.000000	4.107138
414.000000	4.110538
415.000000	4.113695
416.000000	4.117083
417.000000	4.120596
418.000000	4.123977
419.000000	4.127307
420.000000	4.131126
421.000000	4.135162
422.000000	4.138958
423.000000	4.142583
424.000000	4.146067
425.000000	4.149607
426.000000	4.153336
427.000000	4.157091
428.000000	4.161069
429.000000	4.165051
430.000000	4.168813
431.000000	4.172729
432.000000	4.176856
433.000000	4.181191
434.000000	4.185633
435.000000	4.190135
436.000000	4.194417
437.000000	4.198409
438.000000	4.202430
439.000000	4.206831
440.000000	4.211355
441.000000	4.215591
442.000000	4.219813
443.000000	4.224245
444.000000	4.259399
445.000000	4.294407
446.000000	4.329706
447.000000	4.365571
448.000000	4.401486
449.000000	4.436965
450.000000	4.472436
451.000000	4.508117
452.000000	4.543712
453.000000	4.579414
454.000000	4.584373
455.000000	4.589340
456.000000	4.594406
457.000000	4.599245
458.000000	4.604060
459.000000	4.609113
460.000000	4.614260
461.000000	4.619529
462.000000	4.624946
463.000000	4.630315
464.000000	4.635738
465.000000	4.641399
466.000000	4.646968
467.000000	4.652377
468.000000	4.657887
469.000000	4.663580
470.000000	4.669045
471.000000	4.674271
472.000000	4.679444
473.000000	4.684735
474.000000	4.690022
475.000000	4.695090
476.000000	4.699937
477.000000	4.704823
478.000000	4.709653
479.000000	4.714345
480.000000	4.718868
481.000000	4.723081
482.000000	4.726925
483.000000	4.730681
484.000000	4.734849
485.000000	4.739270
486.000000	4.775203
487.000000	4.811748
488.000000	4.848689
489.000000	4.886026
490.000000	4.924005
491.000000	4.962845
492.000000	5.002525
493.000000	5.042621
494.000000	5.082763
495.000000	5.123359
496.000000	5.133178
497.000000	5.142571
498.000000	5.152053
499.000000	5.161646
500.000000	5.171357
501.000000	5.181201
502.000000	5.221952
503.000000	5.262777
504.000000	5.303569
505.000000	5.344294
506.000000	5.384520
507.000000	5.424915
508.000000	5.465379
509.000000	5.505579
510.000000	5.545529
511.000000	5.585141
512.000000	5.593797
513.000000	5.632885
514.000000	5.671656
515.000000	5.710039
516.000000	5.748433
517.000000	5.786691
518.000000	5.824452
519.000000	5.862186
520.000000	5.930842
521.000000	5.999522
522.000000	6.068017
523.000000	6.105641
524.000000	6.143605
525.000000	6.181790
526.000000	6.251031
527.000000	6.320443
528.000000	6.390138
529.000000	6.460063
530.000000	6.499379
531.000000	6.569965
532.000000	6.640694
533.000000	6.711941
534.000000	6.783500
535.000000	6.886056
536.000000	6.957893
537.000000	7.030058
538.000000	7.102175
539.000000	7.174493
540.000000	7.277684
541.000000	7.350228
542.000000	7.422873
543.000000	7.495541
544.000000	7.568224
545.000000	7.609931
546.000000	7.651608
547.000000	7.693291
548.000000	7.766095
549.000000	7.838642
550.000000	7.880416
551.000000	7.921883
552.000000	7.963307
553.000000	8.004766
554.000000	8.046059
555.000000	8.087142
556.000000	8.128451
557.000000	8.169773
558.000000	8.179779
559.000000	8.190150
560.000000	8.195123
561.000000	8.199192
562.000000	8.203093
563.000000	8.206760
564.000000	8.210467
565.000000	8.214105
566.000000	8.217393
567.000000	8.220403
568.000000	8.223725
569.000000	8.226714
570.000000	8.234954
571.000000	8.244025
572.000000	8.253279
573.000000	8.231498
574.000000	8.209608
575.000000	8.187989
576.000000	8.166469
577.000000	8.144998
578.000000	8.123565
579.000000	8.102139
580.000000	8.080551
581.000000	8.059002
582.000000	8.037389
583.000000	8.015996
584.000000	7.994684
585.000000	7.973841
586.000000	7.952587
587.000000	7.931393
588.000000	7.910372
589.000000	7.889008
590.000000	7.836760
591.000000	7.784497
592.000000	7.732043
593.000000	7.710688
594.000000	7.689343
595.000000	7.667271
596.000000	7.645930
597.000000	7.623970
598.000000	7.601838
599.000000	7.580399
600.000000	7.589404
601.000000	7.598460
602.000000	7.607983
603.000000	7.616926
604.000000	7.626042
605.000000	7.635385
606.000000	7.644310
607.000000	7.622844
608.000000	7.600988
609.000000	7.578645
610.000000	7.557088
611.000000	7.535434
612.000000	7.513468
613.000000	7.492080
614.000000	7.470146
615.000000	7.448472
616.000000	7.426499
617.000000	7.435396
618.000000	7.444667
619.000000	7.453866
620.000000	7.462836
621.000000	7.472078
622.000000	7.481175
623.000000	7.489862
624.000000	7.499194
625.000000	7.508187
626.000000	7.517474
627.000000	7.526666
628.000000	7.536165
629.000000	7.545738
630.000000	7.555481
631.000000	7.595529
632.000000	7.636201
633.000000	7.676914
634.000000	7.716887
635.000000	7.757175
636.000000	7.797900
637.000000	7.838621
638.000000	7.878985
639.000000	7.919626
640.000000	7.960279
641.000000	7.970207
642.000000	7.980238
643.000000	7.990082
644.000000	8.000411
645.000000	8.010672
646.000000	8.021071
647.000000	8.030963
648.000000	8.040968
649.000000	8.051139
650.000000	8.061313
651.000000	8.102190
652.000000	8.142598
653.000000	8.183466
654.000000	8.224116
655.000000	8.264482
656.000000	8.304358
657.000000	8.344793
658.000000	8.385407
659.000000	8.425751
660.000000	8.465997
661.000000	8.475649
662.000000	8.485108
663.000000	8.525118
664.000000	8.565828
665.000000	8.606081
666.000000	8.646546
667.000000	8.687317
668.000000	8.727907
669.000000	8.768459
670.000000	8.809027
671.000000	8.849573
672.000000	8.921037
673.000000	8.961696
674.000000	9.001638
675.000000	9.042692
676.000000	9.083445
677.000000	9.123454
678.000000	9.163065
679.000000	9.202888
680.000000	9.273969
681.000000	9.345148
682.000000	9.385465
683.000000	9.425360
684.000000	9.465638
685.000000	9.505504
686.000000	9.545215
687.000000	9.616671
688.000000	9.688767
689.000000	9.760161
690.000000	9.800074
691.000000	9.839715
692.000000	9.880181
693.000000	9.951716
694.000000	10.022410
695.000000	10.093595
696.000000	10.165663
697.000000	10.206017
698.000000	10.245659
699.000000	10.285774
700.000000	10.356468
701.000000	10.427330
702.000000	10.497772
703.000000	10.537716
704.000000	10.578383
705.000000	10.618890
706.000000	10.658923
707.000000	10.699401
708.000000	10.770909
709.000000	10.842045
710.000000	10.882468
711.000000	10.923031
712.000000	10.964372
713.000000	11.005490
714.000000	11.046262
715.000000	11.086983
716.000000	11.127450
717.000000	11.167981
718.000000	11.208403
719.000000	11.249404
720.000000	11.290674
721.000000	11.331810
722.000000	11.372125
723.000000	11.413016
724.000000	11.454320
725.000000	11.495541
726.000000	11.537087
727.000000	11.578569
728.000000	11.589163
729.000000	11.599394
730.000000	11.609831
731.000000	11.620834
732.000000	11.631829
733.000000	11.642434
734.000000	11.652931
735.000000	11.663116
736.000000	11.672971
737.000000	11.714064
738.000000	11.755963
739.000000	11.797908
740.000000	11.839625
741.000000	11.880936
742.000000	11.922116
743.000000	11.963665
744.000000	12.005354
745.000000	12.046768
746.000000	12.088653
747.000000	12.099929
748.000000	12.110360
749.000000	12.121122
750.000000	12.132080
751.000000	12.142705
752.000000	12.153572
753.000000	12.163819
754.000000	12.174237
755.000000	12.185375
756.000000	12.196861
757.000000	12.208072
758.000000	12.219618
759.000000	12.231275
760.000000	12.242556
761.000000	12.254747
762.000000	12.266660
763.000000	12.278464
764.000000	12.289907
765.000000	12.301678
766.000000	12.313156
767.000000	12.324533
768.000000	12.335133
769.000000	12.345064
770.000000	12.355773
771.000000	12.365962
772.000000	12.376615
773.000000	12.387913
774.000000	12.399541
775.000000	12.410254
776.000000	12.421321
777.000000	12.432543
778.000000	12.445090
779.000000	12.459149
780.000000	12.472249
781.000000	12.484533
782.000000	12.496859
783.000000	12.509886
784.000000	12.522661
785.000000	12.535538
786.000000	12.548003
787.000000	12.559961
788.000000	12.572113
789.000000	12.583280
790.000000	12.596557
791.000000	12.610270
792.000000	12.624107
793.000000	12.636762
794.000000	12.649154
795.000000	12.662055
796.000000	12.675366
797.000000	12.719506
798.000000	12.764117
799.000000	12.809184
800.000000	12.852766
801.000000	12.896544
802.000000	12.940180
803.000000	12.984645
804.000000	13.029723
805.000000	13.075608
806.000000	13.119584
807.000000	13.132276
808.000000	13.144869
809.000000	13.158453
810.000000	13.172677
811.000000	13.188482
812.000000	13.202404
813.000000	13.216792
814.000000	13.231114
815.000000	13.243761
816.000000	13.258257
817.000000	13.273303
818.000000	13.288935
819.000000	13.303112
820.000000	13.315070
821.000000	13.325480
822.000000	13.338147
823.000000	13.350895
824.000000	13.363144
825.000000	13.375383
826.000000	13.386481
827.000000	13.399816
828.000000	13.409692
829.000000	13.421847
830.000000	13.436153
831.000000	13.448258
832.000000	13.460562
833.000000	13.470327
834.000000	13.479473
835.000000	13.489548
836.000000	13.498939
837.000000	13.506231
838.000000	13.514260
839.000000	13.522304
840.000000	13.527752
841.000000	13.538149
842.000000	13.545436
843.000000	13.524268
844.000000	13.504325
845.000000	13.514661
846.000000	13.493275
847.000000	13.503322
848.000000	13.483258
849.000000	13.484084
850.000000	13.486378
851.000000	13.460722
852.000000	13.431199
853.000000	13.435312
854.000000	13.431703
855.000000	13.404479
856.000000	13.412975
857.000000	13.393250
858.000000	13.645976
859.000000	13.660403
860.000000	13.674818
861.000000	13.690340
862.000000	13.713432
863.000000	13.732937
864.000000	13.760185
865.000000	13.780652
866.000000	13.799155
867.000000	13.814563
868.000000	13.589163
869.000000	13.528332
870.000000	13.492980
871.000000	13.482490
872.000000	13.470930
873.000000	13.459772
874.000000	13.423298
875.000000	13.386690
876.000000	13.375307
877.000000	13.339005
878.000000	13.277382
879.000000	13.267305
880.000000	13.256422
881.000000	13.219785
882.000000	13.208895
883.000000	13.171637
884.000000	13.184825
885.000000	13.173400
886.000000	13.137750
887.000000	13.126942
888.000000	13.140960
889.000000	13.129430
890.000000	13.093617
891.000000	13.083288
892.000000	13.047982
893.000000	13.038610
894.000000	13.004370
895.000000	12.995640
896.000000	12.984965
897.000000	12.976020
898.000000	12.966390
899.000000	12.982345
900.000000	12.999340
901.000000	13.016223
902.000000	13.007788
903.000000	12.999488
904.000000	12.991798
905.000000	12.984755
906.000000	12.978473
907.000000	12.971347
908.000000	12.966680
909.000000	12.960477
910.000000	12.954480
911.000000	12.948515
912.000000	12.966797
913.000000	12.986788
914.000000	13.007785
915.000000	13.027927
916.000000	13.048030
917.000000	13.068375
918.000000	13.088047
919.000000	13.108742
920.000000	13.128467
921.000000	13.149265
922.000000	13.169830
923.000000	13.190402
924.000000	13.209445
925.000000	13.228485
926.000000	13.221915
927.000000	13.214770
928.000000	13.232285
929.000000	13.248990
930.000000	13.265607
931.000000	13.281930
932.000000	13.299492
933.000000	13.315265
934.000000	13.330795
935.000000	13.321395
936.000000	13.362765
937.000000	13.404845
938.000000	13.422220
939.000000	13.414585
940.000000	13.407173
941.000000	13.398300
942.000000	13.389413
943.000000	13.380157
944.000000	13.370525
945.000000	13.386170
946.000000	13.376593
947.000000	13.391458
948.000000	13.379907
949.000000	13.393747
950.000000	13.408585
951.000000	13.424177
952.000000	13.437648
953.000000	13.453613
954.000000	13.493957
955.000000	13.533410
956.000000	13.572915
957.000000	13.587150
958.000000	13.602053
959.000000	13.617080
960.000000	13.630552
961.000000	13.644605
962.000000	13.659105
963.000000	13.672725
964.000000	13.661775
965.000000	13.675665
966.000000	13.689110
967.000000	13.677365
968.000000	13.689910
969.000000	13.727832
970.000000	13.741763
971.000000	13.755225
972.000000	13.794455
973.000000	13.832195
974.000000	13.870817
975.000000	13.884263
976.000000	13.897248
977.000000	13.935165
978.000000	13.973785
979.000000	13.987565
980.000000	14.025507
981.000000	14.062832
982.000000	14.075482
983.000000	14.088340
984.000000	14.100058
985.000000	14.112177
986.000000	14.124935
987.000000	14.136945
988.000000	14.148840
989.000000	14.160200
990.000000	14.171700
991.000000	14.183253
992.000000	14.194990
993.000000	14.206633
994.000000	14.218560
995.000000	14.230363
996.000000	14.241950
997.000000	14.254257
998.000000	14.266708
999.000000	14.279270
1000.000000	14.291890
1001.000000	14.305162
1002.000000	14.318072
1003.000000	14.330388
1004.000000	14.341503
1005.000000	14.352370
1006.000000	14.363825
1007.000000	14.376218
1008.000000	14.388492
1009.000000	14.400417
1010.000000	14.412252
1011.000000	14.423050
1012.000000	14.433582
1013.000000	14.444517
1014.000000	14.456658
1015.000000	14.469577
1016.000000	14.481947
1017.000000	14.492957
1018.000000	14.504163
1019.000000	14.515495
1020.000000	14.526250
1021.000000	14.562848
1022.000000	14.574270
1023.000000	14.610563
1024.000000	14.647425
1025.000000	14.683438
1026.000000	14.718863
1027.000000	14.755437
1028.000000	14.791910
1029.000000	14.827222
1030.000000	14.863117
1031.000000	14.874370
1032.000000	14.911022
1033.000000	14.923050
1034.000000	14.934425
1035.000000	14.946145
1036.000000	14.958305
1037.000000	14.969360
1038.000000	14.980882
1039.000000	14.993690
1040.000000	15.005873
1041.000000	15.017368
1042.000000	15.028862
1043.000000	15.040612
1044.000000	15.052312
1045.000000	15.063895
1046.000000	15.075297
1047.000000	15.086200
1048.000000	15.096515
1049.000000	15.107518
1050.000000	15.119133
1051.000000	15.130717
1052.000000	15.141820
1053.000000	15.153252
1054.000000	15.165035
1055.000000	15.176780
1056.000000	15.189075
1057.000000	15.201412
1058.000000	15.213838
1059.000000	15.225497
1060.000000	15.237245
1061.000000	15.249302
1062.000000	15.261210
1063.000000	15.272410
1064.000000	15.283880
1065.000000	15.295805
1066.000000	15.332135
1067.000000	15.369295
1068.000000	15.407013
1069.000000	15.444748
1070.000000	15.481823
1071.000000	15.518807
1072.000000	15.556262
1073.000000	15.593643
1074.000000	15.629655
1075.000000	15.666333
1076.000000	15.678847
1077.000000	15.690397
1078.000000	15.701120
1079.000000	15.711433
1080.000000	15.722380
1081.000000	15.733280
1082.000000	15.744215
1083.000000	15.755575
1084.000000	15.767408
1085.000000	15.777857
1086.000000	15.788063
1087.000000	15.799398
1088.000000	15.810485
1089.000000	15.821553
1090.000000	15.833080
1091.000000	15.845198
1092.000000	15.856618
1093.000000	15.866445
1094.000000	15.877042
1095.000000	15.888268
1096.000000	15.899047
1097.000000	15.909055
1098.000000	15.919643
1099.000000	15.931222
1100.000000	15.941993
1101.000000	15.952032
1102.000000	15.962305
1103.000000	15.972975
1104.000000	15.983205
1105.000000	15.992960
1106.000000	16.003665
1107.000000	16.014440
1108.000000	16.024245
1109.000000	16.033567
1110.000000	16.042533
1111.000000	16.051115
1112.000000	16.059900
1113.000000	16.069675
1114.000000	16.078007
1115.000000	16.111372
1116.000000	16.119585
1117.000000	16.152905
1118.000000	16.187027
1119.000000	16.220080
1120.000000	16.252655
1121.000000	16.287243
1122.000000	16.322110
1123.000000	16.355287
1124.000000	16.389930
1125.000000	16.398228
1126.000000	16.431447
1127.000000	16.439512
1128.000000	16.447965
1129.000000	16.456820
1130.000000	16.465562
1131.000000	16.470795
1132.000000	16.473293
1133.000000	16.478192
1134.000000	16.458760
1135.000000	16.464858
1136.000000	16.445725
1137.000000	16.425542
1138.000000	16.403633
1139.000000	16.380257
1140.000000	16.358912
1141.000000	16.337383
1142.000000	16.316803
1143.000000	16.295525
1144.000000	16.299190
1145.000000	16.277715
1146.000000	16.280812
1147.000000	16.284105
1148.000000	16.288467
1149.000000	16.294175
1150.000000	16.298818
1151.000000	16.303958
1152.000000	16.310300
1153.000000	16.316385
1154.000000	16.321265
1155.000000	16.325828
1156.000000	16.329160
1157.000000	16.332798
1158.000000	16.334235
1159.000000	16.335910
1160.000000	16.337510
1161.000000	16.338043
1162.000000	16.337405
1163.000000	16.335992
1164.000000	16.333617
1165.000000	16.330757
1166.000000	16.327190
1167.000000	16.323270
1168.000000	16.321020
1169.000000	16.318310
1170.000000	16.314258
1171.000000	16.311732
1172.000000	16.310207
1173.000000	16.308847
1174.000000	16.307700
1175.000000	16.306160
1176.000000	16.306027
1177.000000	16.307187
1178.000000	16.308525
1179.000000	16.309415
1180.000000	16.310715
1181.000000	16.312715
1182.000000	16.314615
1183.000000	16.316228
1184.000000	16.318785
1185.000000	16.322130
1186.000000	16.325988
1187.000000	16.329170
1188.000000	16.332267
1189.000000	16.336503
1190.000000	16.342305
1191.000000	16.347600
1192.000000	16.352643
1193.000000	16.359270
1194.000000	16.366443
1195.000000	16.374742
1196.000000	16.383782
1197.000000	16.393107
1198.000000	16.402755
1199.000000	16.412040
1200.000000	16.420400
1201.000000	16.429943
1202.000000	16.440622
1203.000000	16.450870
1204.000000	16.461222
1205.000000	16.471405
1206.000000	16.481350
1207.000000	16.491540
1208.000000	16.502005
1209.000000	16.513725
1210.000000	16.526277
1211.000000	16.564013
1212.000000	16.600775
1213.000000	16.637097
1214.000000	16.673285
1215.000000	16.709990
1216.000000	16.746125
1217.000000	16.782402
1218.000000	16.818045
1219.000000	16.853205
1220.000000	16.887985
1221.000000	16.897370
1222.000000	16.906537
1223.000000	16.915250
1224.000000	16.923493
1225.000000	16.931037
1226.000000	16.938385
1227.000000	16.945932
1228.000000	16.952605
1229.000000	16.958882
1230.000000	16.963648
1231.000000	16.967930
1232.000000	16.972583
1233.000000	16.976710
1234.000000	16.980225
1235.000000	16.984185
1236.000000	16.988067
1237.000000	16.991815
1238.000000	16.995615
1239.000000	16.999502
1240.000000	17.003808
1241.000000	17.008357
1242.000000	17.012950
1243.000000	17.018920
1244.000000	17.024955
1245.000000	17.031138
1246.000000	17.038205
1247.000000	17.045115
1248.000000	17.053150
1249.000000	17.060965
1250.000000	17.069927
1251.000000	17.079133
1252.000000	17.089070
1253.000000	17.098970
1254.000000	17.109158
1255.000000	17.119715
1256.000000	17.130432
1257.000000	17.141607
1258.000000	17.152660
1259.000000	17.164243
1260.000000	17.175220
1261.000000	17.185735
1262.000000	17.195888
1263.000000	17.231215
1264.000000	17.267290
1265.000000	17.301813
1266.000000	17.335743
1267.000000	17.368407
1268.000000	17.400410
1269.000000	17.431172
1270.000000	17.462203
1271.000000	17.492950
1272.000000	17.522472
1273.000000	17.526198
1274.000000	17.529520
1275.000000	17.533197
1276.000000	17.535590
1277.000000	17.538595
1278.000000	17.542462
1279.000000	17.546830
1280.000000	17.550258
1281.000000	17.554070
1282.000000	17.558870
1283.000000	17.563810
1284.000000	17.569090
1285.000000	17.574542
1286.000000	17.580405
1287.000000	17.586192
1288.000000	17.592392
1289.000000	17.598950
1290.000000	17.606295
1291.000000	17.612932
1292.000000	17.619835
1293.000000	17.627340
1294.000000	17.634107
1295.000000	17.641190
1296.000000	17.648392
1297.000000	17.656017
1298.000000	17.663988
1299.000000	17.670828
1300.000000	17.677997
1301.000000	17.685870
1302.000000	17.692790
1303.000000	17.699533
1304.000000	17.706095
1305.000000	17.711518
1306.000000	17.717110
1307.000000	17.721978
1308.000000	17.725738
1309.000000	17.730113
1310.000000	17.733683
1311.000000	17.735995
1312.000000	17.738402
1313.000000	17.739695
1314.000000	17.740900
1315.000000	17.742610
1316.000000	17.743660
1317.000000	17.744447
1318.000000	17.744622
1319.000000	17.744367
1320.000000	17.743660
1321.000000	17.742532
1322.000000	17.741050
1323.000000	17.739415
1324.000000	17.736937
1325.000000	17.733520
1326.000000	17.729840
1327.000000	17.725897
1328.000000	17.721650
1329.000000	17.716650
1330.000000	17.711672
1331.000000	17.707535
1332.000000	17.703160
1333.000000	17.697718
1334.000000	17.691707
1335.000000	17.686518
1336.000000	17.681315
1337.000000	17.675550
1338.000000	17.643493
1339.000000	17.611530
1340.000000	17.579773
1341.000000	17.546720
1342.000000	17.512745
1343.000000	17.478785
1344.000000	17.445002
1345.000000	17.409128
1346.000000	17.372688
1347.000000	17.336977
1348.000000	17.327283
1349.000000	17.315600
1350.000000	17.302575
1351.000000	17.289295
1352.000000	17.275645
1353.000000	17.261850
1354.000000	17.250737
1355.000000	17.241740
1356.000000	17.232630
1357.000000	17.220665
1358.000000	17.207765
1359.000000	17.194647
1360.000000	17.159825
1361.000000	17.131585
1362.000000	17.102880
1363.000000	17.071985
1364.000000	17.039950
1365.000000	17.005065
1366.000000	16.966755
1367.000000	16.931895
1368.000000	16.871513
1369.000000	16.807787
1370.000000	16.763205
1371.000000	16.710028
1372.000000	16.651882
1373.000000	16.587185
1374.000000	16.513298
1375.000000	16.409825
1376.000000	16.300305
1377.000000	16.182562
1378.000000	16.080215
1379.000000	15.976930
1380.000000	15.873263
1381.000000	15.775150
1382.000000	15.659465
1383.000000	15.553543
1384.000000	15.453003
1385.000000	15.383515
1386.000000	15.323980
1387.000000	15.276870
1388.000000	15.243840
1389.000000	15.214958
1390.000000	15.187617
1391.000000	15.163053
1392.000000	15.165858
1393.000000	15.142098
1394.000000	15.124530
1395.000000	15.116455
1396.000000	15.109092
1397.000000	15.091560
1398.000000	15.068055
1399.000000	15.053007
1400.000000	15.048050
1401.000000	15.036337
1402.000000	15.015432
1403.000000	15.019133
1404.000000	15.022860
1405.000000	15.017430
1406.000000	15.009920
1407.000000	15.006283
1408.000000	15.007043
1409.000000	14.977902
1410.000000	14.938522
1411.000000	14.897165
1412.000000	14.857502
1413.000000	14.821620
1414.000000	14.784565
1415.000000	14.744328
1416.000000	14.703115
1417.000000	14.661612
1418.000000	14.620580
1419.000000	14.603195
1420.000000	14.585445
1421.000000	14.568122
1422.000000	14.529650
1423.000000	14.491645
1424.000000	14.449898
1425.000000	14.408778
1426.000000	14.369050
1427.000000	14.330990
1428.000000	14.291980
1429.000000	14.252700
1430.000000	14.214478
1431.000000	14.179775
1432.000000	14.170260
1433.000000	14.157608
1434.000000	14.145345
1435.000000	14.135313
1436.000000	14.125647
1437.000000	14.117292
1438.000000	14.108578
1439.000000	14.074533
1440.000000	14.043187
1441.000000	14.009815
1442.000000	13.976725
1443.000000	13.942778
1444.000000	13.910720
1445.000000	13.883035
1446.000000	13.855472
1447.000000	13.824468
1448.000000	13.793590
1449.000000	13.789480
1450.000000	13.785365
1451.000000	13.783618
1452.000000	13.780717
1453.000000	13.779253
1454.000000	13.777693
1455.000000	13.772840
1456.000000	13.768130
1457.000000	13.764775
1458.000000	13.760442
1459.000000	13.756043
1460.000000	13.749560
1461.000000	13.742420
1462.000000	13.736683
1463.000000	13.731340
1464.000000	13.724457
1465.000000	13.718015
1466.000000	13.712500
1467.000000	13.706410
1468.000000	13.675643
1469.000000	13.644758
1470.000000	13.616653
1471.000000	13.588973
1472.000000	13.560862
1473.000000	13.532278
1474.000000	13.504102
1475.000000	13.475137
1476.000000	13.445872
1477.000000	13.418325
1478.000000	13.415742
1479.000000	13.412273
1480.000000	13.407940
1481.000000	13.402252
1482.000000	13.396432
1483.000000	13.390233
1484.000000	13.385025
1485.000000	13.380377
1486.000000	13.375125
1487.000000	13.369715
1488.000000	13.364382
1489.000000	13.359493
1490.000000	13.354167
1491.000000	13.350365
1492.000000	13.346683
1493.000000	13.344217
1494.000000	13.341410
1495.000000	13.338965
1496.000000	13.337265
1497.000000	13.336028
1498.000000	13.336192
1499.000000	13.336140
1500.000000	13.335763
1501.000000	13.335685
1502.000000	13.336940
1503.000000	13.339115
1504.000000	13.342090
1505.000000	13.344955
1506.000000	13.348785
1507.000000	13.352620
1508.000000	13.356527
1509.000000	13.361715
1510.000000	13.367927
1511.000000	13.374390
1512.000000	13.381498
1513.000000	13.388137
1514.000000	13.394567
1515.000000	13.402195
1516.000000	13.409785
1517.000000	13.418255
1518.000000	13.451718
1519.000000	13.484785
1520.000000	13.518115
1521.000000	13.551200
1522.000000	13.583055
1523.000000	13.615630
1524.000000	13.649270
1525.000000	13.682192
1526.000000	13.715375
1527.000000	13.747800
1528.000000	13.755100
1529.000000	13.762383
1530.000000	13.769210
1531.000000	13.776235
1532.000000	13.783847
1533.000000	13.791002
1534.000000	13.797305
1535.000000	13.803127
1536.000000	13.808607
1537.000000	13.814030
1538.000000	13.819337
1539.000000	13.824695
1540.000000	13.830167
1541.000000	13.835878
1542.000000	13.841297
1543.000000	13.845988
1544.000000	13.850953
1545.000000	13.856740
1546.000000	13.862993
1547.000000	13.868797
1548.000000	13.874360
1549.000000	13.880568
1550.000000	13.886963
1551.000000	13.892378
1552.000000	13.897952
1553.000000	13.904132
1554.000000	13.910278
1555.000000	13.916410
1556.000000	13.947030
1557.000000	13.977457
1558.000000	14.007660
1559.000000	14.037115
1560.000000	14.065895
1561.000000	14.094640
1562.000000	14.123527
1563.000000	14.151630
1564.000000	14.177843
1565.000000	14.203075
1566.000000	14.202760
1567.000000	14.202385
1568.000000	14.202695
1569.000000	14.202597
1570.000000	14.202478
1571.000000	14.202222
1572.000000	14.201280
1573.000000	14.200805
1574.000000	14.201812
1575.000000	14.202585
1576.000000	14.203700
1577.000000	14.205357
1578.000000	14.206412
1579.000000	14.207667
1580.000000	14.209177
1581.000000	14.211050
1582.000000	14.213913
1583.000000	14.216800
1584.000000	14.219590
1585.000000	14.223080
1586.000000	14.226965
1587.000000	14.231520
1588.000000	14.236377
1589.000000	14.240570
1590.000000	14.244405
1591.000000	14.248732
1592.000000	14.252863
1593.000000	14.256980
1594.000000	14.261165
1595.000000	14.265545
1596.000000	14.269028
1597.000000	14.273105
1598.000000	14.277978
1599.000000	14.283008
1600.000000	14.288800
1601.000000	14.294002
1602.000000	14.299442
1603.000000	14.305825
1604.000000	14.312437
1605.000000	14.318335
1606.000000	14.324243
1607.000000	14.329847
1608.000000	14.334248
1609.000000	14.339953
1610.000000	14.346695
1611.000000	14.378133
1612.000000	14.407883
1613.000000	14.436997
1614.000000	14.466050
1615.000000	14.494317
1616.000000	14.523317
1617.000000	14.551915
1618.000000	14.579960
1619.000000	14.606990
1620.000000	14.632520
1621.000000	14.633785
1622.000000	14.635415
1623.000000	14.636468
1624.000000	14.638707
1625.000000	14.641480
1626.000000	14.643698
1627.000000	14.645658
1628.000000	14.648035
1629.000000	14.650948
1630.000000	14.654512
1631.000000	14.657642
1632.000000	14.661552
1633.000000	14.666118
1634.000000	14.668682
1635.000000	14.671585
1636.000000	14.674407
1637.000000	14.676785
1638.000000	14.678817
1639.000000	14.680353
1640.000000	14.681833
1641.000000	14.683045
1642.000000	14.683705
1643.000000	14.683830
1644.000000	14.684065
1645.000000	14.684482
1646.000000	14.685950
1647.000000	14.686938
1648.000000	14.687577
1649.000000	14.688525
1650.000000	14.688515
1651.000000	14.688800
1652.000000	14.689125
1653.000000	14.688750
1654.000000	14.687405
1655.000000	14.685538
1656.000000	14.681610
1657.000000	14.675862
1658.000000	14.670972
1659.000000	14.664742
1660.000000	14.656720
1661.000000	14.648765
1662.000000	14.638870
1663.000000	14.627933
1664.000000	14.616760
1665.000000	14.580512
1666.000000	14.544372
1667.000000	14.508743
1668.000000	14.466078
1669.000000	14.422580
1670.000000	14.380822
1671.000000	14.335977
1672.000000	14.291498
1673.000000	14.245905
1674.000000	14.200635
1675.000000	14.179213
1676.000000	14.156038
1677.000000	14.133798
1678.000000	14.115835
1679.000000	14.072905
1680.000000	14.027465
1681.000000	13.983435
1682.000000	13.939167
1683.000000	13.894477
1684.000000	13.848890
1685.000000	13.803327
1686.000000	13.758617
1687.000000	13.713765
1688.000000	13.670705
1689.000000	13.653815
1690.000000	13.639953
1691.000000	13.628533
1692.000000	13.618750
1693.000000	13.613120
1694.000000	13.610055
1695.000000	13.608075
1696.000000	13.608322
1697.000000	13.609405
1698.000000	13.611175
1699.000000	13.613452
1700.000000	13.615085
1701.000000	13.615158
1702.000000	13.617065
1703.000000	13.617287
1704.000000	13.617130
1705.000000	13.616060
1706.000000	13.614180
1707.000000	13.611290
1708.000000	13.608197
1709.000000	13.577738
1710.000000	13.547168
1711.000000	13.516352
1712.000000	13.482325
1713.000000	13.447355
1714.000000	13.411060
1715.000000	13.374332
1716.000000	13.335230
1717.000000	13.295640
1718.000000	13.253265
1719.000000	13.237398
1720.000000	13.221185
1721.000000	13.204273
1722.000000	13.188612
1723.000000	13.173715
1724.000000	13.160040
1725.000000	13.148425
1726.000000	13.138278
1727.000000	13.130080
1728.000000	13.126170
1729.000000	13.122553
1730.000000	13.119855
1731.000000	13.119047
1732.000000	13.119255
1733.000000	13.121200
1734.000000	13.123020
1735.000000	13.124788
1736.000000	13.129347
1737.000000	13.134323
1738.000000	13.138055
1739.000000	13.143018
1740.000000	13.149515
1741.000000	13.156565
1742.000000	13.163977
1743.000000	13.170930
1744.000000	13.179200
1745.000000	13.187318
1746.000000	13.194183
1747.000000	13.200815
1748.000000	13.208860
1749.000000	13.216915
1750.000000	13.224650
1751.000000	13.231598
1752.000000	13.237317
1753.000000	13.242278
1754.000000	13.247043
1755.000000	13.251638
1756.000000	13.255897
1757.000000	13.260227
1758.000000	13.263182
1759.000000	13.265437
1760.000000	13.267152
1761.000000	13.268470
1762.000000	13.271055
1763.000000	13.273952
1764.000000	13.276032
1765.000000	13.279728
1766.000000	13.308935
1767.000000	13.337370
1768.000000	13.366075
1769.000000	13.395347
1770.000000	13.425550
1771.000000	13.455877
1772.000000	13.485512
1773.000000	13.515170
1774.000000	13.545813
1775.000000	13.575403
1776.000000	13.579493
1777.000000	13.584663
1778.000000	13.590530
1779.000000	13.597205
1780.000000	13.602562
1781.000000	13.608205
1782.000000	13.613513
1783.000000	13.619088
1784.000000	13.624180
1785.000000	13.628827
1786.000000	13.633425
1787.000000	13.636578
1788.000000	13.638800
1789.000000	13.640277
1790.000000	13.641140
1791.000000	13.641728
1792.000000	13.642295
1793.000000	13.642560
1794.000000	13.642355
1795.000000	13.642428
1796.000000	13.642555
1797.000000	13.642482
1798.000000	13.641653
1799.000000	13.640725
1800.000000	13.642103
1801.000000	13.645030
1802.000000	13.647560
1803.000000	13.648233
1804.000000	13.647720
1805.000000	13.648702
1806.000000	13.651810
1807.000000	13.654888
1808.000000	13.656412
1809.000000	13.656005
1810.000000	13.655045
1811.000000	13.655195
1812.000000	13.655475
1813.000000	13.655818
1814.000000	13.657708
1815.000000	13.659460
1816.000000	13.657740
1817.000000	13.650952
1818.000000	13.643550
1819.000000	13.641515
1820.000000	13.646225
1821.000000	13.653907
1822.000000	13.658938
1823.000000	13.658125
1824.000000	13.652785
1825.000000	13.645368
1826.000000	13.641410
1827.000000	13.645528
1828.000000	13.678138
1829.000000	13.707955
1830.000000	13.732440
1831.000000	13.751047
1832.000000	13.768087
1833.000000	13.787437
1834.000000	13.809748
1835.000000	13.835445
1836.000000	13.863972
1837.000000	13.891448
1838.000000	13.891955
1839.000000	13.892683
1840.000000	13.895505
1841.000000	13.905627
1842.000000	13.920422
1843.000000	13.932395
1844.000000	13.934158
1845.000000	13.926787
1846.000000	13.920255
1847.000000	13.924627
1848.000000	13.939112
1849.000000	13.950427
1850.000000	13.948245
1851.000000	13.933667
1852.000000	13.919068
1853.000000	13.914395
1854.000000	13.922313
1855.000000	13.935523
1856.000000	13.938823
1857.000000	13.927882
1858.000000	13.912027
1859.000000	13.901335
1860.000000	13.901143
1861.000000	13.905903
1862.000000	13.881295
1863.000000	13.872940
1864.000000	13.830840
1865.000000	13.784197
1866.000000	13.737932
1867.000000	13.691207
1868.000000	13.638977
1869.000000	13.586230
1870.000000	13.536565
1871.000000	13.489610
1872.000000	13.475207
1873.000000	13.443768
1874.000000	13.417595
1875.000000	13.396765
1876.000000	13.376640
1877.000000	13.355385
1878.000000	13.331523
1879.000000	13.298290
1880.000000	13.252222
1881.000000	13.173745
1882.000000	13.089055
1883.000000	13.000860
1884.000000	12.936673
1885.000000	12.869395
1886.000000	12.798917
1887.000000	12.722820
1888.000000	12.642558
1889.000000	12.539398
1890.000000	12.440597
1891.000000	12.371692
1892.000000	12.302870
1893.000000	12.228995
1894.000000	12.149520
1895.000000	12.037055
1896.000000	11.920728
1897.000000	11.806120
1898.000000	11.697745
1899.000000	11.618810
1900.000000	11.514447
1901.000000	11.403227
1902.000000	11.287210
1903.000000	11.172765
1904.000000	11.066510
1905.000000	10.973632
1906.000000	10.888298
1907.000000	10.805865
1908.000000	10.718788
1909.000000	10.622987
1910.000000	10.549577
1911.000000	10.480723
1912.000000	10.395150
1913.000000	10.317100
1914.000000	10.238167
1915.000000	10.178555
1916.000000	10.114440
1917.000000	10.048475
1918.000000	9.987147
1919.000000	9.935055
1920.000000	9.890807
1921.000000	9.849773
1922.000000	9.808022
1923.000000	9.762065
1924.000000	9.713593
1925.000000	9.666858
1926.000000	9.627792
1927.000000	9.594877
1928.000000	9.564760
1929.000000	9.534662
1930.000000	9.503872
1931.000000	9.471737
1932.000000	9.462700
1933.000000	9.455530
1934.000000	9.451635
1935.000000	9.448475
1936.000000	9.445260
1937.000000	9.443423
1938.000000	9.442950
1939.000000	9.443470
1940.000000	9.444845
1941.000000	9.446460
1942.000000	9.449718
1943.000000	9.454162
1944.000000	9.459627
1945.000000	9.467295
1946.000000	9.476558
1947.000000	9.484970
1948.000000	9.491972
1949.000000	9.498575
1950.000000	9.504255
1951.000000	9.510158
1952.000000	9.517565
1953.000000	9.527090
1954.000000	9.536335
1955.000000	9.546368
1956.000000	9.554323
1957.000000	9.563878
1958.000000	9.572933
1959.000000	9.583077
1960.000000	9.592848
1961.000000	9.604375
1962.000000	9.615238
1963.000000	9.649225
1964.000000	9.685002
1965.000000	9.717997
1966.000000	9.751432
1967.000000	9.783922
1968.000000	9.816635
1969.000000	9.849023
1970.000000	9.881010
1971.000000	9.912040
1972.000000	9.943193
1973.000000	9.950662
1974.000000	9.956153
1975.000000	9.962777
1976.000000	9.969523
1977.000000	9.976398
1978.000000	9.984208
1979.000000	9.991285
1980.000000	9.999025
1981.000000	10.007000
1982.000000	10.015170
1983.000000	10.022423
1984.000000	10.030183
1985.000000	10.038670
1986.000000	10.046803
1987.000000	10.054123
1988.000000	10.061210
1989.000000	10.069755
1990.000000	10.101610
1991.000000	10.134770
1992.000000	10.166948
1993.000000	10.198010
1994.000000	10.229397
1995.000000	10.260223
1996.000000	10.291310
1997.000000	10.322482
1998.000000	10.352383
1999.000000	10.381077
2000.000000	10.386883
2001.000000	10.391705
2002.000000	10.396707
2003.000000	10.401970
2004.000000	10.406988
2005.000000	10.412297
2006.000000	10.416203
2007.000000	10.419763
2008.000000	10.424077
2009.000000	10.425905
2010.000000	10.428033
2011.000000	10.429303
2012.000000	10.429965
2013.000000	10.430063
2014.000000	10.429478
2015.000000	10.427297
2016.000000	10.424820
2017.000000	10.422720
2018.000000	10.419643
2019.000000	10.416647
2020.000000	10.411295
2021.000000	10.404443
2022.000000	10.398010
2023.000000	10.390443
2024.000000	10.383125
2025.000000	10.375568
2026.000000	10.366900
2027.000000	10.356645
2028.000000	10.345485
2029.000000	10.334705
2030.000000	10.323602
2031.000000	10.311755
2032.000000	10.298672
2033.000000	10.284520
2034.000000	10.268902
2035.000000	10.253097
2036.000000	10.238405
2037.000000	10.222960
2038.000000	10.181235
2039.000000	10.138512
2040.000000	10.095733
2041.000000	10.053085
2042.000000	10.034857
2043.000000	9.992475
2044.000000	9.950112
2045.000000	9.907335
2046.000000	9.864410
2047.000000	9.821905
2048.000000	9.805122
2049.000000	9.789078
2050.000000	9.773162
2051.000000	9.759152
2052.000000	9.721880
2053.000000	9.710125
2054.000000	9.699737
2055.000000	9.691208
2056.000000	9.683998
2057.000000	9.678743
2058.000000	9.675860
2059.000000	9.674320
2060.000000	9.674665
2061.000000	9.675427
2062.000000	9.676993
2063.000000	9.680872
2064.000000	9.710970
2065.000000	9.715927
2066.000000	9.721692
2067.000000	9.753060
2068.000000	9.784875
2069.000000	9.817112
2070.000000	9.848970
2071.000000	9.880810
2072.000000	9.912725
2073.000000	9.944350
2074.000000	9.949827
2075.000000	9.980600
2076.000000	10.011273
2077.000000	10.015712
2078.000000	10.019450
2079.000000	10.022752
2080.000000	10.025885
2081.000000	10.028947
2082.000000	10.031712
2083.000000	10.033205
2084.000000	10.034280
2085.000000	10.034488
2086.000000	10.033312
2087.000000	10.032030
2088.000000	10.029667
2089.000000	10.026213
2090.000000	10.047925
2091.000000	10.043718
2092.000000	10.038512
2093.000000	10.058845
2094.000000	10.053775
2095.000000	10.047710
2096.000000	10.041815
2097.000000	10.060247
2098.000000	10.078190
2099.000000	10.096560
2100.000000	10.090335
2101.000000	10.109525
2102.000000	10.127765
2103.000000	10.118875
2104.000000	10.134987
2105.000000	10.152560
2106.000000	10.169792
2107.000000	10.161635
2108.000000	10.153960
2109.000000	10.144995
2110.000000	10.135118
2111.000000	10.125387
2112.000000	10.115615
2113.000000	10.107140
2114.000000	10.097625
2115.000000	10.086927
2116.000000	10.077135
2117.000000	10.067332
2118.000000	10.057047
2119.000000	10.047347
2120.000000	10.037553
2121.000000	10.026260
2122.000000	10.014720
2123.000000	10.002912
2124.000000	9.992290
2125.000000	9.981832
2126.000000	9.970665
2127.000000	9.958825
2128.000000	9.946895
2129.000000	9.935175
2130.000000	9.923180
2131.000000	9.910835
2132.000000	9.897882
2133.000000	9.884590
2134.000000	9.871638
2135.000000	9.858553
2136.000000	9.843792
2137.000000	9.804285
2138.000000	9.765097
2139.000000	9.750142
2140.000000	9.709330
2141.000000	9.693608
2142.000000	9.679035
2143.000000	9.664903
2144.000000	9.649838
2145.000000	9.634000
2146.000000	9.618545
2147.000000	9.603355
2148.000000	9.587433
2149.000000	9.546245
2150.000000	9.530683
2151.000000	9.490773
2152.000000	9.451683
2153.000000	9.411880
2154.000000	9.371562
2155.000000	9.332455
2156.000000	9.294340
2157.000000	9.280913
2158.000000	9.268980
2159.000000	9.258295
2160.000000	9.247405
2161.000000	9.236790
2162.000000	9.199938
2163.000000	9.164302
2164.000000	9.129680
2165.000000	9.119685
2166.000000	9.085360
2167.000000	9.052288
2168.000000	9.018605
2169.000000	8.983585
2170.000000	8.949255
2171.000000	8.915105
2172.000000	8.906612
2173.000000	8.898045
2174.000000	8.888265
2175.000000	8.852730
2176.000000	8.842095
2177.000000	8.830840
2178.000000	8.819435
2179.000000	8.809052
2180.000000	8.771850
2181.000000	8.733020
2182.000000	8.693388
2183.000000	8.651998
2184.000000	8.610083
2185.000000	8.566810
2186.000000	8.521477
2187.000000	8.473195
2188.000000	8.422680
2189.000000	8.368073
2190.000000	8.336118
2191.000000	8.302685
2192.000000	8.240238
2193.000000	8.199500
2194.000000	8.155188
2195.000000	8.106607
2196.000000	8.030013
2197.000000	7.950688
2198.000000	7.868673
2199.000000	7.786593
2200.000000	7.703328
2201.000000	7.593585
2202.000000	7.510823
2203.000000	7.403713
2204.000000	7.299005
2205.000000	7.198680
2206.000000	7.126440
2207.000000	7.059810
2208.000000	6.998797
2209.000000	6.942723
2210.000000	6.891570
2211.000000	6.871295
2212.000000	6.856247
2213.000000	6.847935
2214.000000	6.844760
2215.000000	6.846262
2216.000000	6.852490
2217.000000	6.861675
2218.000000	6.873750
2219.000000	6.888167
2220.000000	6.906185
2221.000000	6.925482
2222.000000	6.945753
2223.000000	6.965635
2224.000000	7.010510
2225.000000	7.055508
2226.000000	7.099058
2227.000000	7.117830
2228.000000	7.134987
2229.000000	7.150677
2230.000000	7.190005
2231.000000	7.228200
2232.000000	7.264777
2233.000000	7.299492
2234.000000	7.306620
2235.000000	7.312813
2236.000000	7.317365
2237.000000	7.344125
2238.000000	7.371273
2239.000000	7.396920
2240.000000	7.394978
2241.000000	7.391733
2242.000000	7.387235
2243.000000	7.382248
2244.000000	7.378673
2245.000000	7.398305
2246.000000	7.417550
2247.000000	7.412075
2248.000000	7.405387
2249.000000	7.398310
2250.000000	7.392565
2251.000000	7.387008
2252.000000	7.381733
2253.000000	7.378025
2254.000000	7.373183
2255.000000	7.369518
2256.000000	7.341978
2257.000000	7.364788
2258.000000	7.388143
2259.000000	7.412657
2260.000000	7.413460
2261.000000	7.415410
2262.000000	7.418810
2263.000000	7.421563
2264.000000	7.426260
2265.000000	7.405482
2266.000000	7.410795
2267.000000	7.417802
2268.000000	7.424808
2269.000000	7.432780
2270.000000	7.465085
2271.000000	7.497915
2272.000000	7.530495
2273.000000	7.564185
2274.000000	7.597483
2275.000000	7.631825
2276.000000	7.665977
2277.000000	7.673463
2278.000000	7.706562
2279.000000	7.714622
2280.000000	7.722837
2281.000000	7.730145
2282.000000	7.736643
2283.000000	7.743033
2284.000000	7.749230
2285.000000	7.755515
2286.000000	7.762310
2287.000000	7.768550
2288.000000	7.775197
2289.000000	7.806188
2290.000000	7.837287
2291.000000	7.868575
2292.000000	7.899908
2293.000000	7.931505
2294.000000	7.962470
2295.000000	7.992790
2296.000000	8.022655
2297.000000	8.054422
2298.000000	8.060202
2299.000000	8.065780
2300.000000	8.096835
2301.000000	8.103180
2302.000000	8.109300
2303.000000	8.114570
2304.000000	8.145920
2305.000000	8.177815
2306.000000	8.209410
2307.000000	8.240922
2308.000000	8.272955
2309.000000	8.305450
2310.000000	8.312408
2311.000000	8.344078
2312.000000	8.375953
2313.000000	8.407795
2314.000000	8.414542
2315.000000	8.420822
2316.000000	8.426670
2317.000000	8.431710
2318.000000	8.436113
2319.000000	8.440252
2320.000000	8.443592
2321.000000	8.445993
2322.000000	8.448645
2323.000000	8.475508
2324.000000	8.500715
2325.000000	8.525445
2326.000000	8.548868
2327.000000	8.572050
2328.000000	8.594785
2329.000000	8.616408
2330.000000	8.637968
2331.000000	8.659505
2332.000000	8.680550
2333.000000	8.676877
2334.000000	8.673317
2335.000000	8.669755
2336.000000	8.666972
2337.000000	8.663858
2338.000000	8.661317
2339.000000	8.659780
2340.000000	8.683677
2341.000000	8.682575
2342.000000	8.680985
2343.000000	8.680117
2344.000000	8.679942
2345.000000	8.680297
2346.000000	8.705840
2347.000000	8.731162
2348.000000	8.756598
2349.000000	8.782125
2350.000000	8.782388
2351.000000	8.808312
2352.000000	8.810250
2353.000000	8.836602
2354.000000	8.887060
2355.000000	8.912040
2356.000000	8.912907
2357.000000	8.914027
2358.000000	8.914495
2359.000000	8.915292
2360.000000	8.916350
2361.000000	8.917055
2362.000000	8.942030
2363.000000	8.966715
2364.000000	8.941890
2365.000000	8.942085
2366.000000	8.941702
2367.000000	8.941965
2368.000000	8.967142
2369.000000	8.991627
2370.000000	9.016212
2371.000000	9.015175
2372.000000	9.013662
2373.000000	8.987732
2374.000000	9.012550
2375.000000	9.037443
2376.000000	9.037140
2377.000000	9.061095
2378.000000	9.059703
2379.000000	9.032913
2380.000000	9.005655
2381.000000	9.028360
2382.000000	9.051613
2383.000000	9.074175
2384.000000	9.070417
2385.000000	9.041142
2386.000000	9.061455
2387.000000	9.031385
2388.000000	9.026770
2389.000000	9.046855
2390.000000	9.066228
2391.000000	9.061330
2392.000000	9.080665
2393.000000	9.099098
2394.000000	9.117980
2395.000000	9.136495
2396.000000	9.155050
2397.000000	9.198850
2398.000000	9.217377
2399.000000	9.235373
2400.000000	9.252607
2401.000000	9.269035
2402.000000	9.260570
2403.000000	9.227870
2404.000000	9.219485
2405.000000	9.235162
2406.000000	9.200363
2407.000000	9.165800
2408.000000	9.154923
2409.000000	9.143463
2410.000000	9.133355
2411.000000	9.122703
2412.000000	9.111477
2413.000000	9.124947
2414.000000	9.113695
2415.000000	9.077567
2416.000000	9.065252
2417.000000	9.075415
2418.000000	9.035297
2419.000000	9.020515
2420.000000	8.980295
2421.000000	8.965430
2422.000000	8.950712
2423.000000	8.934748
2424.000000	8.917207
2425.000000	8.949840
2426.000000	8.957990
2427.000000	8.942913
2428.000000	8.952940
2429.000000	8.938568
2430.000000	8.948102
2431.000000	8.956935
2432.000000	8.966447
2433.000000	8.976063
2434.000000	8.986875
2435.000000	8.947692
2436.000000	8.933868
2437.000000	8.970093
2438.000000	9.005745
2439.000000	8.990787
2440.000000	9.001600
2441.000000	9.012055
2442.000000	8.996287
2443.000000	9.030855
2444.000000	9.015110
2445.000000	9.049918
2446.000000	9.060055
2447.000000	9.044637
2448.000000	9.005345
2449.000000	9.016400
2450.000000	9.026547
2451.000000	9.037180
2452.000000	9.098730
2453.000000	9.110758
2454.000000	9.174333
2455.000000	9.236987
2456.000000	9.348445
2457.000000	9.359352
2458.000000	9.396252
2459.000000	9.458590
2460.000000	9.518978
2461.000000	9.531502
2462.000000	9.544968
2463.000000	9.557990
2464.000000	9.593692
2465.000000	9.579187
2466.000000	9.592012
2467.000000	9.681775
2468.000000	9.797355
2469.000000	9.836572
2470.000000	9.880285
2471.000000	9.970525
2472.000000	10.061108
2473.000000	10.177165
2474.000000	10.246100
2475.000000	10.366288
2476.000000	10.435543
2477.000000	10.531035
2478.000000	10.624278
2479.000000	10.847413
2480.000000	11.018890
2481.000000	11.168238
2482.000000	11.339640
2483.000000	11.488553
2484.000000	11.711042
2485.000000	11.758793
2486.000000	11.906030
2487.000000	12.032175
2488.000000	12.180087
2489.000000	12.276837
2490.000000	12.398948
2491.000000	12.623830
2492.000000	12.798775
2493.000000	12.871080
2494.000000	13.048633
2495.000000	13.329242
2496.000000	13.605367
2497.000000	13.803002
2498.000000	13.927582
2499.000000	14.105758
2500.000000	14.312025
2501.000000	17.905220
2502.000000	21.600975
2503.000000	25.497885
2504.000000	29.140432
2505.000000	33.230620
2506.000000	37.126462
2507.000000	40.995773
2508.000000	45.093157
2509.000000	49.210362
2510.000000	53.100000
2511.000000	53.800000
2512.000000	54.300000
2513.000000	55.000000
2514.000000	55.900000
2515.000000	56.800000
2516.000000	57.800000
2517.000000	58.700000
2518.000000	58.700000
2519.000000	59.400000
2520.000000	60.500000
2521.000000	61.600000
2522.000000	63.000000
2523.000000	64.000000
2524.000000	65.200000
2525.000000	66.200000
2526.000000	66.800000
2527.000000	67.900000
2528.000000	69.500000
2529.000000	70.400000
2530.000000	71.700000
2531.000000	72.600000
2532.000000	73.100000
2533.000000	74.000000
2534.000000	74.600000
2535.000000	74.500000
2536.000000	75.100000
2537.000000	75.200000
2538.000000	76.100000
2539.000000	77.200000
2540.000000	77.900000
2541.000000	78.500000
2542.000000	79.700000
2543.000000	80.600000
2544.000000	81.700000
2545.000000	82.800000
2546.000000	83.800000
2547.000000	85.600000
2548.000000	86.900000
2549.000000	87.400000
2550.000000	88.400000
2551.000000	89.100000
2552.000000	88.600000
2553.000000	88.500000
2554.000000	89.000000
2555.000000	89.600000
2556.000000	89.900000
2557.000000	89.900000
2558.000000	90.300000
2559.000000	90.800000
2560.000000	90.700000
2561.000000	91.100000
2562.000000	91.800000
2563.000000	92.100000
2564.000000	91.800000
2565.000000	91.900000
2566.000000	92.100000
2567.000000	92.400000
2568.000000	92.000000
2569.000000	91.900000
2570.000000	92.200000
2571.000000	93.000000
2572.000000	93.900000
2573.000000	94.400000
2574.000000	94.600000
2575.000000	95.100000
2576.000000	95.400000
2577.000000	95.300000
2578.000000	95.400000
2579.000000	95.400000
2580.000000	95.100000
2581.000000	94.500000
2582.000000	94.400000
2583.000000	94.600000
2584.000000	95.300000
2585.000000	95.800000
2586.000000	95.800000
2587.000000	96.100000
2588.000000	97.100000
2589.000000	98.400000
2590.000000	99.100000
2591.000000	99.100000
2592.000000	98.700000
2593.000000	98.200000
2594.000000	97.300000
2595.000000	96.600000
2596.000000	96.900000
2597.000000	97.100000
2598.000000	97.200000
2599.000000	97.200000
2600.000000	96.900000
2601.000000	96.600000
2602.000000	96.900000
2603.000000	97.700000
2604.000000	98.700000
2605.000000	99.700000
2606.000000	100.000000
2607.000000	100.100000
2608.000000	99.600000
2609.000000	99.000000
2610.000000	98.900000
2611.000000	99.900000
2612.000000	100.800000
2613.000000	100.600000
2614.000000	100.000000
2615.000000	99.300000
2616.000000	99.100000
2617.000000	99.000000
2618.000000	98.400000
2619.000000	98.000000
2620.000000	98.600000
2621.000000	98.400000
2622.000000	97.800000
2623.000000	98.100000
2624.000000	98.500000
2625.000000	99.100000
2626.000000	99.600000
2627.000000	100.000000
2628.000000	100.700000
2629.000000	101.100000
2630.000000	101.000000
2631.000000	101.300000
2632.000000	101.200000
2633.000000	101.300000
2634.000000	101.200000
2635.000000	100.100000
2636.000000	100.000000
2637.000000	100.200000
2638.000000	100.200000
2639.000000	100.200000
2640.000000	99.900000
2641.000000	99.200000
2642.000000	99.500000
2643.000000	99.100000
2644.000000	98.600000
2645.000000	99.300000
2646.000000	98.900000
2647.000000	98.100000
2648.000000	98.100000
2649.000000	98.400000
2650.000000	98.200000
2651.000000	99.000000
2652.000000	99.500000
2653.000000	99.800000
2654.000000	100.300000
2655.000000	100.800000
2656.000000	100.900000
2657.000000	101.200000
2658.000000	101.000000
2659.000000	100.300000
2660.000000	101.200000
2661.000000	101.800000
2662.000000	101.600000
2663.000000	101.600000
2664.000000	102.100000
2665.000000	101.500000
2666.000000	100.600000
2667.000000	100.300000
2668.000000	100.800000
2669.000000	101.300000
2670.000000	100.900000
2671.000000	100.100000
2672.000000	100.600000
2673.000000	100.900000
2674.000000	99.500000
2675.000000	98.500000
2676.000000	99.600000
2677.000000	100.300000
2678.000000	100.100000
2679.000000	99.900000
2680.000000	99.800000
2681.000000	99.100000
2682.000000	98.600000
2683.000000	98.200000
2684.000000	98.600000
2685.000000	99.500000
2686.000000	99.400000
2687.000000	99.300000
2688.000000	98.800000
2689.000000	99.200000
2690.000000	99.700000
2691.000000	100.700000
2692.000000	101.000000
2693.000000	101.000000
2694.000000	102.100000
2695.000000	103.500000
2696.000000	103.400000
2697.000000	103.300000
2698.000000	104.200000
2699.000000	103.700000
2700.000000	103.100000
2701.000000	102.200000
2702.000000	101.700000
2703.000000	101.900000
2704.000000	101.600000
2705.000000	101.000000
2706.000000	101.100000
2707.000000	100.400000
2708.000000	99.500000
2709.000000	99.300000
2710.000000	99.100000
2711.000000	99.000000
2712.000000	99.600000
2713.000000	98.900000
2714.000000	97.500000
2715.000000	97.000000
2716.000000	96.200000
2717.000000	95.900000
2718.000000	95.800000
2719.000000	95.400000
2720.000000	96.000000
2721.000000	95.300000
2722.000000	94.200000
2723.000000	94.000000
2724.000000	95.400000
2725.000000	94.400000
2726.000000	95.100000
2727.000000	95.300000
2728.000000	95.300000
2729.000000	95.900000
2730.000000	96.400000
2731.000000	96.900000
2732.000000	97.500000
2733.000000	98.100000
2734.000000	97.700000
2735.000000	97.900000
2736.000000	98.100000
2737.000000	98.200000
2738.000000	98.700000
2739.000000	98.500000
2740.000000	96.400000
2741.000000	96.800000
2742.000000	95.600000
2743.000000	96.300000
2744.000000	97.100000
2745.000000	98.600000
2746.000000	98.400000
2747.000000	98.700000
2748.000000	99.900000
2749.000000	101.000000
2750.000000	102.000000
2751.000000	102.800000
2752.000000	102.900000
2753.000000	102.500000
2754.000000	102.100000
2755.000000	100.900000
2756.000000	101.000000
2757.000000	101.100000
2758.000000	99.600000
2759.000000	99.600000
2760.000000	99.600000
2761.000000	100.300000
2762.000000	100.700000
2763.000000	100.100000
2764.000000	98.900000
2765.000000	99.500000
2766.000000	99.400000
2767.000000	99.200000
2768.000000	98.500000
2769.000000	98.100000
2770.000000	98.700000
2771.000000	97.600000
2772.000000	97.700000
2773.000000	98.000000
2774.000000	98.200000
2775.000000	97.800000
2776.000000	97.400000
2777.000000	97.700000
2778.000000	98.100000
2779.000000	98.300000
2780.000000	98.400000
2781.000000	97.300000
2782.000000	97.400000
2783.000000	97.700000
2784.000000	98.900000
2785.000000	98.400000
2786.000000	98.600000
2787.000000	97.900000
2788.000000	97.800000
2789.000000	96.600000
2790.000000	95.100000
2791.000000	96.300000
2792.000000	95.900000
2793.000000	96.200000
2794.000000	96.800000
2795.000000	97.500000
2796.000000	97.800000
2797.000000	98.000000
2798.000000	98.300000
2799.000000	99.600000
2800.000000	100.600000
2801.000000	101.000000
2802.000000	102.000000
2803.000000	101.400000
2804.000000	100.200000
2805.000000	99.200000
2806.000000	98.300000
2807.000000	97.900000
2808.000000	97.900000
2809.000000	96.900000
2810.000000	96.400000
2811.000000	94.900000
2812.000000	94.100000
2813.000000	94.100000
2814.000000	94.600000
2815.000000	95.100000
2816.000000	96.300000
2817.000000	97.600000
2818.000000	97.400000
2819.000000	96.900000
2820.000000	97.100000
2821.000000	97.100000
2822.000000	96.600000
2823.000000	95.900000
2824.000000	95.000000
2825.000000	95.100000
2826.000000	94.700000
2827.000000	93.400000
2828.000000	93.400000
2829.000000	94.200000
2830.000000	94.800000
2831.000000	95.900000
2832.000000	96.300000
2833.000000	96.800000
2834.000000	97.100000
2835.000000	97.800000
2836.000000	98.400000
2837.000000	99.100000
2838.000000	99.500000
2839.000000	100.800000
2840.000000	100.800000
2841.000000	100.200000
2842.000000	100.000000
2843.000000	99.500000
2844.000000	98.600000
2845.000000	97.300000
2846.000000	96.100000
2847.000000	95.100000
2848.000000	94.200000
2849.000000	93.100000
2850.000000	92.900000
2851.000000	93.000000
2852.000000	93.700000
2853.000000	94.500000
2854.000000	95.900000
2855.000000	96.700000
2856.000000	97.700000
2857.000000	99.000000
2858.000000	100.100000
2859.000000	99.800000
2860.000000	98.600000
2861.000000	98.100000
2862.000000	97.500000
2863.000000	97.700000
2864.000000	97.900000
2865.000000	97.900000
2866.000000	97.000000
2867.000000	96.300000
2868.000000	95.700000
2869.000000	95.900000
2870.000000	96.400000
2871.000000	97.400000
2872.000000	99.000000
2873.000000	100.100000
2874.000000	100.600000
2875.000000	100.200000
2876.000000	99.600000
2877.000000	99.600000
2878.000000	99.100000
2879.000000	97.800000
2880.000000	98.500000
2881.000000	97.800000
2882.000000	95.700000
2883.000000	94.000000
2884.000000	93.300000
2885.000000	94.300000
2886.000000	95.100000
2887.000000	94.800000
2888.000000	95.500000
2889.000000	96.600000
2890.000000	96.200000
2891.000000	95.900000
2892.000000	97.400000
2893.000000	98.100000
2894.000000	98.200000
2895.000000	97.800000
2896.000000	96.700000
2897.000000	96.000000
2898.000000	95.300000
2899.000000	95.100000
2900.000000	94.600000
2901.000000	95.200000
2902.000000	93.800000
2903.000000	92.900000
2904.000000	92.500000
2905.000000	91.500000
2906.000000	92.600000
2907.000000	94.100000
2908.000000	94.200000
2909.000000	92.700000
2910.000000	92.900000
2911.000000	92.900000
2912.000000	93.300000
2913.000000	95.800000
2914.000000	97.700000
2915.000000	98.500000
2916.000000	99.300000
2917.000000	99.500000
2918.000000	101.100000
2919.000000	104.100000
2920.000000	105.700000
2921.000000	104.100000
2922.000000	103.500000
2923.000000	100.900000
2924.000000	97.400000
2925.000000	96.400000
2926.000000	94.300000
2927.000000	93.600000
2928.000000	90.400000
2929.000000	86.800000
2930.000000	85.500000
2931.000000	85.600000
2932.000000	82.800000
2933.000000	85.200000
2934.000000	85.100000
2935.000000	84.800000
2936.000000	87.700000
2937.000000	85.600000
2938.000000	86.000000
2939.000000	87.800000
2940.000000	86.500000
2941.000000	83.100000
2942.000000	83.500000
2943.000000	78.800000
2944.000000	74.100000
2945.000000	72.900000
2946.000000	69.800000
2947.000000	68.600000
2948.000000	65.000000
2949.000000	60.500000
2950.000000	61.100000
2951.000000	61.600000
2952.000000	1059.500000
2953.000000	1275.900000
2954.000000	1274.800000
2955.000000	1274.700000
2956.000000	1271.700000
2957.000000	1285.000000
2958.000000	1288.500000
2959.000000	1272.200000
2960.000000	1275.200000
2961.000000	1339.500000
2962.000000	380.900000
2963.000000	175.800000
2964.000000	196.900000
2965.000000	236.000000
2966.000000	240.500000
2967.000000	226.600000
2968.000000	235.800000
2969.000000	327.900000
2970.000000	344.200000
2971.000000	287.000000
2972.000000	257.000000
2973.000000	250.200000
2974.000000	237.500000
2975.000000	210.300000
2976.000000	214.300000
2977.000000	220.700000
2978.000000	215.000000
2979.000000	148.000000
2980.000000	134.100000
2981.000000	134.200000
2982.000000	129.500000
2983.000000	130.200000
2984.000000	132.400000
2985.000000	125.400000
2986.000000	124.100000
2987.000000	123.600000
2988.000000	122.600000
2989.000000	122.200000
2990.000000	120.500000
2991.000000	119.800000
2992.000000	119.300000
2993.000000	119.300000
2994.000000	118.100000
2995.000000	116.800000
2996.000000	115.300000
2997.000000	114.800000
2998.000000	114.900000
2999.000000	112.700000
3000.000000	111.400000
