PE UV       SUBTECH     SPECTRUM    ASCII       PEDS        4.00        
   -1
INBUCR0111-5.Sample.ASC
24/02/09
16:30:28.00
24/02/09
16:30:28.00
Vinicio Soto Monge
Strigidia belti. Color verde oscuro metálico con ambos élitros (Det: A.Solís) COSTA RICA Prov. Alajuela. San Ramón. Est. Biol. Villa Blanca. 1115m 23 25 MAY 2009 R. Rojas Tp. Luz Mercurio  L_N_242482 483371 #97135 INB0004224190 
250,000000
1
Lambda 1050
1050L1511233
PerkinElmer UV WinLab 6.3.2.0749 / 2.02.05 Lambda 900 UV/VIS/NIR, Aug  7 2015 09:38:08

0
0
3350/servo 860,8/2
0
0
UV/VIS
1
1
1
DoubleDePol,CommonBeamDepol,RBeamAtt,SBeamAtt,60mm sphere, WB InGaAs Detector
0
0
0
0
Program
Program
3350/servo 860,8/2
3350/0,2 860,8/0,2
3350/0,2 860,8/0,2
0
15.00
 
 
 
0
 
860,8
319,2
860,8
Front
100
on
S:100 R:100
0
0
0
0
 
0
 
 
 
0
 
 
0
0
0
0
0
 
 
 
 
0
0


0
0
#HDR
-1
-1
#GR
nm
%R
1.0
0.0
2500,000000
-1,000000
2251
8
19,579500
1,493300
#DATA

250.000000	nan
251.000000	nan
252.000000	nan
253.000000	nan
254.000000	nan
255.000000	nan
256.000000	nan
257.000000	nan
258.000000	nan
259.000000	4.872779
260.000000	4.891881
261.000000	4.909739
262.000000	4.900879
263.000000	4.890472
264.000000	4.856607
265.000000	4.824813
266.000000	4.792470
267.000000	4.760184
268.000000	4.724598
269.000000	4.714885
270.000000	4.678382
271.000000	4.647126
272.000000	4.636513
273.000000	4.603704
274.000000	4.598486
275.000000	4.590239
276.000000	4.581624
277.000000	4.574320
278.000000	4.568263
279.000000	4.561028
280.000000	4.559165
281.000000	4.550585
282.000000	4.548087
283.000000	4.548131
284.000000	4.542801
285.000000	4.537408
286.000000	4.536279
287.000000	4.532809
288.000000	4.533164
289.000000	4.534828
290.000000	4.556480
291.000000	4.580573
292.000000	4.579597
293.000000	4.575400
294.000000	4.574376
295.000000	4.577436
296.000000	4.576820
297.000000	4.574460
298.000000	4.570139
299.000000	4.567544
300.000000	4.563952
301.000000	4.533319
302.000000	4.527900
303.000000	4.552086
304.000000	4.573533
305.000000	4.592293
306.000000	4.612657
307.000000	4.636481
308.000000	4.659011
309.000000	4.684622
310.000000	4.687391
311.000000	4.715782
312.000000	4.739741
313.000000	4.737789
314.000000	4.736165
315.000000	4.734887
316.000000	4.738437
317.000000	4.783961
318.000000	4.836254
319.000000	4.859023
320.000000	4.887503
321.000000	4.915085
322.000000	4.948244
323.000000	4.977251
324.000000	4.999944
325.000000	5.015183
326.000000	5.030398
327.000000	4.996002
328.000000	4.965701
329.000000	4.958484
330.000000	4.949421
331.000000	4.941968
332.000000	4.935937
333.000000	4.927914
334.000000	4.926431
335.000000	4.921458
336.000000	4.914294
337.000000	4.916478
338.000000	4.907166
339.000000	4.906905
340.000000	4.893389
341.000000	4.887677
342.000000	4.878438
343.000000	4.871543
344.000000	4.862649
345.000000	4.857589
346.000000	4.851935
347.000000	4.842716
348.000000	4.834676
349.000000	4.817646
350.000000	4.815758
351.000000	4.804060
352.000000	4.787362
353.000000	4.775530
354.000000	4.766769
355.000000	4.766277
356.000000	4.764505
357.000000	4.762429
358.000000	4.760480
359.000000	4.761375
360.000000	4.755633
361.000000	4.754865
362.000000	4.754474
363.000000	4.755331
364.000000	4.754070
365.000000	4.749747
366.000000	4.745397
367.000000	4.739919
368.000000	4.732116
369.000000	4.721028
370.000000	4.708785
371.000000	4.694425
372.000000	4.684338
373.000000	4.664770
374.000000	4.646328
375.000000	4.634965
376.000000	4.630115
377.000000	4.617036
378.000000	4.606126
379.000000	4.597058
380.000000	4.590842
381.000000	4.585831
382.000000	4.579197
383.000000	4.577578
384.000000	4.578179
385.000000	4.573168
386.000000	4.560667
387.000000	4.560082
388.000000	4.559481
389.000000	4.559106
390.000000	4.558660
391.000000	4.557538
392.000000	4.557403
393.000000	4.557542
394.000000	4.557159
395.000000	4.556780
396.000000	4.556354
397.000000	4.556237
398.000000	4.556717
399.000000	4.556558
400.000000	4.556396
401.000000	4.556427
402.000000	4.555829
403.000000	4.555661
404.000000	4.556100
405.000000	4.556672
406.000000	4.557284
407.000000	4.557845
408.000000	4.558222
409.000000	4.558746
410.000000	4.559202
411.000000	4.559959
412.000000	4.560748
413.000000	4.561049
414.000000	4.560947
415.000000	4.560795
416.000000	4.560826
417.000000	4.560613
418.000000	4.560288
419.000000	4.560622
420.000000	4.560950
421.000000	4.561045
422.000000	4.561708
423.000000	4.562308
424.000000	4.562910
425.000000	4.563552
426.000000	4.563921
427.000000	4.563882
428.000000	4.564505
429.000000	4.565009
430.000000	4.565316
431.000000	4.565964
432.000000	4.566306
433.000000	4.566450
434.000000	4.566822
435.000000	4.567653
436.000000	4.568793
437.000000	4.570185
438.000000	4.571017
439.000000	4.571963
440.000000	4.573067
441.000000	4.574026
442.000000	4.574943
443.000000	4.576136
444.000000	4.577220
445.000000	4.577894
446.000000	4.578112
447.000000	4.578617
448.000000	4.579543
449.000000	4.580073
450.000000	4.580382
451.000000	4.580460
452.000000	4.580708
453.000000	4.581161
454.000000	4.581623
455.000000	4.581674
456.000000	4.581756
457.000000	4.581660
458.000000	4.581350
459.000000	4.581295
460.000000	4.581495
461.000000	4.582169
462.000000	4.582838
463.000000	4.583231
464.000000	4.583371
465.000000	4.584104
466.000000	4.585210
467.000000	4.586035
468.000000	4.586586
469.000000	4.587255
470.000000	4.587896
471.000000	4.587956
472.000000	4.588016
473.000000	4.587869
474.000000	4.588138
475.000000	4.588401
476.000000	4.588168
477.000000	4.588020
478.000000	4.588223
479.000000	4.588263
480.000000	4.587972
481.000000	4.587896
482.000000	4.587817
483.000000	4.588292
484.000000	4.588842
485.000000	4.589759
486.000000	4.591548
487.000000	4.593454
488.000000	4.595635
489.000000	4.598239
490.000000	4.601532
491.000000	4.605530
492.000000	4.610212
493.000000	4.615054
494.000000	4.620255
495.000000	4.649487
496.000000	4.679113
497.000000	4.709326
498.000000	4.739311
499.000000	4.769258
500.000000	4.799666
501.000000	4.830219
502.000000	4.860666
503.000000	4.891536
504.000000	4.922585
505.000000	4.930168
506.000000	4.938064
507.000000	4.946818
508.000000	4.956744
509.000000	4.967534
510.000000	4.978938
511.000000	4.991490
512.000000	5.005356
513.000000	5.020897
514.000000	5.038022
515.000000	5.057093
516.000000	5.077872
517.000000	5.100678
518.000000	5.125901
519.000000	5.153922
520.000000	5.185316
521.000000	5.219986
522.000000	5.258014
523.000000	5.299323
524.000000	5.344581
525.000000	5.393520
526.000000	5.446867
527.000000	5.503908
528.000000	5.565244
529.000000	5.631071
530.000000	5.701352
531.000000	5.775890
532.000000	5.854870
533.000000	5.938311
534.000000	6.050140
535.000000	6.165747
536.000000	6.284979
537.000000	6.408553
538.000000	6.535737
539.000000	6.666187
540.000000	6.798498
541.000000	6.957773
542.000000	7.119258
543.000000	7.282388
544.000000	7.422018
545.000000	7.563023
546.000000	7.703630
547.000000	7.867580
548.000000	8.029503
549.000000	8.188656
550.000000	8.344760
551.000000	8.472875
552.000000	8.619592
553.000000	8.759781
554.000000	8.894048
555.000000	9.020168
556.000000	9.138150
557.000000	9.223092
558.000000	9.298631
559.000000	9.364394
560.000000	9.410329
561.000000	9.467586
562.000000	9.490114
563.000000	9.502041
564.000000	9.502204
565.000000	9.492441
566.000000	9.448287
567.000000	9.394732
568.000000	9.332172
569.000000	9.261891
570.000000	9.193422
571.000000	9.096518
572.000000	8.993650
573.000000	8.886670
574.000000	8.751994
575.000000	8.614748
576.000000	8.500887
577.000000	8.386418
578.000000	8.273492
579.000000	8.162003
580.000000	8.029884
581.000000	7.900687
582.000000	7.777688
583.000000	7.660587
584.000000	7.574939
585.000000	7.495933
586.000000	7.425121
587.000000	7.363741
588.000000	7.310323
589.000000	7.265870
590.000000	7.254951
591.000000	7.253034
592.000000	7.258377
593.000000	7.270945
594.000000	7.291087
595.000000	7.317095
596.000000	7.347415
597.000000	7.379830
598.000000	7.414281
599.000000	7.473774
600.000000	7.531597
601.000000	7.587422
602.000000	7.640709
603.000000	7.689785
604.000000	7.733753
605.000000	7.772612
606.000000	7.805099
607.000000	7.832264
608.000000	7.854875
609.000000	7.847854
610.000000	7.836430
611.000000	7.821099
612.000000	7.803215
613.000000	7.782863
614.000000	7.761132
615.000000	7.739010
616.000000	7.693286
617.000000	7.649051
618.000000	7.606330
619.000000	7.565320
620.000000	7.527746
621.000000	7.494467
622.000000	7.464231
623.000000	7.439014
624.000000	7.416439
625.000000	7.397888
626.000000	7.407634
627.000000	7.420145
628.000000	7.435649
629.000000	7.478948
630.000000	7.524521
631.000000	7.570914
632.000000	7.618493
633.000000	7.667134
634.000000	7.716294
635.000000	7.765191
636.000000	7.814199
637.000000	7.863396
638.000000	7.911262
639.000000	7.933692
640.000000	7.954633
641.000000	7.975592
642.000000	7.996003
643.000000	8.014968
644.000000	8.034227
645.000000	8.053421
646.000000	8.071750
647.000000	8.090232
648.000000	8.109671
649.000000	8.130388
650.000000	8.152304
651.000000	8.174987
652.000000	8.198400
653.000000	8.223411
654.000000	8.250005
655.000000	8.278897
656.000000	8.309543
657.000000	8.340955
658.000000	8.398782
659.000000	8.457464
660.000000	8.518163
661.000000	8.580339
662.000000	8.644030
663.000000	8.708763
664.000000	8.774921
665.000000	8.841330
666.000000	8.909128
667.000000	8.977381
668.000000	9.021002
669.000000	9.064899
670.000000	9.109033
671.000000	9.152808
672.000000	9.196402
673.000000	9.239394
674.000000	9.281517
675.000000	9.323500
676.000000	9.364904
677.000000	9.405619
678.000000	9.445932
679.000000	9.510886
680.000000	9.575859
681.000000	9.640770
682.000000	9.706285
683.000000	9.773173
684.000000	9.840518
685.000000	9.908157
686.000000	9.976149
687.000000	10.046254
688.000000	10.117675
689.000000	10.165542
690.000000	10.214101
691.000000	10.288223
692.000000	10.363735
693.000000	10.440730
694.000000	10.518946
695.000000	10.597875
696.000000	10.678070
697.000000	10.758786
698.000000	10.839999
699.000000	10.921595
700.000000	11.003506
701.000000	11.060007
702.000000	11.115488
703.000000	11.169556
704.000000	11.222604
705.000000	11.275824
706.000000	11.352255
707.000000	11.427517
708.000000	11.502869
709.000000	11.578292
710.000000	11.652898
711.000000	11.728697
712.000000	11.806850
713.000000	11.886280
714.000000	11.966920
715.000000	12.048588
716.000000	12.107877
717.000000	12.192955
718.000000	12.278305
719.000000	12.364668
720.000000	12.452922
721.000000	12.541423
722.000000	12.629519
723.000000	12.716891
724.000000	12.802698
725.000000	12.889213
726.000000	12.975495
727.000000	13.035664
728.000000	13.094879
729.000000	13.176310
730.000000	13.255838
731.000000	13.336148
732.000000	13.416309
733.000000	13.495393
734.000000	13.576165
735.000000	13.655285
736.000000	13.733123
737.000000	13.812765
738.000000	13.894046
739.000000	13.975751
740.000000	14.058224
741.000000	14.141056
742.000000	14.224163
743.000000	14.309252
744.000000	14.395152
745.000000	14.481617
746.000000	14.567941
747.000000	14.654312
748.000000	14.741249
749.000000	14.805012
750.000000	14.893237
751.000000	14.980339
752.000000	15.065941
753.000000	15.150844
754.000000	15.233953
755.000000	15.316511
756.000000	15.400113
757.000000	15.486561
758.000000	15.570399
759.000000	15.651434
760.000000	15.709525
761.000000	15.793181
762.000000	15.878587
763.000000	15.964204
764.000000	16.050113
765.000000	16.138287
766.000000	16.226888
767.000000	16.313801
768.000000	16.402585
769.000000	16.496037
770.000000	16.586910
771.000000	16.654192
772.000000	16.747593
773.000000	16.840663
774.000000	16.932542
775.000000	17.023024
776.000000	17.115864
777.000000	17.207893
778.000000	17.300864
779.000000	17.392691
780.000000	17.485043
781.000000	17.575883
782.000000	17.663435
783.000000	17.752679
784.000000	17.845136
785.000000	17.936669
786.000000	18.026939
787.000000	18.119471
788.000000	18.210732
789.000000	18.301785
790.000000	18.399510
791.000000	18.496286
792.000000	18.569375
793.000000	18.665537
794.000000	18.761418
795.000000	18.862119
796.000000	18.961820
797.000000	19.059622
798.000000	19.158643
799.000000	19.257477
800.000000	19.350714
801.000000	19.445843
802.000000	19.543347
803.000000	19.642638
804.000000	19.737043
805.000000	19.832541
806.000000	19.929154
807.000000	20.026420
808.000000	20.126542
809.000000	20.223153
810.000000	20.322539
811.000000	20.427180
812.000000	20.526405
813.000000	20.602858
814.000000	20.679435
815.000000	20.778398
816.000000	20.874982
817.000000	20.973412
818.000000	21.071153
819.000000	21.167291
820.000000	21.264640
821.000000	21.354435
822.000000	21.445443
823.000000	21.538286
824.000000	21.634664
825.000000	21.706202
826.000000	21.808931
827.000000	21.899900
828.000000	21.985375
829.000000	22.074612
830.000000	22.162917
831.000000	22.253068
832.000000	22.342943
833.000000	22.424245
834.000000	22.505680
835.000000	22.595147
836.000000	22.643888
837.000000	22.702594
838.000000	22.793420
839.000000	22.879936
840.000000	22.959651
841.000000	23.040138
842.000000	23.117501
843.000000	23.205669
844.000000	23.296516
845.000000	23.360182
846.000000	23.443219
847.000000	23.517614
848.000000	23.550862
849.000000	23.609896
850.000000	23.652405
851.000000	23.698586
852.000000	23.760486
853.000000	23.805949
854.000000	23.852690
855.000000	23.926413
856.000000	23.980952
857.000000	24.074252
858.000000	24.707121
859.000000	24.824227
860.000000	24.962297
861.000000	25.088032
862.000000	25.198762
863.000000	25.323551
864.000000	25.450418
865.000000	25.528288
866.000000	25.606359
867.000000	25.672327
868.000000	25.164312
869.000000	25.162526
870.000000	25.133482
871.000000	25.087720
872.000000	25.063496
873.000000	25.019696
874.000000	24.976406
875.000000	24.950610
876.000000	24.915846
877.000000	24.878976
878.000000	24.879558
879.000000	24.844690
880.000000	24.837034
881.000000	24.836612
882.000000	24.835322
883.000000	24.826112
884.000000	24.829748
885.000000	24.816562
886.000000	24.811198
887.000000	24.791528
888.000000	24.777740
889.000000	24.792984
890.000000	24.783634
891.000000	24.760642
892.000000	24.749054
893.000000	24.750904
894.000000	24.716558
895.000000	24.713082
896.000000	24.712606
897.000000	24.704426
898.000000	24.681838
899.000000	24.675210
900.000000	24.687404
901.000000	24.727438
902.000000	24.711450
903.000000	24.699814
904.000000	24.692256
905.000000	24.700840
906.000000	24.712692
907.000000	24.717376
908.000000	24.733556
909.000000	24.746286
910.000000	24.741778
911.000000	24.740144
912.000000	24.756640
913.000000	24.769354
914.000000	24.795490
915.000000	24.804704
916.000000	24.822800
917.000000	24.849194
918.000000	24.874680
919.000000	24.877654
920.000000	24.900030
921.000000	24.920374
922.000000	24.945868
923.000000	24.972872
924.000000	24.994752
925.000000	25.018890
926.000000	25.040926
927.000000	25.064026
928.000000	25.084952
929.000000	25.107706
930.000000	25.126706
931.000000	25.136432
932.000000	25.147464
933.000000	25.167738
934.000000	25.191762
935.000000	25.213596
936.000000	25.227338
937.000000	25.239270
938.000000	25.258424
939.000000	25.276740
940.000000	25.295638
941.000000	25.318054
942.000000	25.344376
943.000000	25.365914
944.000000	25.384324
945.000000	25.407252
946.000000	25.428514
947.000000	25.453812
948.000000	25.474948
949.000000	25.494470
950.000000	25.514614
951.000000	25.540600
952.000000	25.583828
953.000000	25.604550
954.000000	25.626856
955.000000	25.645418
956.000000	25.689022
957.000000	25.726218
958.000000	25.760820
959.000000	25.800172
960.000000	25.841392
961.000000	25.879200
962.000000	25.892742
963.000000	25.929368
964.000000	25.965792
965.000000	26.001840
966.000000	26.013336
967.000000	26.029172
968.000000	26.051170
969.000000	26.068484
970.000000	26.083778
971.000000	26.098250
972.000000	26.117276
973.000000	26.134712
974.000000	26.149694
975.000000	26.165786
976.000000	26.184628
977.000000	26.201830
978.000000	26.215664
979.000000	26.229506
980.000000	26.244762
981.000000	26.259606
982.000000	26.271678
983.000000	26.282738
984.000000	26.295470
985.000000	26.310760
986.000000	26.325618
987.000000	26.341164
988.000000	26.357716
989.000000	26.373668
990.000000	26.386520
991.000000	26.402266
992.000000	26.418294
993.000000	26.434878
994.000000	26.450184
995.000000	26.462960
996.000000	26.475552
997.000000	26.487798
998.000000	26.497600
999.000000	26.508314
1000.000000	26.523746
1001.000000	26.537942
1002.000000	26.549624
1003.000000	26.561136
1004.000000	26.574222
1005.000000	26.588472
1006.000000	26.602304
1007.000000	26.614852
1008.000000	26.630204
1009.000000	26.645632
1010.000000	26.657552
1011.000000	26.669596
1012.000000	26.684194
1013.000000	26.698728
1014.000000	26.711528
1015.000000	26.743468
1016.000000	26.777326
1017.000000	26.790940
1018.000000	26.821780
1019.000000	26.854680
1020.000000	26.889932
1021.000000	26.925222
1022.000000	26.960282
1023.000000	26.995006
1024.000000	27.029506
1025.000000	27.042720
1026.000000	27.055360
1027.000000	27.089568
1028.000000	27.105530
1029.000000	27.120978
1030.000000	27.135630
1031.000000	27.150612
1032.000000	27.166516
1033.000000	27.180466
1034.000000	27.194768
1035.000000	27.211042
1036.000000	27.227306
1037.000000	27.242192
1038.000000	27.256720
1039.000000	27.271888
1040.000000	27.286158
1041.000000	27.300112
1042.000000	27.313308
1043.000000	27.327914
1044.000000	27.342178
1045.000000	27.355488
1046.000000	27.368604
1047.000000	27.383150
1048.000000	27.395608
1049.000000	27.405828
1050.000000	27.417472
1051.000000	27.429512
1052.000000	27.442094
1053.000000	27.453902
1054.000000	27.466740
1055.000000	27.481662
1056.000000	27.495454
1057.000000	27.507252
1058.000000	27.521922
1059.000000	27.537938
1060.000000	27.553244
1061.000000	27.568816
1062.000000	27.584240
1063.000000	27.600020
1064.000000	27.614428
1065.000000	27.627396
1066.000000	27.641944
1067.000000	27.678304
1068.000000	27.693878
1069.000000	27.729536
1070.000000	27.766190
1071.000000	27.801994
1072.000000	27.836110
1073.000000	27.869390
1074.000000	27.904392
1075.000000	27.940726
1076.000000	27.976112
1077.000000	27.988760
1078.000000	28.022384
1079.000000	28.035576
1080.000000	28.047386
1081.000000	28.058556
1082.000000	28.071412
1083.000000	28.085126
1084.000000	28.095820
1085.000000	28.105832
1086.000000	28.116256
1087.000000	28.130072
1088.000000	28.142856
1089.000000	28.155956
1090.000000	28.168054
1091.000000	28.180098
1092.000000	28.190708
1093.000000	28.201800
1094.000000	28.215306
1095.000000	28.227124
1096.000000	28.237736
1097.000000	28.247780
1098.000000	28.255678
1099.000000	28.265178
1100.000000	28.274096
1101.000000	28.281832
1102.000000	28.290874
1103.000000	28.300130
1104.000000	28.309400
1105.000000	28.319318
1106.000000	28.328880
1107.000000	28.337360
1108.000000	28.347648
1109.000000	28.354458
1110.000000	28.363548
1111.000000	28.373776
1112.000000	28.382346
1113.000000	28.390590
1114.000000	28.398094
1115.000000	28.405284
1116.000000	28.412216
1117.000000	28.418738
1118.000000	28.425830
1119.000000	28.431886
1120.000000	28.435394
1121.000000	28.438802
1122.000000	28.442914
1123.000000	28.447022
1124.000000	28.450150
1125.000000	28.452734
1126.000000	28.454916
1127.000000	28.454470
1128.000000	28.450720
1129.000000	28.449278
1130.000000	28.445092
1131.000000	28.437518
1132.000000	28.428452
1133.000000	28.416138
1134.000000	28.404182
1135.000000	28.391634
1136.000000	28.378386
1137.000000	28.364670
1138.000000	28.348814
1139.000000	28.329252
1140.000000	28.314022
1141.000000	28.300540
1142.000000	28.285910
1143.000000	28.271138
1144.000000	28.255754
1145.000000	28.241548
1146.000000	28.227650
1147.000000	28.213660
1148.000000	28.203238
1149.000000	28.195432
1150.000000	28.185228
1151.000000	28.175160
1152.000000	28.165460
1153.000000	28.155616
1154.000000	28.144552
1155.000000	28.130516
1156.000000	28.116302
1157.000000	28.100534
1158.000000	28.082852
1159.000000	28.059868
1160.000000	28.036088
1161.000000	28.010932
1162.000000	27.963782
1163.000000	27.915712
1164.000000	27.865384
1165.000000	27.814482
1166.000000	27.761510
1167.000000	27.710358
1168.000000	27.658312
1169.000000	27.609104
1170.000000	27.562108
1171.000000	27.513696
1172.000000	27.486138
1173.000000	27.460408
1174.000000	27.439002
1175.000000	27.419072
1176.000000	27.400368
1177.000000	27.381150
1178.000000	27.364974
1179.000000	27.350534
1180.000000	27.334080
1181.000000	27.320176
1182.000000	27.308694
1183.000000	27.298586
1184.000000	27.288158
1185.000000	27.280044
1186.000000	27.274098
1187.000000	27.270836
1188.000000	27.267772
1189.000000	27.268064
1190.000000	27.272094
1191.000000	27.279640
1192.000000	27.287730
1193.000000	27.297844
1194.000000	27.310758
1195.000000	27.324906
1196.000000	27.341158
1197.000000	27.359068
1198.000000	27.377238
1199.000000	27.394166
1200.000000	27.411036
1201.000000	27.427060
1202.000000	27.445360
1203.000000	27.463884
1204.000000	27.501312
1205.000000	27.538280
1206.000000	27.574712
1207.000000	27.610982
1208.000000	27.648654
1209.000000	27.687166
1210.000000	27.727818
1211.000000	27.768456
1212.000000	27.807634
1213.000000	27.846734
1214.000000	27.865236
1215.000000	27.883878
1216.000000	27.902168
1217.000000	27.920504
1218.000000	27.939120
1219.000000	27.957938
1220.000000	27.974068
1221.000000	27.989710
1222.000000	28.005792
1223.000000	28.021960
1224.000000	28.038120
1225.000000	28.053272
1226.000000	28.068602
1227.000000	28.083136
1228.000000	28.096758
1229.000000	28.110012
1230.000000	28.123526
1231.000000	28.135740
1232.000000	28.147946
1233.000000	28.158634
1234.000000	28.167264
1235.000000	28.177454
1236.000000	28.187654
1237.000000	28.198270
1238.000000	28.208192
1239.000000	28.215438
1240.000000	28.222150
1241.000000	28.230600
1242.000000	28.238766
1243.000000	28.248404
1244.000000	28.260024
1245.000000	28.272390
1246.000000	28.283696
1247.000000	28.294046
1248.000000	28.305332
1249.000000	28.339838
1250.000000	28.375492
1251.000000	28.411472
1252.000000	28.447876
1253.000000	28.483202
1254.000000	28.518484
1255.000000	28.552062
1256.000000	28.587036
1257.000000	28.622210
1258.000000	28.656996
1259.000000	28.670136
1260.000000	28.682946
1261.000000	28.694892
1262.000000	28.705166
1263.000000	28.714980
1264.000000	28.724080
1265.000000	28.733092
1266.000000	28.741490
1267.000000	28.749538
1268.000000	28.756938
1269.000000	28.763970
1270.000000	28.769588
1271.000000	28.774540
1272.000000	28.779988
1273.000000	28.785658
1274.000000	28.790834
1275.000000	28.794768
1276.000000	28.798214
1277.000000	28.801886
1278.000000	28.806036
1279.000000	28.810948
1280.000000	28.816130
1281.000000	28.822040
1282.000000	28.828194
1283.000000	28.834164
1284.000000	28.841322
1285.000000	28.849800
1286.000000	28.858764
1287.000000	28.867276
1288.000000	28.876228
1289.000000	28.885984
1290.000000	28.896056
1291.000000	28.905760
1292.000000	28.915886
1293.000000	28.926114
1294.000000	28.935790
1295.000000	28.944916
1296.000000	28.953414
1297.000000	28.962458
1298.000000	28.970346
1299.000000	28.977436
1300.000000	28.984070
1301.000000	28.989924
1302.000000	28.996172
1303.000000	29.002056
1304.000000	29.007190
1305.000000	29.012430
1306.000000	29.016546
1307.000000	29.019506
1308.000000	29.023356
1309.000000	29.026294
1310.000000	29.028566
1311.000000	29.029938
1312.000000	29.029866
1313.000000	29.028564
1314.000000	29.025478
1315.000000	29.021098
1316.000000	29.016870
1317.000000	29.012028
1318.000000	29.004730
1319.000000	28.995504
1320.000000	28.985602
1321.000000	28.974124
1322.000000	28.961420
1323.000000	28.948468
1324.000000	28.936168
1325.000000	28.923178
1326.000000	28.908608
1327.000000	28.892964
1328.000000	28.877812
1329.000000	28.861934
1330.000000	28.844286
1331.000000	28.826592
1332.000000	28.807456
1333.000000	28.785898
1334.000000	28.762454
1335.000000	28.738268
1336.000000	28.713030
1337.000000	28.686702
1338.000000	28.657428
1339.000000	28.627838
1340.000000	28.597554
1341.000000	28.565124
1342.000000	28.530718
1343.000000	28.474914
1344.000000	28.418192
1345.000000	28.358864
1346.000000	28.298364
1347.000000	28.238480
1348.000000	28.177394
1349.000000	28.112742
1350.000000	28.047112
1351.000000	27.980424
1352.000000	27.912780
1353.000000	27.866894
1354.000000	27.823066
1355.000000	27.781480
1356.000000	27.739568
1357.000000	27.694806
1358.000000	27.649968
1359.000000	27.585372
1360.000000	27.524600
1361.000000	27.472474
1362.000000	27.419730
1363.000000	27.364076
1364.000000	27.308178
1365.000000	27.248214
1366.000000	27.187430
1367.000000	27.110226
1368.000000	27.033596
1369.000000	26.972916
1370.000000	26.907500
1371.000000	26.833666
1372.000000	26.756382
1373.000000	26.655810
1374.000000	26.547458
1375.000000	26.437192
1376.000000	26.319708
1377.000000	26.213744
1378.000000	26.079026
1379.000000	25.944230
1380.000000	25.807932
1381.000000	25.674498
1382.000000	25.545604
1383.000000	25.440488
1384.000000	25.317602
1385.000000	25.196396
1386.000000	25.081920
1387.000000	24.976090
1388.000000	24.899656
1389.000000	24.825640
1390.000000	24.751512
1391.000000	24.678368
1392.000000	24.606664
1393.000000	24.534068
1394.000000	24.485700
1395.000000	24.446602
1396.000000	24.406290
1397.000000	24.355944
1398.000000	24.299146
1399.000000	24.248010
1400.000000	24.204616
1401.000000	24.151794
1402.000000	24.067402
1403.000000	23.980632
1404.000000	23.890644
1405.000000	23.790754
1406.000000	23.687034
1407.000000	23.586060
1408.000000	23.486644
1409.000000	23.381162
1410.000000	23.263676
1411.000000	23.145226
1412.000000	23.052722
1413.000000	22.961412
1414.000000	22.851602
1415.000000	22.739382
1416.000000	22.625968
1417.000000	22.513480
1418.000000	22.404598
1419.000000	22.298684
1420.000000	22.194022
1421.000000	22.092144
1422.000000	21.993154
1423.000000	21.896844
1424.000000	21.818920
1425.000000	21.723816
1426.000000	21.634446
1427.000000	21.546048
1428.000000	21.459054
1429.000000	21.370658
1430.000000	21.287446
1431.000000	21.210978
1432.000000	21.134554
1433.000000	21.059194
1434.000000	20.985998
1435.000000	20.934792
1436.000000	20.886126
1437.000000	20.842020
1438.000000	20.797926
1439.000000	20.755918
1440.000000	20.715332
1441.000000	20.654734
1442.000000	20.596226
1443.000000	20.536390
1444.000000	20.478614
1445.000000	20.423908
1446.000000	20.369654
1447.000000	20.313964
1448.000000	20.256838
1449.000000	20.201772
1450.000000	20.146974
1451.000000	20.112488
1452.000000	20.077514
1453.000000	20.045254
1454.000000	20.012036
1455.000000	19.978264
1456.000000	19.944896
1457.000000	19.911592
1458.000000	19.881586
1459.000000	19.850146
1460.000000	19.818086
1461.000000	19.784906
1462.000000	19.753946
1463.000000	19.721312
1464.000000	19.669090
1465.000000	19.616544
1466.000000	19.564324
1467.000000	19.512746
1468.000000	19.458144
1469.000000	19.404988
1470.000000	19.353714
1471.000000	19.303752
1472.000000	19.252962
1473.000000	19.203656
1474.000000	19.174374
1475.000000	19.144772
1476.000000	19.115484
1477.000000	19.088684
1478.000000	19.063978
1479.000000	19.040848
1480.000000	19.018484
1481.000000	18.996756
1482.000000	18.976166
1483.000000	18.955998
1484.000000	18.938266
1485.000000	18.922542
1486.000000	18.907036
1487.000000	18.890950
1488.000000	18.877366
1489.000000	18.864012
1490.000000	18.850834
1491.000000	18.837872
1492.000000	18.826906
1493.000000	18.817352
1494.000000	18.807998
1495.000000	18.800830
1496.000000	18.796378
1497.000000	18.794156
1498.000000	18.793282
1499.000000	18.794110
1500.000000	18.797060
1501.000000	18.802740
1502.000000	18.809958
1503.000000	18.820176
1504.000000	18.833386
1505.000000	18.847808
1506.000000	18.863690
1507.000000	18.880184
1508.000000	18.898524
1509.000000	18.918254
1510.000000	18.939162
1511.000000	18.961344
1512.000000	18.985596
1513.000000	19.009818
1514.000000	19.033792
1515.000000	19.057366
1516.000000	19.081532
1517.000000	19.107228
1518.000000	19.132142
1519.000000	19.157446
1520.000000	19.182608
1521.000000	19.206124
1522.000000	19.228522
1523.000000	19.271244
1524.000000	19.314276
1525.000000	19.357776
1526.000000	19.400522
1527.000000	19.441860
1528.000000	19.482572
1529.000000	19.522866
1530.000000	19.562874
1531.000000	19.603368
1532.000000	19.642548
1533.000000	19.660282
1534.000000	19.677130
1535.000000	19.692716
1536.000000	19.708114
1537.000000	19.724624
1538.000000	19.740626
1539.000000	19.755070
1540.000000	19.768484
1541.000000	19.780720
1542.000000	19.793534
1543.000000	19.807554
1544.000000	19.821860
1545.000000	19.836936
1546.000000	19.851648
1547.000000	19.866450
1548.000000	19.884080
1549.000000	19.903538
1550.000000	19.923574
1551.000000	19.945594
1552.000000	19.968644
1553.000000	19.990758
1554.000000	20.012036
1555.000000	20.033262
1556.000000	20.054006
1557.000000	20.073380
1558.000000	20.091886
1559.000000	20.108160
1560.000000	20.121658
1561.000000	20.131524
1562.000000	20.138994
1563.000000	20.145572
1564.000000	20.149658
1565.000000	20.151014
1566.000000	20.151566
1567.000000	20.169910
1568.000000	20.164846
1569.000000	20.157980
1570.000000	20.151882
1571.000000	20.147474
1572.000000	20.142344
1573.000000	20.136986
1574.000000	20.133464
1575.000000	20.130154
1576.000000	20.126470
1577.000000	20.103834
1578.000000	20.123620
1579.000000	20.145730
1580.000000	20.168996
1581.000000	20.193054
1582.000000	20.219252
1583.000000	20.245330
1584.000000	20.272056
1585.000000	20.301194
1586.000000	20.332360
1587.000000	20.364976
1588.000000	20.378176
1589.000000	20.392172
1590.000000	20.407584
1591.000000	20.423014
1592.000000	20.438632
1593.000000	20.456612
1594.000000	20.474514
1595.000000	20.493372
1596.000000	20.512740
1597.000000	20.534064
1598.000000	20.555956
1599.000000	20.577380
1600.000000	20.599298
1601.000000	20.621924
1602.000000	20.645216
1603.000000	20.669318
1604.000000	20.694260
1605.000000	20.718268
1606.000000	20.743770
1607.000000	20.767616
1608.000000	20.791158
1609.000000	20.814994
1610.000000	20.838374
1611.000000	20.861172
1612.000000	20.883754
1613.000000	20.925444
1614.000000	20.967262
1615.000000	21.008318
1616.000000	21.047940
1617.000000	21.085424
1618.000000	21.120310
1619.000000	21.154884
1620.000000	21.189362
1621.000000	21.223192
1622.000000	21.257096
1623.000000	21.269294
1624.000000	21.281188
1625.000000	21.292314
1626.000000	21.301632
1627.000000	21.311662
1628.000000	21.324766
1629.000000	21.336882
1630.000000	21.349544
1631.000000	21.361644
1632.000000	21.373788
1633.000000	21.386670
1634.000000	21.397220
1635.000000	21.408130
1636.000000	21.419598
1637.000000	21.431348
1638.000000	21.439342
1639.000000	21.447896
1640.000000	21.454684
1641.000000	21.462118
1642.000000	21.466898
1643.000000	21.470968
1644.000000	21.474760
1645.000000	21.477140
1646.000000	21.478266
1647.000000	21.477706
1648.000000	21.476792
1649.000000	21.476226
1650.000000	21.472514
1651.000000	21.467406
1652.000000	21.461498
1653.000000	21.452090
1654.000000	21.442506
1655.000000	21.432604
1656.000000	21.420216
1657.000000	21.404102
1658.000000	21.386718
1659.000000	21.365668
1660.000000	21.341344
1661.000000	21.314198
1662.000000	21.262666
1663.000000	21.208210
1664.000000	21.148684
1665.000000	21.085400
1666.000000	21.020136
1667.000000	20.953400
1668.000000	20.879856
1669.000000	20.801314
1670.000000	20.720920
1671.000000	20.637658
1672.000000	20.573094
1673.000000	20.508948
1674.000000	20.423422
1675.000000	20.336612
1676.000000	20.247990
1677.000000	20.158678
1678.000000	20.070384
1679.000000	19.982320
1680.000000	19.896514
1681.000000	19.807772
1682.000000	19.720550
1683.000000	19.631076
1684.000000	19.563120
1685.000000	19.496756
1686.000000	19.434090
1687.000000	19.354538
1688.000000	19.282130
1689.000000	19.218082
1690.000000	19.160730
1691.000000	19.113104
1692.000000	19.071366
1693.000000	19.040446
1694.000000	19.016644
1695.000000	18.998812
1696.000000	18.985456
1697.000000	18.994004
1698.000000	19.006252
1699.000000	19.015020
1700.000000	19.023170
1701.000000	19.029698
1702.000000	19.033596
1703.000000	19.033866
1704.000000	19.031458
1705.000000	19.025658
1706.000000	19.014712
1707.000000	19.001466
1708.000000	18.982980
1709.000000	18.963202
1710.000000	18.935084
1711.000000	18.902086
1712.000000	18.866998
1713.000000	18.825432
1714.000000	18.760928
1715.000000	18.689788
1716.000000	18.614926
1717.000000	18.537320
1718.000000	18.455742
1719.000000	18.371664
1720.000000	18.290384
1721.000000	18.211758
1722.000000	18.134882
1723.000000	18.062504
1724.000000	18.013656
1725.000000	17.974018
1726.000000	17.942848
1727.000000	17.920124
1728.000000	17.906366
1729.000000	17.898132
1730.000000	17.898968
1731.000000	17.906412
1732.000000	17.919668
1733.000000	17.937876
1734.000000	17.958988
1735.000000	17.982130
1736.000000	18.007238
1737.000000	18.034952
1738.000000	18.063082
1739.000000	18.095582
1740.000000	18.127580
1741.000000	18.158162
1742.000000	18.186874
1743.000000	18.237686
1744.000000	18.288240
1745.000000	18.339384
1746.000000	18.392406
1747.000000	18.442846
1748.000000	18.491798
1749.000000	18.537450
1750.000000	18.581060
1751.000000	18.623728
1752.000000	18.665352
1753.000000	18.684312
1754.000000	18.701716
1755.000000	18.714880
1756.000000	18.723908
1757.000000	18.732770
1758.000000	18.741954
1759.000000	18.751834
1760.000000	18.760428
1761.000000	18.766934
1762.000000	18.773076
1763.000000	18.779162
1764.000000	18.787426
1765.000000	18.798416
1766.000000	18.810306
1767.000000	18.822246
1768.000000	18.833572
1769.000000	18.846824
1770.000000	18.860750
1771.000000	18.878530
1772.000000	18.897132
1773.000000	18.915776
1774.000000	18.935798
1775.000000	18.956098
1776.000000	18.976506
1777.000000	18.996862
1778.000000	19.016438
1779.000000	19.035266
1780.000000	19.055292
1781.000000	19.073606
1782.000000	19.090954
1783.000000	19.107126
1784.000000	19.119912
1785.000000	19.152010
1786.000000	19.182180
1787.000000	19.210638
1788.000000	19.239868
1789.000000	19.267714
1790.000000	19.293846
1791.000000	19.319390
1792.000000	19.344694
1793.000000	19.368516
1794.000000	19.391972
1795.000000	19.397102
1796.000000	19.403194
1797.000000	19.409290
1798.000000	19.414868
1799.000000	19.419670
1800.000000	19.425290
1801.000000	19.432390
1802.000000	19.442028
1803.000000	19.452748
1804.000000	19.461746
1805.000000	19.469634
1806.000000	19.479104
1807.000000	19.488048
1808.000000	19.496064
1809.000000	19.504388
1810.000000	19.512702
1811.000000	19.520652
1812.000000	19.525922
1813.000000	19.532128
1814.000000	19.540448
1815.000000	19.547982
1816.000000	19.553088
1817.000000	19.554562
1818.000000	19.554634
1819.000000	19.556996
1820.000000	19.564146
1821.000000	19.575966
1822.000000	19.585348
1823.000000	19.586728
1824.000000	19.583686
1825.000000	19.579788
1826.000000	19.580756
1827.000000	19.590130
1828.000000	19.603340
1829.000000	19.615274
1830.000000	19.621580
1831.000000	19.621920
1832.000000	19.622566
1833.000000	19.625678
1834.000000	19.633244
1835.000000	19.645950
1836.000000	19.679640
1837.000000	19.711688
1838.000000	19.742496
1839.000000	19.772618
1840.000000	19.805386
1841.000000	19.846318
1842.000000	19.892604
1843.000000	19.934310
1844.000000	19.964898
1845.000000	19.985234
1846.000000	19.985404
1847.000000	19.996852
1848.000000	20.016660
1849.000000	20.029682
1850.000000	20.030336
1851.000000	20.019134
1852.000000	20.006246
1853.000000	20.003032
1854.000000	20.011508
1855.000000	20.024204
1856.000000	20.027396
1857.000000	20.014418
1858.000000	19.993266
1859.000000	19.980636
1860.000000	19.978474
1861.000000	19.978324
1862.000000	19.972798
1863.000000	19.939772
1864.000000	19.901140
1865.000000	19.858232
1866.000000	19.813282
1867.000000	19.766114
1868.000000	19.712106
1869.000000	19.654438
1870.000000	19.597474
1871.000000	19.534356
1872.000000	19.470380
1873.000000	19.429686
1874.000000	19.364130
1875.000000	19.295642
1876.000000	19.228288
1877.000000	19.153640
1878.000000	19.072868
1879.000000	18.979902
1880.000000	18.849306
1881.000000	18.716566
1882.000000	18.579030
1883.000000	18.434260
1884.000000	18.306930
1885.000000	18.153654
1886.000000	17.988596
1887.000000	17.817616
1888.000000	17.640100
1889.000000	17.464068
1890.000000	17.310238
1891.000000	17.130566
1892.000000	16.942238
1893.000000	16.743830
1894.000000	16.539948
1895.000000	16.327890
1896.000000	16.112178
1897.000000	15.897796
1898.000000	15.682142
1899.000000	15.444446
1900.000000	15.206074
1901.000000	14.984842
1902.000000	14.762622
1903.000000	14.527934
1904.000000	14.297422
1905.000000	14.094970
1906.000000	13.903250
1907.000000	13.693916
1908.000000	13.491054
1909.000000	13.302344
1910.000000	13.118476
1911.000000	12.946290
1912.000000	12.768542
1913.000000	12.617408
1914.000000	12.472494
1915.000000	12.334280
1916.000000	12.197484
1917.000000	12.082838
1918.000000	11.972482
1919.000000	11.876728
1920.000000	11.787996
1921.000000	11.701088
1922.000000	11.619162
1923.000000	11.532966
1924.000000	11.450456
1925.000000	11.377600
1926.000000	11.307544
1927.000000	11.248952
1928.000000	11.198320
1929.000000	11.146896
1930.000000	11.094264
1931.000000	11.041712
1932.000000	11.014242
1933.000000	10.994436
1934.000000	10.974990
1935.000000	10.952898
1936.000000	10.937850
1937.000000	10.920722
1938.000000	10.912558
1939.000000	10.914626
1940.000000	10.921192
1941.000000	10.932256
1942.000000	10.937520
1943.000000	10.947280
1944.000000	10.960498
1945.000000	10.974722
1946.000000	10.995150
1947.000000	11.018352
1948.000000	11.033716
1949.000000	11.050118
1950.000000	11.063894
1951.000000	11.085548
1952.000000	11.110830
1953.000000	11.138672
1954.000000	11.165690
1955.000000	11.195324
1956.000000	11.243384
1957.000000	11.268470
1958.000000	11.318150
1959.000000	11.366528
1960.000000	11.422322
1961.000000	11.471832
1962.000000	11.520284
1963.000000	11.566982
1964.000000	11.621354
1965.000000	11.676850
1966.000000	11.707606
1967.000000	11.760908
1968.000000	11.791184
1969.000000	11.819242
1970.000000	11.843962
1971.000000	11.866722
1972.000000	11.894872
1973.000000	11.923256
1974.000000	11.948690
1975.000000	11.968772
1976.000000	11.993898
1977.000000	12.023722
1978.000000	12.054128
1979.000000	12.107180
1980.000000	12.158018
1981.000000	12.212396
1982.000000	12.263446
1983.000000	12.311860
1984.000000	12.362508
1985.000000	12.414530
1986.000000	12.465466
1987.000000	12.514968
1988.000000	12.565164
1989.000000	12.594336
1990.000000	12.630048
1991.000000	12.662562
1992.000000	12.693638
1993.000000	12.727966
1994.000000	12.756164
1995.000000	12.789320
1996.000000	12.815646
1997.000000	12.841138
1998.000000	12.884872
1999.000000	12.909778
2000.000000	12.948904
2001.000000	12.988610
2002.000000	13.026266
2003.000000	13.062862
2004.000000	13.078794
2005.000000	13.107962
2006.000000	13.145894
2007.000000	13.180932
2008.000000	13.195274
2009.000000	13.221458
2010.000000	13.226540
2011.000000	13.230022
2012.000000	13.231080
2013.000000	13.230504
2014.000000	13.248412
2015.000000	13.247490
2016.000000	13.236346
2017.000000	13.219460
2018.000000	13.203020
2019.000000	13.187296
2020.000000	13.167250
2021.000000	13.147540
2022.000000	13.106028
2023.000000	13.083086
2024.000000	13.040988
2025.000000	12.998250
2026.000000	12.948862
2027.000000	12.903420
2028.000000	12.855784
2029.000000	12.810406
2030.000000	12.763898
2031.000000	12.711852
2032.000000	12.676728
2033.000000	12.619026
2034.000000	12.578722
2035.000000	12.536238
2036.000000	12.496512
2037.000000	12.456942
2038.000000	12.394568
2039.000000	12.318398
2040.000000	12.239550
2041.000000	12.170484
2042.000000	12.099686
2043.000000	12.024602
2044.000000	11.952302
2045.000000	11.882730
2046.000000	11.811160
2047.000000	11.734656
2048.000000	11.677830
2049.000000	11.629948
2050.000000	11.590342
2051.000000	11.551792
2052.000000	11.519116
2053.000000	11.489246
2054.000000	11.455306
2055.000000	11.422026
2056.000000	11.396122
2057.000000	11.381848
2058.000000	11.380160
2059.000000	11.383474
2060.000000	11.392610
2061.000000	11.404260
2062.000000	11.426186
2063.000000	11.459626
2064.000000	11.494086
2065.000000	11.528960
2066.000000	11.570154
2067.000000	11.608498
2068.000000	11.649420
2069.000000	11.721012
2070.000000	11.786102
2071.000000	11.846720
2072.000000	11.907830
2073.000000	11.967614
2074.000000	12.030088
2075.000000	12.092530
2076.000000	12.148898
2077.000000	12.201312
2078.000000	12.244930
2079.000000	12.259258
2080.000000	12.281586
2081.000000	12.303782
2082.000000	12.313538
2083.000000	12.324728
2084.000000	12.342090
2085.000000	12.356656
2086.000000	12.367772
2087.000000	12.375066
2088.000000	12.382512
2089.000000	12.413134
2090.000000	12.419402
2091.000000	12.426804
2092.000000	12.442282
2093.000000	12.445922
2094.000000	12.439462
2095.000000	12.438624
2096.000000	12.446000
2097.000000	12.455218
2098.000000	12.495448
2099.000000	12.500648
2100.000000	12.510334
2101.000000	12.508178
2102.000000	12.529466
2103.000000	12.556678
2104.000000	12.587652
2105.000000	12.605792
2106.000000	12.595690
2107.000000	12.618070
2108.000000	12.614350
2109.000000	12.615104
2110.000000	12.628896
2111.000000	12.648276
2112.000000	12.643346
2113.000000	12.642496
2114.000000	12.644214
2115.000000	12.646224
2116.000000	12.644688
2117.000000	12.618838
2118.000000	12.609300
2119.000000	12.618110
2120.000000	12.634348
2121.000000	12.641078
2122.000000	12.631082
2123.000000	12.625414
2124.000000	12.621518
2125.000000	12.620306
2126.000000	12.644896
2127.000000	12.665766
2128.000000	12.656724
2129.000000	12.628458
2130.000000	12.590584
2131.000000	12.568552
2132.000000	12.566772
2133.000000	12.552212
2134.000000	12.508174
2135.000000	12.461144
2136.000000	12.411772
2137.000000	12.365702
2138.000000	12.329588
2139.000000	12.303898
2140.000000	12.277306
2141.000000	12.227232
2142.000000	12.171572
2143.000000	12.118122
2144.000000	12.110242
2145.000000	12.101194
2146.000000	12.080490
2147.000000	12.044954
2148.000000	12.013666
2149.000000	11.977826
2150.000000	11.938474
2151.000000	11.897852
2152.000000	11.845322
2153.000000	11.807152
2154.000000	11.756516
2155.000000	11.683192
2156.000000	11.624642
2157.000000	11.588760
2158.000000	11.523428
2159.000000	11.444944
2160.000000	11.386132
2161.000000	11.351414
2162.000000	11.330414
2163.000000	11.275360
2164.000000	11.201982
2165.000000	11.150422
2166.000000	11.099834
2167.000000	11.056060
2168.000000	11.017782
2169.000000	10.982404
2170.000000	10.950458
2171.000000	10.904934
2172.000000	10.846792
2173.000000	10.830126
2174.000000	10.839168
2175.000000	10.841252
2176.000000	10.827504
2177.000000	10.802820
2178.000000	10.796708
2179.000000	10.806358
2180.000000	10.774948
2181.000000	10.755730
2182.000000	10.733142
2183.000000	10.726014
2184.000000	10.699832
2185.000000	10.661666
2186.000000	10.643238
2187.000000	10.609300
2188.000000	10.581336
2189.000000	10.533798
2190.000000	10.498656
2191.000000	10.489424
2192.000000	10.464898
2193.000000	10.392172
2194.000000	10.314786
2195.000000	10.272114
2196.000000	10.200552
2197.000000	10.143876
2198.000000	10.065018
2199.000000	9.997538
2200.000000	9.950818
2201.000000	9.881502
2202.000000	9.833820
2203.000000	9.799766
2204.000000	9.782980
2205.000000	9.741772
2206.000000	9.703794
2207.000000	9.667816
2208.000000	9.674998
2209.000000	9.658796
2210.000000	9.666998
2211.000000	9.660442
2212.000000	9.641226
2213.000000	9.626850
2214.000000	9.636376
2215.000000	9.660782
2216.000000	9.708690
2217.000000	9.738482
2218.000000	9.730740
2219.000000	9.781720
2220.000000	9.808740
2221.000000	9.835240
2222.000000	9.874156
2223.000000	9.929124
2224.000000	9.964902
2225.000000	9.999350
2226.000000	10.037602
2227.000000	10.081506
2228.000000	10.116668
2229.000000	10.131358
2230.000000	10.137832
2231.000000	10.191998
2232.000000	10.235096
2233.000000	10.271722
2234.000000	10.287532
2235.000000	10.315284
2236.000000	10.316186
2237.000000	10.318042
2238.000000	10.356610
2239.000000	10.398244
2240.000000	10.419548
2241.000000	10.405064
2242.000000	10.407266
2243.000000	10.388714
2244.000000	10.376200
2245.000000	10.348490
2246.000000	10.348758
2247.000000	10.356568
2248.000000	10.335248
2249.000000	10.288004
2250.000000	10.259332
2251.000000	10.238442
2252.000000	10.208786
2253.000000	10.177508
2254.000000	10.154908
2255.000000	10.138066
2256.000000	10.100922
2257.000000	10.040950
2258.000000	10.002652
2259.000000	9.969058
2260.000000	9.937746
2261.000000	9.902718
2262.000000	9.880826
2263.000000	9.873440
2264.000000	9.855994
2265.000000	9.839410
2266.000000	9.820276
2267.000000	9.830286
2268.000000	9.824134
2269.000000	9.835590
2270.000000	9.842616
2271.000000	9.850354
2272.000000	9.844610
2273.000000	9.839326
2274.000000	9.845842
2275.000000	9.845568
2276.000000	9.840214
2277.000000	9.856192
2278.000000	9.874426
2279.000000	9.890170
2280.000000	9.919206
2281.000000	9.928142
2282.000000	9.950456
2283.000000	9.967944
2284.000000	9.972966
2285.000000	9.981452
2286.000000	10.006680
2287.000000	10.015698
2288.000000	10.016554
2289.000000	10.016388
2290.000000	10.018600
2291.000000	10.038504
2292.000000	10.063802
2293.000000	10.113218
2294.000000	10.133292
2295.000000	10.174738
2296.000000	10.224096
2297.000000	10.231912
2298.000000	10.247756
2299.000000	10.255014
2300.000000	10.279384
2301.000000	10.294336
2302.000000	10.307584
2303.000000	10.288726
2304.000000	10.304962
2305.000000	10.328262
2306.000000	10.348866
2307.000000	10.389666
2308.000000	10.418662
2309.000000	10.465274
2310.000000	10.480908
2311.000000	10.503006
2312.000000	10.520852
2313.000000	10.541810
2314.000000	10.568618
2315.000000	10.602788
2316.000000	10.647306
2317.000000	10.707072
2318.000000	10.785606
2319.000000	10.837198
2320.000000	10.882804
2321.000000	10.925676
2322.000000	10.980586
2323.000000	11.045852
2324.000000	11.085714
2325.000000	11.094674
2326.000000	11.098442
2327.000000	11.104076
2328.000000	11.116360
2329.000000	11.132020
2330.000000	11.137938
2331.000000	11.138076
2332.000000	11.138836
2333.000000	11.127868
2334.000000	11.150826
2335.000000	11.197982
2336.000000	11.233306
2337.000000	11.238254
2338.000000	11.242934
2339.000000	11.261842
2340.000000	11.293652
2341.000000	11.338148
2342.000000	11.390794
2343.000000	11.466720
2344.000000	11.531850
2345.000000	11.554876
2346.000000	11.559908
2347.000000	11.595474
2348.000000	11.635184
2349.000000	11.681984
2350.000000	11.753596
2351.000000	11.794130
2352.000000	11.813230
2353.000000	11.814650
2354.000000	11.798634
2355.000000	11.803498
2356.000000	11.849050
2357.000000	11.897028
2358.000000	11.928604
2359.000000	11.944864
2360.000000	11.944530
2361.000000	11.971360
2362.000000	12.002432
2363.000000	12.043636
2364.000000	12.104990
2365.000000	12.143430
2366.000000	12.158378
2367.000000	12.145682
2368.000000	12.151182
2369.000000	12.158592
2370.000000	12.189982
2371.000000	12.229810
2372.000000	12.244258
2373.000000	12.272154
2374.000000	12.291866
2375.000000	12.319738
2376.000000	12.326624
2377.000000	12.366808
2378.000000	12.405446
2379.000000	12.433758
2380.000000	12.429148
2381.000000	12.434262
2382.000000	12.476968
2383.000000	12.501148
2384.000000	12.491166
2385.000000	12.492230
2386.000000	12.549844
2387.000000	12.596782
2388.000000	12.607496
2389.000000	12.654804
2390.000000	12.671110
2391.000000	12.673192
2392.000000	12.696964
2393.000000	12.712148
2394.000000	12.796062
2395.000000	12.828960
2396.000000	12.853212
2397.000000	12.894458
2398.000000	12.952448
2399.000000	12.985930
2400.000000	13.038276
2401.000000	13.062976
2402.000000	13.056254
2403.000000	13.028030
2404.000000	12.977276
2405.000000	12.964684
2406.000000	12.965896
2407.000000	12.973164
2408.000000	12.985984
2409.000000	13.012266
2410.000000	13.022976
2411.000000	13.020354
2412.000000	13.031834
2413.000000	13.063220
2414.000000	13.078188
2415.000000	13.076642
2416.000000	13.065988
2417.000000	13.066724
2418.000000	13.041564
2419.000000	13.036242
2420.000000	13.036076
2421.000000	13.058620
2422.000000	13.039772
2423.000000	12.999886
2424.000000	13.016624
2425.000000	13.053862
2426.000000	13.069236
2427.000000	13.064402
2428.000000	13.083960
2429.000000	13.052232
2430.000000	13.032394
2431.000000	13.047368
2432.000000	13.116826
2433.000000	13.153670
2434.000000	13.087774
2435.000000	13.125938
2436.000000	13.137928
2437.000000	13.127614
2438.000000	13.126772
2439.000000	13.154956
2440.000000	13.213104
2441.000000	13.237548
2442.000000	13.217514
2443.000000	13.212812
2444.000000	13.303476
2445.000000	13.310444
2446.000000	13.358550
2447.000000	13.347692
2448.000000	13.369300
2449.000000	13.376666
2450.000000	13.408034
2451.000000	13.446234
2452.000000	13.503654
2453.000000	13.554722
2454.000000	13.644518
2455.000000	13.716538
2456.000000	13.784510
2457.000000	13.839966
2458.000000	13.948596
2459.000000	14.031640
2460.000000	14.097202
2461.000000	14.159238
2462.000000	14.226242
2463.000000	14.402738
2464.000000	14.558214
2465.000000	14.684124
2466.000000	14.751158
2467.000000	14.951842
2468.000000	15.076936
2469.000000	15.317834
2470.000000	15.513086
2471.000000	15.707568
2472.000000	15.855454
2473.000000	15.926046
2474.000000	16.086362
2475.000000	16.258588
2476.000000	16.501600
2477.000000	16.718866
2478.000000	16.911222
2479.000000	17.110194
2480.000000	17.307134
2481.000000	17.582642
2482.000000	17.877594
2483.000000	18.298464
2484.000000	18.560186
2485.000000	18.767540
2486.000000	19.007244
2487.000000	19.285356
2488.000000	19.508424
2489.000000	19.736056
2490.000000	20.031486
2491.000000	20.286482
2492.000000	20.619358
2493.000000	20.839530
2494.000000	21.120014
2495.000000	21.557836
2496.000000	21.970248
2497.000000	22.321322
2498.000000	22.677364
2499.000000	23.007636
2500.000000	23.247288
2501.000000	26.631342
2502.000000	30.459495
2503.000000	34.495116
2504.000000	38.560684
2505.000000	42.243174
2506.000000	46.199832
2507.000000	50.332452
2508.000000	54.667775
2509.000000	58.848391
2510.000000	62.955185
2511.000000	64.318065
2512.000000	65.159820
2513.000000	65.820370
2514.000000	66.415895
2515.000000	67.640790
2516.000000	68.568670
2517.000000	69.415630
2518.000000	69.906010
2519.000000	70.826025
2520.000000	72.047430
2521.000000	72.824565
2522.000000	73.465825
2523.000000	74.051715
2524.000000	74.705800
2525.000000	75.344700
2526.000000	75.905430
2527.000000	76.696365
2528.000000	77.256790
2529.000000	78.343260
2530.000000	79.038925
2531.000000	79.351910
2532.000000	80.021010
2533.000000	80.521500
2534.000000	80.965690
2535.000000	81.610135
2536.000000	82.250855
2537.000000	82.990095
2538.000000	84.021805
2539.000000	83.992330
2540.000000	84.635315
2541.000000	85.690655
2542.000000	86.391415
2543.000000	87.282370
2544.000000	88.360035
2545.000000	88.920440
2546.000000	89.456035
2547.000000	89.674135
2548.000000	89.987740
2549.000000	90.432045
2550.000000	90.381460
2551.000000	90.222750
2552.000000	90.472140
2553.000000	91.276240
2554.000000	91.604665
2555.000000	92.009250
2556.000000	92.480520
2557.000000	92.374125
2558.000000	92.615800
2559.000000	93.567395
2560.000000	94.133925
2561.000000	94.634485
2562.000000	95.024720
2563.000000	94.986810
2564.000000	95.374275
2565.000000	95.518390
2566.000000	95.823970
2567.000000	96.896030
2568.000000	97.581150
2569.000000	97.338575
2570.000000	97.846620
2571.000000	98.556895
2572.000000	99.008785
2573.000000	99.292160
2574.000000	99.344015
2575.000000	99.375545
2576.000000	99.265725
2577.000000	98.927550
2578.000000	98.713375
2579.000000	98.442280
2580.000000	98.079200
2581.000000	98.072190
2582.000000	98.068070
2583.000000	97.593080
2584.000000	97.243345
2585.000000	97.468740
2586.000000	97.797665
2587.000000	98.069745
2588.000000	98.097810
2589.000000	98.475255
2590.000000	98.725120
2591.000000	98.493345
2592.000000	98.377260
2593.000000	98.527860
2594.000000	99.008360
2595.000000	99.300370
2596.000000	99.286485
2597.000000	99.673535
2598.000000	100.222660
2599.000000	100.468645
2600.000000	100.568370
2601.000000	100.865500
2602.000000	101.050285
2603.000000	101.219340
2604.000000	100.871445
2605.000000	100.300190
2606.000000	100.542365
2607.000000	100.227565
2608.000000	99.737380
2609.000000	99.482120
2610.000000	99.262250
2611.000000	99.070010
2612.000000	99.219115
2613.000000	99.642470
2614.000000	99.932590
2615.000000	100.576800
2616.000000	100.739470
2617.000000	100.671645
2618.000000	100.822520
2619.000000	101.169635
2620.000000	101.837275
2621.000000	102.252855
2622.000000	102.141240
2623.000000	102.136090
2624.000000	102.191540
2625.000000	101.742205
2626.000000	101.593985
2627.000000	101.911620
2628.000000	101.972430
2629.000000	101.896525
2630.000000	101.861705
2631.000000	101.622435
2632.000000	101.815550
2633.000000	102.216140
2634.000000	102.302850
2635.000000	102.569720
2636.000000	102.241335
2637.000000	101.657375
2638.000000	101.527130
2639.000000	101.830105
2640.000000	102.045280
2641.000000	102.400110
2642.000000	102.438050
2643.000000	101.934320
2644.000000	101.999715
2645.000000	102.066035
2646.000000	101.929935
2647.000000	102.345255
2648.000000	102.951435
2649.000000	102.937055
2650.000000	102.248830
2651.000000	102.043785
2652.000000	102.023530
2653.000000	102.108945
2654.000000	102.276920
2655.000000	102.438275
2656.000000	102.862200
2657.000000	103.138440
2658.000000	102.537905
2659.000000	102.014660
2660.000000	102.308325
2661.000000	102.181325
2662.000000	102.413215
2663.000000	102.523340
2664.000000	102.435115
2665.000000	102.708180
2666.000000	103.045390
2667.000000	102.876170
2668.000000	102.912945
2669.000000	103.412195
2670.000000	102.820100
2671.000000	102.420730
2672.000000	101.920480
2673.000000	101.555335
2674.000000	101.507460
2675.000000	101.382455
2676.000000	101.023335
2677.000000	100.841530
2678.000000	100.287345
2679.000000	99.850315
2680.000000	100.669485
2681.000000	100.738540
2682.000000	100.584855
2683.000000	100.584470
2684.000000	100.409065
2685.000000	100.104345
2686.000000	100.208815
2687.000000	99.958815
2688.000000	101.022350
2689.000000	101.427030
2690.000000	101.897560
2691.000000	101.806580
2692.000000	101.922515
2693.000000	102.111965
2694.000000	102.082740
2695.000000	102.200295
2696.000000	102.396630
2697.000000	103.166480
2698.000000	102.727280
2699.000000	102.569700
2700.000000	101.363975
2701.000000	102.009940
2702.000000	102.081320
2703.000000	101.598640
2704.000000	102.405340
2705.000000	102.386420
2706.000000	102.367345
2707.000000	102.035415
2708.000000	101.968350
2709.000000	102.590120
2710.000000	102.803440
2711.000000	102.849825
2712.000000	102.981960
2713.000000	103.774070
2714.000000	103.055145
2715.000000	103.104945
2716.000000	102.611015
2717.000000	102.563150
2718.000000	101.976085
2719.000000	101.464830
2720.000000	102.211995
2721.000000	101.911155
2722.000000	102.097685
2723.000000	101.798405
2724.000000	102.237840
2725.000000	101.688125
2726.000000	101.594660
2727.000000	101.952515
2728.000000	103.089155
2729.000000	103.184025
2730.000000	102.200620
2731.000000	102.314450
2732.000000	102.496635
2733.000000	102.472295
2734.000000	101.703265
2735.000000	102.550980
2736.000000	102.948645
2737.000000	102.498935
2738.000000	101.736720
2739.000000	101.644215
2740.000000	102.012635
2741.000000	101.894365
2742.000000	102.004175
2743.000000	101.895250
2744.000000	102.658740
2745.000000	101.727565
2746.000000	101.793240
2747.000000	101.536715
2748.000000	101.629835
2749.000000	101.556645
2750.000000	101.331175
2751.000000	101.042060
2752.000000	100.319850
2753.000000	100.303360
2754.000000	99.724785
2755.000000	100.591045
2756.000000	101.024945
2757.000000	101.141285
2758.000000	101.544265
2759.000000	101.239495
2760.000000	102.053410
2761.000000	102.233160
2762.000000	102.128010
2763.000000	102.619060
2764.000000	102.471050
2765.000000	101.816175
2766.000000	101.188650
2767.000000	101.302210
2768.000000	100.985190
2769.000000	101.147255
2770.000000	100.065215
2771.000000	100.134590
2772.000000	100.965560
2773.000000	100.666000
2774.000000	101.185705
2775.000000	101.561980
2776.000000	101.740345
2777.000000	101.688430
2778.000000	101.691155
2779.000000	101.676115
2780.000000	102.286135
2781.000000	102.554465
2782.000000	102.399020
2783.000000	102.680830
2784.000000	102.656580
2785.000000	102.410210
2786.000000	102.075990
2787.000000	101.611385
2788.000000	101.306715
2789.000000	101.363940
2790.000000	101.304360
2791.000000	100.959190
2792.000000	100.408630
2793.000000	99.958340
2794.000000	99.173175
2795.000000	98.782180
2796.000000	98.538770
2797.000000	98.742210
2798.000000	99.008430
2799.000000	98.736980
2800.000000	98.383240
2801.000000	98.667970
2802.000000	99.063955
2803.000000	99.534695
2804.000000	99.801085
2805.000000	99.994295
2806.000000	100.548540
2807.000000	100.902495
2808.000000	100.735720
2809.000000	100.988130
2810.000000	101.097970
2811.000000	100.865145
2812.000000	100.791210
2813.000000	100.361115
2814.000000	100.591590
2815.000000	100.982995
2816.000000	101.060325
2817.000000	101.466175
2818.000000	102.372305
2819.000000	102.522425
2820.000000	102.628995
2821.000000	102.922865
2822.000000	102.679370
2823.000000	102.774275
2824.000000	103.224385
2825.000000	103.385035
2826.000000	103.198670
2827.000000	102.723855
2828.000000	101.985110
2829.000000	101.192030
2830.000000	101.047435
2831.000000	101.139610
2832.000000	101.904950
2833.000000	101.906865
2834.000000	101.281035
2835.000000	101.089940
2836.000000	101.493235
2837.000000	101.316945
2838.000000	100.892765
2839.000000	101.213715
2840.000000	101.458445
2841.000000	100.873595
2842.000000	99.974520
2843.000000	99.999910
2844.000000	100.385885
2845.000000	100.666480
2846.000000	100.357845
2847.000000	100.617600
2848.000000	101.605435
2849.000000	102.313610
2850.000000	102.575445
2851.000000	103.115720
2852.000000	103.530500
2853.000000	103.417400
2854.000000	103.323190
2855.000000	103.088710
2856.000000	103.082495
2857.000000	103.136510
2858.000000	102.617095
2859.000000	102.241890
2860.000000	102.218535
2861.000000	102.382420
2862.000000	102.930035
2863.000000	103.435330
2864.000000	103.275860
2865.000000	102.945145
2866.000000	102.614720
2867.000000	102.275410
2868.000000	102.422415
2869.000000	102.724890
2870.000000	102.734100
2871.000000	102.195895
2872.000000	101.483395
2873.000000	101.150960
2874.000000	101.170565
2875.000000	101.379595
2876.000000	101.541090
2877.000000	101.550310
2878.000000	101.571345
2879.000000	101.574150
2880.000000	101.174050
2881.000000	101.209855
2882.000000	101.085160
2883.000000	100.446810
2884.000000	100.412610
2885.000000	100.734000
2886.000000	101.091075
2887.000000	101.748530
2888.000000	101.819285
2889.000000	101.366950
2890.000000	101.665485
2891.000000	101.897150
2892.000000	101.973025
2893.000000	102.309895
2894.000000	102.327755
2895.000000	101.757035
2896.000000	101.486935
2897.000000	101.270485
2898.000000	100.966550
2899.000000	101.031375
2900.000000	100.804385
2901.000000	100.661790
2902.000000	100.660025
2903.000000	100.960555
2904.000000	101.283675
2905.000000	101.551715
2906.000000	101.432260
2907.000000	101.199345
2908.000000	101.379855
2909.000000	101.534990
2910.000000	101.926935
2911.000000	102.440800
2912.000000	102.610085
2913.000000	102.741615
2914.000000	102.651435
2915.000000	103.009975
2916.000000	102.649225
2917.000000	102.317935
2918.000000	101.965950
2919.000000	101.604575
2920.000000	101.023275
2921.000000	100.301360
2922.000000	99.867655
2923.000000	99.993870
2924.000000	99.921905
2925.000000	99.519775
2926.000000	99.853975
2927.000000	100.453090
2928.000000	101.011110
2929.000000	101.314655
2930.000000	101.563810
2931.000000	101.816125
2932.000000	101.848240
2933.000000	101.379470
2934.000000	101.404760
2935.000000	101.299445
2936.000000	101.401175
2937.000000	100.916470
2938.000000	100.420925
2939.000000	99.826880
2940.000000	99.684990
2941.000000	99.669850
2942.000000	100.234220
2943.000000	100.477550
2944.000000	100.359565
2945.000000	100.484595
2946.000000	100.120205
2947.000000	100.074600
2948.000000	99.892790
2949.000000	100.554650
2950.000000	100.356250
2951.000000	99.752695
2952.000000	99.106375
2953.000000	99.374405
2954.000000	99.471810
2955.000000	99.634120
2956.000000	99.644095
2957.000000	100.068530
2958.000000	100.582360
2959.000000	100.723255
2960.000000	101.123505
2961.000000	101.406930
2962.000000	101.457870
2963.000000	100.629620
2964.000000	100.197800
2965.000000	100.502265
2966.000000	100.921365
2967.000000	101.172715
2968.000000	101.040705
2969.000000	100.265115
2970.000000	99.897035
2971.000000	100.335115
2972.000000	100.409230
2973.000000	101.262825
2974.000000	101.583330
2975.000000	101.115015
2976.000000	100.420610
2977.000000	100.094975
2978.000000	99.583730
2979.000000	99.870545
2980.000000	100.172880
2981.000000	99.183235
2982.000000	98.935310
2983.000000	98.056455
2984.000000	98.281750
2985.000000	98.548755
2986.000000	98.778345
2987.000000	98.380130
2988.000000	99.168480
2989.000000	98.630690
2990.000000	98.689455
2991.000000	99.555510
2992.000000	100.276940
2993.000000	100.726715
2994.000000	100.579350
2995.000000	100.702820
2996.000000	100.246580
2997.000000	100.542785
2998.000000	100.441765
2999.000000	101.390340
3000.000000	101.672685
