PE UV       SUBTECH     SPECTRUM    ASCII       PEDS        4.00        
   -1
INBUCR0315-4.Sample.ASC
24/02/08
17:00:46.00
24/02/08
17:00:46.00
Vinicio Soto Monge
COSTA RICA, Prov. Puntarenas, Finca La Neblina de Willian Gamboa Elizondo. 1960 m. 10 ABR 1998. B. Gamboa. L_S_318500_600200 #50708. INBIOCRI002418000
250,000000
1
Lambda 1050
1050L1511233
PerkinElmer UV WinLab 6.3.2.0749 / 2.02.05 Lambda 900 UV/VIS/NIR, Aug  7 2015 09:38:08

0
0
3350/servo 860,8/2
0
0
UV/VIS
1
1
1
DoubleDePol,CommonBeamDepol,RBeamAtt,SBeamAtt,60mm sphere, WB InGaAs Detector
0
0
0
0
Program
Program
3350/servo 860,8/2
3350/0,2 860,8/0,2
3350/0,2 860,8/0,2
0
15.00
 
 
 
0
 
860,8
319,2
860,8
Front
100
on
S:100 R:100
0
0
0
0
 
0
 
 
 
0
 
 
0
0
0
0
0
 
 
 
 
0
0


0
0
#HDR
-1
-1
#GR
nm
%R
1.0
0.0
2500,000000
-1,000000
2251
8
7,122600
0,676300
#DATA

250.000000	nan
251.000000	nan
252.000000	nan
253.000000	nan
254.000000	nan
255.000000	nan
256.000000	nan
257.000000	nan
258.000000	nan
259.000000	4.794744
260.000000	4.782841
261.000000	4.772844
262.000000	4.760148
263.000000	4.746666
264.000000	4.730761
265.000000	4.714867
266.000000	4.699677
267.000000	4.682910
268.000000	4.666345
269.000000	4.650616
270.000000	4.637460
271.000000	4.620114
272.000000	4.604704
273.000000	4.591918
274.000000	4.582091
275.000000	4.571320
276.000000	4.560920
277.000000	4.551121
278.000000	4.540065
279.000000	4.528575
280.000000	4.519833
281.000000	4.514248
282.000000	4.509899
283.000000	4.503331
284.000000	4.493278
285.000000	4.488328
286.000000	4.480704
287.000000	4.474160
288.000000	4.469587
289.000000	4.467772
290.000000	4.463197
291.000000	4.455537
292.000000	4.447379
293.000000	4.440525
294.000000	4.437575
295.000000	4.429876
296.000000	4.427575
297.000000	4.424879
298.000000	4.416463
299.000000	4.408421
300.000000	4.402130
301.000000	4.397375
302.000000	4.394032
303.000000	4.386969
304.000000	4.382866
305.000000	4.381439
306.000000	4.375455
307.000000	4.368124
308.000000	4.366622
309.000000	4.365657
310.000000	4.363249
311.000000	4.360110
312.000000	4.353682
313.000000	4.351242
314.000000	4.348172
315.000000	4.343202
316.000000	4.340030
317.000000	4.354131
318.000000	4.366324
319.000000	4.370312
320.000000	4.389557
321.000000	4.407235
322.000000	4.423469
323.000000	4.441634
324.000000	4.449998
325.000000	4.464754
326.000000	4.469858
327.000000	4.461916
328.000000	4.458140
329.000000	4.455023
330.000000	4.439186
331.000000	4.416055
332.000000	4.398580
333.000000	4.384618
334.000000	4.377543
335.000000	4.360780
336.000000	4.351378
337.000000	4.335146
338.000000	4.323016
339.000000	4.314405
340.000000	4.305906
341.000000	4.309408
342.000000	4.306660
343.000000	4.294843
344.000000	4.284147
345.000000	4.279056
346.000000	4.275787
347.000000	4.273393
348.000000	4.268753
349.000000	4.267154
350.000000	4.260079
351.000000	4.252461
352.000000	4.246803
353.000000	4.249008
354.000000	4.249908
355.000000	4.247120
356.000000	4.244104
357.000000	4.241991
358.000000	4.236779
359.000000	4.233383
360.000000	4.231440
361.000000	4.226452
362.000000	4.223717
363.000000	4.214070
364.000000	4.205258
365.000000	4.201415
366.000000	4.198194
367.000000	4.193035
368.000000	4.185111
369.000000	4.172053
370.000000	4.158278
371.000000	4.145922
372.000000	4.135935
373.000000	4.128194
374.000000	4.116023
375.000000	4.098820
376.000000	4.088743
377.000000	4.077719
378.000000	4.067800
379.000000	4.059540
380.000000	4.053440
381.000000	4.048199
382.000000	4.040760
383.000000	4.033516
384.000000	4.029756
385.000000	4.028506
386.000000	4.020264
387.000000	4.017566
388.000000	4.014750
389.000000	4.011917
390.000000	4.009295
391.000000	4.006833
392.000000	4.004382
393.000000	4.002273
394.000000	4.000226
395.000000	3.997463
396.000000	3.995084
397.000000	3.992853
398.000000	3.990859
399.000000	3.989008
400.000000	3.987027
401.000000	3.985212
402.000000	3.983769
403.000000	3.981364
404.000000	3.978761
405.000000	3.976316
406.000000	3.973655
407.000000	3.971006
408.000000	3.968765
409.000000	3.966648
410.000000	3.964753
411.000000	3.962772
412.000000	3.960546
413.000000	3.958973
414.000000	3.957579
415.000000	3.956322
416.000000	3.954951
417.000000	3.953559
418.000000	3.952132
419.000000	3.950306
420.000000	3.948738
421.000000	3.946999
422.000000	3.945231
423.000000	3.943592
424.000000	3.942311
425.000000	3.940863
426.000000	3.939243
427.000000	3.937420
428.000000	3.935348
429.000000	3.933285
430.000000	3.931467
431.000000	3.929790
432.000000	3.928143
433.000000	3.926610
434.000000	3.924954
435.000000	3.923452
436.000000	3.922151
437.000000	3.920937
438.000000	3.919491
439.000000	3.918262
440.000000	3.917035
441.000000	3.916001
442.000000	3.915143
443.000000	3.914049
444.000000	3.913033
445.000000	3.911929
446.000000	3.910631
447.000000	3.909504
448.000000	3.908970
449.000000	3.908289
450.000000	3.907260
451.000000	3.905864
452.000000	3.904539
453.000000	3.903393
454.000000	3.901978
455.000000	3.900734
456.000000	3.899997
457.000000	3.899341
458.000000	3.898205
459.000000	3.897239
460.000000	3.896370
461.000000	3.896114
462.000000	3.895717
463.000000	3.895116
464.000000	3.894646
465.000000	3.894523
466.000000	3.894527
467.000000	3.894346
468.000000	3.894468
469.000000	3.894896
470.000000	3.895461
471.000000	3.895574
472.000000	3.895693
473.000000	3.896378
474.000000	3.897451
475.000000	3.898317
476.000000	3.898883
477.000000	3.899399
478.000000	3.900109
479.000000	3.900917
480.000000	3.901799
481.000000	3.903126
482.000000	3.904968
483.000000	3.906682
484.000000	3.908497
485.000000	3.910602
486.000000	3.913124
487.000000	3.916022
488.000000	3.919747
489.000000	3.923619
490.000000	3.927479
491.000000	3.931901
492.000000	3.936585
493.000000	3.941755
494.000000	3.947434
495.000000	3.953661
496.000000	3.960635
497.000000	3.968248
498.000000	3.975993
499.000000	3.984714
500.000000	3.994496
501.000000	4.004804
502.000000	4.015879
503.000000	4.027877
504.000000	4.040633
505.000000	4.054445
506.000000	4.069324
507.000000	4.085668
508.000000	4.103446
509.000000	4.122585
510.000000	4.143536
511.000000	4.167426
512.000000	4.193465
513.000000	4.222212
514.000000	4.254265
515.000000	4.289576
516.000000	4.327680
517.000000	4.369389
518.000000	4.414516
519.000000	4.463058
520.000000	4.515154
521.000000	4.569965
522.000000	4.628746
523.000000	4.690626
524.000000	4.755572
525.000000	4.823797
526.000000	4.896431
527.000000	4.972662
528.000000	5.052921
529.000000	5.138092
530.000000	5.228598
531.000000	5.324475
532.000000	5.425329
533.000000	5.531748
534.000000	5.644445
535.000000	5.763003
536.000000	5.886536
537.000000	6.015152
538.000000	6.148409
539.000000	6.285441
540.000000	6.425430
541.000000	6.567797
542.000000	6.712474
543.000000	6.858843
544.000000	7.006294
545.000000	7.154517
546.000000	7.302968
547.000000	7.451664
548.000000	7.600658
549.000000	7.749376
550.000000	7.897824
551.000000	8.047344
552.000000	8.196986
553.000000	8.346997
554.000000	8.497291
555.000000	8.648026
556.000000	8.799623
557.000000	8.950568
558.000000	9.101444
559.000000	9.253013
560.000000	9.400542
561.000000	9.545207
562.000000	9.686956
563.000000	9.824291
564.000000	9.956138
565.000000	10.079994
566.000000	10.195305
567.000000	10.300680
568.000000	10.394337
569.000000	10.473886
570.000000	10.542049
571.000000	10.593401
572.000000	10.627950
573.000000	10.644933
574.000000	10.642790
575.000000	10.622773
576.000000	10.584509
577.000000	10.529427
578.000000	10.456772
579.000000	10.367663
580.000000	10.261706
581.000000	10.143713
582.000000	10.012046
583.000000	9.869336
584.000000	9.716590
585.000000	9.555595
586.000000	9.387729
587.000000	9.213686
588.000000	9.036080
589.000000	8.855575
590.000000	8.674623
591.000000	8.492655
592.000000	8.311458
593.000000	8.130973
594.000000	7.953186
595.000000	7.778718
596.000000	7.606934
597.000000	7.439032
598.000000	7.274609
599.000000	7.114766
600.000000	6.960128
601.000000	6.809472
602.000000	6.664364
603.000000	6.524492
604.000000	6.389794
605.000000	6.259983
606.000000	6.136289
607.000000	6.018292
608.000000	5.905841
609.000000	5.798748
610.000000	5.696736
611.000000	5.600360
612.000000	5.509297
613.000000	5.423528
614.000000	5.342502
615.000000	5.266239
616.000000	5.193920
617.000000	5.125842
618.000000	5.062093
619.000000	5.002518
620.000000	4.946557
621.000000	4.894156
622.000000	4.844779
623.000000	4.798793
624.000000	4.756814
625.000000	4.717714
626.000000	4.681301
627.000000	4.647286
628.000000	4.615710
629.000000	4.586602
630.000000	4.559605
631.000000	4.535289
632.000000	4.512572
633.000000	4.492142
634.000000	4.472827
635.000000	4.455219
636.000000	4.439185
637.000000	4.425119
638.000000	4.412900
639.000000	4.401279
640.000000	4.391399
641.000000	4.382209
642.000000	4.375035
643.000000	4.368857
644.000000	4.363549
645.000000	4.359110
646.000000	4.355434
647.000000	4.352201
648.000000	4.349934
649.000000	4.348966
650.000000	4.348235
651.000000	4.348411
652.000000	4.349084
653.000000	4.349963
654.000000	4.351739
655.000000	4.354304
656.000000	4.357462
657.000000	4.361783
658.000000	4.365793
659.000000	4.370558
660.000000	4.375395
661.000000	4.380595
662.000000	4.386375
663.000000	4.393214
664.000000	4.400089
665.000000	4.407234
666.000000	4.415173
667.000000	4.423260
668.000000	4.431855
669.000000	4.440659
670.000000	4.451111
671.000000	4.461140
672.000000	4.471652
673.000000	4.482009
674.000000	4.493062
675.000000	4.504368
676.000000	4.516359
677.000000	4.528636
678.000000	4.541390
679.000000	4.553905
680.000000	4.566346
681.000000	4.580173
682.000000	4.593511
683.000000	4.606761
684.000000	4.620900
685.000000	4.635224
686.000000	4.649672
687.000000	4.663987
688.000000	4.678974
689.000000	4.694416
690.000000	4.710203
691.000000	4.725998
692.000000	4.742879
693.000000	4.760260
694.000000	4.777785
695.000000	4.795332
696.000000	4.812825
697.000000	4.831209
698.000000	4.849705
699.000000	4.868453
700.000000	4.887091
701.000000	4.906107
702.000000	4.925716
703.000000	4.945620
704.000000	4.965959
705.000000	4.987054
706.000000	5.008888
707.000000	5.030757
708.000000	5.052849
709.000000	5.075512
710.000000	5.098749
711.000000	5.121985
712.000000	5.145262
713.000000	5.169343
714.000000	5.192431
715.000000	5.215338
716.000000	5.238461
717.000000	5.262354
718.000000	5.286482
719.000000	5.310498
720.000000	5.335029
721.000000	5.360113
722.000000	5.385750
723.000000	5.411614
724.000000	5.438659
725.000000	5.466638
726.000000	5.494834
727.000000	5.523069
728.000000	5.551915
729.000000	5.581266
730.000000	5.610132
731.000000	5.638748
732.000000	5.667723
733.000000	5.697016
734.000000	5.726049
735.000000	5.755525
736.000000	5.786397
737.000000	5.817014
738.000000	5.847435
739.000000	5.878274
740.000000	5.909624
741.000000	5.941962
742.000000	5.974337
743.000000	6.006596
744.000000	6.039763
745.000000	6.072658
746.000000	6.105149
747.000000	6.138456
748.000000	6.171879
749.000000	6.206237
750.000000	6.242062
751.000000	6.277589
752.000000	6.312207
753.000000	6.347837
754.000000	6.384769
755.000000	6.421416
756.000000	6.458167
757.000000	6.494997
758.000000	6.532756
759.000000	6.570034
760.000000	6.607230
761.000000	6.645567
762.000000	6.685687
763.000000	6.726109
764.000000	6.764785
765.000000	6.804422
766.000000	6.844793
767.000000	6.886679
768.000000	6.928513
769.000000	6.969669
770.000000	7.010329
771.000000	7.051164
772.000000	7.092657
773.000000	7.135132
774.000000	7.178481
775.000000	7.222101
776.000000	7.264484
777.000000	7.306222
778.000000	7.350403
779.000000	7.395747
780.000000	7.440726
781.000000	7.486633
782.000000	7.532412
783.000000	7.578266
784.000000	7.624093
785.000000	7.670747
786.000000	7.718175
787.000000	7.766798
788.000000	7.814297
789.000000	7.863202
790.000000	7.914138
791.000000	7.964584
792.000000	8.014761
793.000000	8.063456
794.000000	8.113203
795.000000	8.163920
796.000000	8.216384
797.000000	8.266758
798.000000	8.316564
799.000000	8.368309
800.000000	8.421568
801.000000	8.472838
802.000000	8.524849
803.000000	8.576309
804.000000	8.629314
805.000000	8.682909
806.000000	8.736541
807.000000	8.794116
808.000000	8.850183
809.000000	8.903904
810.000000	8.958004
811.000000	9.016008
812.000000	9.071091
813.000000	9.129817
814.000000	9.188083
815.000000	9.245422
816.000000	9.304061
817.000000	9.360992
818.000000	9.418596
819.000000	9.476267
820.000000	9.532405
821.000000	9.588489
822.000000	9.646573
823.000000	9.707414
824.000000	9.767283
825.000000	9.824827
826.000000	9.882079
827.000000	9.939805
828.000000	9.999731
829.000000	10.054552
830.000000	10.112734
831.000000	10.171311
832.000000	10.230814
833.000000	10.284563
834.000000	10.339365
835.000000	10.398350
836.000000	10.458378
837.000000	10.515940
838.000000	10.569412
839.000000	10.632652
840.000000	10.687301
841.000000	10.743905
842.000000	10.806166
843.000000	10.860361
844.000000	10.919602
845.000000	10.976467
846.000000	11.021781
847.000000	11.073399
848.000000	11.131884
849.000000	11.181425
850.000000	11.235949
851.000000	11.290639
852.000000	11.327238
853.000000	11.372139
854.000000	11.415895
855.000000	11.445379
856.000000	11.504160
857.000000	11.574264
858.000000	11.978014
859.000000	12.079840
860.000000	12.156763
861.000000	12.228162
862.000000	12.302954
863.000000	12.385928
864.000000	12.454924
865.000000	12.510195
866.000000	12.563172
867.000000	12.588012
868.000000	12.283475
869.000000	12.266255
870.000000	12.280098
871.000000	12.282317
872.000000	12.281125
873.000000	12.269750
874.000000	12.266785
875.000000	12.288737
876.000000	12.257122
877.000000	12.242820
878.000000	12.231130
879.000000	12.236897
880.000000	12.224140
881.000000	12.226505
882.000000	12.248477
883.000000	12.263145
884.000000	12.266037
885.000000	12.259152
886.000000	12.281023
887.000000	12.307987
888.000000	12.319950
889.000000	12.332160
890.000000	12.346435
891.000000	12.358107
892.000000	12.357603
893.000000	12.365160
894.000000	12.382030
895.000000	12.409628
896.000000	12.438140
897.000000	12.450582
898.000000	12.474310
899.000000	12.495125
900.000000	12.522848
901.000000	12.541353
902.000000	12.565165
903.000000	12.594600
904.000000	12.623400
905.000000	12.654113
906.000000	12.687830
907.000000	12.719500
908.000000	12.742065
909.000000	12.766035
910.000000	12.800783
911.000000	12.842740
912.000000	12.873748
913.000000	12.903875
914.000000	12.932147
915.000000	12.961880
916.000000	13.000238
917.000000	13.040722
918.000000	13.081202
919.000000	13.125910
920.000000	13.165780
921.000000	13.204875
922.000000	13.251073
923.000000	13.293012
924.000000	13.345590
925.000000	13.396430
926.000000	13.433038
927.000000	13.475482
928.000000	13.520157
929.000000	13.563282
930.000000	13.603393
931.000000	13.649158
932.000000	13.699393
933.000000	13.745960
934.000000	13.789025
935.000000	13.831850
936.000000	13.880605
937.000000	13.928563
938.000000	13.977885
939.000000	14.027087
940.000000	14.076277
941.000000	14.126567
942.000000	14.172730
943.000000	14.221797
944.000000	14.268835
945.000000	14.318545
946.000000	14.375320
947.000000	14.430577
948.000000	14.482737
949.000000	14.534478
950.000000	14.587910
951.000000	14.634825
952.000000	14.683515
953.000000	14.737107
954.000000	14.792655
955.000000	14.847875
956.000000	14.899020
957.000000	14.950925
958.000000	15.002320
959.000000	15.056683
960.000000	15.111515
961.000000	15.169115
962.000000	15.226517
963.000000	15.281615
964.000000	15.337492
965.000000	15.391365
966.000000	15.446037
967.000000	15.502030
968.000000	15.559637
969.000000	15.616352
970.000000	15.672608
971.000000	15.729360
972.000000	15.788190
973.000000	15.844817
974.000000	15.899810
975.000000	15.956180
976.000000	16.012113
977.000000	16.069088
978.000000	16.126818
979.000000	16.182335
980.000000	16.236638
981.000000	16.292430
982.000000	16.348307
983.000000	16.406073
984.000000	16.466293
985.000000	16.526880
986.000000	16.585552
987.000000	16.643220
988.000000	16.702582
989.000000	16.761850
990.000000	16.819925
991.000000	16.877185
992.000000	16.935450
993.000000	16.994880
994.000000	17.052663
995.000000	17.109143
996.000000	17.165665
997.000000	17.222338
998.000000	17.279810
999.000000	17.340725
1000.000000	17.402003
1001.000000	17.462355
1002.000000	17.522705
1003.000000	17.582690
1004.000000	17.641345
1005.000000	17.701145
1006.000000	17.763450
1007.000000	17.826058
1008.000000	17.885035
1009.000000	17.941167
1010.000000	17.998985
1011.000000	18.059127
1012.000000	18.118913
1013.000000	18.179145
1014.000000	18.240258
1015.000000	18.300512
1016.000000	18.360293
1017.000000	18.420323
1018.000000	18.482608
1019.000000	18.546000
1020.000000	18.608817
1021.000000	18.670208
1022.000000	18.732087
1023.000000	18.793600
1024.000000	18.854885
1025.000000	18.917190
1026.000000	18.980685
1027.000000	19.044975
1028.000000	19.109202
1029.000000	19.173048
1030.000000	19.237180
1031.000000	19.301943
1032.000000	19.366167
1033.000000	19.429900
1034.000000	19.493595
1035.000000	19.557607
1036.000000	19.621327
1037.000000	19.683805
1038.000000	19.745325
1039.000000	19.807940
1040.000000	19.871520
1041.000000	19.935080
1042.000000	19.997605
1043.000000	20.060800
1044.000000	20.124745
1045.000000	20.188175
1046.000000	20.251123
1047.000000	20.314063
1048.000000	20.378332
1049.000000	20.442575
1050.000000	20.506788
1051.000000	20.570287
1052.000000	20.634150
1053.000000	20.698240
1054.000000	20.761553
1055.000000	20.825187
1056.000000	20.888840
1057.000000	20.952662
1058.000000	21.017492
1059.000000	21.081792
1060.000000	21.145037
1061.000000	21.209605
1062.000000	21.274925
1063.000000	21.340462
1064.000000	21.406750
1065.000000	21.472713
1066.000000	21.538605
1067.000000	21.604675
1068.000000	21.670198
1069.000000	21.736685
1070.000000	21.802623
1071.000000	21.868523
1072.000000	21.933895
1073.000000	21.999133
1074.000000	22.064330
1075.000000	22.129625
1076.000000	22.195300
1077.000000	22.260690
1078.000000	22.324918
1079.000000	22.388358
1080.000000	22.452832
1081.000000	22.516455
1082.000000	22.579890
1083.000000	22.643897
1084.000000	22.707708
1085.000000	22.771452
1086.000000	22.833820
1087.000000	22.896170
1088.000000	22.959197
1089.000000	23.022782
1090.000000	23.085000
1091.000000	23.147977
1092.000000	23.209275
1093.000000	23.270142
1094.000000	23.331618
1095.000000	23.393032
1096.000000	23.453788
1097.000000	23.515580
1098.000000	23.576925
1099.000000	23.637875
1100.000000	23.699203
1101.000000	23.760607
1102.000000	23.823620
1103.000000	23.885242
1104.000000	23.946660
1105.000000	24.007243
1106.000000	24.069305
1107.000000	24.130075
1108.000000	24.191680
1109.000000	24.252235
1110.000000	24.312413
1111.000000	24.370893
1112.000000	24.429247
1113.000000	24.489292
1114.000000	24.547190
1115.000000	24.605387
1116.000000	24.662635
1117.000000	24.720140
1118.000000	24.776177
1119.000000	24.831650
1120.000000	24.888147
1121.000000	24.944287
1122.000000	24.999345
1123.000000	25.053450
1124.000000	25.105742
1125.000000	25.157250
1126.000000	25.207047
1127.000000	25.254740
1128.000000	25.302075
1129.000000	25.347630
1130.000000	25.389968
1131.000000	25.428365
1132.000000	25.466205
1133.000000	25.502300
1134.000000	25.541307
1135.000000	25.578418
1136.000000	25.612865
1137.000000	25.646427
1138.000000	25.676875
1139.000000	25.708288
1140.000000	25.740033
1141.000000	25.773317
1142.000000	25.805590
1143.000000	25.838025
1144.000000	25.868457
1145.000000	25.900057
1146.000000	25.932207
1147.000000	25.965332
1148.000000	26.000450
1149.000000	26.034087
1150.000000	26.066115
1151.000000	26.097785
1152.000000	26.129595
1153.000000	26.157945
1154.000000	26.184812
1155.000000	26.208972
1156.000000	26.233465
1157.000000	26.254350
1158.000000	26.272073
1159.000000	26.287693
1160.000000	26.301775
1161.000000	26.313213
1162.000000	26.321357
1163.000000	26.329770
1164.000000	26.336773
1165.000000	26.342557
1166.000000	26.346543
1167.000000	26.350240
1168.000000	26.353447
1169.000000	26.358033
1170.000000	26.363835
1171.000000	26.371443
1172.000000	26.380532
1173.000000	26.391275
1174.000000	26.401757
1175.000000	26.414175
1176.000000	26.428852
1177.000000	26.445490
1178.000000	26.465347
1179.000000	26.485360
1180.000000	26.506025
1181.000000	26.526880
1182.000000	26.549835
1183.000000	26.572218
1184.000000	26.597510
1185.000000	26.625698
1186.000000	26.655543
1187.000000	26.688345
1188.000000	26.722055
1189.000000	26.759787
1190.000000	26.801347
1191.000000	26.847843
1192.000000	26.895910
1193.000000	26.948150
1194.000000	27.003728
1195.000000	27.061245
1196.000000	27.121252
1197.000000	27.182308
1198.000000	27.244647
1199.000000	27.306425
1200.000000	27.368367
1201.000000	27.429172
1202.000000	27.490610
1203.000000	27.551718
1204.000000	27.612558
1205.000000	27.673830
1206.000000	27.732985
1207.000000	27.791853
1208.000000	27.849505
1209.000000	27.908603
1210.000000	27.966478
1211.000000	28.024527
1212.000000	28.081920
1213.000000	28.139925
1214.000000	28.196918
1215.000000	28.251828
1216.000000	28.307655
1217.000000	28.363185
1218.000000	28.420693
1219.000000	28.475910
1220.000000	28.532783
1221.000000	28.589633
1222.000000	28.648028
1223.000000	28.704385
1224.000000	28.761482
1225.000000	28.818545
1226.000000	28.876450
1227.000000	28.933827
1228.000000	28.990042
1229.000000	29.047215
1230.000000	29.103947
1231.000000	29.160553
1232.000000	29.215480
1233.000000	29.271255
1234.000000	29.325727
1235.000000	29.379987
1236.000000	29.433163
1237.000000	29.486612
1238.000000	29.539460
1239.000000	29.592070
1240.000000	29.643840
1241.000000	29.695777
1242.000000	29.747857
1243.000000	29.800797
1244.000000	29.855747
1245.000000	29.911178
1246.000000	29.966822
1247.000000	30.023127
1248.000000	30.079760
1249.000000	30.135708
1250.000000	30.192280
1251.000000	30.249330
1252.000000	30.306705
1253.000000	30.362430
1254.000000	30.415328
1255.000000	30.468113
1256.000000	30.520573
1257.000000	30.571773
1258.000000	30.622742
1259.000000	30.673735
1260.000000	30.723073
1261.000000	30.770065
1262.000000	30.816248
1263.000000	30.862097
1264.000000	30.907267
1265.000000	30.950617
1266.000000	30.993020
1267.000000	31.035055
1268.000000	31.075993
1269.000000	31.116745
1270.000000	31.157378
1271.000000	31.197675
1272.000000	31.237592
1273.000000	31.276833
1274.000000	31.317147
1275.000000	31.358677
1276.000000	31.399815
1277.000000	31.441610
1278.000000	31.484037
1279.000000	31.525022
1280.000000	31.565857
1281.000000	31.607682
1282.000000	31.650150
1283.000000	31.694580
1284.000000	31.739705
1285.000000	31.784455
1286.000000	31.829485
1287.000000	31.875148
1288.000000	31.921305
1289.000000	31.968678
1290.000000	32.016835
1291.000000	32.065295
1292.000000	32.112540
1293.000000	32.157380
1294.000000	32.201838
1295.000000	32.246010
1296.000000	32.289597
1297.000000	32.331002
1298.000000	32.371482
1299.000000	32.411870
1300.000000	32.450943
1301.000000	32.488322
1302.000000	32.525807
1303.000000	32.563345
1304.000000	32.598907
1305.000000	32.632580
1306.000000	32.665298
1307.000000	32.697362
1308.000000	32.727283
1309.000000	32.755692
1310.000000	32.783133
1311.000000	32.808500
1312.000000	32.831710
1313.000000	32.853478
1314.000000	32.873625
1315.000000	32.892720
1316.000000	32.909778
1317.000000	32.925470
1318.000000	32.940555
1319.000000	32.953675
1320.000000	32.964120
1321.000000	32.972723
1322.000000	32.979980
1323.000000	32.985292
1324.000000	32.988930
1325.000000	32.990385
1326.000000	32.990043
1327.000000	32.987583
1328.000000	32.983063
1329.000000	32.976572
1330.000000	32.968280
1331.000000	32.958720
1332.000000	32.946070
1333.000000	32.930030
1334.000000	32.912312
1335.000000	32.892645
1336.000000	32.869793
1337.000000	32.843172
1338.000000	32.813125
1339.000000	32.780333
1340.000000	32.744495
1341.000000	32.704675
1342.000000	32.661682
1343.000000	32.615975
1344.000000	32.565535
1345.000000	32.510420
1346.000000	32.453090
1347.000000	32.394945
1348.000000	32.333270
1349.000000	32.267315
1350.000000	32.199055
1351.000000	32.128642
1352.000000	32.055718
1353.000000	31.984510
1354.000000	31.916340
1355.000000	31.851112
1356.000000	31.785805
1357.000000	31.719677
1358.000000	31.655743
1359.000000	31.594653
1360.000000	31.540608
1361.000000	31.496192
1362.000000	31.452603
1363.000000	31.406625
1364.000000	31.359687
1365.000000	31.309995
1366.000000	31.257662
1367.000000	31.207448
1368.000000	31.154020
1369.000000	31.093982
1370.000000	31.024720
1371.000000	30.942827
1372.000000	30.851230
1373.000000	30.746288
1374.000000	30.626665
1375.000000	30.495890
1376.000000	30.354095
1377.000000	30.196085
1378.000000	30.027583
1379.000000	29.854053
1380.000000	29.677515
1381.000000	29.506028
1382.000000	29.342723
1383.000000	29.191002
1384.000000	29.045818
1385.000000	28.906932
1386.000000	28.778742
1387.000000	28.665710
1388.000000	28.564177
1389.000000	28.466450
1390.000000	28.372125
1391.000000	28.277980
1392.000000	28.182408
1393.000000	28.085037
1394.000000	27.995347
1395.000000	27.916340
1396.000000	27.833008
1397.000000	27.735240
1398.000000	27.631353
1399.000000	27.535760
1400.000000	27.440637
1401.000000	27.332662
1402.000000	27.212940
1403.000000	27.086503
1404.000000	26.952905
1405.000000	26.802690
1406.000000	26.647095
1407.000000	26.494117
1408.000000	26.337785
1409.000000	26.167368
1410.000000	25.984910
1411.000000	25.800147
1412.000000	25.622143
1413.000000	25.447987
1414.000000	25.270495
1415.000000	25.092350
1416.000000	24.914800
1417.000000	24.740825
1418.000000	24.572422
1419.000000	24.409237
1420.000000	24.250982
1421.000000	24.098218
1422.000000	23.949475
1423.000000	23.803068
1424.000000	23.660477
1425.000000	23.524403
1426.000000	23.395238
1427.000000	23.271340
1428.000000	23.148245
1429.000000	23.027628
1430.000000	22.916127
1431.000000	22.813205
1432.000000	22.713143
1433.000000	22.616018
1434.000000	22.522520
1435.000000	22.433893
1436.000000	22.349942
1437.000000	22.269337
1438.000000	22.193925
1439.000000	22.122770
1440.000000	22.052390
1441.000000	21.982260
1442.000000	21.915053
1443.000000	21.849180
1444.000000	21.786103
1445.000000	21.726612
1446.000000	21.668202
1447.000000	21.607827
1448.000000	21.547263
1449.000000	21.489137
1450.000000	21.433235
1451.000000	21.380553
1452.000000	21.325450
1453.000000	21.271430
1454.000000	21.217752
1455.000000	21.163870
1456.000000	21.109862
1457.000000	21.056272
1458.000000	21.003697
1459.000000	20.949970
1460.000000	20.895137
1461.000000	20.839520
1462.000000	20.786160
1463.000000	20.732648
1464.000000	20.680455
1465.000000	20.626663
1466.000000	20.573070
1467.000000	20.521540
1468.000000	20.469613
1469.000000	20.418520
1470.000000	20.368617
1471.000000	20.318835
1472.000000	20.269540
1473.000000	20.221307
1474.000000	20.171888
1475.000000	20.124585
1476.000000	20.080757
1477.000000	20.038730
1478.000000	19.998223
1479.000000	19.959640
1480.000000	19.922070
1481.000000	19.885490
1482.000000	19.852293
1483.000000	19.821395
1484.000000	19.793678
1485.000000	19.768168
1486.000000	19.743482
1487.000000	19.719145
1488.000000	19.697653
1489.000000	19.677898
1490.000000	19.659835
1491.000000	19.644630
1492.000000	19.631335
1493.000000	19.620137
1494.000000	19.610747
1495.000000	19.604922
1496.000000	19.602400
1497.000000	19.603987
1498.000000	19.608675
1499.000000	19.617047
1500.000000	19.630335
1501.000000	19.647660
1502.000000	19.670108
1503.000000	19.697328
1504.000000	19.728663
1505.000000	19.762245
1506.000000	19.799178
1507.000000	19.840107
1508.000000	19.884070
1509.000000	19.931073
1510.000000	19.979773
1511.000000	20.030408
1512.000000	20.081882
1513.000000	20.134135
1514.000000	20.188147
1515.000000	20.243338
1516.000000	20.299080
1517.000000	20.353623
1518.000000	20.407883
1519.000000	20.462578
1520.000000	20.517378
1521.000000	20.571740
1522.000000	20.625785
1523.000000	20.679780
1524.000000	20.733535
1525.000000	20.786710
1526.000000	20.839647
1527.000000	20.891723
1528.000000	20.943090
1529.000000	20.993635
1530.000000	21.042758
1531.000000	21.091323
1532.000000	21.138987
1533.000000	21.185623
1534.000000	21.230880
1535.000000	21.275233
1536.000000	21.317733
1537.000000	21.359845
1538.000000	21.401322
1539.000000	21.441008
1540.000000	21.480535
1541.000000	21.519570
1542.000000	21.557755
1543.000000	21.596547
1544.000000	21.635188
1545.000000	21.673795
1546.000000	21.714728
1547.000000	21.757517
1548.000000	21.801638
1549.000000	21.847812
1550.000000	21.895540
1551.000000	21.944077
1552.000000	21.993243
1553.000000	22.042472
1554.000000	22.092087
1555.000000	22.140917
1556.000000	22.186297
1557.000000	22.229257
1558.000000	22.270195
1559.000000	22.307440
1560.000000	22.340457
1561.000000	22.369815
1562.000000	22.394772
1563.000000	22.414855
1564.000000	22.431155
1565.000000	22.443185
1566.000000	22.452205
1567.000000	22.457907
1568.000000	22.460445
1569.000000	22.461285
1570.000000	22.460675
1571.000000	22.459212
1572.000000	22.457980
1573.000000	22.456265
1574.000000	22.454092
1575.000000	22.454798
1576.000000	22.457810
1577.000000	22.462862
1578.000000	22.470108
1579.000000	22.479243
1580.000000	22.491080
1581.000000	22.505128
1582.000000	22.522198
1583.000000	22.543245
1584.000000	22.568542
1585.000000	22.595932
1586.000000	22.625592
1587.000000	22.657713
1588.000000	22.692252
1589.000000	22.729270
1590.000000	22.767267
1591.000000	22.806865
1592.000000	22.847322
1593.000000	22.890030
1594.000000	22.932842
1595.000000	22.976725
1596.000000	23.022375
1597.000000	23.070417
1598.000000	23.120185
1599.000000	23.171237
1600.000000	23.224858
1601.000000	23.280670
1602.000000	23.338755
1603.000000	23.396650
1604.000000	23.455932
1605.000000	23.516715
1606.000000	23.577095
1607.000000	23.636833
1608.000000	23.695703
1609.000000	23.754055
1610.000000	23.811637
1611.000000	23.867965
1612.000000	23.921867
1613.000000	23.974003
1614.000000	24.024328
1615.000000	24.072100
1616.000000	24.118910
1617.000000	24.164715
1618.000000	24.209555
1619.000000	24.251970
1620.000000	24.293427
1621.000000	24.333302
1622.000000	24.372422
1623.000000	24.411207
1624.000000	24.449792
1625.000000	24.487523
1626.000000	24.524397
1627.000000	24.560800
1628.000000	24.597147
1629.000000	24.635303
1630.000000	24.670895
1631.000000	24.705572
1632.000000	24.739867
1633.000000	24.773547
1634.000000	24.805843
1635.000000	24.838428
1636.000000	24.869492
1637.000000	24.898785
1638.000000	24.926178
1639.000000	24.951322
1640.000000	24.975265
1641.000000	24.998547
1642.000000	25.019092
1643.000000	25.037025
1644.000000	25.054538
1645.000000	25.069220
1646.000000	25.082593
1647.000000	25.093093
1648.000000	25.100907
1649.000000	25.107865
1650.000000	25.112265
1651.000000	25.113688
1652.000000	25.113245
1653.000000	25.109293
1654.000000	25.099695
1655.000000	25.085390
1656.000000	25.066207
1657.000000	25.043140
1658.000000	25.014730
1659.000000	24.977042
1660.000000	24.933507
1661.000000	24.883360
1662.000000	24.825390
1663.000000	24.761823
1664.000000	24.691810
1665.000000	24.614345
1666.000000	24.532083
1667.000000	24.443275
1668.000000	24.343547
1669.000000	24.238927
1670.000000	24.128773
1671.000000	24.014893
1672.000000	23.896858
1673.000000	23.776705
1674.000000	23.652490
1675.000000	23.528495
1676.000000	23.399130
1677.000000	23.266917
1678.000000	23.137305
1679.000000	23.005585
1680.000000	22.871378
1681.000000	22.732935
1682.000000	22.593382
1683.000000	22.452307
1684.000000	22.312790
1685.000000	22.175558
1686.000000	22.044503
1687.000000	21.919225
1688.000000	21.808083
1689.000000	21.711025
1690.000000	21.630995
1691.000000	21.570303
1692.000000	21.527060
1693.000000	21.499710
1694.000000	21.487380
1695.000000	21.484932
1696.000000	21.491927
1697.000000	21.507008
1698.000000	21.520463
1699.000000	21.533960
1700.000000	21.544140
1701.000000	21.547778
1702.000000	21.546990
1703.000000	21.539033
1704.000000	21.523865
1705.000000	21.502778
1706.000000	21.475008
1707.000000	21.439095
1708.000000	21.396090
1709.000000	21.344563
1710.000000	21.284533
1711.000000	21.216480
1712.000000	21.137487
1713.000000	21.049557
1714.000000	20.954615
1715.000000	20.849020
1716.000000	20.735520
1717.000000	20.615778
1718.000000	20.491650
1719.000000	20.364785
1720.000000	20.238955
1721.000000	20.116035
1722.000000	19.999608
1723.000000	19.894197
1724.000000	19.799245
1725.000000	19.720427
1726.000000	19.656790
1727.000000	19.609210
1728.000000	19.577707
1729.000000	19.561905
1730.000000	19.559513
1731.000000	19.570042
1732.000000	19.591820
1733.000000	19.619285
1734.000000	19.655795
1735.000000	19.698552
1736.000000	19.745755
1737.000000	19.798758
1738.000000	19.856497
1739.000000	19.917578
1740.000000	19.984025
1741.000000	20.053142
1742.000000	20.124010
1743.000000	20.196998
1744.000000	20.269742
1745.000000	20.343380
1746.000000	20.416620
1747.000000	20.487253
1748.000000	20.555085
1749.000000	20.619197
1750.000000	20.676738
1751.000000	20.729795
1752.000000	20.778843
1753.000000	20.823670
1754.000000	20.862830
1755.000000	20.896293
1756.000000	20.923520
1757.000000	20.945512
1758.000000	20.964220
1759.000000	20.981130
1760.000000	20.996815
1761.000000	21.010043
1762.000000	21.022490
1763.000000	21.035788
1764.000000	21.050352
1765.000000	21.066615
1766.000000	21.086418
1767.000000	21.111587
1768.000000	21.138993
1769.000000	21.168780
1770.000000	21.201155
1771.000000	21.236633
1772.000000	21.275188
1773.000000	21.315758
1774.000000	21.357098
1775.000000	21.398558
1776.000000	21.440825
1777.000000	21.482643
1778.000000	21.524477
1779.000000	21.565175
1780.000000	21.604745
1781.000000	21.642418
1782.000000	21.676155
1783.000000	21.706215
1784.000000	21.733210
1785.000000	21.758450
1786.000000	21.781075
1787.000000	21.800470
1788.000000	21.816430
1789.000000	21.830603
1790.000000	21.843860
1791.000000	21.856360
1792.000000	21.869318
1793.000000	21.882423
1794.000000	21.897150
1795.000000	21.912230
1796.000000	21.927885
1797.000000	21.943623
1798.000000	21.960275
1799.000000	21.978637
1800.000000	21.997843
1801.000000	22.018865
1802.000000	22.039375
1803.000000	22.059688
1804.000000	22.079160
1805.000000	22.099892
1806.000000	22.122660
1807.000000	22.144105
1808.000000	22.163818
1809.000000	22.181983
1810.000000	22.201240
1811.000000	22.220715
1812.000000	22.240850
1813.000000	22.261182
1814.000000	22.282495
1815.000000	22.302443
1816.000000	22.317285
1817.000000	22.327135
1818.000000	22.335772
1819.000000	22.349615
1820.000000	22.367407
1821.000000	22.384985
1822.000000	22.398312
1823.000000	22.405590
1824.000000	22.408613
1825.000000	22.411320
1826.000000	22.419435
1827.000000	22.436003
1828.000000	22.457675
1829.000000	22.477578
1830.000000	22.493662
1831.000000	22.507092
1832.000000	22.521205
1833.000000	22.538468
1834.000000	22.560195
1835.000000	22.586150
1836.000000	22.614755
1837.000000	22.643790
1838.000000	22.670705
1839.000000	22.697228
1840.000000	22.726345
1841.000000	22.762785
1842.000000	22.799962
1843.000000	22.831712
1844.000000	22.853015
1845.000000	22.867078
1846.000000	22.881953
1847.000000	22.906817
1848.000000	22.936677
1849.000000	22.958163
1850.000000	22.964513
1851.000000	22.957693
1852.000000	22.952130
1853.000000	22.956018
1854.000000	22.968467
1855.000000	22.980133
1856.000000	22.978877
1857.000000	22.961403
1858.000000	22.940685
1859.000000	22.924163
1860.000000	22.912102
1861.000000	22.900713
1862.000000	22.882650
1863.000000	22.851625
1864.000000	22.810403
1865.000000	22.761028
1866.000000	22.706360
1867.000000	22.645018
1868.000000	22.570082
1869.000000	22.488910
1870.000000	22.404978
1871.000000	22.314915
1872.000000	22.219595
1873.000000	22.117938
1874.000000	22.007442
1875.000000	21.887027
1876.000000	21.756832
1877.000000	21.615705
1878.000000	21.462535
1879.000000	21.289413
1880.000000	21.096227
1881.000000	20.886150
1882.000000	20.667413
1883.000000	20.440175
1884.000000	20.204203
1885.000000	19.958907
1886.000000	19.703843
1887.000000	19.437555
1888.000000	19.160728
1889.000000	18.883130
1890.000000	18.600835
1891.000000	18.315545
1892.000000	18.017482
1893.000000	17.708182
1894.000000	17.390792
1895.000000	17.068350
1896.000000	16.741525
1897.000000	16.411425
1898.000000	16.084290
1899.000000	15.751133
1900.000000	15.417978
1901.000000	15.082987
1902.000000	14.751702
1903.000000	14.429720
1904.000000	14.117337
1905.000000	13.813885
1906.000000	13.518128
1907.000000	13.233585
1908.000000	12.953880
1909.000000	12.684433
1910.000000	12.428890
1911.000000	12.186215
1912.000000	11.960250
1913.000000	11.744140
1914.000000	11.538887
1915.000000	11.345673
1916.000000	11.166265
1917.000000	10.994697
1918.000000	10.834615
1919.000000	10.688957
1920.000000	10.553783
1921.000000	10.429555
1922.000000	10.308905
1923.000000	10.197885
1924.000000	10.092313
1925.000000	9.995457
1926.000000	9.908065
1927.000000	9.833003
1928.000000	9.766367
1929.000000	9.705445
1930.000000	9.647600
1931.000000	9.597470
1932.000000	9.556345
1933.000000	9.519158
1934.000000	9.489655
1935.000000	9.466443
1936.000000	9.447480
1937.000000	9.429325
1938.000000	9.419375
1939.000000	9.411770
1940.000000	9.414277
1941.000000	9.419302
1942.000000	9.425652
1943.000000	9.437380
1944.000000	9.458630
1945.000000	9.479875
1946.000000	9.505925
1947.000000	9.538988
1948.000000	9.571842
1949.000000	9.609175
1950.000000	9.644250
1951.000000	9.682885
1952.000000	9.727703
1953.000000	9.775000
1954.000000	9.819930
1955.000000	9.869445
1956.000000	9.918530
1957.000000	9.968230
1958.000000	10.022600
1959.000000	10.079343
1960.000000	10.134942
1961.000000	10.193623
1962.000000	10.249218
1963.000000	10.306587
1964.000000	10.365603
1965.000000	10.421020
1966.000000	10.480435
1967.000000	10.541352
1968.000000	10.597300
1969.000000	10.652323
1970.000000	10.710625
1971.000000	10.767798
1972.000000	10.823850
1973.000000	10.881863
1974.000000	10.937160
1975.000000	10.995077
1976.000000	11.049373
1977.000000	11.104378
1978.000000	11.162825
1979.000000	11.221687
1980.000000	11.278638
1981.000000	11.335712
1982.000000	11.394443
1983.000000	11.450703
1984.000000	11.509887
1985.000000	11.569090
1986.000000	11.628252
1987.000000	11.685652
1988.000000	11.744485
1989.000000	11.804010
1990.000000	11.862060
1991.000000	11.917393
1992.000000	11.975825
1993.000000	12.035615
1994.000000	12.091690
1995.000000	12.144323
1996.000000	12.195535
1997.000000	12.244643
1998.000000	12.290997
1999.000000	12.332378
2000.000000	12.371080
2001.000000	12.409330
2002.000000	12.444515
2003.000000	12.475060
2004.000000	12.507128
2005.000000	12.538970
2006.000000	12.564270
2007.000000	12.585990
2008.000000	12.600840
2009.000000	12.613510
2010.000000	12.625070
2011.000000	12.631275
2012.000000	12.632855
2013.000000	12.630498
2014.000000	12.618973
2015.000000	12.603748
2016.000000	12.589710
2017.000000	12.571433
2018.000000	12.548822
2019.000000	12.524468
2020.000000	12.494128
2021.000000	12.461778
2022.000000	12.423887
2023.000000	12.382737
2024.000000	12.339215
2025.000000	12.290675
2026.000000	12.236042
2027.000000	12.182113
2028.000000	12.126905
2029.000000	12.065900
2030.000000	12.002923
2031.000000	11.931500
2032.000000	11.858315
2033.000000	11.781542
2034.000000	11.703190
2035.000000	11.627345
2036.000000	11.548230
2037.000000	11.460057
2038.000000	11.369473
2039.000000	11.275668
2040.000000	11.184015
2041.000000	11.096805
2042.000000	11.006288
2043.000000	10.914915
2044.000000	10.822520
2045.000000	10.725377
2046.000000	10.631127
2047.000000	10.543318
2048.000000	10.457055
2049.000000	10.374337
2050.000000	10.297718
2051.000000	10.227578
2052.000000	10.167090
2053.000000	10.117188
2054.000000	10.075685
2055.000000	10.043415
2056.000000	10.024400
2057.000000	10.015375
2058.000000	10.016747
2059.000000	10.029815
2060.000000	10.049015
2061.000000	10.073665
2062.000000	10.101320
2063.000000	10.133980
2064.000000	10.176725
2065.000000	10.225445
2066.000000	10.277582
2067.000000	10.332830
2068.000000	10.395300
2069.000000	10.464245
2070.000000	10.533172
2071.000000	10.605037
2072.000000	10.679977
2073.000000	10.754207
2074.000000	10.825602
2075.000000	10.898022
2076.000000	10.964595
2077.000000	11.026085
2078.000000	11.088123
2079.000000	11.143135
2080.000000	11.188975
2081.000000	11.232457
2082.000000	11.277603
2083.000000	11.320913
2084.000000	11.358010
2085.000000	11.385423
2086.000000	11.410332
2087.000000	11.436178
2088.000000	11.451583
2089.000000	11.464825
2090.000000	11.484410
2091.000000	11.493645
2092.000000	11.495925
2093.000000	11.497465
2094.000000	11.494055
2095.000000	11.489310
2096.000000	11.483900
2097.000000	11.479097
2098.000000	11.475973
2099.000000	11.465180
2100.000000	11.451155
2101.000000	11.449155
2102.000000	11.453850
2103.000000	11.454640
2104.000000	11.462602
2105.000000	11.469935
2106.000000	11.478328
2107.000000	11.491495
2108.000000	11.500510
2109.000000	11.518553
2110.000000	11.538100
2111.000000	11.546592
2112.000000	11.550747
2113.000000	11.560600
2114.000000	11.564400
2115.000000	11.566838
2116.000000	11.568100
2117.000000	11.557990
2118.000000	11.555125
2119.000000	11.547290
2120.000000	11.545627
2121.000000	11.542030
2122.000000	11.529335
2123.000000	11.505470
2124.000000	11.484272
2125.000000	11.474345
2126.000000	11.461923
2127.000000	11.441193
2128.000000	11.416820
2129.000000	11.389360
2130.000000	11.348308
2131.000000	11.318738
2132.000000	11.295695
2133.000000	11.270433
2134.000000	11.238990
2135.000000	11.194377
2136.000000	11.145295
2137.000000	11.096863
2138.000000	11.050900
2139.000000	11.005422
2140.000000	10.955342
2141.000000	10.893870
2142.000000	10.824628
2143.000000	10.755545
2144.000000	10.691847
2145.000000	10.625447
2146.000000	10.565950
2147.000000	10.508455
2148.000000	10.443775
2149.000000	10.376972
2150.000000	10.321552
2151.000000	10.262498
2152.000000	10.200708
2153.000000	10.142000
2154.000000	10.073805
2155.000000	10.017265
2156.000000	9.952837
2157.000000	9.881530
2158.000000	9.818075
2159.000000	9.749842
2160.000000	9.687455
2161.000000	9.626090
2162.000000	9.567865
2163.000000	9.513348
2164.000000	9.461947
2165.000000	9.405500
2166.000000	9.362328
2167.000000	9.343443
2168.000000	9.305432
2169.000000	9.270635
2170.000000	9.222078
2171.000000	9.195118
2172.000000	9.174782
2173.000000	9.153047
2174.000000	9.136725
2175.000000	9.127802
2176.000000	9.110447
2177.000000	9.080232
2178.000000	9.065363
2179.000000	9.055545
2180.000000	9.063638
2181.000000	9.047092
2182.000000	9.035205
2183.000000	9.016445
2184.000000	9.003947
2185.000000	8.984835
2186.000000	8.969447
2187.000000	8.953663
2188.000000	8.951292
2189.000000	8.936985
2190.000000	8.907360
2191.000000	8.890725
2192.000000	8.861812
2193.000000	8.837550
2194.000000	8.805778
2195.000000	8.778533
2196.000000	8.745515
2197.000000	8.719418
2198.000000	8.677220
2199.000000	8.649435
2200.000000	8.624925
2201.000000	8.589332
2202.000000	8.551920
2203.000000	8.530915
2204.000000	8.508710
2205.000000	8.485432
2206.000000	8.471152
2207.000000	8.454230
2208.000000	8.434963
2209.000000	8.414458
2210.000000	8.407847
2211.000000	8.416585
2212.000000	8.435272
2213.000000	8.450482
2214.000000	8.478973
2215.000000	8.514130
2216.000000	8.540963
2217.000000	8.574870
2218.000000	8.616942
2219.000000	8.667475
2220.000000	8.714690
2221.000000	8.760735
2222.000000	8.815640
2223.000000	8.873082
2224.000000	8.925455
2225.000000	8.965940
2226.000000	9.023872
2227.000000	9.085050
2228.000000	9.143852
2229.000000	9.196400
2230.000000	9.228948
2231.000000	9.260127
2232.000000	9.292357
2233.000000	9.311747
2234.000000	9.324932
2235.000000	9.351057
2236.000000	9.363770
2237.000000	9.363787
2238.000000	9.360090
2239.000000	9.354910
2240.000000	9.370785
2241.000000	9.371640
2242.000000	9.366315
2243.000000	9.350153
2244.000000	9.326230
2245.000000	9.288453
2246.000000	9.249500
2247.000000	9.208032
2248.000000	9.163810
2249.000000	9.116108
2250.000000	9.051348
2251.000000	8.992920
2252.000000	8.923388
2253.000000	8.866988
2254.000000	8.816628
2255.000000	8.760112
2256.000000	8.698513
2257.000000	8.630793
2258.000000	8.571215
2259.000000	8.510803
2260.000000	8.450600
2261.000000	8.406230
2262.000000	8.369505
2263.000000	8.309418
2264.000000	8.250660
2265.000000	8.197930
2266.000000	8.152447
2267.000000	8.133228
2268.000000	8.108007
2269.000000	8.082655
2270.000000	8.064333
2271.000000	8.023872
2272.000000	7.989543
2273.000000	7.989082
2274.000000	7.979685
2275.000000	7.982733
2276.000000	7.991883
2277.000000	7.984285
2278.000000	7.979698
2279.000000	7.983727
2280.000000	7.987475
2281.000000	7.995758
2282.000000	8.000895
2283.000000	7.993340
2284.000000	7.990098
2285.000000	7.985037
2286.000000	7.975788
2287.000000	7.966805
2288.000000	7.961782
2289.000000	7.962512
2290.000000	7.962588
2291.000000	7.961735
2292.000000	7.953817
2293.000000	7.954452
2294.000000	7.969395
2295.000000	7.979272
2296.000000	7.983938
2297.000000	7.989475
2298.000000	7.994608
2299.000000	7.982735
2300.000000	7.980755
2301.000000	7.990385
2302.000000	8.011157
2303.000000	8.029732
2304.000000	8.035835
2305.000000	8.049902
2306.000000	8.071695
2307.000000	8.096217
2308.000000	8.121875
2309.000000	8.162380
2310.000000	8.189615
2311.000000	8.216640
2312.000000	8.237762
2313.000000	8.269865
2314.000000	8.318535
2315.000000	8.354988
2316.000000	8.378832
2317.000000	8.397593
2318.000000	8.415537
2319.000000	8.432588
2320.000000	8.460160
2321.000000	8.479910
2322.000000	8.504577
2323.000000	8.514313
2324.000000	8.506672
2325.000000	8.505453
2326.000000	8.515750
2327.000000	8.538885
2328.000000	8.566470
2329.000000	8.586547
2330.000000	8.608728
2331.000000	8.627978
2332.000000	8.631270
2333.000000	8.641447
2334.000000	8.667165
2335.000000	8.702995
2336.000000	8.733857
2337.000000	8.747910
2338.000000	8.752345
2339.000000	8.762975
2340.000000	8.768883
2341.000000	8.771258
2342.000000	8.792205
2343.000000	8.809455
2344.000000	8.816538
2345.000000	8.813705
2346.000000	8.803285
2347.000000	8.806442
2348.000000	8.824740
2349.000000	8.845282
2350.000000	8.867500
2351.000000	8.897362
2352.000000	8.922485
2353.000000	8.948652
2354.000000	8.967178
2355.000000	8.983107
2356.000000	9.021733
2357.000000	9.061185
2358.000000	9.078708
2359.000000	9.074813
2360.000000	9.072518
2361.000000	9.097275
2362.000000	9.117585
2363.000000	9.128128
2364.000000	9.170312
2365.000000	9.222642
2366.000000	9.240305
2367.000000	9.249545
2368.000000	9.280440
2369.000000	9.336295
2370.000000	9.398233
2371.000000	9.433167
2372.000000	9.454625
2373.000000	9.490787
2374.000000	9.502197
2375.000000	9.491945
2376.000000	9.511862
2377.000000	9.553373
2378.000000	9.582795
2379.000000	9.593350
2380.000000	9.590067
2381.000000	9.594708
2382.000000	9.611743
2383.000000	9.616400
2384.000000	9.620078
2385.000000	9.630073
2386.000000	9.643750
2387.000000	9.644752
2388.000000	9.647435
2389.000000	9.653070
2390.000000	9.654262
2391.000000	9.667075
2392.000000	9.690008
2393.000000	9.722160
2394.000000	9.754235
2395.000000	9.781335
2396.000000	9.803218
2397.000000	9.806325
2398.000000	9.808567
2399.000000	9.819670
2400.000000	9.833890
2401.000000	9.840682
2402.000000	9.831210
2403.000000	9.812150
2404.000000	9.792270
2405.000000	9.799310
2406.000000	9.767383
2407.000000	9.765330
2408.000000	9.747637
2409.000000	9.720023
2410.000000	9.700812
2411.000000	9.672170
2412.000000	9.670465
2413.000000	9.662722
2414.000000	9.655963
2415.000000	9.626922
2416.000000	9.626410
2417.000000	9.612308
2418.000000	9.631593
2419.000000	9.644560
2420.000000	9.651615
2421.000000	9.665203
2422.000000	9.627310
2423.000000	9.607600
2424.000000	9.585435
2425.000000	9.549090
2426.000000	9.519502
2427.000000	9.511035
2428.000000	9.472098
2429.000000	9.424065
2430.000000	9.374013
2431.000000	9.343702
2432.000000	9.341965
2433.000000	9.308018
2434.000000	9.294665
2435.000000	9.313433
2436.000000	9.304870
2437.000000	9.265067
2438.000000	9.213192
2439.000000	9.181007
2440.000000	9.162895
2441.000000	9.112728
2442.000000	9.110732
2443.000000	9.078910
2444.000000	9.070750
2445.000000	9.073430
2446.000000	9.088865
2447.000000	9.092950
2448.000000	9.111150
2449.000000	9.112742
2450.000000	9.108847
2451.000000	9.111655
2452.000000	9.055800
2453.000000	9.067095
2454.000000	9.052083
2455.000000	8.995423
2456.000000	8.977593
2457.000000	8.983793
2458.000000	9.000715
2459.000000	9.000018
2460.000000	9.029847
2461.000000	9.063817
2462.000000	9.143957
2463.000000	9.179520
2464.000000	9.192570
2465.000000	9.254175
2466.000000	9.267308
2467.000000	9.266280
2468.000000	9.285135
2469.000000	9.383053
2470.000000	9.396635
2471.000000	9.441353
2472.000000	9.414280
2473.000000	9.436620
2474.000000	9.500457
2475.000000	9.588057
2476.000000	9.700438
2477.000000	9.859063
2478.000000	9.977970
2479.000000	10.080280
2480.000000	10.203950
2481.000000	10.320457
2482.000000	10.463292
2483.000000	10.608683
2484.000000	10.737362
2485.000000	10.830935
2486.000000	10.950325
2487.000000	11.039390
2488.000000	11.248510
2489.000000	11.398875
2490.000000	11.577170
2491.000000	11.751930
2492.000000	11.956295
2493.000000	12.137868
2494.000000	12.362542
2495.000000	12.477352
2496.000000	12.675980
2497.000000	12.833818
2498.000000	12.934115
2499.000000	13.133940
2500.000000	13.400552
2501.000000	17.101040
2502.000000	20.549345
2503.000000	24.105760
2504.000000	27.659907
2505.000000	31.463912
2506.000000	34.982850
2507.000000	38.503147
2508.000000	42.170938
2509.000000	45.856512
2510.000000	49.987680
2511.000000	51.051220
2512.000000	52.261230
2513.000000	53.046730
2514.000000	54.090200
2515.000000	54.734870
2516.000000	55.611860
2517.000000	56.951830
2518.000000	57.871650
2519.000000	59.023300
2520.000000	60.079460
2521.000000	60.647290
2522.000000	61.052020
2523.000000	61.936830
2524.000000	62.664890
2525.000000	63.744350
2526.000000	64.819830
2527.000000	65.622630
2528.000000	66.966570
2529.000000	67.995120
2530.000000	68.450740
2531.000000	69.004530
2532.000000	70.126320
2533.000000	71.094080
2534.000000	71.913410
2535.000000	73.066580
2536.000000	73.905930
2537.000000	74.854890
2538.000000	75.413610
2539.000000	75.922160
2540.000000	75.912920
2541.000000	76.678330
2542.000000	77.554320
2543.000000	78.332970
2544.000000	79.138360
2545.000000	78.856190
2546.000000	78.817570
2547.000000	79.007850
2548.000000	79.515870
2549.000000	80.075580
2550.000000	81.272720
2551.000000	81.797510
2552.000000	82.312170
2553.000000	82.676730
2554.000000	83.097870
2555.000000	83.889910
2556.000000	84.926570
2557.000000	85.947460
2558.000000	86.505340
2559.000000	86.936590
2560.000000	88.030090
2561.000000	89.345720
2562.000000	89.933000
2563.000000	90.082080
2564.000000	90.213890
2565.000000	90.567940
2566.000000	90.799960
2567.000000	91.134290
2568.000000	92.104910
2569.000000	92.594940
2570.000000	92.539220
2571.000000	91.860560
2572.000000	91.677260
2573.000000	92.574680
2574.000000	93.151490
2575.000000	93.505360
2576.000000	94.563670
2577.000000	95.408030
2578.000000	95.826720
2579.000000	96.522250
2580.000000	96.617410
2581.000000	96.934670
2582.000000	97.409770
2583.000000	97.836990
2584.000000	98.158010
2585.000000	99.152720
2586.000000	99.606750
2587.000000	99.029540
2588.000000	98.271060
2589.000000	97.234590
2590.000000	97.363530
2591.000000	97.751090
2592.000000	97.397060
2593.000000	97.567640
2594.000000	98.298300
2595.000000	98.018980
2596.000000	97.441200
2597.000000	98.050520
2598.000000	98.473970
2599.000000	99.500890
2600.000000	100.136060
2601.000000	100.120290
2602.000000	100.584160
2603.000000	99.878540
2604.000000	99.216840
2605.000000	99.433870
2606.000000	99.294840
2607.000000	98.442580
2608.000000	98.065930
2609.000000	97.710880
2610.000000	97.895410
2611.000000	98.805410
2612.000000	98.469110
2613.000000	98.343630
2614.000000	98.455530
2615.000000	98.942120
2616.000000	99.702830
2617.000000	100.447620
2618.000000	100.696410
2619.000000	100.087580
2620.000000	98.949450
2621.000000	97.866880
2622.000000	98.051060
2623.000000	98.657210
2624.000000	98.930460
2625.000000	97.762090
2626.000000	97.142070
2627.000000	96.830810
2628.000000	96.518470
2629.000000	97.129250
2630.000000	97.626120
2631.000000	98.204700
2632.000000	98.326010
2633.000000	97.671040
2634.000000	96.756990
2635.000000	96.298070
2636.000000	95.894590
2637.000000	95.991490
2638.000000	96.507950
2639.000000	97.089210
2640.000000	97.963520
2641.000000	97.790660
2642.000000	98.010400
2643.000000	98.108060
2644.000000	98.390890
2645.000000	98.835590
2646.000000	98.770690
2647.000000	98.557880
2648.000000	98.058200
2649.000000	97.753280
2650.000000	96.825040
2651.000000	96.793880
2652.000000	95.969090
2653.000000	96.701490
2654.000000	96.983310
2655.000000	97.425170
2656.000000	97.667520
2657.000000	98.015690
2658.000000	98.717770
2659.000000	98.651750
2660.000000	98.527320
2661.000000	98.437050
2662.000000	98.421460
2663.000000	98.271040
2664.000000	98.675160
2665.000000	98.664620
2666.000000	98.488710
2667.000000	97.493310
2668.000000	97.149090
2669.000000	97.358480
2670.000000	97.498770
2671.000000	96.953680
2672.000000	98.588110
2673.000000	98.021670
2674.000000	97.900890
2675.000000	98.591670
2676.000000	98.900260
2677.000000	99.484870
2678.000000	98.945940
2679.000000	98.511860
2680.000000	98.182790
2681.000000	98.414300
2682.000000	97.235730
2683.000000	97.347080
2684.000000	96.366540
2685.000000	95.534550
2686.000000	95.758940
2687.000000	96.385620
2688.000000	97.245180
2689.000000	97.666220
2690.000000	98.410070
2691.000000	98.750050
2692.000000	99.853580
2693.000000	99.884660
2694.000000	100.250530
2695.000000	99.814210
2696.000000	99.433920
2697.000000	98.579350
2698.000000	98.424170
2699.000000	98.117230
2700.000000	97.460760
2701.000000	96.681730
2702.000000	96.292790
2703.000000	96.173070
2704.000000	96.010770
2705.000000	96.157870
2706.000000	96.203090
2707.000000	96.014340
2708.000000	95.863110
2709.000000	95.209120
2710.000000	95.312920
2711.000000	95.530340
2712.000000	95.279870
2713.000000	95.168330
2714.000000	95.438940
2715.000000	96.787120
2716.000000	96.584940
2717.000000	97.191900
2718.000000	96.001630
2719.000000	97.362240
2720.000000	97.492180
2721.000000	97.550040
2722.000000	97.265130
2723.000000	97.131020
2724.000000	97.313020
2725.000000	97.580670
2726.000000	97.865320
2727.000000	97.901100
2728.000000	98.501230
2729.000000	97.879650
2730.000000	97.313620
2731.000000	97.582720
2732.000000	97.468650
2733.000000	97.881530
2734.000000	98.079840
2735.000000	97.083970
2736.000000	97.370600
2737.000000	97.379380
2738.000000	97.853630
2739.000000	97.517400
2740.000000	99.093560
2741.000000	98.681860
2742.000000	98.379600
2743.000000	97.290090
2744.000000	96.606820
2745.000000	96.098140
2746.000000	96.282610
2747.000000	96.276360
2748.000000	96.310350
2749.000000	96.965540
2750.000000	95.149090
2751.000000	95.193830
2752.000000	96.672110
2753.000000	97.133350
2754.000000	98.167860
2755.000000	98.441070
2756.000000	97.667030
2757.000000	97.516320
2758.000000	97.622170
2759.000000	97.024060
2760.000000	98.272270
2761.000000	98.777980
2762.000000	97.450890
2763.000000	97.652520
2764.000000	96.892280
2765.000000	97.454340
2766.000000	96.891090
2767.000000	97.674130
2768.000000	96.981470
2769.000000	96.431150
2770.000000	96.727940
2771.000000	96.695510
2772.000000	96.609470
2773.000000	97.292900
2774.000000	98.283740
2775.000000	97.721310
2776.000000	98.329760
2777.000000	96.464880
2778.000000	96.118380
2779.000000	96.638580
2780.000000	95.888720
2781.000000	95.549640
2782.000000	95.870210
2783.000000	96.315320
2784.000000	95.885410
2785.000000	95.293290
2786.000000	95.325560
2787.000000	96.107930
2788.000000	96.466220
2789.000000	96.634910
2790.000000	96.518550
2791.000000	96.228610
2792.000000	96.125090
2793.000000	95.942000
2794.000000	95.858000
2795.000000	96.435600
2796.000000	97.050330
2797.000000	97.485160
2798.000000	98.614350
2799.000000	98.895030
2800.000000	98.850990
2801.000000	98.774800
2802.000000	98.709300
2803.000000	97.996860
2804.000000	98.252860
2805.000000	98.558960
2806.000000	98.612650
2807.000000	98.443230
2808.000000	97.576180
2809.000000	97.463150
2810.000000	97.359060
2811.000000	98.803980
2812.000000	98.409960
2813.000000	97.628350
2814.000000	96.654340
2815.000000	96.270250
2816.000000	95.260480
2817.000000	94.372910
2818.000000	94.162410
2819.000000	92.689870
2820.000000	92.284670
2821.000000	92.293630
2822.000000	93.928980
2823.000000	94.967810
2824.000000	94.402630
2825.000000	93.740860
2826.000000	93.872320
2827.000000	93.895490
2828.000000	94.248990
2829.000000	95.945150
2830.000000	96.555150
2831.000000	95.071580
2832.000000	93.182520
2833.000000	93.352870
2834.000000	94.014780
2835.000000	93.997650
2836.000000	93.507080
2837.000000	92.987540
2838.000000	92.517980
2839.000000	91.743570
2840.000000	91.172390
2841.000000	91.807860
2842.000000	92.177620
2843.000000	91.478570
2844.000000	90.964070
2845.000000	91.304630
2846.000000	91.807890
2847.000000	92.564740
2848.000000	92.842910
2849.000000	93.649370
2850.000000	95.103920
2851.000000	95.346940
2852.000000	94.615360
2853.000000	94.019310
2854.000000	93.446620
2855.000000	92.638730
2856.000000	92.300290
2857.000000	92.118730
2858.000000	91.803900
2859.000000	91.235150
2860.000000	90.564700
2861.000000	90.527560
2862.000000	91.678660
2863.000000	93.336930
2864.000000	95.540320
2865.000000	95.839270
2866.000000	95.649690
2867.000000	96.397280
2868.000000	96.806600
2869.000000	96.466290
2870.000000	97.254230
2871.000000	98.071120
2872.000000	97.092330
2873.000000	95.513390
2874.000000	93.710180
2875.000000	93.168450
2876.000000	91.712170
2877.000000	89.834610
2878.000000	88.697060
2879.000000	88.269160
2880.000000	86.627050
2881.000000	84.112690
2882.000000	82.954620
2883.000000	82.026340
2884.000000	81.819250
2885.000000	82.323970
2886.000000	83.570570
2887.000000	84.647890
2888.000000	85.214500
2889.000000	85.009110
2890.000000	84.746140
2891.000000	84.503070
2892.000000	85.424410
2893.000000	86.130700
2894.000000	85.939120
2895.000000	85.957930
2896.000000	85.932970
2897.000000	85.743530
2898.000000	85.783700
2899.000000	86.103860
2900.000000	85.810870
2901.000000	86.864850
2902.000000	87.501000
2903.000000	87.830060
2904.000000	88.453170
2905.000000	88.969580
2906.000000	89.315430
2907.000000	88.293530
2908.000000	87.201940
2909.000000	88.184140
2910.000000	89.317310
2911.000000	89.625480
2912.000000	88.807220
2913.000000	87.792740
2914.000000	87.757280
2915.000000	84.573240
2916.000000	82.497960
2917.000000	82.456450
2918.000000	83.455610
2919.000000	80.231440
2920.000000	78.802230
2921.000000	79.677970
2922.000000	79.776060
2923.000000	79.059440
2924.000000	77.423470
2925.000000	80.562740
2926.000000	80.635780
2927.000000	80.512630
2928.000000	77.669000
2929.000000	76.440210
2930.000000	72.167630
2931.000000	68.873350
2932.000000	67.958470
2933.000000	69.727620
2934.000000	67.671300
2935.000000	63.933290
2936.000000	54.803460
2937.000000	48.523830
2938.000000	49.911730
2939.000000	50.708160
2940.000000	49.159340
2941.000000	56.465940
2942.000000	51.399000
2943.000000	42.097890
2944.000000	23.748550
2945.000000	13.047240
2946.000000	14.863630
2947.000000	41.251470
2948.000000	35.477100
2949.000000	63.864370
2950.000000	75.102940
2951.000000	84.258720
2952.000000	104.175620
2953.000000	119.144110
2954.000000	145.116820
2955.000000	162.838430
2956.000000	177.467850
2957.000000	168.103580
2958.000000	179.962380
2959.000000	162.062410
2960.000000	164.838710
2961.000000	158.074370
2962.000000	148.369230
2963.000000	146.773210
2964.000000	150.884150
2965.000000	158.705200
2966.000000	158.223750
2967.000000	153.143680
2968.000000	151.228250
2969.000000	145.722330
2970.000000	141.118790
2971.000000	135.877500
2972.000000	134.306430
2973.000000	134.280610
2974.000000	130.473150
2975.000000	122.135980
2976.000000	120.343930
2977.000000	118.367810
2978.000000	119.318740
2979.000000	119.841550
2980.000000	119.090200
2981.000000	119.599900
2982.000000	121.422000
2983.000000	120.488080
2984.000000	118.936330
2985.000000	117.226830
2986.000000	115.867260
2987.000000	115.202900
2988.000000	114.189800
2989.000000	113.689560
2990.000000	113.440420
2991.000000	112.777390
2992.000000	110.895110
2993.000000	109.617450
2994.000000	109.263940
2995.000000	109.561550
2996.000000	109.841790
2997.000000	109.872180
2998.000000	108.923720
2999.000000	108.530280
3000.000000	108.606580
