PE UV       SUBTECH     SPECTRUM    ASCII       PEDS        4.00        
   -1
INBUCR0221-4.Sample.ASC
24/02/08
10:06:51.00
24/02/08
10:06:51.00
Vinicio Soto Monge
Chrysina chrysopedila. INB0004085457 INBIOCRI Costa Rica. Élitro Izq falta. La Catarata, P. N. Tapantí. Prov Cartago COSTA RICA 1700 m. Ago 1994 G. Mora. L. N. 190900_560300 #3183
250,000000
1
Lambda 1050
1050L1511233
PerkinElmer UV WinLab 6.3.2.0749 / 2.02.05 Lambda 900 UV/VIS/NIR, Aug  7 2015 09:38:08

0
0
3350/servo 860,8/2
0
0
UV/VIS
1
1
1
DoubleDePol,CommonBeamDepol,RBeamAtt,SBeamAtt,60mm sphere, WB InGaAs Detector
0
0
0
0
Program
Program
3350/servo 860,8/2
3350/0,2 860,8/0,2
3350/0,2 860,8/0,2
0
15.00
 
 
 
0
 
860,8
319,2
860,8
Front
100
on
S:100 R:100
0
0
0
0
 
0
 
 
 
0
 
 
0
0
0
0
0
 
 
 
 
0
0


0
0
#HDR
-1
-1
#GR
nm
%R
1.0
0.0
2500,000000
-1,000000
2251
8
16,383500
1,343400
#DATA

250.000000	nan
251.000000	nan
252.000000	nan
253.000000	nan
254.000000	nan
255.000000	nan
256.000000	nan
257.000000	nan
258.000000	nan
259.000000	4.177387
260.000000	4.166532
261.000000	4.153771
262.000000	4.141083
263.000000	4.126489
264.000000	4.113832
265.000000	4.097315
266.000000	4.082844
267.000000	4.068640
268.000000	4.051660
269.000000	4.035323
270.000000	4.017357
271.000000	4.002274
272.000000	3.985824
273.000000	3.972910
274.000000	3.960463
275.000000	3.950180
276.000000	3.939135
277.000000	3.928300
278.000000	3.917283
279.000000	3.910363
280.000000	3.903651
281.000000	3.897440
282.000000	3.892860
283.000000	3.886776
284.000000	3.880745
285.000000	3.875150
286.000000	3.868763
287.000000	3.864890
288.000000	3.862462
289.000000	3.858382
290.000000	3.854848
291.000000	3.851863
292.000000	3.846536
293.000000	3.842074
294.000000	3.837891
295.000000	3.834358
296.000000	3.832347
297.000000	3.828424
298.000000	3.824739
299.000000	3.820271
300.000000	3.817088
301.000000	3.812195
302.000000	3.808653
303.000000	3.805376
304.000000	3.801480
305.000000	3.798965
306.000000	3.795383
307.000000	3.792374
308.000000	3.791124
309.000000	3.786148
310.000000	3.783570
311.000000	3.779978
312.000000	3.775633
313.000000	3.771992
314.000000	3.768109
315.000000	3.763433
316.000000	3.761962
317.000000	3.783122
318.000000	3.801226
319.000000	3.822618
320.000000	3.841905
321.000000	3.850262
322.000000	3.866024
323.000000	3.882570
324.000000	3.902477
325.000000	3.918185
326.000000	3.927241
327.000000	3.912974
328.000000	3.899424
329.000000	3.893200
330.000000	3.888476
331.000000	3.894166
332.000000	3.890941
333.000000	3.884267
334.000000	3.877296
335.000000	3.874071
336.000000	3.872101
337.000000	3.874412
338.000000	3.877033
339.000000	3.876846
340.000000	3.878068
341.000000	3.883952
342.000000	3.888790
343.000000	3.902138
344.000000	3.908724
345.000000	3.917868
346.000000	3.934009
347.000000	3.948029
348.000000	3.961501
349.000000	3.975413
350.000000	3.987244
351.000000	4.002373
352.000000	4.026188
353.000000	4.044576
354.000000	4.072409
355.000000	4.102272
356.000000	4.131196
357.000000	4.166190
358.000000	4.207925
359.000000	4.248757
360.000000	4.294250
361.000000	4.341651
362.000000	4.391143
363.000000	4.447023
364.000000	4.504876
365.000000	4.566502
366.000000	4.631374
367.000000	4.699592
368.000000	4.768736
369.000000	4.843778
370.000000	4.924674
371.000000	5.011859
372.000000	5.100523
373.000000	5.189516
374.000000	5.284934
375.000000	5.385411
376.000000	5.494314
377.000000	5.599977
378.000000	5.713760
379.000000	5.832303
380.000000	5.953460
381.000000	6.075652
382.000000	6.205287
383.000000	6.341504
384.000000	6.479201
385.000000	6.618585
386.000000	6.759522
387.000000	6.908001
388.000000	7.058086
389.000000	7.208188
390.000000	7.358693
391.000000	7.509649
392.000000	7.659471
393.000000	7.809024
394.000000	7.958518
395.000000	8.105641
396.000000	8.249483
397.000000	8.391046
398.000000	8.529523
399.000000	8.664463
400.000000	8.795947
401.000000	8.923922
402.000000	9.046832
403.000000	9.164317
404.000000	9.276103
405.000000	9.383810
406.000000	9.487096
407.000000	9.584892
408.000000	9.676523
409.000000	9.763141
410.000000	9.844357
411.000000	9.918767
412.000000	9.988425
413.000000	10.053287
414.000000	10.111638
415.000000	10.163599
416.000000	10.209893
417.000000	10.250602
418.000000	10.285364
419.000000	10.314078
420.000000	10.337290
421.000000	10.355412
422.000000	10.367115
423.000000	10.372948
424.000000	10.373883
425.000000	10.369043
426.000000	10.358760
427.000000	10.343215
428.000000	10.322759
429.000000	10.297504
430.000000	10.267382
431.000000	10.232666
432.000000	10.193667
433.000000	10.149539
434.000000	10.100329
435.000000	10.047396
436.000000	9.990865
437.000000	9.930994
438.000000	9.867280
439.000000	9.799854
440.000000	9.729255
441.000000	9.655006
442.000000	9.578224
443.000000	9.499396
444.000000	9.419053
445.000000	9.336874
446.000000	9.252986
447.000000	9.167955
448.000000	9.082368
449.000000	8.997004
450.000000	8.911769
451.000000	8.827316
452.000000	8.744118
453.000000	8.662611
454.000000	8.583409
455.000000	8.506605
456.000000	8.432675
457.000000	8.362026
458.000000	8.294886
459.000000	8.231191
460.000000	8.171756
461.000000	8.118099
462.000000	8.069520
463.000000	8.025938
464.000000	7.988257
465.000000	7.957077
466.000000	7.932203
467.000000	7.914286
468.000000	7.903839
469.000000	7.901111
470.000000	7.906159
471.000000	7.918789
472.000000	7.939038
473.000000	7.967873
474.000000	8.005014
475.000000	8.049897
476.000000	8.103108
477.000000	8.163684
478.000000	8.232529
479.000000	8.309344
480.000000	8.392955
481.000000	8.482634
482.000000	8.578896
483.000000	8.681467
484.000000	8.790319
485.000000	8.906196
486.000000	9.028514
487.000000	9.157031
488.000000	9.290798
489.000000	9.429266
490.000000	9.573952
491.000000	9.724763
492.000000	9.881462
493.000000	10.044262
494.000000	10.213062
495.000000	10.386310
496.000000	10.563956
497.000000	10.747837
498.000000	10.938552
499.000000	11.137277
500.000000	11.343947
501.000000	11.559228
502.000000	11.783293
503.000000	12.016052
504.000000	12.257238
505.000000	12.507331
506.000000	12.765590
507.000000	13.030307
508.000000	13.301249
509.000000	13.577643
510.000000	13.859308
511.000000	14.145426
512.000000	14.435827
513.000000	14.729870
514.000000	15.027749
515.000000	15.329242
516.000000	15.635229
517.000000	15.946094
518.000000	16.261527
519.000000	16.580954
520.000000	16.904102
521.000000	17.231338
522.000000	17.561890
523.000000	17.894387
524.000000	18.227232
525.000000	18.558766
526.000000	18.885747
527.000000	19.204692
528.000000	19.512163
529.000000	19.805106
530.000000	20.080439
531.000000	20.336043
532.000000	20.568636
533.000000	20.777547
534.000000	20.962455
535.000000	21.124241
536.000000	21.264781
537.000000	21.387179
538.000000	21.494005
539.000000	21.589225
540.000000	21.673880
541.000000	21.752224
542.000000	21.828063
543.000000	21.902497
544.000000	21.977865
545.000000	22.055148
546.000000	22.134514
547.000000	22.216314
548.000000	22.299917
549.000000	22.384347
550.000000	22.469743
551.000000	22.552781
552.000000	22.632363
553.000000	22.707132
554.000000	22.774359
555.000000	22.832312
556.000000	22.879869
557.000000	22.915776
558.000000	22.939120
559.000000	22.948065
560.000000	22.936838
561.000000	22.908831
562.000000	22.865787
563.000000	22.809201
564.000000	22.737902
565.000000	22.653875
566.000000	22.556739
567.000000	22.447052
568.000000	22.324837
569.000000	22.191107
570.000000	22.051235
571.000000	21.901184
572.000000	21.739440
573.000000	21.563751
574.000000	21.377338
575.000000	21.178105
576.000000	20.967890
577.000000	20.745580
578.000000	20.511725
579.000000	20.265380
580.000000	20.009444
581.000000	19.743730
582.000000	19.467337
583.000000	19.183640
584.000000	18.894377
585.000000	18.600854
586.000000	18.304366
587.000000	18.008949
588.000000	17.717646
589.000000	17.432881
590.000000	17.155368
591.000000	16.888013
592.000000	16.632771
593.000000	16.389840
594.000000	16.156516
595.000000	15.934291
596.000000	15.721197
597.000000	15.514231
598.000000	15.311923
599.000000	15.113803
600.000000	14.918099
601.000000	14.724708
602.000000	14.534189
603.000000	14.347704
604.000000	14.167353
605.000000	13.993535
606.000000	13.829087
607.000000	13.675553
608.000000	13.533550
609.000000	13.403389
610.000000	13.284295
611.000000	13.175690
612.000000	13.075945
613.000000	12.984246
614.000000	12.898188
615.000000	12.817747
616.000000	12.741331
617.000000	12.668953
618.000000	12.600158
619.000000	12.537720
620.000000	12.481460
621.000000	12.433183
622.000000	12.393692
623.000000	12.362401
624.000000	12.340923
625.000000	12.328805
626.000000	12.325749
627.000000	12.330656
628.000000	12.343837
629.000000	12.362097
630.000000	12.385459
631.000000	12.411913
632.000000	12.442161
633.000000	12.476397
634.000000	12.514530
635.000000	12.556021
636.000000	12.601594
637.000000	12.652025
638.000000	12.707338
639.000000	12.768370
640.000000	12.837242
641.000000	12.912164
642.000000	12.993831
643.000000	13.081626
644.000000	13.175587
645.000000	13.275389
646.000000	13.380331
647.000000	13.489998
648.000000	13.602435
649.000000	13.717630
650.000000	13.836119
651.000000	13.958013
652.000000	14.082781
653.000000	14.210205
654.000000	14.340022
655.000000	14.471858
656.000000	14.606816
657.000000	14.744762
658.000000	14.887260
659.000000	15.034261
660.000000	15.183613
661.000000	15.335845
662.000000	15.490882
663.000000	15.650415
664.000000	15.813861
665.000000	15.980063
666.000000	16.147660
667.000000	16.317449
668.000000	16.489072
669.000000	16.661664
670.000000	16.837085
671.000000	17.016313
672.000000	17.198303
673.000000	17.382062
674.000000	17.566556
675.000000	17.754359
676.000000	17.947155
677.000000	18.142877
678.000000	18.342725
679.000000	18.546866
680.000000	18.753135
681.000000	18.963189
682.000000	19.175296
683.000000	19.389121
684.000000	19.607142
685.000000	19.827273
686.000000	20.049117
687.000000	20.275065
688.000000	20.501611
689.000000	20.730420
690.000000	20.963182
691.000000	21.197672
692.000000	21.434562
693.000000	21.675732
694.000000	21.918518
695.000000	22.163585
696.000000	22.411613
697.000000	22.660153
698.000000	22.913343
699.000000	23.167706
700.000000	23.423846
701.000000	23.683594
702.000000	23.947530
703.000000	24.212526
704.000000	24.480690
705.000000	24.753141
706.000000	25.026832
707.000000	25.303531
708.000000	25.582072
709.000000	25.864586
710.000000	26.148548
711.000000	26.433372
712.000000	26.718972
713.000000	27.005606
714.000000	27.294053
715.000000	27.583607
716.000000	27.874808
717.000000	28.165598
718.000000	28.455446
719.000000	28.744754
720.000000	29.033945
721.000000	29.322289
722.000000	29.610699
723.000000	29.899006
724.000000	30.186899
725.000000	30.472605
726.000000	30.756603
727.000000	31.039663
728.000000	31.320208
729.000000	31.597445
730.000000	31.871300
731.000000	32.142225
732.000000	32.409468
733.000000	32.673878
734.000000	32.932448
735.000000	33.186241
736.000000	33.435309
737.000000	33.678237
738.000000	33.918136
739.000000	34.154345
740.000000	34.385455
741.000000	34.609782
742.000000	34.828161
743.000000	35.041927
744.000000	35.248816
745.000000	35.449245
746.000000	35.643265
747.000000	35.832396
748.000000	36.014876
749.000000	36.191040
750.000000	36.363523
751.000000	36.532442
752.000000	36.696451
753.000000	36.853784
754.000000	37.009578
755.000000	37.162182
756.000000	37.309400
757.000000	37.452352
758.000000	37.593016
759.000000	37.730161
760.000000	37.863893
761.000000	37.998482
762.000000	38.127536
763.000000	38.254227
764.000000	38.378556
765.000000	38.499132
766.000000	38.619056
767.000000	38.735768
768.000000	38.852810
769.000000	38.969410
770.000000	39.080201
771.000000	39.183355
772.000000	39.285670
773.000000	39.387538
774.000000	39.487926
775.000000	39.588880
776.000000	39.687576
777.000000	39.789055
778.000000	39.885050
779.000000	39.977627
780.000000	40.072198
781.000000	40.169094
782.000000	40.265763
783.000000	40.357796
784.000000	40.448495
785.000000	40.538498
786.000000	40.629576
787.000000	40.715229
788.000000	40.798972
789.000000	40.884576
790.000000	40.966176
791.000000	41.045667
792.000000	41.121387
793.000000	41.194848
794.000000	41.267726
795.000000	41.339153
796.000000	41.403821
797.000000	41.469922
798.000000	41.538094
799.000000	41.603442
800.000000	41.670430
801.000000	41.733779
802.000000	41.798441
803.000000	41.864202
804.000000	41.919930
805.000000	41.973539
806.000000	42.029263
807.000000	42.087248
808.000000	42.140485
809.000000	42.188366
810.000000	42.231718
811.000000	42.272381
812.000000	42.311030
813.000000	42.353084
814.000000	42.398097
815.000000	42.435115
816.000000	42.465851
817.000000	42.493454
818.000000	42.521824
819.000000	42.545398
820.000000	42.567633
821.000000	42.591253
822.000000	42.617983
823.000000	42.636240
824.000000	42.649156
825.000000	42.663855
826.000000	42.681493
827.000000	42.693677
828.000000	42.707636
829.000000	42.721133
830.000000	42.734730
831.000000	42.743684
832.000000	42.745125
833.000000	42.741338
834.000000	42.739979
835.000000	42.733823
836.000000	42.730535
837.000000	42.727168
838.000000	42.717832
839.000000	42.705541
840.000000	42.692537
841.000000	42.677723
842.000000	42.669705
843.000000	42.660121
844.000000	42.645524
845.000000	42.635363
846.000000	42.624474
847.000000	42.597663
848.000000	42.568358
849.000000	42.542371
850.000000	42.509805
851.000000	42.473187
852.000000	42.414788
853.000000	42.379902
854.000000	42.324392
855.000000	42.276009
856.000000	42.231797
857.000000	42.188663
858.000000	42.235004
859.000000	42.296439
860.000000	42.346502
861.000000	42.394963
862.000000	42.454289
863.000000	42.489627
864.000000	42.547154
865.000000	42.605593
866.000000	42.647615
867.000000	42.680808
868.000000	42.635050
869.000000	42.554983
870.000000	42.497065
871.000000	42.427328
872.000000	42.391013
873.000000	42.333402
874.000000	42.258945
875.000000	42.177475
876.000000	42.105730
877.000000	42.048695
878.000000	41.991160
879.000000	41.944635
880.000000	41.877707
881.000000	41.826172
882.000000	41.748755
883.000000	41.690722
884.000000	41.651095
885.000000	41.612178
886.000000	41.560913
887.000000	41.507958
888.000000	41.441575
889.000000	41.390542
890.000000	41.342595
891.000000	41.299125
892.000000	41.245760
893.000000	41.191815
894.000000	41.134400
895.000000	41.077908
896.000000	41.031793
897.000000	40.988633
898.000000	40.946298
899.000000	40.893893
900.000000	40.858922
901.000000	40.817020
902.000000	40.778717
903.000000	40.744880
904.000000	40.716323
905.000000	40.687258
906.000000	40.659595
907.000000	40.633472
908.000000	40.606927
909.000000	40.582495
910.000000	40.549828
911.000000	40.523518
912.000000	40.511882
913.000000	40.499430
914.000000	40.484277
915.000000	40.467095
916.000000	40.448127
917.000000	40.433588
918.000000	40.424570
919.000000	40.417920
920.000000	40.417292
921.000000	40.413525
922.000000	40.397760
923.000000	40.389035
924.000000	40.380410
925.000000	40.377835
926.000000	40.371433
927.000000	40.365765
928.000000	40.354818
929.000000	40.346882
930.000000	40.342770
931.000000	40.342658
932.000000	40.342018
933.000000	40.335780
934.000000	40.332498
935.000000	40.326808
936.000000	40.327548
937.000000	40.332027
938.000000	40.339115
939.000000	40.343830
940.000000	40.341517
941.000000	40.340227
942.000000	40.342742
943.000000	40.348590
944.000000	40.354040
945.000000	40.356737
946.000000	40.360835
947.000000	40.362105
948.000000	40.366133
949.000000	40.369838
950.000000	40.376928
951.000000	40.383863
952.000000	40.387738
953.000000	40.394740
954.000000	40.403148
955.000000	40.413990
956.000000	40.422760
957.000000	40.431835
958.000000	40.441167
959.000000	40.452637
960.000000	40.462020
961.000000	40.472065
962.000000	40.483202
963.000000	40.490077
964.000000	40.498440
965.000000	40.506655
966.000000	40.514492
967.000000	40.521812
968.000000	40.527642
969.000000	40.533288
970.000000	40.540435
971.000000	40.548388
972.000000	40.556785
973.000000	40.568240
974.000000	40.577520
975.000000	40.586335
976.000000	40.596698
977.000000	40.606405
978.000000	40.617870
979.000000	40.629018
980.000000	40.638162
981.000000	40.646000
982.000000	40.654480
983.000000	40.663348
984.000000	40.673320
985.000000	40.682057
986.000000	40.690045
987.000000	40.698768
988.000000	40.708798
989.000000	40.719642
990.000000	40.731203
991.000000	40.742125
992.000000	40.752933
993.000000	40.764755
994.000000	40.778190
995.000000	40.791692
996.000000	40.803798
997.000000	40.814925
998.000000	40.826577
999.000000	40.839733
1000.000000	40.852497
1001.000000	40.864155
1002.000000	40.876115
1003.000000	40.888290
1004.000000	40.898700
1005.000000	40.909520
1006.000000	40.922040
1007.000000	40.934207
1008.000000	40.944632
1009.000000	40.954063
1010.000000	40.965643
1011.000000	40.979273
1012.000000	40.992105
1013.000000	41.002462
1014.000000	41.013072
1015.000000	41.024192
1016.000000	41.036357
1017.000000	41.051052
1018.000000	41.064925
1019.000000	41.077942
1020.000000	41.091607
1021.000000	41.105665
1022.000000	41.121220
1023.000000	41.138253
1024.000000	41.155168
1025.000000	41.172013
1026.000000	41.188208
1027.000000	41.204347
1028.000000	41.222853
1029.000000	41.242300
1030.000000	41.259833
1031.000000	41.276938
1032.000000	41.294078
1033.000000	41.312307
1034.000000	41.330472
1035.000000	41.348860
1036.000000	41.367148
1037.000000	41.385532
1038.000000	41.403017
1039.000000	41.420378
1040.000000	41.437840
1041.000000	41.455112
1042.000000	41.473390
1043.000000	41.490723
1044.000000	41.507695
1045.000000	41.523530
1046.000000	41.541138
1047.000000	41.557653
1048.000000	41.573003
1049.000000	41.589742
1050.000000	41.608033
1051.000000	41.626852
1052.000000	41.643022
1053.000000	41.658590
1054.000000	41.674800
1055.000000	41.692377
1056.000000	41.709535
1057.000000	41.726675
1058.000000	41.745035
1059.000000	41.762790
1060.000000	41.779257
1061.000000	41.797370
1062.000000	41.816680
1063.000000	41.835425
1064.000000	41.854008
1065.000000	41.872858
1066.000000	41.890673
1067.000000	41.910070
1068.000000	41.929547
1069.000000	41.948587
1070.000000	41.967360
1071.000000	41.982400
1072.000000	41.997982
1073.000000	42.014940
1074.000000	42.032280
1075.000000	42.048662
1076.000000	42.064687
1077.000000	42.080160
1078.000000	42.096715
1079.000000	42.112875
1080.000000	42.129305
1081.000000	42.147728
1082.000000	42.164050
1083.000000	42.180253
1084.000000	42.196213
1085.000000	42.211960
1086.000000	42.226878
1087.000000	42.241805
1088.000000	42.254480
1089.000000	42.266875
1090.000000	42.279348
1091.000000	42.291042
1092.000000	42.303778
1093.000000	42.315735
1094.000000	42.327737
1095.000000	42.339105
1096.000000	42.349998
1097.000000	42.360273
1098.000000	42.371125
1099.000000	42.381448
1100.000000	42.390693
1101.000000	42.398645
1102.000000	42.405740
1103.000000	42.412543
1104.000000	42.418132
1105.000000	42.422562
1106.000000	42.428330
1107.000000	42.433988
1108.000000	42.437475
1109.000000	42.440877
1110.000000	42.443345
1111.000000	42.445563
1112.000000	42.447012
1113.000000	42.447775
1114.000000	42.447520
1115.000000	42.448752
1116.000000	42.448120
1117.000000	42.444632
1118.000000	42.441270
1119.000000	42.434900
1120.000000	42.428248
1121.000000	42.422878
1122.000000	42.415458
1123.000000	42.406458
1124.000000	42.393293
1125.000000	42.377575
1126.000000	42.358400
1127.000000	42.338878
1128.000000	42.317243
1129.000000	42.295927
1130.000000	42.268852
1131.000000	42.234262
1132.000000	42.197182
1133.000000	42.158960
1134.000000	42.124117
1135.000000	42.087418
1136.000000	42.048325
1137.000000	42.006658
1138.000000	41.961253
1139.000000	41.914153
1140.000000	41.871470
1141.000000	41.832892
1142.000000	41.794385
1143.000000	41.755758
1144.000000	41.717588
1145.000000	41.680235
1146.000000	41.648100
1147.000000	41.618000
1148.000000	41.591288
1149.000000	41.564197
1150.000000	41.537330
1151.000000	41.509090
1152.000000	41.482883
1153.000000	41.456820
1154.000000	41.427785
1155.000000	41.395373
1156.000000	41.358830
1157.000000	41.320338
1158.000000	41.278610
1159.000000	41.234895
1160.000000	41.187510
1161.000000	41.137302
1162.000000	41.082977
1163.000000	41.025153
1164.000000	40.965550
1165.000000	40.906077
1166.000000	40.845710
1167.000000	40.784585
1168.000000	40.725105
1169.000000	40.666933
1170.000000	40.609625
1171.000000	40.554052
1172.000000	40.500935
1173.000000	40.448628
1174.000000	40.399545
1175.000000	40.352295
1176.000000	40.308708
1177.000000	40.267212
1178.000000	40.228685
1179.000000	40.190922
1180.000000	40.154590
1181.000000	40.122325
1182.000000	40.092192
1183.000000	40.065295
1184.000000	40.040332
1185.000000	40.018867
1186.000000	40.000315
1187.000000	39.984770
1188.000000	39.969160
1189.000000	39.960215
1190.000000	39.956820
1191.000000	39.957268
1192.000000	39.962420
1193.000000	39.971693
1194.000000	39.983322
1195.000000	39.999610
1196.000000	40.018763
1197.000000	40.041002
1198.000000	40.067270
1199.000000	40.093763
1200.000000	40.120540
1201.000000	40.147140
1202.000000	40.173865
1203.000000	40.201150
1204.000000	40.230300
1205.000000	40.257143
1206.000000	40.283605
1207.000000	40.309228
1208.000000	40.335435
1209.000000	40.360730
1210.000000	40.386522
1211.000000	40.413360
1212.000000	40.439342
1213.000000	40.465130
1214.000000	40.488670
1215.000000	40.511017
1216.000000	40.532532
1217.000000	40.555368
1218.000000	40.578060
1219.000000	40.600235
1220.000000	40.621662
1221.000000	40.641717
1222.000000	40.660700
1223.000000	40.679475
1224.000000	40.698435
1225.000000	40.718785
1226.000000	40.739767
1227.000000	40.758975
1228.000000	40.776705
1229.000000	40.794092
1230.000000	40.810558
1231.000000	40.826483
1232.000000	40.843128
1233.000000	40.859365
1234.000000	40.875060
1235.000000	40.890023
1236.000000	40.902988
1237.000000	40.915357
1238.000000	40.927972
1239.000000	40.940290
1240.000000	40.953028
1241.000000	40.965725
1242.000000	40.979130
1243.000000	40.992007
1244.000000	41.006583
1245.000000	41.022243
1246.000000	41.039938
1247.000000	41.058383
1248.000000	41.077480
1249.000000	41.098155
1250.000000	41.118410
1251.000000	41.138850
1252.000000	41.159167
1253.000000	41.179585
1254.000000	41.199078
1255.000000	41.217858
1256.000000	41.235170
1257.000000	41.251168
1258.000000	41.265743
1259.000000	41.279348
1260.000000	41.292545
1261.000000	41.304007
1262.000000	41.314143
1263.000000	41.323690
1264.000000	41.331658
1265.000000	41.338020
1266.000000	41.344023
1267.000000	41.350098
1268.000000	41.355137
1269.000000	41.359077
1270.000000	41.362685
1271.000000	41.366325
1272.000000	41.369690
1273.000000	41.372965
1274.000000	41.375975
1275.000000	41.378608
1276.000000	41.380538
1277.000000	41.382385
1278.000000	41.385862
1279.000000	41.390250
1280.000000	41.395098
1281.000000	41.400453
1282.000000	41.406132
1283.000000	41.412928
1284.000000	41.420988
1285.000000	41.429883
1286.000000	41.439643
1287.000000	41.450580
1288.000000	41.461330
1289.000000	41.472143
1290.000000	41.481940
1291.000000	41.491485
1292.000000	41.501633
1293.000000	41.510362
1294.000000	41.518140
1295.000000	41.525600
1296.000000	41.533207
1297.000000	41.539753
1298.000000	41.545175
1299.000000	41.549332
1300.000000	41.553250
1301.000000	41.556067
1302.000000	41.556877
1303.000000	41.556893
1304.000000	41.556777
1305.000000	41.556217
1306.000000	41.553580
1307.000000	41.549395
1308.000000	41.544283
1309.000000	41.537768
1310.000000	41.530412
1311.000000	41.523205
1312.000000	41.514895
1313.000000	41.504863
1314.000000	41.493282
1315.000000	41.479630
1316.000000	41.464875
1317.000000	41.448423
1318.000000	41.430218
1319.000000	41.411373
1320.000000	41.390980
1321.000000	41.368592
1322.000000	41.345395
1323.000000	41.321530
1324.000000	41.295388
1325.000000	41.267575
1326.000000	41.238165
1327.000000	41.208087
1328.000000	41.176980
1329.000000	41.143825
1330.000000	41.107600
1331.000000	41.069587
1332.000000	41.028872
1333.000000	40.985390
1334.000000	40.940067
1335.000000	40.893073
1336.000000	40.843685
1337.000000	40.791263
1338.000000	40.735548
1339.000000	40.677473
1340.000000	40.617760
1341.000000	40.555057
1342.000000	40.489745
1343.000000	40.422960
1344.000000	40.353082
1345.000000	40.278400
1346.000000	40.201960
1347.000000	40.125250
1348.000000	40.047425
1349.000000	39.965055
1350.000000	39.879932
1351.000000	39.792595
1352.000000	39.703935
1353.000000	39.615478
1354.000000	39.530355
1355.000000	39.449063
1356.000000	39.369482
1357.000000	39.289068
1358.000000	39.209447
1359.000000	39.133227
1360.000000	39.063417
1361.000000	39.005482
1362.000000	38.950465
1363.000000	38.891860
1364.000000	38.831605
1365.000000	38.770260
1366.000000	38.703848
1367.000000	38.637977
1368.000000	38.569342
1369.000000	38.494173
1370.000000	38.409220
1371.000000	38.309070
1372.000000	38.195060
1373.000000	38.065090
1374.000000	37.917783
1375.000000	37.755473
1376.000000	37.578023
1377.000000	37.383067
1378.000000	37.173783
1379.000000	36.956985
1380.000000	36.738530
1381.000000	36.524065
1382.000000	36.319790
1383.000000	36.133523
1384.000000	35.957720
1385.000000	35.793903
1386.000000	35.647068
1387.000000	35.522083
1388.000000	35.416615
1389.000000	35.323788
1390.000000	35.235968
1391.000000	35.151897
1392.000000	35.072848
1393.000000	34.993162
1394.000000	34.922310
1395.000000	34.859977
1396.000000	34.797040
1397.000000	34.719780
1398.000000	34.631630
1399.000000	34.546627
1400.000000	34.468827
1401.000000	34.377852
1402.000000	34.269625
1403.000000	34.152650
1404.000000	34.029418
1405.000000	33.893060
1406.000000	33.749363
1407.000000	33.604723
1408.000000	33.460105
1409.000000	33.306385
1410.000000	33.134035
1411.000000	32.958930
1412.000000	32.789817
1413.000000	32.624858
1414.000000	32.457783
1415.000000	32.287633
1416.000000	32.114450
1417.000000	31.945925
1418.000000	31.781727
1419.000000	31.619825
1420.000000	31.463145
1421.000000	31.310570
1422.000000	31.162110
1423.000000	31.016902
1424.000000	30.872275
1425.000000	30.732892
1426.000000	30.602362
1427.000000	30.475090
1428.000000	30.350672
1429.000000	30.226445
1430.000000	30.108623
1431.000000	30.000892
1432.000000	29.897115
1433.000000	29.794645
1434.000000	29.697145
1435.000000	29.604538
1436.000000	29.516057
1437.000000	29.431310
1438.000000	29.348913
1439.000000	29.271805
1440.000000	29.198337
1441.000000	29.125835
1442.000000	29.055793
1443.000000	28.987475
1444.000000	28.922418
1445.000000	28.862997
1446.000000	28.804990
1447.000000	28.744615
1448.000000	28.684913
1449.000000	28.628395
1450.000000	28.574450
1451.000000	28.521805
1452.000000	28.467598
1453.000000	28.414803
1454.000000	28.361757
1455.000000	28.306845
1456.000000	28.252110
1457.000000	28.199027
1458.000000	28.146377
1459.000000	28.092218
1460.000000	28.036918
1461.000000	27.980633
1462.000000	27.927287
1463.000000	27.873978
1464.000000	27.819755
1465.000000	27.765913
1466.000000	27.712470
1467.000000	27.661310
1468.000000	27.609490
1469.000000	27.559513
1470.000000	27.510377
1471.000000	27.462660
1472.000000	27.414893
1473.000000	27.369457
1474.000000	27.323528
1475.000000	27.277235
1476.000000	27.233542
1477.000000	27.193180
1478.000000	27.156337
1479.000000	27.120607
1480.000000	27.086675
1481.000000	27.054072
1482.000000	27.023985
1483.000000	26.996275
1484.000000	26.972275
1485.000000	26.951213
1486.000000	26.932737
1487.000000	26.914313
1488.000000	26.896712
1489.000000	26.881260
1490.000000	26.866135
1491.000000	26.853030
1492.000000	26.842120
1493.000000	26.832693
1494.000000	26.825687
1495.000000	26.821245
1496.000000	26.817340
1497.000000	26.816450
1498.000000	26.819462
1499.000000	26.824302
1500.000000	26.832392
1501.000000	26.844235
1502.000000	26.859630
1503.000000	26.878117
1504.000000	26.900840
1505.000000	26.926780
1506.000000	26.956837
1507.000000	26.989430
1508.000000	27.024403
1509.000000	27.061032
1510.000000	27.100662
1511.000000	27.142928
1512.000000	27.185378
1513.000000	27.229555
1514.000000	27.274892
1515.000000	27.320750
1516.000000	27.366548
1517.000000	27.412562
1518.000000	27.458598
1519.000000	27.506525
1520.000000	27.554235
1521.000000	27.601318
1522.000000	27.649577
1523.000000	27.697365
1524.000000	27.744293
1525.000000	27.790250
1526.000000	27.836320
1527.000000	27.882600
1528.000000	27.928180
1529.000000	27.972570
1530.000000	28.016317
1531.000000	28.059657
1532.000000	28.102055
1533.000000	28.143275
1534.000000	28.183128
1535.000000	28.222250
1536.000000	28.260255
1537.000000	28.297227
1538.000000	28.333353
1539.000000	28.368140
1540.000000	28.401810
1541.000000	28.434452
1542.000000	28.466222
1543.000000	28.497830
1544.000000	28.530005
1545.000000	28.563040
1546.000000	28.596375
1547.000000	28.630000
1548.000000	28.665587
1549.000000	28.703500
1550.000000	28.742975
1551.000000	28.783635
1552.000000	28.825200
1553.000000	28.867655
1554.000000	28.909557
1555.000000	28.950692
1556.000000	28.991368
1557.000000	29.029708
1558.000000	29.064140
1559.000000	29.094805
1560.000000	29.122787
1561.000000	29.147465
1562.000000	29.168175
1563.000000	29.184848
1564.000000	29.197685
1565.000000	29.205963
1566.000000	29.210783
1567.000000	29.213673
1568.000000	29.215268
1569.000000	29.215268
1570.000000	29.212605
1571.000000	29.208543
1572.000000	29.204168
1573.000000	29.199770
1574.000000	29.196552
1575.000000	29.195437
1576.000000	29.195508
1577.000000	29.197652
1578.000000	29.200342
1579.000000	29.204443
1580.000000	29.211587
1581.000000	29.221700
1582.000000	29.234225
1583.000000	29.249073
1584.000000	29.265283
1585.000000	29.283043
1586.000000	29.302882
1587.000000	29.323790
1588.000000	29.348025
1589.000000	29.374158
1590.000000	29.401743
1591.000000	29.429670
1592.000000	29.458415
1593.000000	29.488667
1594.000000	29.519785
1595.000000	29.552122
1596.000000	29.585548
1597.000000	29.620387
1598.000000	29.655240
1599.000000	29.691137
1600.000000	29.728102
1601.000000	29.765455
1602.000000	29.804877
1603.000000	29.844918
1604.000000	29.886705
1605.000000	29.928880
1606.000000	29.971053
1607.000000	30.012470
1608.000000	30.052735
1609.000000	30.092010
1610.000000	30.129800
1611.000000	30.166485
1612.000000	30.201175
1613.000000	30.234407
1614.000000	30.265545
1615.000000	30.294465
1616.000000	30.321067
1617.000000	30.345522
1618.000000	30.368898
1619.000000	30.391305
1620.000000	30.412058
1621.000000	30.432948
1622.000000	30.452067
1623.000000	30.469305
1624.000000	30.484887
1625.000000	30.500903
1626.000000	30.516037
1627.000000	30.531033
1628.000000	30.546352
1629.000000	30.561648
1630.000000	30.576743
1631.000000	30.589555
1632.000000	30.602228
1633.000000	30.614022
1634.000000	30.626317
1635.000000	30.636762
1636.000000	30.646608
1637.000000	30.654270
1638.000000	30.660105
1639.000000	30.662920
1640.000000	30.664070
1641.000000	30.662892
1642.000000	30.658442
1643.000000	30.650982
1644.000000	30.639930
1645.000000	30.625760
1646.000000	30.607318
1647.000000	30.585548
1648.000000	30.560357
1649.000000	30.531505
1650.000000	30.496945
1651.000000	30.456950
1652.000000	30.411340
1653.000000	30.359697
1654.000000	30.301405
1655.000000	30.237540
1656.000000	30.168620
1657.000000	30.093018
1658.000000	30.011245
1659.000000	29.923800
1660.000000	29.833120
1661.000000	29.738563
1662.000000	29.640985
1663.000000	29.540657
1664.000000	29.439460
1665.000000	29.334708
1666.000000	29.227965
1667.000000	29.122625
1668.000000	29.013210
1669.000000	28.902750
1670.000000	28.791935
1671.000000	28.680950
1672.000000	28.570370
1673.000000	28.462792
1674.000000	28.357615
1675.000000	28.255268
1676.000000	28.156212
1677.000000	28.057675
1678.000000	27.965008
1679.000000	27.875115
1680.000000	27.785818
1681.000000	27.698790
1682.000000	27.611615
1683.000000	27.524543
1684.000000	27.437733
1685.000000	27.353550
1686.000000	27.270345
1687.000000	27.193655
1688.000000	27.124052
1689.000000	27.064617
1690.000000	27.016480
1691.000000	26.979655
1692.000000	26.956308
1693.000000	26.946132
1694.000000	26.945902
1695.000000	26.953595
1696.000000	26.969235
1697.000000	26.987158
1698.000000	27.007165
1699.000000	27.024935
1700.000000	27.041442
1701.000000	27.052285
1702.000000	27.058602
1703.000000	27.057513
1704.000000	27.050220
1705.000000	27.036853
1706.000000	27.015937
1707.000000	26.989145
1708.000000	26.954118
1709.000000	26.912365
1710.000000	26.861573
1711.000000	26.805410
1712.000000	26.740812
1713.000000	26.668500
1714.000000	26.587580
1715.000000	26.501510
1716.000000	26.409305
1717.000000	26.311883
1718.000000	26.211550
1719.000000	26.108148
1720.000000	26.004668
1721.000000	25.903060
1722.000000	25.808342
1723.000000	25.721845
1724.000000	25.647473
1725.000000	25.582287
1726.000000	25.532567
1727.000000	25.498152
1728.000000	25.476593
1729.000000	25.468180
1730.000000	25.471052
1731.000000	25.485247
1732.000000	25.507540
1733.000000	25.537480
1734.000000	25.571298
1735.000000	25.610588
1736.000000	25.651833
1737.000000	25.694880
1738.000000	25.740497
1739.000000	25.789538
1740.000000	25.841918
1741.000000	25.895792
1742.000000	25.950018
1743.000000	26.003965
1744.000000	26.058985
1745.000000	26.113540
1746.000000	26.167550
1747.000000	26.219575
1748.000000	26.269827
1749.000000	26.317057
1750.000000	26.359773
1751.000000	26.398937
1752.000000	26.433412
1753.000000	26.463825
1754.000000	26.491208
1755.000000	26.515373
1756.000000	26.535405
1757.000000	26.552420
1758.000000	26.566025
1759.000000	26.576952
1760.000000	26.588623
1761.000000	26.599248
1762.000000	26.609652
1763.000000	26.620233
1764.000000	26.631425
1765.000000	26.643985
1766.000000	26.659690
1767.000000	26.678097
1768.000000	26.698845
1769.000000	26.722655
1770.000000	26.745800
1771.000000	26.771435
1772.000000	26.799395
1773.000000	26.829520
1774.000000	26.860267
1775.000000	26.892230
1776.000000	26.923680
1777.000000	26.955468
1778.000000	26.987768
1779.000000	27.019055
1780.000000	27.050947
1781.000000	27.080452
1782.000000	27.108240
1783.000000	27.133627
1784.000000	27.157053
1785.000000	27.178688
1786.000000	27.198757
1787.000000	27.216012
1788.000000	27.229802
1789.000000	27.241508
1790.000000	27.251652
1791.000000	27.262285
1792.000000	27.272760
1793.000000	27.283055
1794.000000	27.293900
1795.000000	27.304107
1796.000000	27.315148
1797.000000	27.327720
1798.000000	27.340173
1799.000000	27.353100
1800.000000	27.369022
1801.000000	27.385995
1802.000000	27.402297
1803.000000	27.416613
1804.000000	27.429697
1805.000000	27.444435
1806.000000	27.460293
1807.000000	27.474408
1808.000000	27.488100
1809.000000	27.501305
1810.000000	27.513587
1811.000000	27.527035
1812.000000	27.542012
1813.000000	27.558015
1814.000000	27.574237
1815.000000	27.588900
1816.000000	27.600040
1817.000000	27.607893
1818.000000	27.614787
1819.000000	27.624948
1820.000000	27.638980
1821.000000	27.654502
1822.000000	27.666125
1823.000000	27.671560
1824.000000	27.672478
1825.000000	27.672683
1826.000000	27.677418
1827.000000	27.688772
1828.000000	27.703585
1829.000000	27.716120
1830.000000	27.727093
1831.000000	27.735715
1832.000000	27.744387
1833.000000	27.756345
1834.000000	27.771455
1835.000000	27.790700
1836.000000	27.813510
1837.000000	27.836650
1838.000000	27.859592
1839.000000	27.883817
1840.000000	27.909020
1841.000000	27.938760
1842.000000	27.972323
1843.000000	28.003517
1844.000000	28.027217
1845.000000	28.041600
1846.000000	28.052735
1847.000000	28.071532
1848.000000	28.098275
1849.000000	28.120215
1850.000000	28.125920
1851.000000	28.117170
1852.000000	28.105642
1853.000000	28.101750
1854.000000	28.106362
1855.000000	28.112923
1856.000000	28.110235
1857.000000	28.091075
1858.000000	28.063830
1859.000000	28.038160
1860.000000	28.017465
1861.000000	27.999320
1862.000000	27.975380
1863.000000	27.938283
1864.000000	27.889505
1865.000000	27.834298
1866.000000	27.774120
1867.000000	27.713025
1868.000000	27.641890
1869.000000	27.566598
1870.000000	27.492430
1871.000000	27.411535
1872.000000	27.328933
1873.000000	27.246447
1874.000000	27.160568
1875.000000	27.067157
1876.000000	26.965165
1877.000000	26.850192
1878.000000	26.723037
1879.000000	26.577443
1880.000000	26.412965
1881.000000	26.235688
1882.000000	26.042153
1883.000000	25.833635
1884.000000	25.614185
1885.000000	25.383018
1886.000000	25.141118
1887.000000	24.883793
1888.000000	24.613567
1889.000000	24.334565
1890.000000	24.046805
1891.000000	23.747363
1892.000000	23.437285
1893.000000	23.115032
1894.000000	22.781695
1895.000000	22.435832
1896.000000	22.080745
1897.000000	21.719490
1898.000000	21.360130
1899.000000	20.997855
1900.000000	20.632100
1901.000000	20.264745
1902.000000	19.901473
1903.000000	19.544595
1904.000000	19.194855
1905.000000	18.857995
1906.000000	18.530770
1907.000000	18.215155
1908.000000	17.906152
1909.000000	17.609063
1910.000000	17.325087
1911.000000	17.057502
1912.000000	16.803890
1913.000000	16.562685
1914.000000	16.333570
1915.000000	16.118347
1916.000000	15.914802
1917.000000	15.723265
1918.000000	15.542460
1919.000000	15.375788
1920.000000	15.224110
1921.000000	15.079940
1922.000000	14.942798
1923.000000	14.816223
1924.000000	14.700355
1925.000000	14.586108
1926.000000	14.484830
1927.000000	14.393950
1928.000000	14.315298
1929.000000	14.241210
1930.000000	14.173065
1931.000000	14.115660
1932.000000	14.065318
1933.000000	14.022068
1934.000000	13.981348
1935.000000	13.951628
1936.000000	13.926855
1937.000000	13.909880
1938.000000	13.899383
1939.000000	13.894907
1940.000000	13.893845
1941.000000	13.898917
1942.000000	13.906833
1943.000000	13.918885
1944.000000	13.940402
1945.000000	13.968393
1946.000000	13.999265
1947.000000	14.034895
1948.000000	14.070315
1949.000000	14.109502
1950.000000	14.151250
1951.000000	14.193877
1952.000000	14.241455
1953.000000	14.293412
1954.000000	14.346822
1955.000000	14.402020
1956.000000	14.459925
1957.000000	14.516522
1958.000000	14.574655
1959.000000	14.636450
1960.000000	14.696010
1961.000000	14.759002
1962.000000	14.825278
1963.000000	14.888723
1964.000000	14.949740
1965.000000	15.011303
1966.000000	15.073907
1967.000000	15.137302
1968.000000	15.199160
1969.000000	15.256842
1970.000000	15.318397
1971.000000	15.375705
1972.000000	15.430462
1973.000000	15.488553
1974.000000	15.550793
1975.000000	15.610217
1976.000000	15.671547
1977.000000	15.732478
1978.000000	15.791833
1979.000000	15.852248
1980.000000	15.915783
1981.000000	15.983002
1982.000000	16.050518
1983.000000	16.115317
1984.000000	16.178563
1985.000000	16.244673
1986.000000	16.307520
1987.000000	16.374142
1988.000000	16.440303
1989.000000	16.507758
1990.000000	16.571840
1991.000000	16.633975
1992.000000	16.695905
1993.000000	16.757910
1994.000000	16.817273
1995.000000	16.872420
1996.000000	16.928260
1997.000000	16.978613
1998.000000	17.029657
1999.000000	17.076728
2000.000000	17.120350
2001.000000	17.164562
2002.000000	17.207690
2003.000000	17.245152
2004.000000	17.278760
2005.000000	17.311085
2006.000000	17.336775
2007.000000	17.357435
2008.000000	17.375645
2009.000000	17.390557
2010.000000	17.399860
2011.000000	17.402423
2012.000000	17.400982
2013.000000	17.396223
2014.000000	17.389297
2015.000000	17.377257
2016.000000	17.361018
2017.000000	17.341975
2018.000000	17.319167
2019.000000	17.292210
2020.000000	17.264182
2021.000000	17.228800
2022.000000	17.188763
2023.000000	17.149005
2024.000000	17.107398
2025.000000	17.058740
2026.000000	17.004310
2027.000000	16.949832
2028.000000	16.893485
2029.000000	16.833715
2030.000000	16.768490
2031.000000	16.702977
2032.000000	16.634352
2033.000000	16.562810
2034.000000	16.488087
2035.000000	16.413365
2036.000000	16.335760
2037.000000	16.252153
2038.000000	16.165840
2039.000000	16.076353
2040.000000	15.986270
2041.000000	15.893715
2042.000000	15.798303
2043.000000	15.699020
2044.000000	15.596250
2045.000000	15.492835
2046.000000	15.389823
2047.000000	15.290282
2048.000000	15.196953
2049.000000	15.107692
2050.000000	15.021920
2051.000000	14.944435
2052.000000	14.878645
2053.000000	14.822025
2054.000000	14.772585
2055.000000	14.735907
2056.000000	14.715620
2057.000000	14.705480
2058.000000	14.702230
2059.000000	14.713365
2060.000000	14.736390
2061.000000	14.764157
2062.000000	14.797035
2063.000000	14.839392
2064.000000	14.888220
2065.000000	14.939960
2066.000000	14.995990
2067.000000	15.056082
2068.000000	15.120085
2069.000000	15.184465
2070.000000	15.250007
2071.000000	15.320143
2072.000000	15.388188
2073.000000	15.456240
2074.000000	15.528398
2075.000000	15.599737
2076.000000	15.667435
2077.000000	15.730025
2078.000000	15.784405
2079.000000	15.834835
2080.000000	15.881938
2081.000000	15.920868
2082.000000	15.953363
2083.000000	15.980158
2084.000000	16.001075
2085.000000	16.021565
2086.000000	16.039595
2087.000000	16.054458
2088.000000	16.068810
2089.000000	16.076070
2090.000000	16.079180
2091.000000	16.082050
2092.000000	16.084615
2093.000000	16.084130
2094.000000	16.083215
2095.000000	16.076327
2096.000000	16.063308
2097.000000	16.051868
2098.000000	16.042513
2099.000000	16.037862
2100.000000	16.031855
2101.000000	16.024800
2102.000000	16.017245
2103.000000	16.015240
2104.000000	16.013697
2105.000000	16.009400
2106.000000	16.007700
2107.000000	16.002173
2108.000000	15.998317
2109.000000	15.995860
2110.000000	15.993698
2111.000000	15.996868
2112.000000	16.001652
2113.000000	15.999155
2114.000000	15.990748
2115.000000	15.991478
2116.000000	15.996208
2117.000000	16.001055
2118.000000	15.997972
2119.000000	15.991845
2120.000000	15.989210
2121.000000	15.975457
2122.000000	15.954755
2123.000000	15.934015
2124.000000	15.904042
2125.000000	15.873628
2126.000000	15.835863
2127.000000	15.794502
2128.000000	15.757772
2129.000000	15.719617
2130.000000	15.673087
2131.000000	15.627565
2132.000000	15.580300
2133.000000	15.526038
2134.000000	15.481832
2135.000000	15.427933
2136.000000	15.379035
2137.000000	15.326398
2138.000000	15.266787
2139.000000	15.199508
2140.000000	15.132495
2141.000000	15.069365
2142.000000	14.999115
2143.000000	14.937195
2144.000000	14.873022
2145.000000	14.810192
2146.000000	14.732335
2147.000000	14.657560
2148.000000	14.584740
2149.000000	14.510697
2150.000000	14.434112
2151.000000	14.348778
2152.000000	14.279532
2153.000000	14.201350
2154.000000	14.123862
2155.000000	14.045038
2156.000000	13.973440
2157.000000	13.908850
2158.000000	13.835663
2159.000000	13.763862
2160.000000	13.702745
2161.000000	13.652935
2162.000000	13.595310
2163.000000	13.548015
2164.000000	13.497930
2165.000000	13.455355
2166.000000	13.419728
2167.000000	13.379125
2168.000000	13.343065
2169.000000	13.313515
2170.000000	13.278680
2171.000000	13.244487
2172.000000	13.223245
2173.000000	13.197872
2174.000000	13.186690
2175.000000	13.166320
2176.000000	13.150512
2177.000000	13.142175
2178.000000	13.124110
2179.000000	13.111235
2180.000000	13.103940
2181.000000	13.099070
2182.000000	13.090190
2183.000000	13.074267
2184.000000	13.046500
2185.000000	13.027713
2186.000000	13.004608
2187.000000	12.975577
2188.000000	12.957902
2189.000000	12.933035
2190.000000	12.895892
2191.000000	12.853715
2192.000000	12.812980
2193.000000	12.782045
2194.000000	12.739558
2195.000000	12.684765
2196.000000	12.625220
2197.000000	12.564720
2198.000000	12.512917
2199.000000	12.448632
2200.000000	12.392910
2201.000000	12.331972
2202.000000	12.263635
2203.000000	12.193465
2204.000000	12.140728
2205.000000	12.103043
2206.000000	12.064998
2207.000000	12.022685
2208.000000	11.975030
2209.000000	11.949207
2210.000000	11.928610
2211.000000	11.919415
2212.000000	11.924307
2213.000000	11.942235
2214.000000	11.959678
2215.000000	11.972855
2216.000000	12.006742
2217.000000	12.057813
2218.000000	12.108928
2219.000000	12.172278
2220.000000	12.222143
2221.000000	12.278483
2222.000000	12.334983
2223.000000	12.384708
2224.000000	12.442427
2225.000000	12.504265
2226.000000	12.561010
2227.000000	12.608557
2228.000000	12.660575
2229.000000	12.692012
2230.000000	12.734478
2231.000000	12.760125
2232.000000	12.781560
2233.000000	12.802048
2234.000000	12.814622
2235.000000	12.818922
2236.000000	12.812563
2237.000000	12.799128
2238.000000	12.785830
2239.000000	12.767265
2240.000000	12.745950
2241.000000	12.722668
2242.000000	12.681870
2243.000000	12.638780
2244.000000	12.584705
2245.000000	12.530355
2246.000000	12.470972
2247.000000	12.419845
2248.000000	12.345673
2249.000000	12.273955
2250.000000	12.197208
2251.000000	12.123500
2252.000000	12.057915
2253.000000	11.985865
2254.000000	11.918212
2255.000000	11.854115
2256.000000	11.786108
2257.000000	11.711632
2258.000000	11.657307
2259.000000	11.596150
2260.000000	11.539415
2261.000000	11.487310
2262.000000	11.434178
2263.000000	11.390530
2264.000000	11.344365
2265.000000	11.300463
2266.000000	11.265980
2267.000000	11.235482
2268.000000	11.202890
2269.000000	11.185098
2270.000000	11.173105
2271.000000	11.160150
2272.000000	11.148300
2273.000000	11.126375
2274.000000	11.119547
2275.000000	11.119283
2276.000000	11.121348
2277.000000	11.138420
2278.000000	11.158200
2279.000000	11.174935
2280.000000	11.182785
2281.000000	11.187345
2282.000000	11.197545
2283.000000	11.218050
2284.000000	11.225955
2285.000000	11.222983
2286.000000	11.221000
2287.000000	11.199637
2288.000000	11.182535
2289.000000	11.169795
2290.000000	11.163422
2291.000000	11.170790
2292.000000	11.179813
2293.000000	11.180705
2294.000000	11.196115
2295.000000	11.211840
2296.000000	11.221055
2297.000000	11.240685
2298.000000	11.253472
2299.000000	11.254675
2300.000000	11.264985
2301.000000	11.273953
2302.000000	11.274342
2303.000000	11.281797
2304.000000	11.290180
2305.000000	11.300875
2306.000000	11.321713
2307.000000	11.345455
2308.000000	11.368315
2309.000000	11.400848
2310.000000	11.421760
2311.000000	11.432350
2312.000000	11.449900
2313.000000	11.471155
2314.000000	11.493070
2315.000000	11.524558
2316.000000	11.550060
2317.000000	11.573297
2318.000000	11.602080
2319.000000	11.626775
2320.000000	11.650868
2321.000000	11.685852
2322.000000	11.719938
2323.000000	11.747650
2324.000000	11.762665
2325.000000	11.758617
2326.000000	11.753827
2327.000000	11.746147
2328.000000	11.752532
2329.000000	11.763492
2330.000000	11.766327
2331.000000	11.762503
2332.000000	11.747195
2333.000000	11.729630
2334.000000	11.729715
2335.000000	11.749697
2336.000000	11.780952
2337.000000	11.810292
2338.000000	11.824050
2339.000000	11.841035
2340.000000	11.868895
2341.000000	11.887128
2342.000000	11.912463
2343.000000	11.945382
2344.000000	11.970595
2345.000000	11.993055
2346.000000	12.000243
2347.000000	12.011962
2348.000000	12.030470
2349.000000	12.048840
2350.000000	12.074930
2351.000000	12.103370
2352.000000	12.137445
2353.000000	12.180650
2354.000000	12.212850
2355.000000	12.234607
2356.000000	12.266615
2357.000000	12.293155
2358.000000	12.315660
2359.000000	12.342087
2360.000000	12.366038
2361.000000	12.389790
2362.000000	12.419425
2363.000000	12.434515
2364.000000	12.443875
2365.000000	12.456598
2366.000000	12.464363
2367.000000	12.484650
2368.000000	12.506945
2369.000000	12.507882
2370.000000	12.511942
2371.000000	12.534265
2372.000000	12.566460
2373.000000	12.600022
2374.000000	12.637465
2375.000000	12.667235
2376.000000	12.704232
2377.000000	12.726907
2378.000000	12.732785
2379.000000	12.759790
2380.000000	12.784000
2381.000000	12.792903
2382.000000	12.788263
2383.000000	12.784772
2384.000000	12.776155
2385.000000	12.779948
2386.000000	12.793350
2387.000000	12.798630
2388.000000	12.800505
2389.000000	12.804770
2390.000000	12.811667
2391.000000	12.829770
2392.000000	12.852120
2393.000000	12.859053
2394.000000	12.869557
2395.000000	12.874033
2396.000000	12.879635
2397.000000	12.885790
2398.000000	12.905643
2399.000000	12.905550
2400.000000	12.905725
2401.000000	12.905503
2402.000000	12.894805
2403.000000	12.892375
2404.000000	12.888665
2405.000000	12.892062
2406.000000	12.883950
2407.000000	12.859295
2408.000000	12.833793
2409.000000	12.824763
2410.000000	12.806913
2411.000000	12.795198
2412.000000	12.803100
2413.000000	12.781593
2414.000000	12.777953
2415.000000	12.750303
2416.000000	12.705975
2417.000000	12.713622
2418.000000	12.702818
2419.000000	12.684875
2420.000000	12.650513
2421.000000	12.600317
2422.000000	12.533610
2423.000000	12.483370
2424.000000	12.413335
2425.000000	12.350215
2426.000000	12.316290
2427.000000	12.243107
2428.000000	12.205037
2429.000000	12.150715
2430.000000	12.140765
2431.000000	12.131510
2432.000000	12.110900
2433.000000	12.063263
2434.000000	12.036798
2435.000000	12.014397
2436.000000	11.963695
2437.000000	11.936193
2438.000000	11.878685
2439.000000	11.857828
2440.000000	11.808718
2441.000000	11.754610
2442.000000	11.676100
2443.000000	11.661917
2444.000000	11.631100
2445.000000	11.594978
2446.000000	11.583792
2447.000000	11.525187
2448.000000	11.499752
2449.000000	11.467600
2450.000000	11.414277
2451.000000	11.371690
2452.000000	11.349510
2453.000000	11.291163
2454.000000	11.246425
2455.000000	11.205967
2456.000000	11.182952
2457.000000	11.156295
2458.000000	11.163915
2459.000000	11.163940
2460.000000	11.181555
2461.000000	11.201203
2462.000000	11.244645
2463.000000	11.318210
2464.000000	11.391878
2465.000000	11.464422
2466.000000	11.485683
2467.000000	11.587415
2468.000000	11.613497
2469.000000	11.639323
2470.000000	11.723863
2471.000000	11.844542
2472.000000	11.943185
2473.000000	11.978063
2474.000000	11.955707
2475.000000	12.041388
2476.000000	12.151495
2477.000000	12.273245
2478.000000	12.406988
2479.000000	12.491890
2480.000000	12.523923
2481.000000	12.577805
2482.000000	12.724080
2483.000000	12.903428
2484.000000	13.159398
2485.000000	13.277695
2486.000000	13.409543
2487.000000	13.549783
2488.000000	13.684920
2489.000000	13.823550
2490.000000	14.021752
2491.000000	14.194597
2492.000000	14.244190
2493.000000	14.303560
2494.000000	14.412043
2495.000000	14.545230
2496.000000	14.687662
2497.000000	14.762762
2498.000000	14.908985
2499.000000	15.073792
2500.000000	15.223628
2501.000000	19.046615
2502.000000	22.875957
2503.000000	26.594033
2504.000000	30.425000
2505.000000	34.308418
2506.000000	38.763120
2507.000000	43.093418
2508.000000	46.959378
2509.000000	51.061365
2510.000000	55.263130
2511.000000	55.817350
2512.000000	56.822910
2513.000000	57.410040
2514.000000	58.299460
2515.000000	59.287230
2516.000000	59.558430
2517.000000	59.912610
2518.000000	60.904480
2519.000000	61.961200
2520.000000	63.075200
2521.000000	64.320470
2522.000000	64.396820
2523.000000	65.792220
2524.000000	66.765120
2525.000000	67.661160
2526.000000	68.669590
2527.000000	69.382290
2528.000000	70.494130
2529.000000	71.372410
2530.000000	72.556550
2531.000000	72.773110
2532.000000	73.652610
2533.000000	73.743030
2534.000000	74.001800
2535.000000	74.605400
2536.000000	75.914330
2537.000000	77.289000
2538.000000	77.822960
2539.000000	78.490970
2540.000000	78.722810
2541.000000	79.877130
2542.000000	81.201180
2543.000000	82.588900
2544.000000	83.884900
2545.000000	85.268480
2546.000000	86.024270
2547.000000	86.933490
2548.000000	87.816990
2549.000000	89.527560
2550.000000	90.589110
2551.000000	90.905730
2552.000000	90.923920
2553.000000	90.974230
2554.000000	91.409660
2555.000000	91.914330
2556.000000	91.893430
2557.000000	91.472490
2558.000000	91.565240
2559.000000	91.347250
2560.000000	91.605500
2561.000000	91.735610
2562.000000	91.880020
2563.000000	92.829890
2564.000000	93.316660
2565.000000	93.222960
2566.000000	93.331910
2567.000000	93.809060
2568.000000	94.258680
2569.000000	93.941630
2570.000000	93.794630
2571.000000	94.342410
2572.000000	95.034270
2573.000000	95.061520
2574.000000	95.262850
2575.000000	95.430480
2576.000000	95.641080
2577.000000	96.201790
2578.000000	96.246620
2579.000000	96.721420
2580.000000	97.530210
2581.000000	97.789960
2582.000000	97.728950
2583.000000	98.159480
2584.000000	98.979730
2585.000000	98.929660
2586.000000	98.268640
2587.000000	97.993110
2588.000000	98.350850
2589.000000	98.507750
2590.000000	97.956870
2591.000000	97.713230
2592.000000	98.270880
2593.000000	98.263680
2594.000000	97.205810
2595.000000	97.032430
2596.000000	97.606560
2597.000000	97.568010
2598.000000	97.805220
2599.000000	98.036500
2600.000000	98.348890
2601.000000	99.012450
2602.000000	99.550550
2603.000000	100.327790
2604.000000	101.288210
2605.000000	101.384800
2606.000000	101.372150
2607.000000	101.756780
2608.000000	102.678170
2609.000000	103.497390
2610.000000	103.319800
2611.000000	102.983630
2612.000000	102.839960
2613.000000	102.395630
2614.000000	101.628470
2615.000000	101.569640
2616.000000	101.797630
2617.000000	101.765990
2618.000000	100.772800
2619.000000	99.629950
2620.000000	98.862970
2621.000000	98.339330
2622.000000	98.934940
2623.000000	99.603170
2624.000000	100.101440
2625.000000	100.267430
2626.000000	100.337670
2627.000000	100.473710
2628.000000	100.395710
2629.000000	99.717140
2630.000000	100.124230
2631.000000	101.003480
2632.000000	100.684200
2633.000000	100.786840
2634.000000	100.530810
2635.000000	101.026450
2636.000000	101.437210
2637.000000	101.692440
2638.000000	101.525360
2639.000000	101.500950
2640.000000	101.477810
2641.000000	101.193520
2642.000000	100.902090
2643.000000	99.502260
2644.000000	98.955870
2645.000000	98.216570
2646.000000	98.048700
2647.000000	98.443950
2648.000000	98.580900
2649.000000	99.268460
2650.000000	100.027770
2651.000000	100.236580
2652.000000	100.268510
2653.000000	100.121060
2654.000000	99.328110
2655.000000	99.422150
2656.000000	99.713350
2657.000000	98.335000
2658.000000	97.367360
2659.000000	96.833300
2660.000000	96.652270
2661.000000	97.330290
2662.000000	96.805750
2663.000000	96.899220
2664.000000	97.725160
2665.000000	97.918560
2666.000000	97.658220
2667.000000	97.977630
2668.000000	99.401540
2669.000000	100.161750
2670.000000	100.738120
2671.000000	100.167610
2672.000000	100.478070
2673.000000	100.550040
2674.000000	101.426400
2675.000000	102.193990
2676.000000	101.853310
2677.000000	101.931380
2678.000000	102.204280
2679.000000	101.585090
2680.000000	100.337650
2681.000000	99.712830
2682.000000	99.290110
2683.000000	99.686500
2684.000000	99.428640
2685.000000	98.587840
2686.000000	99.270090
2687.000000	99.843520
2688.000000	99.426380
2689.000000	99.391140
2690.000000	99.978190
2691.000000	100.124770
2692.000000	100.115750
2693.000000	100.009060
2694.000000	99.017070
2695.000000	99.221850
2696.000000	99.331940
2697.000000	99.858550
2698.000000	100.336840
2699.000000	100.526840
2700.000000	100.210040
2701.000000	101.029630
2702.000000	101.962350
2703.000000	102.081970
2704.000000	102.544190
2705.000000	103.419200
2706.000000	103.933420
2707.000000	102.973620
2708.000000	101.442450
2709.000000	101.486160
2710.000000	102.428950
2711.000000	101.678720
2712.000000	101.300070
2713.000000	100.239870
2714.000000	100.126880
2715.000000	99.107800
2716.000000	98.299850
2717.000000	97.553630
2718.000000	98.259040
2719.000000	98.787830
2720.000000	98.164770
2721.000000	98.359450
2722.000000	97.879230
2723.000000	98.985300
2724.000000	100.130450
2725.000000	100.176160
2726.000000	99.907680
2727.000000	101.501560
2728.000000	102.396400
2729.000000	102.631380
2730.000000	102.339110
2731.000000	102.036240
2732.000000	101.658800
2733.000000	100.996160
2734.000000	100.902100
2735.000000	100.729440
2736.000000	100.733050
2737.000000	99.791100
2738.000000	100.008150
2739.000000	99.936690
2740.000000	100.204890
2741.000000	100.178430
2742.000000	100.670670
2743.000000	101.795020
2744.000000	101.782450
2745.000000	101.660820
2746.000000	102.308480
2747.000000	102.232570
2748.000000	100.895960
2749.000000	100.177620
2750.000000	100.629490
2751.000000	100.397350
2752.000000	100.807240
2753.000000	100.223280
2754.000000	99.492410
2755.000000	99.741620
2756.000000	98.960930
2757.000000	99.491630
2758.000000	100.015650
2759.000000	99.558940
2760.000000	98.983690
2761.000000	99.613260
2762.000000	99.907510
2763.000000	99.282270
2764.000000	99.440920
2765.000000	99.748820
2766.000000	99.934150
2767.000000	99.134850
2768.000000	98.919800
2769.000000	99.867670
2770.000000	100.739120
2771.000000	101.023000
2772.000000	100.886450
2773.000000	100.844720
2774.000000	100.793030
2775.000000	101.228170
2776.000000	101.838540
2777.000000	102.175980
2778.000000	101.358630
2779.000000	101.820260
2780.000000	101.078350
2781.000000	100.651590
2782.000000	99.828040
2783.000000	100.450970
2784.000000	101.571320
2785.000000	101.681870
2786.000000	101.399620
2787.000000	101.605350
2788.000000	102.147690
2789.000000	101.843880
2790.000000	101.812230
2791.000000	101.765350
2792.000000	102.319540
2793.000000	102.790680
2794.000000	101.371780
2795.000000	100.303620
2796.000000	99.835080
2797.000000	100.046800
2798.000000	100.265130
2799.000000	99.565800
2800.000000	99.050910
2801.000000	99.208510
2802.000000	98.924440
2803.000000	98.703500
2804.000000	98.884750
2805.000000	98.733210
2806.000000	98.548570
2807.000000	98.464050
2808.000000	98.897900
2809.000000	99.086140
2810.000000	99.586700
2811.000000	99.392790
2812.000000	99.221360
2813.000000	98.389220
2814.000000	98.610690
2815.000000	99.794530
2816.000000	100.786930
2817.000000	100.961700
2818.000000	100.290790
2819.000000	100.455650
2820.000000	100.809660
2821.000000	100.872060
2822.000000	101.018920
2823.000000	101.134230
2824.000000	101.153350
2825.000000	101.276040
2826.000000	101.052580
2827.000000	100.729230
2828.000000	100.744190
2829.000000	101.493150
2830.000000	101.833830
2831.000000	101.053260
2832.000000	100.612900
2833.000000	100.320760
2834.000000	100.106510
2835.000000	99.474580
2836.000000	99.016110
2837.000000	99.026650
2838.000000	99.409100
2839.000000	98.307510
2840.000000	97.018430
2841.000000	97.993440
2842.000000	98.518210
2843.000000	99.504220
2844.000000	99.700770
2845.000000	98.983320
2846.000000	98.689910
2847.000000	99.543460
2848.000000	99.703940
2849.000000	99.801510
2850.000000	100.646840
2851.000000	100.712010
2852.000000	100.895850
2853.000000	100.683280
2854.000000	100.460880
2855.000000	100.727800
2856.000000	100.588200
2857.000000	99.448020
2858.000000	99.064520
2859.000000	99.188430
2860.000000	98.851860
2861.000000	99.286860
2862.000000	99.536560
2863.000000	99.491320
2864.000000	99.797050
2865.000000	100.857150
2866.000000	101.922350
2867.000000	101.741630
2868.000000	101.331430
2869.000000	101.972590
2870.000000	102.492050
2871.000000	101.119350
2872.000000	99.501900
2873.000000	98.601000
2874.000000	98.106010
2875.000000	97.006670
2876.000000	95.867740
2877.000000	95.544560
2878.000000	95.619300
2879.000000	95.304400
2880.000000	95.154200
2881.000000	95.920740
2882.000000	96.694230
2883.000000	97.460640
2884.000000	98.079340
2885.000000	98.747530
2886.000000	99.009220
2887.000000	100.078270
2888.000000	100.980280
2889.000000	100.980770
2890.000000	100.594170
2891.000000	100.311840
2892.000000	101.300440
2893.000000	102.412990
2894.000000	102.117150
2895.000000	101.570120
2896.000000	101.837820
2897.000000	101.388450
2898.000000	100.750500
2899.000000	100.237830
2900.000000	100.893390
2901.000000	101.247140
2902.000000	100.810350
2903.000000	99.686520
2904.000000	99.730020
2905.000000	99.852770
2906.000000	99.872540
2907.000000	100.357750
2908.000000	100.221710
2909.000000	100.403510
2910.000000	100.277500
2911.000000	100.187330
2912.000000	99.794710
2913.000000	99.195210
2914.000000	98.543170
2915.000000	98.025570
2916.000000	97.448670
2917.000000	96.816250
2918.000000	96.433450
2919.000000	96.666360
2920.000000	96.359210
2921.000000	96.022590
2922.000000	96.292430
2923.000000	97.026920
2924.000000	97.870820
2925.000000	98.209120
2926.000000	98.110450
2927.000000	99.258920
2928.000000	100.413610
2929.000000	100.614340
2930.000000	99.913080
2931.000000	100.234440
2932.000000	100.242970
2933.000000	100.281490
2934.000000	100.225140
2935.000000	99.841380
2936.000000	99.492680
2937.000000	98.892320
2938.000000	98.544800
2939.000000	97.981980
2940.000000	98.204780
2941.000000	97.814410
2942.000000	98.126820
2943.000000	97.606670
2944.000000	97.408730
2945.000000	98.918450
2946.000000	99.842020
2947.000000	99.763450
2948.000000	98.739560
2949.000000	98.245300
2950.000000	98.269850
2951.000000	98.773260
2952.000000	98.253810
2953.000000	98.771030
2954.000000	98.421460
2955.000000	97.884050
2956.000000	98.792580
2957.000000	98.471620
2958.000000	98.534920
2959.000000	98.965150
2960.000000	99.872370
2961.000000	99.208170
2962.000000	99.045790
2963.000000	98.124050
2964.000000	98.508720
2965.000000	97.502590
2966.000000	96.111640
2967.000000	95.961010
2968.000000	97.955670
2969.000000	98.819720
2970.000000	97.524810
2971.000000	96.941560
2972.000000	96.648150
2973.000000	97.861800
2974.000000	98.059510
2975.000000	98.760150
2976.000000	99.116300
2977.000000	99.814570
2978.000000	98.973770
2979.000000	96.758070
2980.000000	96.763920
2981.000000	98.032750
2982.000000	98.288160
2983.000000	97.883580
2984.000000	97.257250
2985.000000	96.607440
2986.000000	96.716250
2987.000000	95.463730
2988.000000	93.934050
2989.000000	95.068380
2990.000000	95.809650
2991.000000	95.117450
2992.000000	95.529010
2993.000000	95.261960
2994.000000	95.682560
2995.000000	97.154930
2996.000000	97.213920
2997.000000	96.919500
2998.000000	97.494460
2999.000000	98.159790
3000.000000	98.903670
