PE UV       SUBTECH     SPECTRUM    ASCII       PEDS        4.00        
   -1
INBUCR0114-5.Sample.ASC
24/02/12
13:31:47.00
24/02/12
13:31:47.00
Vinicio Soto Monge
Strigidia glabra. Color verde metálico sin élitro derecho (Det: A. Solís) COSTA RICA Prov. Puntarenas. Cóbano. Estación Cabo Blanco. 0-100m 20-23 MAY 2001 W. Porras. Trampa de Luz L_N_175150_416300 #66574.  INB0003420620 INBIOCRI COSTA RICA 
250,000000
1
Lambda 1050
1050L1511233
PerkinElmer UV WinLab 6.3.2.0749 / 2.02.05 Lambda 900 UV/VIS/NIR, Aug  7 2015 09:38:08

0
0
3350/servo 860,8/2
0
0
UV/VIS
1
1
1
DoubleDePol,CommonBeamDepol,RBeamAtt,SBeamAtt,60mm sphere, WB InGaAs Detector
0
0
0
0
Program
Program
3350/servo 860,8/2
3350/0,2 860,8/0,2
3350/0,2 860,8/0,2
0
15.00
 
 
 
0
 
860,8
150
860,8
Front
100
on
S:100 R:100
0
0
0
0
 
0
 
 
 
0
 
 
0
0
0
0
0
 
 
 
 
0
0


0
0
#HDR
-1
-1
#GR
nm
%R
1.0
0.0
2500,000000
-1,000000
2251
8
23,580100
1,508400
#DATA

250.000000	nan
251.000000	nan
252.000000	nan
253.000000	nan
254.000000	nan
255.000000	nan
256.000000	nan
257.000000	nan
258.000000	nan
259.000000	5.158628
260.000000	5.113646
261.000000	5.094694
262.000000	5.087362
263.000000	5.097639
264.000000	5.079674
265.000000	5.051188
266.000000	5.012769
267.000000	4.981937
268.000000	4.937730
269.000000	4.903286
270.000000	4.886243
271.000000	4.850964
272.000000	4.820909
273.000000	4.790265
274.000000	4.767854
275.000000	4.762539
276.000000	4.755919
277.000000	4.748135
278.000000	4.740744
279.000000	4.730710
280.000000	4.721095
281.000000	4.712010
282.000000	4.705622
283.000000	4.694998
284.000000	4.687214
285.000000	4.676244
286.000000	4.663612
287.000000	4.657651
288.000000	4.654187
289.000000	4.649549
290.000000	4.649288
291.000000	4.646741
292.000000	4.642046
293.000000	4.642278
294.000000	4.644342
295.000000	4.643660
296.000000	4.648206
297.000000	4.646446
298.000000	4.648788
299.000000	4.651466
300.000000	4.659268
301.000000	4.661388
302.000000	4.665336
303.000000	4.670436
304.000000	4.674892
305.000000	4.683274
306.000000	4.689860
307.000000	4.698721
308.000000	4.703432
309.000000	4.710428
310.000000	4.687678
311.000000	4.697323
312.000000	4.706055
313.000000	4.708836
314.000000	4.712993
315.000000	4.716883
316.000000	4.722331
317.000000	4.760371
318.000000	4.804933
319.000000	4.844778
320.000000	4.900114
321.000000	4.938146
322.000000	4.965335
323.000000	4.996106
324.000000	5.021585
325.000000	5.049193
326.000000	5.070114
327.000000	5.054009
328.000000	5.034384
329.000000	5.012119
330.000000	5.001245
331.000000	4.981278
332.000000	4.972878
333.000000	4.959887
334.000000	4.952587
335.000000	4.942171
336.000000	4.927595
337.000000	4.926067
338.000000	4.920972
339.000000	4.915925
340.000000	4.907300
341.000000	4.900964
342.000000	4.893759
343.000000	4.888502
344.000000	4.880937
345.000000	4.873237
346.000000	4.877036
347.000000	4.873812
348.000000	4.872020
349.000000	4.873659
350.000000	4.875029
351.000000	4.876878
352.000000	4.876465
353.000000	4.877038
354.000000	4.881403
355.000000	4.881595
356.000000	4.878243
357.000000	4.872932
358.000000	4.866692
359.000000	4.866110
360.000000	4.866227
361.000000	4.861991
362.000000	4.858266
363.000000	4.856054
364.000000	4.852632
365.000000	4.854938
366.000000	4.853391
367.000000	4.854976
368.000000	4.854645
369.000000	4.849988
370.000000	4.848135
371.000000	4.844624
372.000000	4.845291
373.000000	4.840604
374.000000	4.832327
375.000000	4.820992
376.000000	4.822670
377.000000	4.817786
378.000000	4.815948
379.000000	4.817772
380.000000	4.815006
381.000000	4.814704
382.000000	4.813897
383.000000	4.817123
384.000000	4.820892
385.000000	4.827949
386.000000	4.825673
387.000000	4.828531
388.000000	4.831515
389.000000	4.833560
390.000000	4.837340
391.000000	4.841151
392.000000	4.844000
393.000000	4.846625
394.000000	4.849757
395.000000	4.852792
396.000000	4.857025
397.000000	4.860349
398.000000	4.863166
399.000000	4.866553
400.000000	4.868758
401.000000	4.871299
402.000000	4.874188
403.000000	4.877116
404.000000	4.880421
405.000000	4.883612
406.000000	4.885769
407.000000	4.888651
408.000000	4.891890
409.000000	4.894659
410.000000	4.898284
411.000000	4.901597
412.000000	4.904498
413.000000	4.908002
414.000000	4.911047
415.000000	4.913972
416.000000	4.917153
417.000000	4.920178
418.000000	4.923542
419.000000	4.927115
420.000000	4.930033
421.000000	4.933230
422.000000	4.937003
423.000000	4.940075
424.000000	4.943454
425.000000	4.947122
426.000000	4.951253
427.000000	4.955258
428.000000	4.958945
429.000000	4.962887
430.000000	4.967347
431.000000	4.971992
432.000000	4.976475
433.000000	4.981241
434.000000	4.986241
435.000000	4.991287
436.000000	4.996147
437.000000	5.000917
438.000000	5.006282
439.000000	5.011828
440.000000	5.016887
441.000000	5.022113
442.000000	5.027573
443.000000	5.033307
444.000000	5.038988
445.000000	5.044561
446.000000	5.050220
447.000000	5.056380
448.000000	5.061731
449.000000	5.066649
450.000000	5.072183
451.000000	5.077950
452.000000	5.083428
453.000000	5.088660
454.000000	5.094086
455.000000	5.099872
456.000000	5.105678
457.000000	5.111407
458.000000	5.117570
459.000000	5.124236
460.000000	5.130887
461.000000	5.137266
462.000000	5.143642
463.000000	5.150311
464.000000	5.156921
465.000000	5.163751
466.000000	5.170662
467.000000	5.177275
468.000000	5.184221
469.000000	5.191076
470.000000	5.197434
471.000000	5.203906
472.000000	5.210514
473.000000	5.216712
474.000000	5.222677
475.000000	5.228042
476.000000	5.233126
477.000000	5.238103
478.000000	5.242745
479.000000	5.247063
480.000000	5.251733
481.000000	5.256632
482.000000	5.262096
483.000000	5.268740
484.000000	5.276270
485.000000	5.284635
486.000000	5.293911
487.000000	5.304209
488.000000	5.315358
489.000000	5.327179
490.000000	5.339884
491.000000	5.353145
492.000000	5.366249
493.000000	5.379334
494.000000	5.392963
495.000000	5.406752
496.000000	5.420814
497.000000	5.435133
498.000000	5.449666
499.000000	5.464566
500.000000	5.479781
501.000000	5.495269
502.000000	5.511604
503.000000	5.527993
504.000000	5.544248
505.000000	5.560866
506.000000	5.577855
507.000000	5.595179
508.000000	5.612804
509.000000	5.630752
510.000000	5.648504
511.000000	5.666229
512.000000	5.683854
513.000000	5.701909
514.000000	5.719934
515.000000	5.738183
516.000000	5.756695
517.000000	5.775368
518.000000	5.793810
519.000000	5.812673
520.000000	5.832432
521.000000	5.852491
522.000000	5.873615
523.000000	5.895249
524.000000	5.918123
525.000000	5.941901
526.000000	5.966281
527.000000	5.991746
528.000000	6.018843
529.000000	6.046771
530.000000	6.075872
531.000000	6.106733
532.000000	6.138831
533.000000	6.173489
534.000000	6.210530
535.000000	6.250693
536.000000	6.295219
537.000000	6.344719
538.000000	6.400154
539.000000	6.463697
540.000000	6.537128
541.000000	6.622170
542.000000	6.720898
543.000000	6.834450
544.000000	6.965270
545.000000	7.114559
546.000000	7.283353
547.000000	7.472613
548.000000	7.682920
549.000000	7.913929
550.000000	8.164136
551.000000	8.432249
552.000000	8.715328
553.000000	9.010915
554.000000	9.315338
555.000000	9.624503
556.000000	9.933775
557.000000	10.238834
558.000000	10.535300
559.000000	10.819272
560.000000	11.081986
561.000000	11.322279
562.000000	11.538319
563.000000	11.728144
564.000000	11.888503
565.000000	12.019153
566.000000	12.118422
567.000000	12.186291
568.000000	12.221944
569.000000	12.225252
570.000000	12.200268
571.000000	12.145221
572.000000	12.059319
573.000000	11.942836
574.000000	11.798216
575.000000	11.626927
576.000000	11.431815
577.000000	11.213904
578.000000	10.977598
579.000000	10.725135
580.000000	10.461017
581.000000	10.189715
582.000000	9.916023
583.000000	9.645278
584.000000	9.382845
585.000000	9.133155
586.000000	8.900578
587.000000	8.691531
588.000000	8.508933
589.000000	8.356031
590.000000	8.234774
591.000000	8.146292
592.000000	8.091127
593.000000	8.067799
594.000000	8.073616
595.000000	8.105060
596.000000	8.158415
597.000000	8.228303
598.000000	8.309862
599.000000	8.398353
600.000000	8.489693
601.000000	8.578386
602.000000	8.659892
603.000000	8.730704
604.000000	8.788574
605.000000	8.831631
606.000000	8.858747
607.000000	8.869914
608.000000	8.864618
609.000000	8.845347
610.000000	8.812570
611.000000	8.769902
612.000000	8.719978
613.000000	8.665938
614.000000	8.610725
615.000000	8.558080
616.000000	8.509952
617.000000	8.469018
618.000000	8.438834
619.000000	8.419955
620.000000	8.414544
621.000000	8.421312
622.000000	8.441582
623.000000	8.475650
624.000000	8.521311
625.000000	8.576586
626.000000	8.641254
627.000000	8.712630
628.000000	8.788105
629.000000	8.866356
630.000000	8.944827
631.000000	9.022780
632.000000	9.097314
633.000000	9.166168
634.000000	9.230020
635.000000	9.287535
636.000000	9.339281
637.000000	9.384858
638.000000	9.425301
639.000000	9.460310
640.000000	9.491548
641.000000	9.520825
642.000000	9.549567
643.000000	9.579755
644.000000	9.611805
645.000000	9.648128
646.000000	9.687917
647.000000	9.732510
648.000000	9.783110
649.000000	9.840807
650.000000	9.904550
651.000000	9.973911
652.000000	10.049392
653.000000	10.129116
654.000000	10.213148
655.000000	10.299164
656.000000	10.387840
657.000000	10.477960
658.000000	10.568044
659.000000	10.656101
660.000000	10.743120
661.000000	10.827337
662.000000	10.908460
663.000000	10.986107
664.000000	11.059945
665.000000	11.131940
666.000000	11.201090
667.000000	11.268631
668.000000	11.334915
669.000000	11.401263
670.000000	11.467928
671.000000	11.535984
672.000000	11.606660
673.000000	11.680437
674.000000	11.756912
675.000000	11.836467
676.000000	11.919824
677.000000	12.005386
678.000000	12.092938
679.000000	12.183740
680.000000	12.277070
681.000000	12.372653
682.000000	12.469575
683.000000	12.567700
684.000000	12.667305
685.000000	12.767056
686.000000	12.865519
687.000000	12.964442
688.000000	13.063637
689.000000	13.161599
690.000000	13.258453
691.000000	13.354520
692.000000	13.448985
693.000000	13.542217
694.000000	13.633694
695.000000	13.724878
696.000000	13.818484
697.000000	13.911726
698.000000	14.005691
699.000000	14.100788
700.000000	14.197935
701.000000	14.298141
702.000000	14.400087
703.000000	14.503717
704.000000	14.611414
705.000000	14.721279
706.000000	14.831033
707.000000	14.942716
708.000000	15.055645
709.000000	15.169168
710.000000	15.281672
711.000000	15.392544
712.000000	15.502629
713.000000	15.613119
714.000000	15.721668
715.000000	15.827980
716.000000	15.934082
717.000000	16.040973
718.000000	16.147415
719.000000	16.255811
720.000000	16.366564
721.000000	16.479178
722.000000	16.594643
723.000000	16.711497
724.000000	16.831238
725.000000	16.956739
726.000000	17.086247
727.000000	17.218833
728.000000	17.354989
729.000000	17.492766
730.000000	17.633801
731.000000	17.779840
732.000000	17.930157
733.000000	18.086287
734.000000	18.246975
735.000000	18.412439
736.000000	18.583720
737.000000	18.760175
738.000000	18.943040
739.000000	19.134980
740.000000	19.335775
741.000000	19.542949
742.000000	19.757734
743.000000	19.978690
744.000000	20.206545
745.000000	20.439503
746.000000	20.677274
747.000000	20.919661
748.000000	21.164424
749.000000	21.408893
750.000000	21.651462
751.000000	21.893944
752.000000	22.132038
753.000000	22.364127
754.000000	22.590968
755.000000	22.809464
756.000000	23.017785
757.000000	23.215173
758.000000	23.401556
759.000000	23.575927
760.000000	23.737975
761.000000	23.883691
762.000000	24.015002
763.000000	24.131266
764.000000	24.230324
765.000000	24.313946
766.000000	24.381280
767.000000	24.432507
768.000000	24.467274
769.000000	24.487565
770.000000	24.492461
771.000000	24.481303
772.000000	24.457670
773.000000	24.425462
774.000000	24.381361
775.000000	24.330775
776.000000	24.274753
777.000000	24.214576
778.000000	24.151250
779.000000	24.081557
780.000000	24.011654
781.000000	23.945699
782.000000	23.883595
783.000000	23.821497
784.000000	23.766872
785.000000	23.711803
786.000000	23.660547
787.000000	23.617135
788.000000	23.583422
789.000000	23.559558
790.000000	23.541878
791.000000	23.531526
792.000000	23.527024
793.000000	23.529459
794.000000	23.538592
795.000000	23.561117
796.000000	23.593379
797.000000	23.630171
798.000000	23.670014
799.000000	23.714781
800.000000	23.767949
801.000000	23.826269
802.000000	23.889844
803.000000	23.958983
804.000000	24.032327
805.000000	24.108300
806.000000	24.183922
807.000000	24.264169
808.000000	24.351913
809.000000	24.444033
810.000000	24.532351
811.000000	24.625290
812.000000	24.720057
813.000000	24.817307
814.000000	24.915618
815.000000	25.009285
816.000000	25.109812
817.000000	25.211794
818.000000	25.310284
819.000000	25.407767
820.000000	25.508406
821.000000	25.608319
822.000000	25.707046
823.000000	25.802789
824.000000	25.901686
825.000000	26.000693
826.000000	26.096191
827.000000	26.191315
828.000000	26.281777
829.000000	26.379063
830.000000	26.475463
831.000000	26.567368
832.000000	26.658782
833.000000	26.754251
834.000000	26.842301
835.000000	26.936482
836.000000	27.027056
837.000000	27.120531
838.000000	27.210712
839.000000	27.291278
840.000000	27.379991
841.000000	27.462140
842.000000	27.543404
843.000000	27.615231
844.000000	27.692739
845.000000	27.767627
846.000000	27.850133
847.000000	27.927925
848.000000	28.007155
849.000000	28.080051
850.000000	28.144772
851.000000	28.204077
852.000000	28.267178
853.000000	28.340969
854.000000	28.411808
855.000000	28.476020
856.000000	28.534908
857.000000	28.603652
858.000000	29.001523
859.000000	29.146749
860.000000	29.278434
861.000000	29.387817
862.000000	29.496652
863.000000	29.586101
864.000000	29.698634
865.000000	29.803947
866.000000	29.922358
867.000000	29.995395
868.000000	29.729606
869.000000	29.717480
870.000000	29.728952
871.000000	29.772678
872.000000	29.814962
873.000000	29.836492
874.000000	29.851698
875.000000	29.864312
876.000000	29.852230
877.000000	29.882130
878.000000	29.941730
879.000000	29.991772
880.000000	30.013214
881.000000	30.039064
882.000000	30.047034
883.000000	30.093140
884.000000	30.113592
885.000000	30.147004
886.000000	30.160654
887.000000	30.178578
888.000000	30.174170
889.000000	30.184354
890.000000	30.201080
891.000000	30.215266
892.000000	30.250074
893.000000	30.276988
894.000000	30.299684
895.000000	30.327770
896.000000	30.385298
897.000000	30.412926
898.000000	30.443698
899.000000	30.466246
900.000000	30.495406
901.000000	30.517134
902.000000	30.532554
903.000000	30.550904
904.000000	30.582668
905.000000	30.614874
906.000000	30.641556
907.000000	30.683196
908.000000	30.725664
909.000000	30.776120
910.000000	30.824022
911.000000	30.877736
912.000000	30.927942
913.000000	30.974706
914.000000	31.023460
915.000000	31.064972
916.000000	31.110104
917.000000	31.151604
918.000000	31.194034
919.000000	31.232748
920.000000	31.282346
921.000000	31.330670
922.000000	31.372206
923.000000	31.422676
924.000000	31.469060
925.000000	31.510890
926.000000	31.545640
927.000000	31.582876
928.000000	31.623232
929.000000	31.665270
930.000000	31.696264
931.000000	31.725762
932.000000	31.771322
933.000000	31.808526
934.000000	31.841704
935.000000	31.876046
936.000000	31.917682
937.000000	31.960922
938.000000	31.999324
939.000000	32.032744
940.000000	32.070356
941.000000	32.106724
942.000000	32.136530
943.000000	32.166860
944.000000	32.199626
945.000000	32.233126
946.000000	32.268394
947.000000	32.300642
948.000000	32.333840
949.000000	32.371036
950.000000	32.407426
951.000000	32.448654
952.000000	32.486146
953.000000	32.524572
954.000000	32.562568
955.000000	32.598832
956.000000	32.633236
957.000000	32.668604
958.000000	32.700416
959.000000	32.733146
960.000000	32.765266
961.000000	32.795038
962.000000	32.825758
963.000000	32.857448
964.000000	32.886682
965.000000	32.917144
966.000000	32.944568
967.000000	32.971002
968.000000	32.999230
969.000000	33.023910
970.000000	33.050070
971.000000	33.077772
972.000000	33.105614
973.000000	33.132254
974.000000	33.159476
975.000000	33.190450
976.000000	33.219620
977.000000	33.247816
978.000000	33.275510
979.000000	33.305094
980.000000	33.332322
981.000000	33.357972
982.000000	33.384544
983.000000	33.409736
984.000000	33.433968
985.000000	33.456180
986.000000	33.481736
987.000000	33.507276
988.000000	33.531480
989.000000	33.556372
990.000000	33.582006
991.000000	33.605864
992.000000	33.627984
993.000000	33.650280
994.000000	33.673836
995.000000	33.697456
996.000000	33.717836
997.000000	33.737418
998.000000	33.760354
999.000000	33.784400
1000.000000	33.808854
1001.000000	33.832606
1002.000000	33.857004
1003.000000	33.882398
1004.000000	33.906922
1005.000000	33.929930
1006.000000	33.953738
1007.000000	33.978202
1008.000000	34.000840
1009.000000	34.022940
1010.000000	34.044272
1011.000000	34.064002
1012.000000	34.084500
1013.000000	34.106666
1014.000000	34.130436
1015.000000	34.153746
1016.000000	34.176926
1017.000000	34.201062
1018.000000	34.225286
1019.000000	34.250088
1020.000000	34.275794
1021.000000	34.304232
1022.000000	34.331412
1023.000000	34.355766
1024.000000	34.379058
1025.000000	34.403192
1026.000000	34.429244
1027.000000	34.456774
1028.000000	34.484850
1029.000000	34.511620
1030.000000	34.537190
1031.000000	34.563206
1032.000000	34.589454
1033.000000	34.615324
1034.000000	34.641318
1035.000000	34.667920
1036.000000	34.694436
1037.000000	34.718410
1038.000000	34.741376
1039.000000	34.766244
1040.000000	34.791588
1041.000000	34.815018
1042.000000	34.839606
1043.000000	34.865810
1044.000000	34.890976
1045.000000	34.916304
1046.000000	34.941908
1047.000000	34.967714
1048.000000	34.993186
1049.000000	35.016230
1050.000000	35.039008
1051.000000	35.061920
1052.000000	35.084166
1053.000000	35.107212
1054.000000	35.130766
1055.000000	35.154024
1056.000000	35.176734
1057.000000	35.200312
1058.000000	35.224150
1059.000000	35.248954
1060.000000	35.274758
1061.000000	35.301558
1062.000000	35.328240
1063.000000	35.353542
1064.000000	35.378270
1065.000000	35.402542
1066.000000	35.426640
1067.000000	35.450874
1068.000000	35.474628
1069.000000	35.498300
1070.000000	35.521640
1071.000000	35.544672
1072.000000	35.567688
1073.000000	35.590770
1074.000000	35.615434
1075.000000	35.639062
1076.000000	35.662620
1077.000000	35.684814
1078.000000	35.707334
1079.000000	35.729236
1080.000000	35.751060
1081.000000	35.772526
1082.000000	35.793906
1083.000000	35.813674
1084.000000	35.832212
1085.000000	35.851148
1086.000000	35.869598
1087.000000	35.888034
1088.000000	35.906544
1089.000000	35.924152
1090.000000	35.939880
1091.000000	35.954696
1092.000000	35.969746
1093.000000	35.984882
1094.000000	36.000150
1095.000000	36.014180
1096.000000	36.027408
1097.000000	36.040818
1098.000000	36.055126
1099.000000	36.068830
1100.000000	36.082982
1101.000000	36.098342
1102.000000	36.111052
1103.000000	36.122302
1104.000000	36.131514
1105.000000	36.141310
1106.000000	36.152884
1107.000000	36.162950
1108.000000	36.169642
1109.000000	36.176794
1110.000000	36.183700
1111.000000	36.189804
1112.000000	36.197442
1113.000000	36.205618
1114.000000	36.212916
1115.000000	36.219146
1116.000000	36.223242
1117.000000	36.226880
1118.000000	36.230202
1119.000000	36.233268
1120.000000	36.234172
1121.000000	36.233486
1122.000000	36.232936
1123.000000	36.229778
1124.000000	36.225068
1125.000000	36.221470
1126.000000	36.215012
1127.000000	36.206018
1128.000000	36.195846
1129.000000	36.182860
1130.000000	36.166228
1131.000000	36.145770
1132.000000	36.118164
1133.000000	36.089828
1134.000000	36.064232
1135.000000	36.035358
1136.000000	36.003352
1137.000000	35.969396
1138.000000	35.933526
1139.000000	35.896996
1140.000000	35.862570
1141.000000	35.829476
1142.000000	35.797786
1143.000000	35.765748
1144.000000	35.731024
1145.000000	35.694918
1146.000000	35.662752
1147.000000	35.632120
1148.000000	35.601536
1149.000000	35.570120
1150.000000	35.537778
1151.000000	35.503614
1152.000000	35.469926
1153.000000	35.436046
1154.000000	35.398418
1155.000000	35.359990
1156.000000	35.317582
1157.000000	35.272672
1158.000000	35.225242
1159.000000	35.174206
1160.000000	35.120702
1161.000000	35.065600
1162.000000	35.007140
1163.000000	34.945052
1164.000000	34.882832
1165.000000	34.820288
1166.000000	34.755810
1167.000000	34.691770
1168.000000	34.627848
1169.000000	34.566582
1170.000000	34.506582
1171.000000	34.449192
1172.000000	34.393522
1173.000000	34.341558
1174.000000	34.292884
1175.000000	34.247104
1176.000000	34.205438
1177.000000	34.166948
1178.000000	34.131716
1179.000000	34.097848
1180.000000	34.066450
1181.000000	34.038136
1182.000000	34.013252
1183.000000	33.991342
1184.000000	33.972862
1185.000000	33.956980
1186.000000	33.944904
1187.000000	33.935252
1188.000000	33.927504
1189.000000	33.926028
1190.000000	33.929734
1191.000000	33.935748
1192.000000	33.947050
1193.000000	33.961490
1194.000000	33.977718
1195.000000	33.995030
1196.000000	34.014360
1197.000000	34.035296
1198.000000	34.059688
1199.000000	34.083570
1200.000000	34.107390
1201.000000	34.131446
1202.000000	34.154610
1203.000000	34.176128
1204.000000	34.197336
1205.000000	34.220074
1206.000000	34.242664
1207.000000	34.265186
1208.000000	34.287750
1209.000000	34.308872
1210.000000	34.329466
1211.000000	34.351644
1212.000000	34.373516
1213.000000	34.396060
1214.000000	34.417920
1215.000000	34.439096
1216.000000	34.460686
1217.000000	34.482200
1218.000000	34.502840
1219.000000	34.525064
1220.000000	34.548422
1221.000000	34.570544
1222.000000	34.592600
1223.000000	34.615524
1224.000000	34.639186
1225.000000	34.662534
1226.000000	34.685294
1227.000000	34.708312
1228.000000	34.731692
1229.000000	34.755252
1230.000000	34.777446
1231.000000	34.799126
1232.000000	34.819538
1233.000000	34.839618
1234.000000	34.859434
1235.000000	34.878856
1236.000000	34.897162
1237.000000	34.916814
1238.000000	34.936178
1239.000000	34.954434
1240.000000	34.971796
1241.000000	34.989350
1242.000000	35.008124
1243.000000	35.026918
1244.000000	35.045346
1245.000000	35.063806
1246.000000	35.082656
1247.000000	35.101240
1248.000000	35.119864
1249.000000	35.138992
1250.000000	35.157908
1251.000000	35.177222
1252.000000	35.196710
1253.000000	35.215296
1254.000000	35.232854
1255.000000	35.250214
1256.000000	35.267190
1257.000000	35.282180
1258.000000	35.295714
1259.000000	35.307984
1260.000000	35.319684
1261.000000	35.330296
1262.000000	35.339602
1263.000000	35.348910
1264.000000	35.358880
1265.000000	35.367956
1266.000000	35.376576
1267.000000	35.384498
1268.000000	35.392558
1269.000000	35.400174
1270.000000	35.408014
1271.000000	35.415224
1272.000000	35.421884
1273.000000	35.427566
1274.000000	35.432562
1275.000000	35.437560
1276.000000	35.442420
1277.000000	35.448290
1278.000000	35.455280
1279.000000	35.462364
1280.000000	35.469820
1281.000000	35.477336
1282.000000	35.485802
1283.000000	35.494962
1284.000000	35.503896
1285.000000	35.513772
1286.000000	35.524148
1287.000000	35.533978
1288.000000	35.543812
1289.000000	35.554750
1290.000000	35.565740
1291.000000	35.576788
1292.000000	35.587156
1293.000000	35.596806
1294.000000	35.606404
1295.000000	35.614860
1296.000000	35.623328
1297.000000	35.631794
1298.000000	35.639004
1299.000000	35.645258
1300.000000	35.651272
1301.000000	35.656604
1302.000000	35.660788
1303.000000	35.664834
1304.000000	35.668198
1305.000000	35.669860
1306.000000	35.669480
1307.000000	35.667692
1308.000000	35.664774
1309.000000	35.660400
1310.000000	35.654136
1311.000000	35.646462
1312.000000	35.637672
1313.000000	35.627222
1314.000000	35.616384
1315.000000	35.605218
1316.000000	35.592528
1317.000000	35.578332
1318.000000	35.562928
1319.000000	35.546260
1320.000000	35.528284
1321.000000	35.508784
1322.000000	35.488030
1323.000000	35.465610
1324.000000	35.440530
1325.000000	35.413398
1326.000000	35.384884
1327.000000	35.354268
1328.000000	35.321034
1329.000000	35.285132
1330.000000	35.247346
1331.000000	35.208074
1332.000000	35.167484
1333.000000	35.124736
1334.000000	35.079420
1335.000000	35.031992
1336.000000	34.983112
1337.000000	34.932356
1338.000000	34.879820
1339.000000	34.825744
1340.000000	34.769804
1341.000000	34.711072
1342.000000	34.649290
1343.000000	34.585590
1344.000000	34.520506
1345.000000	34.452456
1346.000000	34.382312
1347.000000	34.313262
1348.000000	34.242038
1349.000000	34.167888
1350.000000	34.091250
1351.000000	34.014108
1352.000000	33.934830
1353.000000	33.855276
1354.000000	33.778776
1355.000000	33.707264
1356.000000	33.636116
1357.000000	33.561300
1358.000000	33.487930
1359.000000	33.413920
1360.000000	33.343514
1361.000000	33.281474
1362.000000	33.224118
1363.000000	33.163306
1364.000000	33.099232
1365.000000	33.031670
1366.000000	32.957736
1367.000000	32.883664
1368.000000	32.809004
1369.000000	32.730708
1370.000000	32.644162
1371.000000	32.545262
1372.000000	32.436086
1373.000000	32.320130
1374.000000	32.193166
1375.000000	32.057496
1376.000000	31.915600
1377.000000	31.763952
1378.000000	31.598362
1379.000000	31.429276
1380.000000	31.259328
1381.000000	31.092598
1382.000000	30.931696
1383.000000	30.779536
1384.000000	30.636630
1385.000000	30.496920
1386.000000	30.365524
1387.000000	30.245906
1388.000000	30.141832
1389.000000	30.044448
1390.000000	29.949150
1391.000000	29.855532
1392.000000	29.764484
1393.000000	29.673752
1394.000000	29.582406
1395.000000	29.502438
1396.000000	29.425668
1397.000000	29.341082
1398.000000	29.248226
1399.000000	29.157566
1400.000000	29.076572
1401.000000	28.991100
1402.000000	28.894204
1403.000000	28.790438
1404.000000	28.686174
1405.000000	28.569752
1406.000000	28.447320
1407.000000	28.324100
1408.000000	28.201092
1409.000000	28.072722
1410.000000	27.930728
1411.000000	27.782316
1412.000000	27.636450
1413.000000	27.493098
1414.000000	27.349698
1415.000000	27.206198
1416.000000	27.059948
1417.000000	26.916082
1418.000000	26.776600
1419.000000	26.639926
1420.000000	26.508304
1421.000000	26.379894
1422.000000	26.256142
1423.000000	26.136196
1424.000000	26.016506
1425.000000	25.898474
1426.000000	25.787812
1427.000000	25.680510
1428.000000	25.575414
1429.000000	25.472098
1430.000000	25.369672
1431.000000	25.276224
1432.000000	25.185080
1433.000000	25.096050
1434.000000	25.009894
1435.000000	24.928852
1436.000000	24.849086
1437.000000	24.772914
1438.000000	24.697928
1439.000000	24.625960
1440.000000	24.557836
1441.000000	24.489356
1442.000000	24.423832
1443.000000	24.359696
1444.000000	24.297594
1445.000000	24.237654
1446.000000	24.181302
1447.000000	24.123672
1448.000000	24.065994
1449.000000	24.009436
1450.000000	23.955880
1451.000000	23.903170
1452.000000	23.851056
1453.000000	23.798532
1454.000000	23.746906
1455.000000	23.696246
1456.000000	23.645170
1457.000000	23.595450
1458.000000	23.547114
1459.000000	23.498312
1460.000000	23.447748
1461.000000	23.397798
1462.000000	23.348100
1463.000000	23.299192
1464.000000	23.250088
1465.000000	23.201180
1466.000000	23.152086
1467.000000	23.104250
1468.000000	23.057712
1469.000000	23.011686
1470.000000	22.966892
1471.000000	22.923008
1472.000000	22.879008
1473.000000	22.835810
1474.000000	22.792238
1475.000000	22.748098
1476.000000	22.705428
1477.000000	22.664800
1478.000000	22.625486
1479.000000	22.588006
1480.000000	22.552730
1481.000000	22.518676
1482.000000	22.487308
1483.000000	22.458268
1484.000000	22.431718
1485.000000	22.407384
1486.000000	22.386426
1487.000000	22.366074
1488.000000	22.346242
1489.000000	22.328694
1490.000000	22.312100
1491.000000	22.297700
1492.000000	22.285226
1493.000000	22.273832
1494.000000	22.264170
1495.000000	22.257646
1496.000000	22.252004
1497.000000	22.250304
1498.000000	22.252268
1499.000000	22.255692
1500.000000	22.262344
1501.000000	22.271414
1502.000000	22.283156
1503.000000	22.299380
1504.000000	22.320028
1505.000000	22.342544
1506.000000	22.367896
1507.000000	22.395142
1508.000000	22.424434
1509.000000	22.457008
1510.000000	22.491540
1511.000000	22.527152
1512.000000	22.563692
1513.000000	22.602028
1514.000000	22.640812
1515.000000	22.679574
1516.000000	22.717918
1517.000000	22.756688
1518.000000	22.795950
1519.000000	22.835732
1520.000000	22.874514
1521.000000	22.913748
1522.000000	22.953446
1523.000000	22.991742
1524.000000	23.029574
1525.000000	23.066808
1526.000000	23.104072
1527.000000	23.141110
1528.000000	23.177164
1529.000000	23.211852
1530.000000	23.245918
1531.000000	23.279330
1532.000000	23.312942
1533.000000	23.344798
1534.000000	23.374834
1535.000000	23.405088
1536.000000	23.434486
1537.000000	23.462552
1538.000000	23.489492
1539.000000	23.514928
1540.000000	23.540802
1541.000000	23.566126
1542.000000	23.589686
1543.000000	23.614594
1544.000000	23.641184
1545.000000	23.668480
1546.000000	23.697956
1547.000000	23.727572
1548.000000	23.758472
1549.000000	23.791562
1550.000000	23.824426
1551.000000	23.857138
1552.000000	23.890082
1553.000000	23.922624
1554.000000	23.955082
1555.000000	23.986694
1556.000000	24.016630
1557.000000	24.045676
1558.000000	24.072254
1559.000000	24.096216
1560.000000	24.118012
1561.000000	24.137224
1562.000000	24.153034
1563.000000	24.165274
1564.000000	24.174572
1565.000000	24.180936
1566.000000	24.184314
1567.000000	24.185318
1568.000000	24.184536
1569.000000	24.181124
1570.000000	24.176216
1571.000000	24.172022
1572.000000	24.168612
1573.000000	24.165294
1574.000000	24.161586
1575.000000	24.158512
1576.000000	24.156940
1577.000000	24.156742
1578.000000	24.157766
1579.000000	24.161390
1580.000000	24.168098
1581.000000	24.176518
1582.000000	24.186782
1583.000000	24.199614
1584.000000	24.214000
1585.000000	24.230596
1586.000000	24.249092
1587.000000	24.268402
1588.000000	24.289584
1589.000000	24.313356
1590.000000	24.337790
1591.000000	24.363094
1592.000000	24.390208
1593.000000	24.418324
1594.000000	24.448446
1595.000000	24.480354
1596.000000	24.512046
1597.000000	24.544972
1598.000000	24.579678
1599.000000	24.614990
1600.000000	24.650386
1601.000000	24.686664
1602.000000	24.723204
1603.000000	24.761320
1604.000000	24.800456
1605.000000	24.839740
1606.000000	24.879136
1607.000000	24.919408
1608.000000	24.958296
1609.000000	24.996392
1610.000000	25.034498
1611.000000	25.070708
1612.000000	25.105146
1613.000000	25.138044
1614.000000	25.169482
1615.000000	25.198842
1616.000000	25.227362
1617.000000	25.255318
1618.000000	25.282194
1619.000000	25.307286
1620.000000	25.331460
1621.000000	25.355336
1622.000000	25.379690
1623.000000	25.402370
1624.000000	25.424176
1625.000000	25.446456
1626.000000	25.469266
1627.000000	25.492194
1628.000000	25.514848
1629.000000	25.537840
1630.000000	25.560284
1631.000000	25.582730
1632.000000	25.605830
1633.000000	25.629640
1634.000000	25.652594
1635.000000	25.675140
1636.000000	25.695872
1637.000000	25.714708
1638.000000	25.733216
1639.000000	25.751014
1640.000000	25.767932
1641.000000	25.785106
1642.000000	25.799008
1643.000000	25.811654
1644.000000	25.823182
1645.000000	25.831250
1646.000000	25.838880
1647.000000	25.844542
1648.000000	25.849812
1649.000000	25.851626
1650.000000	25.851534
1651.000000	25.847878
1652.000000	25.841986
1653.000000	25.832508
1654.000000	25.820816
1655.000000	25.807412
1656.000000	25.790172
1657.000000	25.767508
1658.000000	25.739276
1659.000000	25.707074
1660.000000	25.669066
1661.000000	25.626236
1662.000000	25.578862
1663.000000	25.525358
1664.000000	25.466822
1665.000000	25.403100
1666.000000	25.334462
1667.000000	25.262546
1668.000000	25.180894
1669.000000	25.093128
1670.000000	25.002162
1671.000000	24.907332
1672.000000	24.809090
1673.000000	24.708886
1674.000000	24.605164
1675.000000	24.498976
1676.000000	24.391080
1677.000000	24.280366
1678.000000	24.174406
1679.000000	24.068166
1680.000000	23.960106
1681.000000	23.853048
1682.000000	23.744622
1683.000000	23.638060
1684.000000	23.533218
1685.000000	23.430240
1686.000000	23.331132
1687.000000	23.239520
1688.000000	23.153512
1689.000000	23.079364
1690.000000	23.015912
1691.000000	22.963600
1692.000000	22.922820
1693.000000	22.891086
1694.000000	22.868838
1695.000000	22.854230
1696.000000	22.847150
1697.000000	22.843538
1698.000000	22.842162
1699.000000	22.838892
1700.000000	22.834996
1701.000000	22.825448
1702.000000	22.813254
1703.000000	22.797998
1704.000000	22.778608
1705.000000	22.754222
1706.000000	22.721462
1707.000000	22.681784
1708.000000	22.638530
1709.000000	22.588500
1710.000000	22.531940
1711.000000	22.470604
1712.000000	22.403640
1713.000000	22.327682
1714.000000	22.246142
1715.000000	22.159938
1716.000000	22.071230
1717.000000	21.980040
1718.000000	21.885882
1719.000000	21.792414
1720.000000	21.699534
1721.000000	21.608870
1722.000000	21.520732
1723.000000	21.442946
1724.000000	21.371582
1725.000000	21.309784
1726.000000	21.259914
1727.000000	21.221630
1728.000000	21.195714
1729.000000	21.179652
1730.000000	21.173412
1731.000000	21.177626
1732.000000	21.193038
1733.000000	21.215800
1734.000000	21.246972
1735.000000	21.283920
1736.000000	21.325312
1737.000000	21.372144
1738.000000	21.420978
1739.000000	21.474060
1740.000000	21.531086
1741.000000	21.589394
1742.000000	21.647986
1743.000000	21.706142
1744.000000	21.763196
1745.000000	21.820980
1746.000000	21.875932
1747.000000	21.930236
1748.000000	21.981096
1749.000000	22.027850
1750.000000	22.071096
1751.000000	22.111724
1752.000000	22.148976
1753.000000	22.181594
1754.000000	22.208892
1755.000000	22.232882
1756.000000	22.253998
1757.000000	22.269188
1758.000000	22.284086
1759.000000	22.300920
1760.000000	22.316300
1761.000000	22.329304
1762.000000	22.340660
1763.000000	22.353918
1764.000000	22.369682
1765.000000	22.385872
1766.000000	22.404538
1767.000000	22.426590
1768.000000	22.450190
1769.000000	22.473392
1770.000000	22.500206
1771.000000	22.530630
1772.000000	22.563360
1773.000000	22.596664
1774.000000	22.632048
1775.000000	22.668022
1776.000000	22.702222
1777.000000	22.736358
1778.000000	22.769678
1779.000000	22.802868
1780.000000	22.833926
1781.000000	22.863232
1782.000000	22.891674
1783.000000	22.917002
1784.000000	22.939092
1785.000000	22.960750
1786.000000	22.982368
1787.000000	23.001194
1788.000000	23.017034
1789.000000	23.030188
1790.000000	23.042144
1791.000000	23.053788
1792.000000	23.065454
1793.000000	23.078480
1794.000000	23.092996
1795.000000	23.105652
1796.000000	23.118076
1797.000000	23.131070
1798.000000	23.144052
1799.000000	23.158038
1800.000000	23.173392
1801.000000	23.189448
1802.000000	23.205100
1803.000000	23.219856
1804.000000	23.232734
1805.000000	23.247168
1806.000000	23.263286
1807.000000	23.280230
1808.000000	23.295776
1809.000000	23.310870
1810.000000	23.327054
1811.000000	23.343166
1812.000000	23.359626
1813.000000	23.375312
1814.000000	23.391838
1815.000000	23.408622
1816.000000	23.421784
1817.000000	23.429552
1818.000000	23.435040
1819.000000	23.441120
1820.000000	23.452790
1821.000000	23.469478
1822.000000	23.483560
1823.000000	23.492878
1824.000000	23.497906
1825.000000	23.500860
1826.000000	23.506646
1827.000000	23.519574
1828.000000	23.539266
1829.000000	23.560304
1830.000000	23.576524
1831.000000	23.586016
1832.000000	23.594800
1833.000000	23.606066
1834.000000	23.620608
1835.000000	23.637250
1836.000000	23.655354
1837.000000	23.674340
1838.000000	23.692248
1839.000000	23.708738
1840.000000	23.725712
1841.000000	23.749258
1842.000000	23.779162
1843.000000	23.807406
1844.000000	23.823888
1845.000000	23.830716
1846.000000	23.836542
1847.000000	23.850366
1848.000000	23.872970
1849.000000	23.892542
1850.000000	23.899848
1851.000000	23.893436
1852.000000	23.878800
1853.000000	23.868660
1854.000000	23.872296
1855.000000	23.883568
1856.000000	23.887458
1857.000000	23.875254
1858.000000	23.854538
1859.000000	23.838392
1860.000000	23.828778
1861.000000	23.822464
1862.000000	23.814034
1863.000000	23.794304
1864.000000	23.762550
1865.000000	23.720838
1866.000000	23.674082
1867.000000	23.623472
1868.000000	23.560982
1869.000000	23.486650
1870.000000	23.407332
1871.000000	23.324696
1872.000000	23.240000
1873.000000	23.156358
1874.000000	23.067864
1875.000000	22.973216
1876.000000	22.873952
1877.000000	22.766416
1878.000000	22.651966
1879.000000	22.525280
1880.000000	22.383198
1881.000000	22.229792
1882.000000	22.063532
1883.000000	21.888958
1884.000000	21.708368
1885.000000	21.522004
1886.000000	21.328372
1887.000000	21.126070
1888.000000	20.918682
1889.000000	20.708680
1890.000000	20.496314
1891.000000	20.279392
1892.000000	20.060114
1893.000000	19.830600
1894.000000	19.593856
1895.000000	19.347694
1896.000000	19.093562
1897.000000	18.836780
1898.000000	18.575048
1899.000000	18.312438
1900.000000	18.051324
1901.000000	17.785542
1902.000000	17.511906
1903.000000	17.241240
1904.000000	16.976710
1905.000000	16.722938
1906.000000	16.476938
1907.000000	16.234398
1908.000000	15.999300
1909.000000	15.766014
1910.000000	15.535082
1911.000000	15.316948
1912.000000	15.113914
1913.000000	14.922032
1914.000000	14.742704
1915.000000	14.566166
1916.000000	14.398456
1917.000000	14.237692
1918.000000	14.087592
1919.000000	13.946034
1920.000000	13.820028
1921.000000	13.699580
1922.000000	13.583870
1923.000000	13.475442
1924.000000	13.367206
1925.000000	13.266580
1926.000000	13.174460
1927.000000	13.096488
1928.000000	13.022490
1929.000000	12.958128
1930.000000	12.895778
1931.000000	12.836972
1932.000000	12.784000
1933.000000	12.735516
1934.000000	12.694884
1935.000000	12.664274
1936.000000	12.637120
1937.000000	12.614370
1938.000000	12.596716
1939.000000	12.588258
1940.000000	12.580472
1941.000000	12.578882
1942.000000	12.584604
1943.000000	12.595432
1944.000000	12.610586
1945.000000	12.629320
1946.000000	12.650634
1947.000000	12.674298
1948.000000	12.704478
1949.000000	12.731670
1950.000000	12.764044
1951.000000	12.798616
1952.000000	12.837820
1953.000000	12.881316
1954.000000	12.923942
1955.000000	12.966932
1956.000000	13.014670
1957.000000	13.059802
1958.000000	13.105318
1959.000000	13.155532
1960.000000	13.205948
1961.000000	13.256974
1962.000000	13.305308
1963.000000	13.350792
1964.000000	13.399504
1965.000000	13.450548
1966.000000	13.497892
1967.000000	13.550298
1968.000000	13.599804
1969.000000	13.648020
1970.000000	13.696224
1971.000000	13.748326
1972.000000	13.799926
1973.000000	13.852676
1974.000000	13.902994
1975.000000	13.950360
1976.000000	14.001032
1977.000000	14.049832
1978.000000	14.098818
1979.000000	14.148462
1980.000000	14.200316
1981.000000	14.248128
1982.000000	14.298032
1983.000000	14.345074
1984.000000	14.390414
1985.000000	14.438298
1986.000000	14.485136
1987.000000	14.533406
1988.000000	14.579490
1989.000000	14.624962
1990.000000	14.669426
1991.000000	14.712080
1992.000000	14.752206
1993.000000	14.796360
1994.000000	14.841246
1995.000000	14.885222
1996.000000	14.924896
1997.000000	14.961190
1998.000000	14.996336
1999.000000	15.027208
2000.000000	15.055618
2001.000000	15.084372
2002.000000	15.116760
2003.000000	15.144814
2004.000000	15.173022
2005.000000	15.194604
2006.000000	15.216116
2007.000000	15.234286
2008.000000	15.250936
2009.000000	15.265794
2010.000000	15.276774
2011.000000	15.287370
2012.000000	15.288636
2013.000000	15.290446
2014.000000	15.287012
2015.000000	15.281444
2016.000000	15.273128
2017.000000	15.265906
2018.000000	15.255900
2019.000000	15.242008
2020.000000	15.225046
2021.000000	15.202660
2022.000000	15.177056
2023.000000	15.144818
2024.000000	15.113078
2025.000000	15.077798
2026.000000	15.039850
2027.000000	14.994468
2028.000000	14.946728
2029.000000	14.902142
2030.000000	14.855878
2031.000000	14.805628
2032.000000	14.752746
2033.000000	14.701908
2034.000000	14.647536
2035.000000	14.587496
2036.000000	14.521850
2037.000000	14.453582
2038.000000	14.383874
2039.000000	14.308000
2040.000000	14.229386
2041.000000	14.152948
2042.000000	14.078022
2043.000000	13.997190
2044.000000	13.913764
2045.000000	13.834172
2046.000000	13.758022
2047.000000	13.686554
2048.000000	13.614874
2049.000000	13.547406
2050.000000	13.486372
2051.000000	13.430264
2052.000000	13.380724
2053.000000	13.335386
2054.000000	13.297034
2055.000000	13.271290
2056.000000	13.253422
2057.000000	13.242298
2058.000000	13.244668
2059.000000	13.258592
2060.000000	13.277846
2061.000000	13.294296
2062.000000	13.317226
2063.000000	13.351910
2064.000000	13.394134
2065.000000	13.436472
2066.000000	13.488380
2067.000000	13.545602
2068.000000	13.597464
2069.000000	13.646586
2070.000000	13.696330
2071.000000	13.754736
2072.000000	13.812052
2073.000000	13.867814
2074.000000	13.925582
2075.000000	13.981872
2076.000000	14.028476
2077.000000	14.073474
2078.000000	14.124368
2079.000000	14.171614
2080.000000	14.217098
2081.000000	14.260190
2082.000000	14.303714
2083.000000	14.347194
2084.000000	14.384448
2085.000000	14.419162
2086.000000	14.453130
2087.000000	14.474832
2088.000000	14.486760
2089.000000	14.501524
2090.000000	14.515946
2091.000000	14.524158
2092.000000	14.529046
2093.000000	14.534598
2094.000000	14.542296
2095.000000	14.544940
2096.000000	14.547350
2097.000000	14.551558
2098.000000	14.555898
2099.000000	14.560380
2100.000000	14.558600
2101.000000	14.558550
2102.000000	14.557844
2103.000000	14.551902
2104.000000	14.543958
2105.000000	14.539762
2106.000000	14.538504
2107.000000	14.540700
2108.000000	14.547592
2109.000000	14.544948
2110.000000	14.544466
2111.000000	14.550860
2112.000000	14.551148
2113.000000	14.546830
2114.000000	14.539838
2115.000000	14.540910
2116.000000	14.543002
2117.000000	14.542088
2118.000000	14.537368
2119.000000	14.534404
2120.000000	14.531956
2121.000000	14.524412
2122.000000	14.512688
2123.000000	14.487690
2124.000000	14.454618
2125.000000	14.418868
2126.000000	14.387592
2127.000000	14.367286
2128.000000	14.349650
2129.000000	14.317038
2130.000000	14.283072
2131.000000	14.247414
2132.000000	14.224728
2133.000000	14.200154
2134.000000	14.172816
2135.000000	14.139848
2136.000000	14.097702
2137.000000	14.045592
2138.000000	13.986162
2139.000000	13.939744
2140.000000	13.887654
2141.000000	13.818944
2142.000000	13.741172
2143.000000	13.681122
2144.000000	13.632006
2145.000000	13.581640
2146.000000	13.530624
2147.000000	13.467060
2148.000000	13.407738
2149.000000	13.335132
2150.000000	13.272460
2151.000000	13.220050
2152.000000	13.168956
2153.000000	13.110748
2154.000000	13.043490
2155.000000	12.974626
2156.000000	12.901894
2157.000000	12.835016
2158.000000	12.771078
2159.000000	12.727916
2160.000000	12.675990
2161.000000	12.621482
2162.000000	12.567976
2163.000000	12.517174
2164.000000	12.480938
2165.000000	12.447198
2166.000000	12.420932
2167.000000	12.392654
2168.000000	12.362302
2169.000000	12.325050
2170.000000	12.288332
2171.000000	12.260458
2172.000000	12.233574
2173.000000	12.223000
2174.000000	12.195476
2175.000000	12.169366
2176.000000	12.134716
2177.000000	12.104334
2178.000000	12.086844
2179.000000	12.063386
2180.000000	12.040196
2181.000000	12.023720
2182.000000	12.000314
2183.000000	11.977194
2184.000000	11.956966
2185.000000	11.937372
2186.000000	11.917300
2187.000000	11.904640
2188.000000	11.871962
2189.000000	11.847780
2190.000000	11.821734
2191.000000	11.791114
2192.000000	11.759328
2193.000000	11.718752
2194.000000	11.679598
2195.000000	11.628614
2196.000000	11.579504
2197.000000	11.525300
2198.000000	11.474056
2199.000000	11.422800
2200.000000	11.381660
2201.000000	11.342320
2202.000000	11.300806
2203.000000	11.241268
2204.000000	11.191682
2205.000000	11.156158
2206.000000	11.112558
2207.000000	11.078266
2208.000000	11.052094
2209.000000	11.026234
2210.000000	11.002218
2211.000000	10.976812
2212.000000	10.966876
2213.000000	10.975970
2214.000000	11.002560
2215.000000	11.018700
2216.000000	11.049830
2217.000000	11.078770
2218.000000	11.106586
2219.000000	11.143082
2220.000000	11.188046
2221.000000	11.218448
2222.000000	11.272424
2223.000000	11.323290
2224.000000	11.355222
2225.000000	11.402318
2226.000000	11.445184
2227.000000	11.499996
2228.000000	11.546480
2229.000000	11.590144
2230.000000	11.615670
2231.000000	11.668966
2232.000000	11.689802
2233.000000	11.705042
2234.000000	11.721762
2235.000000	11.736216
2236.000000	11.751954
2237.000000	11.766954
2238.000000	11.783192
2239.000000	11.775672
2240.000000	11.772838
2241.000000	11.746050
2242.000000	11.722078
2243.000000	11.701062
2244.000000	11.689742
2245.000000	11.670500
2246.000000	11.646928
2247.000000	11.606284
2248.000000	11.565120
2249.000000	11.534314
2250.000000	11.510888
2251.000000	11.483538
2252.000000	11.451272
2253.000000	11.412392
2254.000000	11.351638
2255.000000	11.286680
2256.000000	11.223198
2257.000000	11.155600
2258.000000	11.100510
2259.000000	11.052174
2260.000000	11.002734
2261.000000	10.955406
2262.000000	10.913514
2263.000000	10.885008
2264.000000	10.857454
2265.000000	10.841916
2266.000000	10.829852
2267.000000	10.824720
2268.000000	10.803602
2269.000000	10.789014
2270.000000	10.765384
2271.000000	10.748444
2272.000000	10.734122
2273.000000	10.715742
2274.000000	10.708690
2275.000000	10.702960
2276.000000	10.698204
2277.000000	10.690832
2278.000000	10.694242
2279.000000	10.693386
2280.000000	10.709358
2281.000000	10.732106
2282.000000	10.748054
2283.000000	10.756156
2284.000000	10.766032
2285.000000	10.764792
2286.000000	10.765030
2287.000000	10.769494
2288.000000	10.764670
2289.000000	10.768454
2290.000000	10.775688
2291.000000	10.774362
2292.000000	10.762844
2293.000000	10.759608
2294.000000	10.762098
2295.000000	10.762958
2296.000000	10.752648
2297.000000	10.755910
2298.000000	10.768942
2299.000000	10.767868
2300.000000	10.755992
2301.000000	10.751264
2302.000000	10.762074
2303.000000	10.776174
2304.000000	10.792416
2305.000000	10.799598
2306.000000	10.822946
2307.000000	10.840342
2308.000000	10.856344
2309.000000	10.891870
2310.000000	10.934098
2311.000000	10.967984
2312.000000	10.986122
2313.000000	11.008060
2314.000000	11.030540
2315.000000	11.073026
2316.000000	11.115270
2317.000000	11.143452
2318.000000	11.176202
2319.000000	11.197644
2320.000000	11.199696
2321.000000	11.224788
2322.000000	11.273378
2323.000000	11.307744
2324.000000	11.326308
2325.000000	11.346166
2326.000000	11.357188
2327.000000	11.378826
2328.000000	11.403044
2329.000000	11.424610
2330.000000	11.443778
2331.000000	11.451486
2332.000000	11.464030
2333.000000	11.480022
2334.000000	11.493384
2335.000000	11.496492
2336.000000	11.493452
2337.000000	11.502902
2338.000000	11.516080
2339.000000	11.508096
2340.000000	11.527048
2341.000000	11.568152
2342.000000	11.583762
2343.000000	11.607758
2344.000000	11.640032
2345.000000	11.678328
2346.000000	11.729142
2347.000000	11.763030
2348.000000	11.769444
2349.000000	11.805552
2350.000000	11.840172
2351.000000	11.851324
2352.000000	11.873948
2353.000000	11.895354
2354.000000	11.912580
2355.000000	11.925810
2356.000000	11.934346
2357.000000	11.924976
2358.000000	11.944226
2359.000000	11.980308
2360.000000	12.011654
2361.000000	12.037736
2362.000000	12.036436
2363.000000	12.017730
2364.000000	12.013466
2365.000000	12.037860
2366.000000	12.066922
2367.000000	12.111022
2368.000000	12.130308
2369.000000	12.119070
2370.000000	12.094344
2371.000000	12.066638
2372.000000	12.068822
2373.000000	12.094594
2374.000000	12.120634
2375.000000	12.130030
2376.000000	12.131220
2377.000000	12.127148
2378.000000	12.148898
2379.000000	12.182058
2380.000000	12.222272
2381.000000	12.264016
2382.000000	12.303522
2383.000000	12.335412
2384.000000	12.363036
2385.000000	12.369560
2386.000000	12.375516
2387.000000	12.393020
2388.000000	12.385788
2389.000000	12.372024
2390.000000	12.364536
2391.000000	12.350958
2392.000000	12.352516
2393.000000	12.349450
2394.000000	12.338384
2395.000000	12.340166
2396.000000	12.335240
2397.000000	12.340542
2398.000000	12.360138
2399.000000	12.373206
2400.000000	12.355200
2401.000000	12.345758
2402.000000	12.340554
2403.000000	12.343450
2404.000000	12.328196
2405.000000	12.304630
2406.000000	12.300640
2407.000000	12.282970
2408.000000	12.269960
2409.000000	12.251654
2410.000000	12.250272
2411.000000	12.263930
2412.000000	12.269664
2413.000000	12.254204
2414.000000	12.250044
2415.000000	12.246600
2416.000000	12.241464
2417.000000	12.235318
2418.000000	12.206436
2419.000000	12.192196
2420.000000	12.169118
2421.000000	12.157446
2422.000000	12.119196
2423.000000	12.085548
2424.000000	12.061272
2425.000000	12.047240
2426.000000	12.005158
2427.000000	11.967618
2428.000000	11.950998
2429.000000	11.910502
2430.000000	11.893926
2431.000000	11.835344
2432.000000	11.779690
2433.000000	11.746358
2434.000000	11.749868
2435.000000	11.718528
2436.000000	11.716964
2437.000000	11.697322
2438.000000	11.652358
2439.000000	11.616000
2440.000000	11.585592
2441.000000	11.573102
2442.000000	11.573248
2443.000000	11.541950
2444.000000	11.505042
2445.000000	11.508654
2446.000000	11.498600
2447.000000	11.461046
2448.000000	11.364340
2449.000000	11.328278
2450.000000	11.279708
2451.000000	11.245002
2452.000000	11.208282
2453.000000	11.220918
2454.000000	11.160528
2455.000000	11.032778
2456.000000	10.979582
2457.000000	10.926336
2458.000000	10.959260
2459.000000	10.961636
2460.000000	10.980876
2461.000000	10.994928
2462.000000	11.021984
2463.000000	10.961892
2464.000000	10.989030
2465.000000	11.005572
2466.000000	11.050342
2467.000000	11.057608
2468.000000	11.078960
2469.000000	10.989354
2470.000000	10.935710
2471.000000	10.898606
2472.000000	10.871914
2473.000000	10.788328
2474.000000	10.780374
2475.000000	10.795900
2476.000000	10.722256
2477.000000	10.645150
2478.000000	10.539674
2479.000000	10.553232
2480.000000	10.619188
2481.000000	10.617870
2482.000000	10.534780
2483.000000	10.589442
2484.000000	10.512740
2485.000000	10.492788
2486.000000	10.384954
2487.000000	10.545898
2488.000000	10.624472
2489.000000	10.691546
2490.000000	10.541946
2491.000000	10.221610
2492.000000	9.973220
2493.000000	9.681694
2494.000000	9.514400
2495.000000	9.311206
2496.000000	9.217406
2497.000000	8.880412
2498.000000	8.323998
2499.000000	7.793896
2500.000000	6.848958
2501.000000	11.770030
2502.000000	16.757346
2503.000000	21.730250
2504.000000	26.572740
2505.000000	31.694598
2506.000000	36.748348
2507.000000	42.048484
2508.000000	47.592634
2509.000000	53.113350
2510.000000	59.214940
2511.000000	59.858270
2512.000000	60.601930
2513.000000	61.295140
2514.000000	62.252400
2515.000000	63.011230
2516.000000	63.927100
2517.000000	64.862930
2518.000000	65.488210
2519.000000	66.486010
2520.000000	67.301320
2521.000000	68.173040
2522.000000	68.169450
2523.000000	68.873380
2524.000000	70.134300
2525.000000	71.483730
2526.000000	72.291720
2527.000000	72.649960
2528.000000	73.402880
2529.000000	74.323490
2530.000000	75.475330
2531.000000	76.002080
2532.000000	77.750110
2533.000000	79.051070
2534.000000	79.788760
2535.000000	80.470680
2536.000000	80.911960
2537.000000	82.058340
2538.000000	83.247540
2539.000000	84.014150
2540.000000	84.076170
2541.000000	84.870330
2542.000000	85.903570
2543.000000	86.832960
2544.000000	87.560340
2545.000000	87.749910
2546.000000	88.609300
2547.000000	89.096710
2548.000000	89.992370
2549.000000	90.247460
2550.000000	91.057230
2551.000000	91.600180
2552.000000	91.667300
2553.000000	91.557540
2554.000000	91.275910
2555.000000	91.403410
2556.000000	91.933810
2557.000000	92.605530
2558.000000	92.801940
2559.000000	92.751230
2560.000000	93.264980
2561.000000	94.407370
2562.000000	94.955190
2563.000000	95.031920
2564.000000	95.771480
2565.000000	96.624560
2566.000000	96.770670
2567.000000	96.632170
2568.000000	96.389060
2569.000000	97.132140
2570.000000	97.529520
2571.000000	97.237230
2572.000000	96.866290
2573.000000	97.034010
2574.000000	97.093400
2575.000000	97.516530
2576.000000	98.052820
2577.000000	98.567390
2578.000000	98.624250
2579.000000	98.741690
2580.000000	99.218970
2581.000000	99.463710
2582.000000	100.051360
2583.000000	100.593600
2584.000000	101.296640
2585.000000	101.637350
2586.000000	100.805410
2587.000000	100.680840
2588.000000	101.788950
2589.000000	102.224900
2590.000000	101.851140
2591.000000	101.594090
2592.000000	101.592660
2593.000000	102.339340
2594.000000	102.829540
2595.000000	103.076060
2596.000000	103.648400
2597.000000	103.236030
2598.000000	102.766530
2599.000000	102.489770
2600.000000	102.222950
2601.000000	102.064270
2602.000000	102.260320
2603.000000	102.254910
2604.000000	101.355460
2605.000000	100.850140
2606.000000	101.135320
2607.000000	101.766210
2608.000000	102.340000
2609.000000	102.621140
2610.000000	102.505030
2611.000000	102.723870
2612.000000	102.475620
2613.000000	101.205400
2614.000000	100.613790
2615.000000	99.942890
2616.000000	100.372030
2617.000000	100.492050
2618.000000	99.760140
2619.000000	99.597800
2620.000000	100.006050
2621.000000	100.265150
2622.000000	100.231060
2623.000000	101.141290
2624.000000	101.694300
2625.000000	102.140200
2626.000000	102.215090
2627.000000	101.983540
2628.000000	101.559520
2629.000000	100.864720
2630.000000	101.012220
2631.000000	100.822430
2632.000000	100.459650
2633.000000	100.312550
2634.000000	100.543330
2635.000000	100.811680
2636.000000	100.973330
2637.000000	101.263770
2638.000000	102.013270
2639.000000	102.617300
2640.000000	103.429350
2641.000000	103.699840
2642.000000	103.783000
2643.000000	103.566220
2644.000000	104.026810
2645.000000	104.234970
2646.000000	103.348720
2647.000000	102.895810
2648.000000	102.360940
2649.000000	102.690830
2650.000000	102.341160
2651.000000	101.951660
2652.000000	101.691540
2653.000000	102.063780
2654.000000	102.209410
2655.000000	101.462550
2656.000000	101.427700
2657.000000	101.862390
2658.000000	102.597520
2659.000000	102.015840
2660.000000	101.123640
2661.000000	101.739290
2662.000000	102.912370
2663.000000	102.857630
2664.000000	101.587220
2665.000000	101.421130
2666.000000	101.251610
2667.000000	101.169750
2668.000000	101.205020
2669.000000	101.258070
2670.000000	101.416260
2671.000000	101.678870
2672.000000	101.555190
2673.000000	101.062520
2674.000000	100.674140
2675.000000	100.940750
2676.000000	101.888290
2677.000000	102.154940
2678.000000	101.246170
2679.000000	101.870360
2680.000000	102.628210
2681.000000	101.962600
2682.000000	101.809830
2683.000000	101.372340
2684.000000	102.815840
2685.000000	102.552300
2686.000000	101.365970
2687.000000	101.292080
2688.000000	101.874100
2689.000000	102.088980
2690.000000	102.880660
2691.000000	103.012690
2692.000000	102.265480
2693.000000	103.000580
2694.000000	102.803610
2695.000000	103.120650
2696.000000	103.844180
2697.000000	103.778540
2698.000000	103.707710
2699.000000	103.453770
2700.000000	102.334530
2701.000000	101.449980
2702.000000	102.500040
2703.000000	102.078920
2704.000000	101.566770
2705.000000	101.485430
2706.000000	100.724650
2707.000000	101.103950
2708.000000	101.155670
2709.000000	101.027700
2710.000000	101.012160
2711.000000	101.208920
2712.000000	100.332370
2713.000000	101.583220
2714.000000	102.177840
2715.000000	101.948750
2716.000000	102.575810
2717.000000	102.810700
2718.000000	102.938430
2719.000000	102.408130
2720.000000	102.224650
2721.000000	102.951100
2722.000000	103.719930
2723.000000	102.077430
2724.000000	100.972720
2725.000000	101.682470
2726.000000	102.219670
2727.000000	101.225160
2728.000000	101.317600
2729.000000	101.321870
2730.000000	101.501150
2731.000000	101.345370
2732.000000	101.354280
2733.000000	101.995000
2734.000000	102.008410
2735.000000	101.212140
2736.000000	101.856020
2737.000000	101.560060
2738.000000	100.588480
2739.000000	100.687920
2740.000000	100.065130
2741.000000	100.248410
2742.000000	100.381110
2743.000000	100.679900
2744.000000	100.933420
2745.000000	101.105030
2746.000000	100.091310
2747.000000	100.794910
2748.000000	101.304240
2749.000000	101.205650
2750.000000	101.563640
2751.000000	101.853580
2752.000000	101.110450
2753.000000	100.532630
2754.000000	100.699500
2755.000000	101.081110
2756.000000	102.137320
2757.000000	101.551610
2758.000000	101.300110
2759.000000	101.739480
2760.000000	102.261080
2761.000000	101.929970
2762.000000	102.377460
2763.000000	102.888870
2764.000000	103.888100
2765.000000	104.008820
2766.000000	103.377930
2767.000000	103.708420
2768.000000	104.280440
2769.000000	103.619690
2770.000000	103.321170
2771.000000	102.723810
2772.000000	102.975970
2773.000000	103.067140
2774.000000	102.595310
2775.000000	102.000700
2776.000000	100.702110
2777.000000	100.168060
2778.000000	99.777320
2779.000000	100.990530
2780.000000	100.871820
2781.000000	101.118030
2782.000000	99.521080
2783.000000	99.395490
2784.000000	99.726970
2785.000000	99.797570
2786.000000	100.582020
2787.000000	100.419410
2788.000000	101.255740
2789.000000	101.134150
2790.000000	101.200390
2791.000000	101.452580
2792.000000	101.729100
2793.000000	101.279960
2794.000000	100.649840
2795.000000	100.900460
2796.000000	101.146990
2797.000000	102.178090
2798.000000	102.075250
2799.000000	101.943620
2800.000000	102.327640
2801.000000	101.669780
2802.000000	102.245480
2803.000000	102.823230
2804.000000	102.413250
2805.000000	102.645490
2806.000000	101.909780
2807.000000	101.599870
2808.000000	101.987600
2809.000000	101.570660
2810.000000	101.312750
2811.000000	101.615460
2812.000000	101.927220
2813.000000	102.171170
2814.000000	102.698200
2815.000000	102.117140
2816.000000	103.292240
2817.000000	103.688710
2818.000000	103.045500
2819.000000	102.790000
2820.000000	101.767260
2821.000000	101.841580
2822.000000	101.840110
2823.000000	101.773170
2824.000000	101.142640
2825.000000	100.616750
2826.000000	99.556160
2827.000000	99.906910
2828.000000	100.407830
2829.000000	100.742120
2830.000000	101.330770
2831.000000	101.424980
2832.000000	101.430420
2833.000000	101.311830
2834.000000	101.554510
2835.000000	102.527540
2836.000000	103.457780
2837.000000	103.347460
2838.000000	102.320050
2839.000000	102.050350
2840.000000	101.875300
2841.000000	102.329990
2842.000000	102.991810
2843.000000	103.256500
2844.000000	103.464260
2845.000000	103.466370
2846.000000	103.314330
2847.000000	102.991710
2848.000000	103.212130
2849.000000	103.334150
2850.000000	103.609910
2851.000000	103.793500
2852.000000	103.706530
2853.000000	103.186010
2854.000000	102.980900
2855.000000	102.984390
2856.000000	103.314960
2857.000000	103.198540
2858.000000	103.345670
2859.000000	103.589300
2860.000000	103.832480
2861.000000	104.344560
2862.000000	104.580560
2863.000000	104.688550
2864.000000	104.948650
2865.000000	104.922730
2866.000000	104.275010
2867.000000	104.749350
2868.000000	105.086500
2869.000000	104.756670
2870.000000	104.281540
2871.000000	103.510980
2872.000000	102.811840
2873.000000	101.966470
2874.000000	101.320290
2875.000000	101.198490
2876.000000	101.095430
2877.000000	100.908370
2878.000000	100.444520
2879.000000	100.358420
2880.000000	101.156600
2881.000000	101.622440
2882.000000	101.784890
2883.000000	102.530140
2884.000000	102.698560
2885.000000	102.072590
2886.000000	102.233770
2887.000000	101.959390
2888.000000	101.872570
2889.000000	102.793530
2890.000000	103.109170
2891.000000	103.279530
2892.000000	103.278400
2893.000000	102.951970
2894.000000	103.243860
2895.000000	104.349610
2896.000000	104.859270
2897.000000	104.829000
2898.000000	105.083860
2899.000000	104.349270
2900.000000	103.279770
2901.000000	102.401570
2902.000000	102.181330
2903.000000	102.567160
2904.000000	102.573020
2905.000000	102.219450
2906.000000	102.085460
2907.000000	102.461420
2908.000000	102.315520
2909.000000	102.760360
2910.000000	103.574880
2911.000000	104.493290
2912.000000	104.734800
2913.000000	104.483390
2914.000000	104.284520
2915.000000	104.234870
2916.000000	104.170810
2917.000000	103.583540
2918.000000	102.928800
2919.000000	102.253640
2920.000000	102.046390
2921.000000	101.079020
2922.000000	100.491580
2923.000000	100.281320
2924.000000	99.730560
2925.000000	99.570500
2926.000000	99.207540
2927.000000	99.455690
2928.000000	99.366380
2929.000000	99.194860
2930.000000	98.944010
2931.000000	100.069620
2932.000000	100.741890
2933.000000	100.631860
2934.000000	101.278460
2935.000000	101.799340
2936.000000	101.886610
2937.000000	101.787270
2938.000000	102.256000
2939.000000	102.575220
2940.000000	102.517640
2941.000000	101.455010
2942.000000	101.445470
2943.000000	101.419820
2944.000000	101.313250
2945.000000	101.511180
2946.000000	102.077070
2947.000000	102.612290
2948.000000	102.816190
2949.000000	102.509950
2950.000000	102.932830
2951.000000	103.166180
2952.000000	102.717540
2953.000000	103.014980
2954.000000	103.267410
2955.000000	103.214760
2956.000000	102.044430
2957.000000	101.633980
2958.000000	101.126690
2959.000000	101.518430
2960.000000	101.569020
2961.000000	101.286630
2962.000000	102.024030
2963.000000	102.280020
2964.000000	102.466460
2965.000000	102.600810
2966.000000	104.292400
2967.000000	103.787770
2968.000000	104.195110
2969.000000	103.616720
2970.000000	103.719680
2971.000000	104.699880
2972.000000	104.587080
2973.000000	105.388910
2974.000000	104.811080
2975.000000	103.990320
2976.000000	103.128700
2977.000000	103.943350
2978.000000	104.441710
2979.000000	104.916910
2980.000000	104.370920
2981.000000	103.679540
2982.000000	103.287810
2983.000000	102.888360
2984.000000	102.800400
2985.000000	102.421340
2986.000000	101.918590
2987.000000	102.413750
2988.000000	102.956450
2989.000000	102.683760
2990.000000	101.850430
2991.000000	102.113800
2992.000000	101.883180
2993.000000	101.621580
2994.000000	101.730480
2995.000000	101.999740
2996.000000	102.805390
2997.000000	102.610830
2998.000000	101.055540
2999.000000	101.577980
3000.000000	102.900870
