PE UV       SUBTECH     SPECTRUM    ASCII       PEDS        4.00        
   -1
INBUCR0113-5.Sample.ASC
24/02/12
13:19:24.00
24/02/12
13:19:24.00
Vinicio Soto Monge
Strigidia glabra. Color verde metálico con ambos élitros (Det: A. Solís) COSTA RICA Prov. Guanacaste. Cañas. Laguna La Vieja Finca M. Campos. 600-700m 13 JUN 2007 J.A Azofeifa M. Campos . Tp. Luz Mercurio L_N_292100_421100 #91629. INB0004090554
250,000000
1
Lambda 1050
1050L1511233
PerkinElmer UV WinLab 6.3.2.0749 / 2.02.05 Lambda 900 UV/VIS/NIR, Aug  7 2015 09:38:08

0
0
3350/servo 860,8/2
0
0
UV/VIS
1
1
1
DoubleDePol,CommonBeamDepol,RBeamAtt,SBeamAtt,60mm sphere, WB InGaAs Detector
0
0
0
0
Program
Program
3350/servo 860,8/2
3350/0,2 860,8/0,2
3350/0,2 860,8/0,2
0
15.00
 
 
 
0
 
860,8
150
860,8
Front
100
on
S:100 R:100
0
0
0
0
 
0
 
 
 
0
 
 
0
0
0
0
0
 
 
 
 
0
0


0
0
#HDR
-1
-1
#GR
nm
%R
1.0
0.0
2500,000000
-1,000000
2251
8
21,392800
1,640800
#DATA

250.000000	nan
251.000000	nan
252.000000	nan
253.000000	nan
254.000000	nan
255.000000	nan
256.000000	nan
257.000000	nan
258.000000	nan
259.000000	5.071259
260.000000	5.055359
261.000000	5.051031
262.000000	5.054976
263.000000	5.039790
264.000000	5.014728
265.000000	4.984769
266.000000	4.931153
267.000000	4.898441
268.000000	4.873743
269.000000	4.829969
270.000000	4.795020
271.000000	4.761049
272.000000	4.723907
273.000000	4.695051
274.000000	4.678675
275.000000	4.666598
276.000000	4.653656
277.000000	4.647067
278.000000	4.624234
279.000000	4.613800
280.000000	4.596231
281.000000	4.572313
282.000000	4.555309
283.000000	4.542666
284.000000	4.535881
285.000000	4.526941
286.000000	4.518847
287.000000	4.507181
288.000000	4.509673
289.000000	4.509227
290.000000	4.511141
291.000000	4.510135
292.000000	4.511301
293.000000	4.508848
294.000000	4.504541
295.000000	4.500451
296.000000	4.503096
297.000000	4.495408
298.000000	4.486486
299.000000	4.484067
300.000000	4.484105
301.000000	4.481008
302.000000	4.478640
303.000000	4.474658
304.000000	4.471084
305.000000	4.471887
306.000000	4.468971
307.000000	4.468784
308.000000	4.466389
309.000000	4.466086
310.000000	4.462464
311.000000	4.459421
312.000000	4.455099
313.000000	4.455701
314.000000	4.458019
315.000000	4.457890
316.000000	4.460949
317.000000	4.503186
318.000000	4.550838
319.000000	4.593105
320.000000	4.644184
321.000000	4.686009
322.000000	4.730013
323.000000	4.766680
324.000000	4.801272
325.000000	4.839281
326.000000	4.866357
327.000000	4.852045
328.000000	4.833471
329.000000	4.810787
330.000000	4.786455
331.000000	4.778666
332.000000	4.763080
333.000000	4.751226
334.000000	4.736459
335.000000	4.720954
336.000000	4.707798
337.000000	4.699506
338.000000	4.682590
339.000000	4.678735
340.000000	4.673374
341.000000	4.660647
342.000000	4.650137
343.000000	4.642366
344.000000	4.645661
345.000000	4.638750
346.000000	4.639851
347.000000	4.641562
348.000000	4.649016
349.000000	4.644511
350.000000	4.638260
351.000000	4.636790
352.000000	4.640013
353.000000	4.641366
354.000000	4.633041
355.000000	4.628655
356.000000	4.621095
357.000000	4.611649
358.000000	4.607086
359.000000	4.610726
360.000000	4.607774
361.000000	4.601791
362.000000	4.594222
363.000000	4.587712
364.000000	4.583540
365.000000	4.578100
366.000000	4.575641
367.000000	4.573699
368.000000	4.564813
369.000000	4.552695
370.000000	4.539489
371.000000	4.527002
372.000000	4.512225
373.000000	4.497268
374.000000	4.476998
375.000000	4.464424
376.000000	4.458471
377.000000	4.443115
378.000000	4.430284
379.000000	4.418171
380.000000	4.411605
381.000000	4.406093
382.000000	4.403134
383.000000	4.399166
384.000000	4.401723
385.000000	4.399367
386.000000	4.389779
387.000000	4.389742
388.000000	4.390129
389.000000	4.391021
390.000000	4.391388
391.000000	4.391900
392.000000	4.392085
393.000000	4.392903
394.000000	4.393340
395.000000	4.393518
396.000000	4.393056
397.000000	4.392471
398.000000	4.392382
399.000000	4.392900
400.000000	4.393069
401.000000	4.392972
402.000000	4.393375
403.000000	4.393841
404.000000	4.394121
405.000000	4.394886
406.000000	4.396353
407.000000	4.398012
408.000000	4.398385
409.000000	4.398308
410.000000	4.398791
411.000000	4.399732
412.000000	4.400269
413.000000	4.401522
414.000000	4.402575
415.000000	4.403392
416.000000	4.403792
417.000000	4.404070
418.000000	4.405237
419.000000	4.406362
420.000000	4.407128
421.000000	4.407478
422.000000	4.407979
423.000000	4.408088
424.000000	4.408073
425.000000	4.408121
426.000000	4.408762
427.000000	4.409635
428.000000	4.410350
429.000000	4.410776
430.000000	4.411029
431.000000	4.411877
432.000000	4.412811
433.000000	4.413527
434.000000	4.414080
435.000000	4.414653
436.000000	4.414802
437.000000	4.414921
438.000000	4.415177
439.000000	4.415882
440.000000	4.417273
441.000000	4.418227
442.000000	4.419017
443.000000	4.420102
444.000000	4.421396
445.000000	4.422353
446.000000	4.423371
447.000000	4.424586
448.000000	4.425729
449.000000	4.426615
450.000000	4.427179
451.000000	4.427868
452.000000	4.428529
453.000000	4.429067
454.000000	4.429677
455.000000	4.430557
456.000000	4.431728
457.000000	4.432707
458.000000	4.433598
459.000000	4.434609
460.000000	4.435589
461.000000	4.436560
462.000000	4.438052
463.000000	4.439502
464.000000	4.440550
465.000000	4.441847
466.000000	4.443405
467.000000	4.444808
468.000000	4.445958
469.000000	4.446878
470.000000	4.447745
471.000000	4.448496
472.000000	4.448426
473.000000	4.448350
474.000000	4.448507
475.000000	4.448207
476.000000	4.447181
477.000000	4.446202
478.000000	4.445439
479.000000	4.444717
480.000000	4.444193
481.000000	4.443923
482.000000	4.444565
483.000000	4.446202
484.000000	4.449133
485.000000	4.453386
486.000000	4.459659
487.000000	4.467628
488.000000	4.477329
489.000000	4.488723
490.000000	4.502159
491.000000	4.517370
492.000000	4.534013
493.000000	4.551649
494.000000	4.570091
495.000000	4.589900
496.000000	4.610584
497.000000	4.632516
498.000000	4.655919
499.000000	4.681050
500.000000	4.707867
501.000000	4.736566
502.000000	4.767497
503.000000	4.801174
504.000000	4.838055
505.000000	4.877638
506.000000	4.920228
507.000000	4.965894
508.000000	5.014856
509.000000	5.067531
510.000000	5.123919
511.000000	5.184681
512.000000	5.249366
513.000000	5.318483
514.000000	5.392427
515.000000	5.471540
516.000000	5.556238
517.000000	5.647010
518.000000	5.744272
519.000000	5.848660
520.000000	5.960830
521.000000	6.080796
522.000000	6.209638
523.000000	6.347694
524.000000	6.494767
525.000000	6.651337
526.000000	6.817488
527.000000	6.992805
528.000000	7.176940
529.000000	7.369014
530.000000	7.568580
531.000000	7.774877
532.000000	7.986393
533.000000	8.201630
534.000000	8.418664
535.000000	8.635735
536.000000	8.850099
537.000000	9.060057
538.000000	9.262771
539.000000	9.456053
540.000000	9.636839
541.000000	9.803329
542.000000	9.952503
543.000000	10.082681
544.000000	10.192004
545.000000	10.278339
546.000000	10.340918
547.000000	10.377911
548.000000	10.389786
549.000000	10.375740
550.000000	10.336193
551.000000	10.270047
552.000000	10.179139
553.000000	10.063241
554.000000	9.924268
555.000000	9.764967
556.000000	9.586705
557.000000	9.392160
558.000000	9.183233
559.000000	8.962547
560.000000	8.724403
561.000000	8.480475
562.000000	8.234805
563.000000	7.990760
564.000000	7.751772
565.000000	7.521063
566.000000	7.302526
567.000000	7.099743
568.000000	6.915296
569.000000	6.752891
570.000000	6.623197
571.000000	6.520337
572.000000	6.444750
573.000000	6.396689
574.000000	6.375594
575.000000	6.378889
576.000000	6.404599
577.000000	6.448958
578.000000	6.508135
579.000000	6.576969
580.000000	6.650893
581.000000	6.724790
582.000000	6.794332
583.000000	6.855760
584.000000	6.904841
585.000000	6.939863
586.000000	6.958509
587.000000	6.960252
588.000000	6.945119
589.000000	6.914270
590.000000	6.869296
591.000000	6.811433
592.000000	6.742808
593.000000	6.667221
594.000000	6.587383
595.000000	6.506431
596.000000	6.427763
597.000000	6.354333
598.000000	6.288830
599.000000	6.233955
600.000000	6.190872
601.000000	6.162433
602.000000	6.149925
603.000000	6.152468
604.000000	6.171010
605.000000	6.203722
606.000000	6.249615
607.000000	6.305732
608.000000	6.369909
609.000000	6.438819
610.000000	6.510225
611.000000	6.580380
612.000000	6.647360
613.000000	6.707885
614.000000	6.759995
615.000000	6.802299
616.000000	6.832972
617.000000	6.852322
618.000000	6.860607
619.000000	6.858993
620.000000	6.848141
621.000000	6.830014
622.000000	6.805407
623.000000	6.777244
624.000000	6.747358
625.000000	6.718535
626.000000	6.692126
627.000000	6.670477
628.000000	6.655955
629.000000	6.649059
630.000000	6.650688
631.000000	6.662882
632.000000	6.685658
633.000000	6.718851
634.000000	6.761795
635.000000	6.813056
636.000000	6.872211
637.000000	6.938125
638.000000	7.007378
639.000000	7.079270
640.000000	7.152886
641.000000	7.224808
642.000000	7.294053
643.000000	7.359281
644.000000	7.419711
645.000000	7.475745
646.000000	7.526523
647.000000	7.571618
648.000000	7.612700
649.000000	7.650161
650.000000	7.684588
651.000000	7.717722
652.000000	7.750160
653.000000	7.783773
654.000000	7.820078
655.000000	7.859416
656.000000	7.903761
657.000000	7.953474
658.000000	8.009010
659.000000	8.070232
660.000000	8.137765
661.000000	8.211909
662.000000	8.292562
663.000000	8.378801
664.000000	8.469719
665.000000	8.563811
666.000000	8.659668
667.000000	8.757749
668.000000	8.856222
669.000000	8.955090
670.000000	9.053176
671.000000	9.149758
672.000000	9.244315
673.000000	9.336365
674.000000	9.425395
675.000000	9.512829
676.000000	9.599241
677.000000	9.683540
678.000000	9.767424
679.000000	9.851409
680.000000	9.935407
681.000000	10.021085
682.000000	10.108081
683.000000	10.197854
684.000000	10.291194
685.000000	10.389661
686.000000	10.491505
687.000000	10.597771
688.000000	10.709164
689.000000	10.824500
690.000000	10.944356
691.000000	11.067754
692.000000	11.194755
693.000000	11.324465
694.000000	11.457086
695.000000	11.589578
696.000000	11.722803
697.000000	11.856268
698.000000	11.987826
699.000000	12.117477
700.000000	12.246267
701.000000	12.374141
702.000000	12.500350
703.000000	12.625497
704.000000	12.749817
705.000000	12.874104
706.000000	12.998294
707.000000	13.124611
708.000000	13.253641
709.000000	13.385655
710.000000	13.521207
711.000000	13.659106
712.000000	13.799962
713.000000	13.944517
714.000000	14.092636
715.000000	14.243580
716.000000	14.398581
717.000000	14.555202
718.000000	14.714067
719.000000	14.874296
720.000000	15.034166
721.000000	15.196153
722.000000	15.359513
723.000000	15.524214
724.000000	15.689990
725.000000	15.855821
726.000000	16.022106
727.000000	16.186019
728.000000	16.347505
729.000000	16.509271
730.000000	16.670928
731.000000	16.830129
732.000000	16.986649
733.000000	17.139521
734.000000	17.288992
735.000000	17.436483
736.000000	17.579768
737.000000	17.721610
738.000000	17.861683
739.000000	17.997518
740.000000	18.128099
741.000000	18.254044
742.000000	18.377483
743.000000	18.496880
744.000000	18.610262
745.000000	18.717912
746.000000	18.821804
747.000000	18.919871
748.000000	19.012235
749.000000	19.100022
750.000000	19.181954
751.000000	19.258779
752.000000	19.329116
753.000000	19.392900
754.000000	19.449457
755.000000	19.497879
756.000000	19.536700
757.000000	19.567933
758.000000	19.591667
759.000000	19.605519
760.000000	19.611076
761.000000	19.608575
762.000000	19.598426
763.000000	19.580596
764.000000	19.556559
765.000000	19.528808
766.000000	19.496201
767.000000	19.459233
768.000000	19.417793
769.000000	19.373784
770.000000	19.329872
771.000000	19.282737
772.000000	19.232881
773.000000	19.183010
774.000000	19.134140
775.000000	19.086315
776.000000	19.040668
777.000000	18.996174
778.000000	18.956165
779.000000	18.920316
780.000000	18.885637
781.000000	18.854079
782.000000	18.830690
783.000000	18.814733
784.000000	18.804288
785.000000	18.796999
786.000000	18.792504
787.000000	18.795111
788.000000	18.801730
789.000000	18.812576
790.000000	18.829842
791.000000	18.855015
792.000000	18.882091
793.000000	18.911072
794.000000	18.942593
795.000000	18.979962
796.000000	19.025237
797.000000	19.072558
798.000000	19.122602
799.000000	19.174638
800.000000	19.230013
801.000000	19.289319
802.000000	19.351658
803.000000	19.416346
804.000000	19.484755
805.000000	19.555094
806.000000	19.622870
807.000000	19.693349
808.000000	19.769448
809.000000	19.847122
810.000000	19.926462
811.000000	20.006765
812.000000	20.086843
813.000000	20.167585
814.000000	20.246150
815.000000	20.323542
816.000000	20.404495
817.000000	20.483175
818.000000	20.559645
819.000000	20.640601
820.000000	20.717434
821.000000	20.792352
822.000000	20.869074
823.000000	20.948260
824.000000	21.028190
825.000000	21.112396
826.000000	21.195941
827.000000	21.277308
828.000000	21.355396
829.000000	21.433105
830.000000	21.513178
831.000000	21.590602
832.000000	21.668627
833.000000	21.741006
834.000000	21.812033
835.000000	21.882469
836.000000	21.952642
837.000000	22.026129
838.000000	22.100802
839.000000	22.169894
840.000000	22.233433
841.000000	22.297702
842.000000	22.364017
843.000000	22.427456
844.000000	22.491875
845.000000	22.555998
846.000000	22.620808
847.000000	22.682277
848.000000	22.741671
849.000000	22.796443
850.000000	22.855133
851.000000	22.901009
852.000000	22.948763
853.000000	23.009883
854.000000	23.065280
855.000000	23.113642
856.000000	23.162091
857.000000	23.225132
858.000000	23.513258
859.000000	23.606904
860.000000	23.723933
861.000000	23.854027
862.000000	23.956514
863.000000	24.054097
864.000000	24.134089
865.000000	24.209763
866.000000	24.301185
867.000000	24.369957
868.000000	24.219000
869.000000	24.275666
870.000000	24.286464
871.000000	24.286348
872.000000	24.292858
873.000000	24.278914
874.000000	24.273112
875.000000	24.271580
876.000000	24.250646
877.000000	24.232902
878.000000	24.199378
879.000000	24.159572
880.000000	24.143688
881.000000	24.137164
882.000000	24.149098
883.000000	24.157670
884.000000	24.196826
885.000000	24.221864
886.000000	24.242502
887.000000	24.263404
888.000000	24.286448
889.000000	24.302460
890.000000	24.324738
891.000000	24.335182
892.000000	24.345308
893.000000	24.355008
894.000000	24.334484
895.000000	24.342714
896.000000	24.344992
897.000000	24.338398
898.000000	24.342858
899.000000	24.358300
900.000000	24.368186
901.000000	24.381382
902.000000	24.387188
903.000000	24.419798
904.000000	24.455734
905.000000	24.477958
906.000000	24.507206
907.000000	24.549254
908.000000	24.585896
909.000000	24.609008
910.000000	24.633804
911.000000	24.659128
912.000000	24.674478
913.000000	24.689238
914.000000	24.709722
915.000000	24.729682
916.000000	24.756592
917.000000	24.778436
918.000000	24.805848
919.000000	24.839592
920.000000	24.870196
921.000000	24.906520
922.000000	24.951322
923.000000	24.986280
924.000000	25.023646
925.000000	25.060522
926.000000	25.091116
927.000000	25.121154
928.000000	25.153384
929.000000	25.181496
930.000000	25.203050
931.000000	25.226828
932.000000	25.250730
933.000000	25.279574
934.000000	25.307186
935.000000	25.333424
936.000000	25.362632
937.000000	25.397480
938.000000	25.423460
939.000000	25.455320
940.000000	25.487236
941.000000	25.520198
942.000000	25.552906
943.000000	25.577424
944.000000	25.606716
945.000000	25.636256
946.000000	25.667714
947.000000	25.693760
948.000000	25.720936
949.000000	25.744098
950.000000	25.772194
951.000000	25.796758
952.000000	25.820834
953.000000	25.847416
954.000000	25.874040
955.000000	25.903212
956.000000	25.927438
957.000000	25.957512
958.000000	25.987446
959.000000	26.017526
960.000000	26.046066
961.000000	26.075796
962.000000	26.106868
963.000000	26.137400
964.000000	26.164466
965.000000	26.189770
966.000000	26.215492
967.000000	26.239140
968.000000	26.262878
969.000000	26.287600
970.000000	26.310960
971.000000	26.332320
972.000000	26.353186
973.000000	26.378434
974.000000	26.403856
975.000000	26.429624
976.000000	26.454024
977.000000	26.476384
978.000000	26.499434
979.000000	26.525264
980.000000	26.549742
981.000000	26.573772
982.000000	26.598524
983.000000	26.620244
984.000000	26.641964
985.000000	26.663332
986.000000	26.686414
987.000000	26.713468
988.000000	26.738028
989.000000	26.757366
990.000000	26.779088
991.000000	26.803080
992.000000	26.826526
993.000000	26.851300
994.000000	26.876398
995.000000	26.899540
996.000000	26.921506
997.000000	26.943916
998.000000	26.967808
999.000000	26.992836
1000.000000	27.017236
1001.000000	27.039894
1002.000000	27.063914
1003.000000	27.085588
1004.000000	27.105222
1005.000000	27.126426
1006.000000	27.148618
1007.000000	27.169478
1008.000000	27.189320
1009.000000	27.210320
1010.000000	27.232614
1011.000000	27.254204
1012.000000	27.272618
1013.000000	27.291688
1014.000000	27.312952
1015.000000	27.334622
1016.000000	27.356520
1017.000000	27.379746
1018.000000	27.404966
1019.000000	27.429794
1020.000000	27.452406
1021.000000	27.475528
1022.000000	27.501720
1023.000000	27.529068
1024.000000	27.554836
1025.000000	27.580588
1026.000000	27.605184
1027.000000	27.627840
1028.000000	27.650278
1029.000000	27.673106
1030.000000	27.696508
1031.000000	27.720844
1032.000000	27.745772
1033.000000	27.771524
1034.000000	27.797904
1035.000000	27.823190
1036.000000	27.849198
1037.000000	27.875634
1038.000000	27.901748
1039.000000	27.927578
1040.000000	27.954102
1041.000000	27.980196
1042.000000	28.005232
1043.000000	28.029208
1044.000000	28.051624
1045.000000	28.073236
1046.000000	28.094666
1047.000000	28.115814
1048.000000	28.137072
1049.000000	28.159332
1050.000000	28.181854
1051.000000	28.205322
1052.000000	28.228470
1053.000000	28.251278
1054.000000	28.275046
1055.000000	28.300060
1056.000000	28.326694
1057.000000	28.354802
1058.000000	28.382150
1059.000000	28.408254
1060.000000	28.434386
1061.000000	28.458892
1062.000000	28.484496
1063.000000	28.511112
1064.000000	28.538156
1065.000000	28.564380
1066.000000	28.588118
1067.000000	28.611022
1068.000000	28.635636
1069.000000	28.661472
1070.000000	28.686426
1071.000000	28.711452
1072.000000	28.734592
1073.000000	28.756556
1074.000000	28.778288
1075.000000	28.799084
1076.000000	28.822824
1077.000000	28.846146
1078.000000	28.867470
1079.000000	28.887728
1080.000000	28.907738
1081.000000	28.926966
1082.000000	28.946662
1083.000000	28.966438
1084.000000	28.985824
1085.000000	29.005128
1086.000000	29.022376
1087.000000	29.040394
1088.000000	29.058618
1089.000000	29.075650
1090.000000	29.092404
1091.000000	29.110608
1092.000000	29.129070
1093.000000	29.146738
1094.000000	29.163670
1095.000000	29.181346
1096.000000	29.198738
1097.000000	29.215144
1098.000000	29.231990
1099.000000	29.248614
1100.000000	29.265890
1101.000000	29.282826
1102.000000	29.299234
1103.000000	29.316950
1104.000000	29.334324
1105.000000	29.351186
1106.000000	29.368860
1107.000000	29.385098
1108.000000	29.401436
1109.000000	29.417574
1110.000000	29.433498
1111.000000	29.448484
1112.000000	29.462980
1113.000000	29.476496
1114.000000	29.489374
1115.000000	29.503142
1116.000000	29.514012
1117.000000	29.525764
1118.000000	29.535716
1119.000000	29.545352
1120.000000	29.553944
1121.000000	29.561932
1122.000000	29.567522
1123.000000	29.571952
1124.000000	29.575106
1125.000000	29.573930
1126.000000	29.572818
1127.000000	29.569948
1128.000000	29.565214
1129.000000	29.558622
1130.000000	29.548858
1131.000000	29.533996
1132.000000	29.518352
1133.000000	29.500222
1134.000000	29.483240
1135.000000	29.468576
1136.000000	29.451090
1137.000000	29.431308
1138.000000	29.410722
1139.000000	29.389034
1140.000000	29.367446
1141.000000	29.349474
1142.000000	29.330172
1143.000000	29.309912
1144.000000	29.289032
1145.000000	29.267320
1146.000000	29.247066
1147.000000	29.227590
1148.000000	29.207468
1149.000000	29.188292
1150.000000	29.168514
1151.000000	29.147468
1152.000000	29.128210
1153.000000	29.107740
1154.000000	29.085020
1155.000000	29.060516
1156.000000	29.033236
1157.000000	29.005290
1158.000000	28.976090
1159.000000	28.943454
1160.000000	28.908050
1161.000000	28.872122
1162.000000	28.833288
1163.000000	28.792600
1164.000000	28.750774
1165.000000	28.706858
1166.000000	28.662376
1167.000000	28.616108
1168.000000	28.570208
1169.000000	28.527326
1170.000000	28.485816
1171.000000	28.444826
1172.000000	28.404862
1173.000000	28.367848
1174.000000	28.332778
1175.000000	28.299862
1176.000000	28.270244
1177.000000	28.244338
1178.000000	28.220374
1179.000000	28.195712
1180.000000	28.173916
1181.000000	28.153466
1182.000000	28.136676
1183.000000	28.121924
1184.000000	28.110440
1185.000000	28.101158
1186.000000	28.095306
1187.000000	28.092982
1188.000000	28.095820
1189.000000	28.102916
1190.000000	28.115038
1191.000000	28.130524
1192.000000	28.148206
1193.000000	28.168008
1194.000000	28.189796
1195.000000	28.216096
1196.000000	28.241892
1197.000000	28.268470
1198.000000	28.292902
1199.000000	28.317346
1200.000000	28.340312
1201.000000	28.363038
1202.000000	28.384732
1203.000000	28.406752
1204.000000	28.427914
1205.000000	28.447330
1206.000000	28.469152
1207.000000	28.489754
1208.000000	28.511472
1209.000000	28.534108
1210.000000	28.557742
1211.000000	28.581666
1212.000000	28.607102
1213.000000	28.634008
1214.000000	28.661990
1215.000000	28.691176
1216.000000	28.718516
1217.000000	28.746930
1218.000000	28.774822
1219.000000	28.802394
1220.000000	28.829680
1221.000000	28.856578
1222.000000	28.883282
1223.000000	28.908624
1224.000000	28.932532
1225.000000	28.955776
1226.000000	28.977688
1227.000000	28.996818
1228.000000	29.015888
1229.000000	29.033924
1230.000000	29.050346
1231.000000	29.065884
1232.000000	29.078850
1233.000000	29.089458
1234.000000	29.097996
1235.000000	29.103374
1236.000000	29.109454
1237.000000	29.115254
1238.000000	29.119122
1239.000000	29.121718
1240.000000	29.123390
1241.000000	29.123302
1242.000000	29.123008
1243.000000	29.124590
1244.000000	29.126676
1245.000000	29.129888
1246.000000	29.133538
1247.000000	29.138832
1248.000000	29.145200
1249.000000	29.152970
1250.000000	29.161822
1251.000000	29.173330
1252.000000	29.186280
1253.000000	29.199448
1254.000000	29.214558
1255.000000	29.232054
1256.000000	29.249790
1257.000000	29.267152
1258.000000	29.285854
1259.000000	29.304830
1260.000000	29.324182
1261.000000	29.343118
1262.000000	29.362694
1263.000000	29.383010
1264.000000	29.402466
1265.000000	29.420192
1266.000000	29.437528
1267.000000	29.455160
1268.000000	29.472202
1269.000000	29.488886
1270.000000	29.504622
1271.000000	29.520042
1272.000000	29.533804
1273.000000	29.545634
1274.000000	29.557310
1275.000000	29.568292
1276.000000	29.577770
1277.000000	29.586306
1278.000000	29.593428
1279.000000	29.599554
1280.000000	29.605840
1281.000000	29.611786
1282.000000	29.617762
1283.000000	29.624126
1284.000000	29.629538
1285.000000	29.634544
1286.000000	29.640388
1287.000000	29.646750
1288.000000	29.653166
1289.000000	29.659770
1290.000000	29.666072
1291.000000	29.671880
1292.000000	29.677738
1293.000000	29.684508
1294.000000	29.693002
1295.000000	29.702134
1296.000000	29.711466
1297.000000	29.720656
1298.000000	29.730084
1299.000000	29.739940
1300.000000	29.750472
1301.000000	29.761480
1302.000000	29.772188
1303.000000	29.782258
1304.000000	29.791388
1305.000000	29.800632
1306.000000	29.809662
1307.000000	29.818020
1308.000000	29.825954
1309.000000	29.832774
1310.000000	29.838272
1311.000000	29.843074
1312.000000	29.846242
1313.000000	29.847852
1314.000000	29.847470
1315.000000	29.845324
1316.000000	29.841236
1317.000000	29.835348
1318.000000	29.827348
1319.000000	29.818032
1320.000000	29.806086
1321.000000	29.791480
1322.000000	29.775334
1323.000000	29.756880
1324.000000	29.735768
1325.000000	29.712516
1326.000000	29.687990
1327.000000	29.660054
1328.000000	29.629510
1329.000000	29.596166
1330.000000	29.560906
1331.000000	29.525452
1332.000000	29.489114
1333.000000	29.449918
1334.000000	29.409712
1335.000000	29.369266
1336.000000	29.328090
1337.000000	29.286754
1338.000000	29.244890
1339.000000	29.203896
1340.000000	29.163638
1341.000000	29.122152
1342.000000	29.079754
1343.000000	29.038330
1344.000000	28.998196
1345.000000	28.956122
1346.000000	28.913576
1347.000000	28.873496
1348.000000	28.833824
1349.000000	28.791014
1350.000000	28.745678
1351.000000	28.698338
1352.000000	28.648074
1353.000000	28.596480
1354.000000	28.544108
1355.000000	28.491920
1356.000000	28.436144
1357.000000	28.373272
1358.000000	28.305730
1359.000000	28.232920
1360.000000	28.160166
1361.000000	28.091624
1362.000000	28.021658
1363.000000	27.945748
1364.000000	27.866172
1365.000000	27.782116
1366.000000	27.693978
1367.000000	27.608026
1368.000000	27.522510
1369.000000	27.436952
1370.000000	27.348924
1371.000000	27.254228
1372.000000	27.155266
1373.000000	27.052412
1374.000000	26.942100
1375.000000	26.826240
1376.000000	26.704844
1377.000000	26.574080
1378.000000	26.434422
1379.000000	26.292304
1380.000000	26.146928
1381.000000	26.003314
1382.000000	25.863894
1383.000000	25.731140
1384.000000	25.601130
1385.000000	25.474542
1386.000000	25.354876
1387.000000	25.247444
1388.000000	25.152066
1389.000000	25.061610
1390.000000	24.972700
1391.000000	24.883838
1392.000000	24.798664
1393.000000	24.714914
1394.000000	24.637632
1395.000000	24.571358
1396.000000	24.509496
1397.000000	24.437560
1398.000000	24.357142
1399.000000	24.281916
1400.000000	24.216632
1401.000000	24.145610
1402.000000	24.064332
1403.000000	23.976148
1404.000000	23.884450
1405.000000	23.781000
1406.000000	23.670830
1407.000000	23.562488
1408.000000	23.454886
1409.000000	23.339190
1410.000000	23.209222
1411.000000	23.076076
1412.000000	22.944234
1413.000000	22.817124
1414.000000	22.690228
1415.000000	22.561916
1416.000000	22.431532
1417.000000	22.302908
1418.000000	22.178980
1419.000000	22.057094
1420.000000	21.938210
1421.000000	21.822816
1422.000000	21.713472
1423.000000	21.605546
1424.000000	21.497550
1425.000000	21.393948
1426.000000	21.293730
1427.000000	21.196852
1428.000000	21.100704
1429.000000	21.005498
1430.000000	20.915016
1431.000000	20.830412
1432.000000	20.746142
1433.000000	20.663640
1434.000000	20.582746
1435.000000	20.504518
1436.000000	20.430926
1437.000000	20.359920
1438.000000	20.290190
1439.000000	20.222402
1440.000000	20.155554
1441.000000	20.088912
1442.000000	20.025974
1443.000000	19.963452
1444.000000	19.904376
1445.000000	19.848442
1446.000000	19.793270
1447.000000	19.737580
1448.000000	19.683070
1449.000000	19.631146
1450.000000	19.582218
1451.000000	19.534834
1452.000000	19.486946
1453.000000	19.439424
1454.000000	19.392598
1455.000000	19.346128
1456.000000	19.300706
1457.000000	19.256892
1458.000000	19.213962
1459.000000	19.171482
1460.000000	19.128110
1461.000000	19.085046
1462.000000	19.042604
1463.000000	19.001370
1464.000000	18.958882
1465.000000	18.915630
1466.000000	18.873326
1467.000000	18.830308
1468.000000	18.786864
1469.000000	18.743288
1470.000000	18.700450
1471.000000	18.658750
1472.000000	18.617240
1473.000000	18.575276
1474.000000	18.533436
1475.000000	18.491764
1476.000000	18.450122
1477.000000	18.410234
1478.000000	18.372876
1479.000000	18.336954
1480.000000	18.301766
1481.000000	18.267582
1482.000000	18.233952
1483.000000	18.202820
1484.000000	18.174812
1485.000000	18.147734
1486.000000	18.122506
1487.000000	18.098514
1488.000000	18.075002
1489.000000	18.053058
1490.000000	18.032182
1491.000000	18.013024
1492.000000	17.996700
1493.000000	17.983028
1494.000000	17.970532
1495.000000	17.961712
1496.000000	17.954436
1497.000000	17.949832
1498.000000	17.948394
1499.000000	17.950268
1500.000000	17.955130
1501.000000	17.962822
1502.000000	17.973208
1503.000000	17.986184
1504.000000	18.002670
1505.000000	18.022216
1506.000000	18.045398
1507.000000	18.070330
1508.000000	18.097644
1509.000000	18.127164
1510.000000	18.158942
1511.000000	18.192506
1512.000000	18.227952
1513.000000	18.264496
1514.000000	18.301034
1515.000000	18.337486
1516.000000	18.374708
1517.000000	18.413888
1518.000000	18.452524
1519.000000	18.491114
1520.000000	18.530348
1521.000000	18.568286
1522.000000	18.605426
1523.000000	18.642926
1524.000000	18.681042
1525.000000	18.719226
1526.000000	18.756176
1527.000000	18.791926
1528.000000	18.827440
1529.000000	18.861250
1530.000000	18.893298
1531.000000	18.925638
1532.000000	18.956962
1533.000000	18.986616
1534.000000	19.015636
1535.000000	19.043512
1536.000000	19.070042
1537.000000	19.095732
1538.000000	19.121298
1539.000000	19.146808
1540.000000	19.171566
1541.000000	19.194870
1542.000000	19.218234
1543.000000	19.241174
1544.000000	19.263768
1545.000000	19.286478
1546.000000	19.310468
1547.000000	19.335706
1548.000000	19.361266
1549.000000	19.387096
1550.000000	19.413440
1551.000000	19.440428
1552.000000	19.468830
1553.000000	19.497916
1554.000000	19.525770
1555.000000	19.552916
1556.000000	19.579114
1557.000000	19.603208
1558.000000	19.625260
1559.000000	19.645846
1560.000000	19.665516
1561.000000	19.683828
1562.000000	19.699658
1563.000000	19.712950
1564.000000	19.723922
1565.000000	19.732880
1566.000000	19.740144
1567.000000	19.743984
1568.000000	19.746048
1569.000000	19.746942
1570.000000	19.745580
1571.000000	19.742510
1572.000000	19.738054
1573.000000	19.733506
1574.000000	19.730608
1575.000000	19.728274
1576.000000	19.726282
1577.000000	19.726642
1578.000000	19.728428
1579.000000	19.731770
1580.000000	19.737004
1581.000000	19.743950
1582.000000	19.753040
1583.000000	19.764176
1584.000000	19.776198
1585.000000	19.789548
1586.000000	19.804130
1587.000000	19.820688
1588.000000	19.840466
1589.000000	19.861866
1590.000000	19.884094
1591.000000	19.907604
1592.000000	19.932750
1593.000000	19.958214
1594.000000	19.985200
1595.000000	20.014078
1596.000000	20.043916
1597.000000	20.075030
1598.000000	20.105406
1599.000000	20.136192
1600.000000	20.168432
1601.000000	20.203054
1602.000000	20.238220
1603.000000	20.274566
1604.000000	20.310636
1605.000000	20.346328
1606.000000	20.383248
1607.000000	20.419882
1608.000000	20.455318
1609.000000	20.490540
1610.000000	20.525484
1611.000000	20.557906
1612.000000	20.589138
1613.000000	20.618754
1614.000000	20.648938
1615.000000	20.677130
1616.000000	20.703226
1617.000000	20.728432
1618.000000	20.753184
1619.000000	20.775242
1620.000000	20.796566
1621.000000	20.817668
1622.000000	20.837120
1623.000000	20.857538
1624.000000	20.876090
1625.000000	20.895458
1626.000000	20.915936
1627.000000	20.935294
1628.000000	20.954256
1629.000000	20.974922
1630.000000	20.995654
1631.000000	21.017326
1632.000000	21.039948
1633.000000	21.060562
1634.000000	21.081078
1635.000000	21.100808
1636.000000	21.119352
1637.000000	21.137410
1638.000000	21.155804
1639.000000	21.172774
1640.000000	21.188674
1641.000000	21.201808
1642.000000	21.213810
1643.000000	21.226130
1644.000000	21.237398
1645.000000	21.248216
1646.000000	21.257546
1647.000000	21.266158
1648.000000	21.272810
1649.000000	21.276876
1650.000000	21.280498
1651.000000	21.281828
1652.000000	21.280236
1653.000000	21.275208
1654.000000	21.267984
1655.000000	21.256482
1656.000000	21.240826
1657.000000	21.221412
1658.000000	21.198102
1659.000000	21.172752
1660.000000	21.140694
1661.000000	21.105420
1662.000000	21.065514
1663.000000	21.020302
1664.000000	20.970610
1665.000000	20.915734
1666.000000	20.858074
1667.000000	20.795540
1668.000000	20.722166
1669.000000	20.644140
1670.000000	20.563112
1671.000000	20.477584
1672.000000	20.389770
1673.000000	20.300314
1674.000000	20.206706
1675.000000	20.111620
1676.000000	20.012788
1677.000000	19.915242
1678.000000	19.821582
1679.000000	19.729078
1680.000000	19.634692
1681.000000	19.539812
1682.000000	19.444624
1683.000000	19.348934
1684.000000	19.256916
1685.000000	19.168026
1686.000000	19.084414
1687.000000	19.003760
1688.000000	18.930700
1689.000000	18.864548
1690.000000	18.808400
1691.000000	18.763286
1692.000000	18.727720
1693.000000	18.703226
1694.000000	18.688148
1695.000000	18.679726
1696.000000	18.679182
1697.000000	18.681988
1698.000000	18.689032
1699.000000	18.696126
1700.000000	18.703146
1701.000000	18.708644
1702.000000	18.712830
1703.000000	18.715176
1704.000000	18.712740
1705.000000	18.705196
1706.000000	18.692742
1707.000000	18.675194
1708.000000	18.651732
1709.000000	18.623800
1710.000000	18.589464
1711.000000	18.549376
1712.000000	18.501574
1713.000000	18.446348
1714.000000	18.384530
1715.000000	18.318004
1716.000000	18.245022
1717.000000	18.168522
1718.000000	18.086934
1719.000000	18.002672
1720.000000	17.919176
1721.000000	17.835532
1722.000000	17.756330
1723.000000	17.680706
1724.000000	17.613052
1725.000000	17.554826
1726.000000	17.504574
1727.000000	17.464226
1728.000000	17.433380
1729.000000	17.413220
1730.000000	17.401596
1731.000000	17.399820
1732.000000	17.405034
1733.000000	17.417952
1734.000000	17.434670
1735.000000	17.454900
1736.000000	17.481004
1737.000000	17.511822
1738.000000	17.548776
1739.000000	17.586124
1740.000000	17.626634
1741.000000	17.669234
1742.000000	17.714298
1743.000000	17.758446
1744.000000	17.803586
1745.000000	17.850604
1746.000000	17.895370
1747.000000	17.940676
1748.000000	17.983892
1749.000000	18.027052
1750.000000	18.067100
1751.000000	18.105366
1752.000000	18.138880
1753.000000	18.172246
1754.000000	18.202278
1755.000000	18.228086
1756.000000	18.252592
1757.000000	18.271128
1758.000000	18.288634
1759.000000	18.303224
1760.000000	18.318022
1761.000000	18.330236
1762.000000	18.342928
1763.000000	18.355304
1764.000000	18.368500
1765.000000	18.383712
1766.000000	18.399570
1767.000000	18.416854
1768.000000	18.433780
1769.000000	18.452338
1770.000000	18.472214
1771.000000	18.493294
1772.000000	18.515160
1773.000000	18.537556
1774.000000	18.561200
1775.000000	18.584940
1776.000000	18.608738
1777.000000	18.632022
1778.000000	18.655080
1779.000000	18.677752
1780.000000	18.700072
1781.000000	18.721646
1782.000000	18.742682
1783.000000	18.762428
1784.000000	18.780408
1785.000000	18.797344
1786.000000	18.812718
1787.000000	18.828062
1788.000000	18.842970
1789.000000	18.857058
1790.000000	18.867812
1791.000000	18.878236
1792.000000	18.889528
1793.000000	18.901896
1794.000000	18.914518
1795.000000	18.928060
1796.000000	18.942824
1797.000000	18.958202
1798.000000	18.972224
1799.000000	18.986036
1800.000000	19.001386
1801.000000	19.018818
1802.000000	19.036022
1803.000000	19.051234
1804.000000	19.067042
1805.000000	19.083506
1806.000000	19.101306
1807.000000	19.119166
1808.000000	19.135970
1809.000000	19.152064
1810.000000	19.170214
1811.000000	19.188232
1812.000000	19.205144
1813.000000	19.221904
1814.000000	19.238144
1815.000000	19.252710
1816.000000	19.263806
1817.000000	19.269728
1818.000000	19.274574
1819.000000	19.283712
1820.000000	19.297256
1821.000000	19.313256
1822.000000	19.327260
1823.000000	19.335610
1824.000000	19.340142
1825.000000	19.343820
1826.000000	19.351188
1827.000000	19.364988
1828.000000	19.383914
1829.000000	19.400410
1830.000000	19.414378
1831.000000	19.424522
1832.000000	19.431478
1833.000000	19.439252
1834.000000	19.449174
1835.000000	19.460998
1836.000000	19.471892
1837.000000	19.482334
1838.000000	19.491226
1839.000000	19.500264
1840.000000	19.506494
1841.000000	19.516646
1842.000000	19.531924
1843.000000	19.544426
1844.000000	19.548092
1845.000000	19.542144
1846.000000	19.537570
1847.000000	19.544338
1848.000000	19.560280
1849.000000	19.571834
1850.000000	19.572160
1851.000000	19.561094
1852.000000	19.549346
1853.000000	19.548608
1854.000000	19.561538
1855.000000	19.579912
1856.000000	19.590498
1857.000000	19.585116
1858.000000	19.571544
1859.000000	19.566952
1860.000000	19.571724
1861.000000	19.579494
1862.000000	19.582502
1863.000000	19.573524
1864.000000	19.550544
1865.000000	19.521120
1866.000000	19.484782
1867.000000	19.441438
1868.000000	19.385458
1869.000000	19.317326
1870.000000	19.244124
1871.000000	19.165786
1872.000000	19.082518
1873.000000	18.995984
1874.000000	18.904604
1875.000000	18.809018
1876.000000	18.711252
1877.000000	18.605712
1878.000000	18.494666
1879.000000	18.373560
1880.000000	18.239998
1881.000000	18.097128
1882.000000	17.950072
1883.000000	17.799630
1884.000000	17.646950
1885.000000	17.492386
1886.000000	17.332812
1887.000000	17.168414
1888.000000	16.998242
1889.000000	16.823664
1890.000000	16.646532
1891.000000	16.470014
1892.000000	16.286058
1893.000000	16.095442
1894.000000	15.894910
1895.000000	15.678930
1896.000000	15.453940
1897.000000	15.226088
1898.000000	14.993842
1899.000000	14.759344
1900.000000	14.522684
1901.000000	14.276104
1902.000000	14.027594
1903.000000	13.775216
1904.000000	13.531150
1905.000000	13.298380
1906.000000	13.075442
1907.000000	12.854544
1908.000000	12.641404
1909.000000	12.430364
1910.000000	12.221652
1911.000000	12.021900
1912.000000	11.832710
1913.000000	11.660956
1914.000000	11.493174
1915.000000	11.332126
1916.000000	11.173898
1917.000000	11.024684
1918.000000	10.884502
1919.000000	10.757474
1920.000000	10.641222
1921.000000	10.533970
1922.000000	10.432926
1923.000000	10.333594
1924.000000	10.241258
1925.000000	10.158592
1926.000000	10.082848
1927.000000	10.016858
1928.000000	9.956986
1929.000000	9.900144
1930.000000	9.848312
1931.000000	9.800164
1932.000000	9.757150
1933.000000	9.721370
1934.000000	9.688198
1935.000000	9.656442
1936.000000	9.634154
1937.000000	9.615474
1938.000000	9.603742
1939.000000	9.597062
1940.000000	9.595266
1941.000000	9.597232
1942.000000	9.600660
1943.000000	9.611062
1944.000000	9.625616
1945.000000	9.644364
1946.000000	9.664256
1947.000000	9.685816
1948.000000	9.709532
1949.000000	9.736096
1950.000000	9.761584
1951.000000	9.794350
1952.000000	9.828688
1953.000000	9.861080
1954.000000	9.896044
1955.000000	9.935548
1956.000000	9.975870
1957.000000	10.018664
1958.000000	10.059666
1959.000000	10.099340
1960.000000	10.144002
1961.000000	10.186904
1962.000000	10.232922
1963.000000	10.279682
1964.000000	10.329912
1965.000000	10.375214
1966.000000	10.419242
1967.000000	10.463002
1968.000000	10.504046
1969.000000	10.547022
1970.000000	10.591988
1971.000000	10.639832
1972.000000	10.687410
1973.000000	10.729832
1974.000000	10.770724
1975.000000	10.812344
1976.000000	10.857342
1977.000000	10.901796
1978.000000	10.945994
1979.000000	10.994440
1980.000000	11.040178
1981.000000	11.081634
1982.000000	11.122592
1983.000000	11.162792
1984.000000	11.207078
1985.000000	11.251084
1986.000000	11.292492
1987.000000	11.337518
1988.000000	11.386220
1989.000000	11.430612
1990.000000	11.470374
1991.000000	11.513262
1992.000000	11.552360
1993.000000	11.597004
1994.000000	11.637056
1995.000000	11.675650
1996.000000	11.715180
1997.000000	11.748920
1998.000000	11.781900
1999.000000	11.815162
2000.000000	11.845142
2001.000000	11.873110
2002.000000	11.899570
2003.000000	11.923676
2004.000000	11.947084
2005.000000	11.970950
2006.000000	11.986370
2007.000000	12.004066
2008.000000	12.019304
2009.000000	12.029376
2010.000000	12.043552
2011.000000	12.048774
2012.000000	12.056778
2013.000000	12.057554
2014.000000	12.056050
2015.000000	12.050570
2016.000000	12.046900
2017.000000	12.037914
2018.000000	12.025708
2019.000000	12.012138
2020.000000	11.993850
2021.000000	11.972846
2022.000000	11.947294
2023.000000	11.924026
2024.000000	11.894998
2025.000000	11.864636
2026.000000	11.833542
2027.000000	11.799248
2028.000000	11.759262
2029.000000	11.714044
2030.000000	11.666520
2031.000000	11.621850
2032.000000	11.575830
2033.000000	11.525298
2034.000000	11.471414
2035.000000	11.413328
2036.000000	11.351170
2037.000000	11.292120
2038.000000	11.237254
2039.000000	11.179424
2040.000000	11.116194
2041.000000	11.053646
2042.000000	10.991910
2043.000000	10.928778
2044.000000	10.863852
2045.000000	10.798174
2046.000000	10.730346
2047.000000	10.663094
2048.000000	10.597104
2049.000000	10.539306
2050.000000	10.487406
2051.000000	10.437764
2052.000000	10.387970
2053.000000	10.343220
2054.000000	10.306792
2055.000000	10.279230
2056.000000	10.259844
2057.000000	10.242664
2058.000000	10.232578
2059.000000	10.229670
2060.000000	10.236304
2061.000000	10.248352
2062.000000	10.263810
2063.000000	10.285126
2064.000000	10.314268
2065.000000	10.346476
2066.000000	10.381768
2067.000000	10.423548
2068.000000	10.469658
2069.000000	10.520968
2070.000000	10.572778
2071.000000	10.629666
2072.000000	10.688790
2073.000000	10.740844
2074.000000	10.788978
2075.000000	10.839476
2076.000000	10.892748
2077.000000	10.944388
2078.000000	10.991538
2079.000000	11.030258
2080.000000	11.063098
2081.000000	11.084608
2082.000000	11.105624
2083.000000	11.138658
2084.000000	11.179068
2085.000000	11.211284
2086.000000	11.230172
2087.000000	11.247438
2088.000000	11.265950
2089.000000	11.281692
2090.000000	11.298772
2091.000000	11.325054
2092.000000	11.343686
2093.000000	11.347818
2094.000000	11.342246
2095.000000	11.335420
2096.000000	11.338666
2097.000000	11.337482
2098.000000	11.326400
2099.000000	11.317310
2100.000000	11.316082
2101.000000	11.307552
2102.000000	11.305500
2103.000000	11.308544
2104.000000	11.315456
2105.000000	11.327482
2106.000000	11.334768
2107.000000	11.344008
2108.000000	11.353774
2109.000000	11.357676
2110.000000	11.354304
2111.000000	11.350534
2112.000000	11.348870
2113.000000	11.352428
2114.000000	11.350328
2115.000000	11.344590
2116.000000	11.336604
2117.000000	11.322100
2118.000000	11.315286
2119.000000	11.317748
2120.000000	11.316586
2121.000000	11.312834
2122.000000	11.306258
2123.000000	11.291700
2124.000000	11.278778
2125.000000	11.267380
2126.000000	11.256800
2127.000000	11.244610
2128.000000	11.229724
2129.000000	11.208672
2130.000000	11.191242
2131.000000	11.170222
2132.000000	11.148818
2133.000000	11.123836
2134.000000	11.093300
2135.000000	11.057294
2136.000000	11.026916
2137.000000	11.001932
2138.000000	10.966118
2139.000000	10.922060
2140.000000	10.877240
2141.000000	10.834932
2142.000000	10.798450
2143.000000	10.758326
2144.000000	10.719524
2145.000000	10.670292
2146.000000	10.612132
2147.000000	10.555256
2148.000000	10.506124
2149.000000	10.462634
2150.000000	10.415900
2151.000000	10.363950
2152.000000	10.298744
2153.000000	10.234936
2154.000000	10.162712
2155.000000	10.107322
2156.000000	10.058732
2157.000000	10.015680
2158.000000	9.971038
2159.000000	9.929988
2160.000000	9.891636
2161.000000	9.855764
2162.000000	9.815122
2163.000000	9.784892
2164.000000	9.768134
2165.000000	9.744636
2166.000000	9.714536
2167.000000	9.675200
2168.000000	9.629380
2169.000000	9.586618
2170.000000	9.548226
2171.000000	9.525204
2172.000000	9.502542
2173.000000	9.468462
2174.000000	9.436220
2175.000000	9.415036
2176.000000	9.394286
2177.000000	9.368276
2178.000000	9.352576
2179.000000	9.336850
2180.000000	9.314926
2181.000000	9.280300
2182.000000	9.256094
2183.000000	9.231444
2184.000000	9.213486
2185.000000	9.194030
2186.000000	9.174124
2187.000000	9.156014
2188.000000	9.146614
2189.000000	9.127592
2190.000000	9.108904
2191.000000	9.084084
2192.000000	9.054070
2193.000000	9.025988
2194.000000	8.990262
2195.000000	8.953398
2196.000000	8.919918
2197.000000	8.881256
2198.000000	8.828888
2199.000000	8.773344
2200.000000	8.716714
2201.000000	8.672580
2202.000000	8.632780
2203.000000	8.600772
2204.000000	8.572780
2205.000000	8.532646
2206.000000	8.489248
2207.000000	8.448374
2208.000000	8.421980
2209.000000	8.412168
2210.000000	8.413992
2211.000000	8.409454
2212.000000	8.394922
2213.000000	8.385794
2214.000000	8.380158
2215.000000	8.395726
2216.000000	8.426612
2217.000000	8.465940
2218.000000	8.492632
2219.000000	8.513250
2220.000000	8.537240
2221.000000	8.574078
2222.000000	8.630618
2223.000000	8.677186
2224.000000	8.722934
2225.000000	8.759828
2226.000000	8.804776
2227.000000	8.839218
2228.000000	8.891666
2229.000000	8.939284
2230.000000	8.975386
2231.000000	9.011044
2232.000000	9.043018
2233.000000	9.079392
2234.000000	9.109312
2235.000000	9.131106
2236.000000	9.135030
2237.000000	9.138816
2238.000000	9.137680
2239.000000	9.141456
2240.000000	9.142228
2241.000000	9.138508
2242.000000	9.126778
2243.000000	9.120714
2244.000000	9.105952
2245.000000	9.095188
2246.000000	9.088160
2247.000000	9.080072
2248.000000	9.051406
2249.000000	9.022610
2250.000000	8.999030
2251.000000	8.969202
2252.000000	8.939728
2253.000000	8.902126
2254.000000	8.856276
2255.000000	8.806088
2256.000000	8.750660
2257.000000	8.714186
2258.000000	8.693766
2259.000000	8.671706
2260.000000	8.631202
2261.000000	8.594262
2262.000000	8.558360
2263.000000	8.523866
2264.000000	8.505094
2265.000000	8.492586
2266.000000	8.483046
2267.000000	8.463928
2268.000000	8.449890
2269.000000	8.431052
2270.000000	8.432464
2271.000000	8.422404
2272.000000	8.412084
2273.000000	8.404602
2274.000000	8.398324
2275.000000	8.392518
2276.000000	8.392894
2277.000000	8.407798
2278.000000	8.418318
2279.000000	8.418704
2280.000000	8.416980
2281.000000	8.428698
2282.000000	8.444360
2283.000000	8.464482
2284.000000	8.483408
2285.000000	8.495812
2286.000000	8.517868
2287.000000	8.521848
2288.000000	8.514826
2289.000000	8.526356
2290.000000	8.532892
2291.000000	8.538214
2292.000000	8.531520
2293.000000	8.525808
2294.000000	8.534098
2295.000000	8.559186
2296.000000	8.571490
2297.000000	8.579434
2298.000000	8.598550
2299.000000	8.612334
2300.000000	8.638894
2301.000000	8.666100
2302.000000	8.710232
2303.000000	8.752166
2304.000000	8.783182
2305.000000	8.799526
2306.000000	8.813744
2307.000000	8.840958
2308.000000	8.855676
2309.000000	8.880690
2310.000000	8.896906
2311.000000	8.913244
2312.000000	8.931518
2313.000000	8.953670
2314.000000	8.975382
2315.000000	9.004912
2316.000000	9.020814
2317.000000	9.027542
2318.000000	9.043546
2319.000000	9.070822
2320.000000	9.110676
2321.000000	9.141070
2322.000000	9.149894
2323.000000	9.151990
2324.000000	9.159374
2325.000000	9.178514
2326.000000	9.207482
2327.000000	9.236260
2328.000000	9.276310
2329.000000	9.300070
2330.000000	9.313424
2331.000000	9.333844
2332.000000	9.355044
2333.000000	9.371834
2334.000000	9.376648
2335.000000	9.367906
2336.000000	9.370774
2337.000000	9.397564
2338.000000	9.431094
2339.000000	9.465230
2340.000000	9.497858
2341.000000	9.518206
2342.000000	9.533124
2343.000000	9.552064
2344.000000	9.586038
2345.000000	9.628670
2346.000000	9.678264
2347.000000	9.711572
2348.000000	9.714104
2349.000000	9.714198
2350.000000	9.700940
2351.000000	9.701198
2352.000000	9.737984
2353.000000	9.779202
2354.000000	9.808824
2355.000000	9.845146
2356.000000	9.871174
2357.000000	9.886984
2358.000000	9.907834
2359.000000	9.923444
2360.000000	9.944274
2361.000000	9.973402
2362.000000	10.003208
2363.000000	10.030510
2364.000000	10.061290
2365.000000	10.067900
2366.000000	10.062070
2367.000000	10.071764
2368.000000	10.075806
2369.000000	10.093160
2370.000000	10.128774
2371.000000	10.148058
2372.000000	10.144396
2373.000000	10.131410
2374.000000	10.119642
2375.000000	10.121096
2376.000000	10.143726
2377.000000	10.172280
2378.000000	10.207536
2379.000000	10.209392
2380.000000	10.203790
2381.000000	10.228540
2382.000000	10.257688
2383.000000	10.296034
2384.000000	10.328650
2385.000000	10.347578
2386.000000	10.367084
2387.000000	10.375198
2388.000000	10.392226
2389.000000	10.430722
2390.000000	10.467810
2391.000000	10.465428
2392.000000	10.458486
2393.000000	10.451204
2394.000000	10.430772
2395.000000	10.424756
2396.000000	10.417104
2397.000000	10.416056
2398.000000	10.407088
2399.000000	10.404452
2400.000000	10.416054
2401.000000	10.454298
2402.000000	10.471788
2403.000000	10.468956
2404.000000	10.488910
2405.000000	10.497116
2406.000000	10.508830
2407.000000	10.521400
2408.000000	10.522782
2409.000000	10.508126
2410.000000	10.480552
2411.000000	10.432740
2412.000000	10.399438
2413.000000	10.401648
2414.000000	10.397954
2415.000000	10.392296
2416.000000	10.364574
2417.000000	10.333524
2418.000000	10.321290
2419.000000	10.310340
2420.000000	10.291760
2421.000000	10.297322
2422.000000	10.298962
2423.000000	10.292852
2424.000000	10.274700
2425.000000	10.276220
2426.000000	10.261836
2427.000000	10.265958
2428.000000	10.264980
2429.000000	10.233922
2430.000000	10.214628
2431.000000	10.180432
2432.000000	10.133340
2433.000000	10.115626
2434.000000	10.112530
2435.000000	10.075904
2436.000000	10.070570
2437.000000	10.067764
2438.000000	10.066742
2439.000000	10.081910
2440.000000	10.079960
2441.000000	10.084958
2442.000000	10.097558
2443.000000	10.063068
2444.000000	10.017684
2445.000000	9.991846
2446.000000	9.977178
2447.000000	9.986056
2448.000000	9.898098
2449.000000	9.878922
2450.000000	9.877598
2451.000000	9.853440
2452.000000	9.858640
2453.000000	9.885552
2454.000000	9.935492
2455.000000	10.012062
2456.000000	10.058800
2457.000000	9.985268
2458.000000	10.071196
2459.000000	10.097042
2460.000000	10.132356
2461.000000	10.172354
2462.000000	10.154188
2463.000000	10.164078
2464.000000	10.149622
2465.000000	10.207758
2466.000000	10.227700
2467.000000	10.314712
2468.000000	10.376232
2469.000000	10.422394
2470.000000	10.463880
2471.000000	10.504198
2472.000000	10.662910
2473.000000	10.752926
2474.000000	10.800048
2475.000000	10.795338
2476.000000	10.803508
2477.000000	10.873124
2478.000000	10.872564
2479.000000	10.930552
2480.000000	11.069642
2481.000000	11.137306
2482.000000	11.127556
2483.000000	11.110890
2484.000000	11.162324
2485.000000	11.256618
2486.000000	11.307740
2487.000000	11.486966
2488.000000	11.587258
2489.000000	11.779880
2490.000000	11.818512
2491.000000	11.893590
2492.000000	11.941952
2493.000000	12.072832
2494.000000	12.017322
2495.000000	11.925868
2496.000000	12.030936
2497.000000	11.658098
2498.000000	11.329688
2499.000000	10.921704
2500.000000	10.536958
2501.000000	13.879176
2502.000000	17.508884
2503.000000	21.275470
2504.000000	24.998534
2505.000000	29.379336
2506.000000	33.597742
2507.000000	37.856544
2508.000000	42.124122
2509.000000	46.941008
2510.000000	52.104770
2511.000000	53.549460
2512.000000	54.528920
2513.000000	55.374980
2514.000000	56.594710
2515.000000	56.988420
2516.000000	57.509820
2517.000000	58.874820
2518.000000	60.426880
2519.000000	61.318200
2520.000000	61.767260
2521.000000	62.241910
2522.000000	63.339090
2523.000000	64.356280
2524.000000	65.262650
2525.000000	66.635010
2526.000000	67.993230
2527.000000	68.632370
2528.000000	69.123640
2529.000000	69.690150
2530.000000	70.776750
2531.000000	71.776440
2532.000000	72.497590
2533.000000	73.321030
2534.000000	73.775440
2535.000000	74.242030
2536.000000	74.697850
2537.000000	75.949910
2538.000000	77.584730
2539.000000	78.868740
2540.000000	79.991830
2541.000000	80.825820
2542.000000	81.861790
2543.000000	82.921810
2544.000000	84.146650
2545.000000	84.911290
2546.000000	85.836740
2547.000000	85.542770
2548.000000	84.777720
2549.000000	84.945820
2550.000000	85.716920
2551.000000	86.223920
2552.000000	86.365680
2553.000000	86.398410
2554.000000	86.458960
2555.000000	87.388490
2556.000000	88.692180
2557.000000	90.756440
2558.000000	92.531150
2559.000000	93.254370
2560.000000	92.990150
2561.000000	93.736840
2562.000000	94.637830
2563.000000	95.430550
2564.000000	96.908440
2565.000000	97.270720
2566.000000	97.197890
2567.000000	96.442490
2568.000000	95.877330
2569.000000	96.140360
2570.000000	97.257100
2571.000000	97.947990
2572.000000	98.278750
2573.000000	98.960710
2574.000000	98.525940
2575.000000	98.409190
2576.000000	98.580820
2577.000000	99.438120
2578.000000	100.600010
2579.000000	101.078950
2580.000000	100.243100
2581.000000	99.716830
2582.000000	100.023600
2583.000000	100.108250
2584.000000	100.597860
2585.000000	101.122900
2586.000000	101.043280
2587.000000	100.526630
2588.000000	99.814720
2589.000000	99.269330
2590.000000	100.206240
2591.000000	101.362280
2592.000000	101.620900
2593.000000	101.307400
2594.000000	100.513240
2595.000000	99.731910
2596.000000	99.836590
2597.000000	100.609370
2598.000000	101.527110
2599.000000	101.904120
2600.000000	101.002160
2601.000000	100.067000
2602.000000	99.880540
2603.000000	100.706990
2604.000000	101.764220
2605.000000	102.765410
2606.000000	103.226180
2607.000000	103.308980
2608.000000	103.491480
2609.000000	104.080780
2610.000000	105.080900
2611.000000	105.772080
2612.000000	105.928290
2613.000000	105.290540
2614.000000	104.288040
2615.000000	103.575800
2616.000000	103.030800
2617.000000	102.688160
2618.000000	102.266480
2619.000000	101.463170
2620.000000	100.596690
2621.000000	99.730000
2622.000000	98.756530
2623.000000	98.491720
2624.000000	98.832000
2625.000000	99.282210
2626.000000	99.585570
2627.000000	98.767730
2628.000000	97.911270
2629.000000	97.698880
2630.000000	97.593470
2631.000000	97.803330
2632.000000	98.375220
2633.000000	98.323500
2634.000000	98.607560
2635.000000	98.296490
2636.000000	98.057880
2637.000000	98.536390
2638.000000	98.804420
2639.000000	99.247140
2640.000000	99.529090
2641.000000	98.789000
2642.000000	97.816270
2643.000000	98.230360
2644.000000	98.361300
2645.000000	99.324030
2646.000000	100.500970
2647.000000	100.954530
2648.000000	101.055650
2649.000000	100.856890
2650.000000	100.936820
2651.000000	102.477160
2652.000000	103.983960
2653.000000	103.831720
2654.000000	103.547730
2655.000000	102.413940
2656.000000	100.585380
2657.000000	99.892790
2658.000000	99.677670
2659.000000	100.451260
2660.000000	101.259660
2661.000000	100.233460
2662.000000	99.168950
2663.000000	98.305630
2664.000000	97.471980
2665.000000	97.228540
2666.000000	97.541320
2667.000000	98.282290
2668.000000	98.655440
2669.000000	97.990020
2670.000000	96.776420
2671.000000	97.005460
2672.000000	98.022170
2673.000000	98.807360
2674.000000	99.596980
2675.000000	100.704570
2676.000000	100.441730
2677.000000	98.927000
2678.000000	100.715670
2679.000000	101.903290
2680.000000	102.426060
2681.000000	102.127130
2682.000000	101.538460
2683.000000	101.627420
2684.000000	102.039980
2685.000000	102.228840
2686.000000	102.975480
2687.000000	104.038000
2688.000000	102.321730
2689.000000	101.574400
2690.000000	101.471530
2691.000000	102.429600
2692.000000	102.759560
2693.000000	102.541670
2694.000000	102.011770
2695.000000	101.015380
2696.000000	100.262660
2697.000000	100.707390
2698.000000	101.072500
2699.000000	102.232490
2700.000000	102.819880
2701.000000	102.357680
2702.000000	101.432070
2703.000000	100.523370
2704.000000	100.943980
2705.000000	101.565700
2706.000000	103.350550
2707.000000	103.566690
2708.000000	103.585030
2709.000000	102.317090
2710.000000	101.825760
2711.000000	100.771740
2712.000000	101.753710
2713.000000	103.994550
2714.000000	104.479100
2715.000000	104.054590
2716.000000	102.060200
2717.000000	100.525720
2718.000000	100.100450
2719.000000	99.777040
2720.000000	100.023580
2721.000000	101.215240
2722.000000	102.118410
2723.000000	100.911650
2724.000000	99.724550
2725.000000	99.791210
2726.000000	100.065320
2727.000000	100.058400
2728.000000	100.097960
2729.000000	100.376910
2730.000000	99.972390
2731.000000	99.096270
2732.000000	97.128840
2733.000000	96.913390
2734.000000	97.151010
2735.000000	97.778090
2736.000000	98.370390
2737.000000	98.930090
2738.000000	98.084950
2739.000000	96.672630
2740.000000	97.082910
2741.000000	97.929620
2742.000000	99.840340
2743.000000	101.965470
2744.000000	102.125420
2745.000000	101.841500
2746.000000	101.829950
2747.000000	101.912680
2748.000000	103.935200
2749.000000	106.273770
2750.000000	106.227040
2751.000000	105.373980
2752.000000	104.458670
2753.000000	102.127020
2754.000000	101.254840
2755.000000	100.836820
2756.000000	101.169190
2757.000000	101.812740
2758.000000	100.754890
2759.000000	99.347950
2760.000000	98.277060
2761.000000	97.997200
2762.000000	97.412300
2763.000000	98.227260
2764.000000	99.307550
2765.000000	99.941850
2766.000000	99.461300
2767.000000	99.066330
2768.000000	99.132480
2769.000000	99.987920
2770.000000	101.498610
2771.000000	102.595330
2772.000000	103.698330
2773.000000	104.214040
2774.000000	103.760080
2775.000000	103.202970
2776.000000	103.095760
2777.000000	103.061600
2778.000000	102.798020
2779.000000	102.570060
2780.000000	102.119950
2781.000000	101.742610
2782.000000	100.669930
2783.000000	99.397290
2784.000000	99.940550
2785.000000	99.449050
2786.000000	99.145470
2787.000000	98.863770
2788.000000	98.680030
2789.000000	98.589300
2790.000000	97.749330
2791.000000	97.816750
2792.000000	97.803650
2793.000000	98.378290
2794.000000	98.980960
2795.000000	100.046030
2796.000000	100.147770
2797.000000	99.736420
2798.000000	99.794130
2799.000000	99.838220
2800.000000	100.980560
2801.000000	101.403050
2802.000000	101.599170
2803.000000	100.883110
2804.000000	99.759580
2805.000000	98.521980
2806.000000	99.047050
2807.000000	100.043530
2808.000000	101.014940
2809.000000	101.085180
2810.000000	101.007280
2811.000000	100.969710
2812.000000	101.121120
2813.000000	102.153560
2814.000000	103.346340
2815.000000	104.833330
2816.000000	105.110940
2817.000000	103.962230
2818.000000	102.275880
2819.000000	101.350150
2820.000000	100.247610
2821.000000	99.782390
2822.000000	99.921690
2823.000000	99.882380
2824.000000	99.391470
2825.000000	98.172370
2826.000000	97.148890
2827.000000	97.931720
2828.000000	98.680970
2829.000000	99.298770
2830.000000	100.914300
2831.000000	101.826140
2832.000000	101.225710
2833.000000	100.033500
2834.000000	99.199660
2835.000000	99.793780
2836.000000	100.981520
2837.000000	101.793800
2838.000000	102.784260
2839.000000	103.229930
2840.000000	102.229150
2841.000000	101.149460
2842.000000	100.653850
2843.000000	100.850880
2844.000000	101.793600
2845.000000	101.876560
2846.000000	101.820340
2847.000000	101.386510
2848.000000	99.802160
2849.000000	98.767920
2850.000000	98.938410
2851.000000	99.710650
2852.000000	101.286520
2853.000000	102.762080
2854.000000	102.880980
2855.000000	102.786920
2856.000000	102.552410
2857.000000	102.358340
2858.000000	102.820700
2859.000000	103.831990
2860.000000	104.616280
2861.000000	104.477700
2862.000000	103.322280
2863.000000	101.532610
2864.000000	100.025070
2865.000000	99.641470
2866.000000	99.504740
2867.000000	100.043300
2868.000000	101.245720
2869.000000	101.255690
2870.000000	100.276190
2871.000000	99.727240
2872.000000	100.498600
2873.000000	102.054830
2874.000000	103.657070
2875.000000	103.965810
2876.000000	103.461520
2877.000000	102.649210
2878.000000	101.247390
2879.000000	100.684430
2880.000000	100.661100
2881.000000	101.324410
2882.000000	101.770070
2883.000000	101.654820
2884.000000	101.407510
2885.000000	101.629550
2886.000000	102.360180
2887.000000	102.714150
2888.000000	103.339170
2889.000000	103.741610
2890.000000	104.182060
2891.000000	104.028870
2892.000000	102.948290
2893.000000	101.300270
2894.000000	100.467890
2895.000000	100.124540
2896.000000	99.790830
2897.000000	99.977690
2898.000000	100.365510
2899.000000	100.193600
2900.000000	99.916300
2901.000000	99.743840
2902.000000	100.093130
2903.000000	101.286600
2904.000000	102.347410
2905.000000	102.481990
2906.000000	102.522850
2907.000000	102.117110
2908.000000	101.127330
2909.000000	100.619980
2910.000000	99.950980
2911.000000	100.495550
2912.000000	101.066320
2913.000000	101.457690
2914.000000	100.396440
2915.000000	99.958960
2916.000000	100.093890
2917.000000	100.467560
2918.000000	101.236730
2919.000000	102.262210
2920.000000	103.384620
2921.000000	102.761510
2922.000000	101.767070
2923.000000	101.218610
2924.000000	102.234180
2925.000000	102.671610
2926.000000	103.113280
2927.000000	103.916770
2928.000000	103.620740
2929.000000	102.479350
2930.000000	101.483580
2931.000000	101.458730
2932.000000	102.716540
2933.000000	103.925520
2934.000000	103.876210
2935.000000	103.727330
2936.000000	102.081250
2937.000000	100.526430
2938.000000	99.942400
2939.000000	100.219520
2940.000000	101.296260
2941.000000	101.477600
2942.000000	100.459680
2943.000000	99.679920
2944.000000	98.952510
2945.000000	98.448980
2946.000000	98.996870
2947.000000	100.085290
2948.000000	101.337300
2949.000000	101.855350
2950.000000	101.174080
2951.000000	100.705930
2952.000000	101.746180
2953.000000	102.728650
2954.000000	104.139330
2955.000000	105.034680
2956.000000	105.422670
2957.000000	105.461790
2958.000000	104.940580
2959.000000	104.448750
2960.000000	104.226080
2961.000000	104.714640
2962.000000	104.080730
2963.000000	102.512700
2964.000000	100.937390
2965.000000	100.043360
2966.000000	99.698760
2967.000000	98.681430
2968.000000	98.793270
2969.000000	99.479090
2970.000000	98.852760
2971.000000	97.985730
2972.000000	96.724210
2973.000000	96.701130
2974.000000	96.922620
2975.000000	98.014510
2976.000000	98.920650
2977.000000	100.978190
2978.000000	101.637340
2979.000000	101.795510
2980.000000	102.779700
2981.000000	103.163720
2982.000000	104.543040
2983.000000	105.585340
2984.000000	106.063960
2985.000000	105.961970
2986.000000	105.524580
2987.000000	103.268900
2988.000000	101.814270
2989.000000	101.032220
2990.000000	101.416750
2991.000000	102.001280
2992.000000	103.013190
2993.000000	102.300450
2994.000000	101.356620
2995.000000	101.181200
2996.000000	101.033520
2997.000000	101.660060
2998.000000	102.641620
2999.000000	103.714740
3000.000000	103.949400
