PE UV       SUBTECH     SPECTRUM    ASCII       PEDS        4.00        
   -1
INBUCR0231-4.Sample.ASC
24/02/08
11:45:06.00
24/02/08
11:45:06.00
Vinicio Soto Monge
Parece ser C. aurigans. Falta pata trasera izq
250,000000
1
Lambda 1050
1050L1511233
PerkinElmer UV WinLab 6.3.2.0749 / 2.02.05 Lambda 900 UV/VIS/NIR, Aug  7 2015 09:38:08

0
0
3350/servo 860,8/2
0
0
UV/VIS
1
1
1
DoubleDePol,CommonBeamDepol,RBeamAtt,SBeamAtt,60mm sphere, WB InGaAs Detector
0
0
0
0
Program
Program
3350/servo 860,8/2
3350/0,2 860,8/0,2
3350/0,2 860,8/0,2
0
15.00
 
 
 
0
 
860,8
319,2
860,8
Front
100
on
S:100 R:100
0
0
0
0
 
0
 
 
 
0
 
 
0
0
0
0
0
 
 
 
 
0
0


0
0
#HDR
-1
-1
#GR
nm
%R
1.0
0.0
2500,000000
-1,000000
2251
8
15,119200
1,446800
#DATA

250.000000	nan
251.000000	nan
252.000000	nan
253.000000	nan
254.000000	nan
255.000000	nan
256.000000	nan
257.000000	nan
258.000000	nan
259.000000	4.287738
260.000000	4.275403
261.000000	4.261924
262.000000	4.246901
263.000000	4.232689
264.000000	4.214979
265.000000	4.196209
266.000000	4.175052
267.000000	4.158933
268.000000	4.139764
269.000000	4.124057
270.000000	4.105407
271.000000	4.089134
272.000000	4.072232
273.000000	4.055752
274.000000	4.041883
275.000000	4.030732
276.000000	4.020455
277.000000	4.007792
278.000000	3.993233
279.000000	3.984274
280.000000	3.977174
281.000000	3.967507
282.000000	3.958943
283.000000	3.949205
284.000000	3.941465
285.000000	3.932616
286.000000	3.927910
287.000000	3.924968
288.000000	3.924744
289.000000	3.921043
290.000000	3.917396
291.000000	3.915765
292.000000	3.914721
293.000000	3.915957
294.000000	3.917611
295.000000	3.918024
296.000000	3.917272
297.000000	3.912443
298.000000	3.910527
299.000000	3.909407
300.000000	3.906746
301.000000	3.903487
302.000000	3.898009
303.000000	3.892435
304.000000	3.887085
305.000000	3.880414
306.000000	3.875583
307.000000	3.874621
308.000000	3.870968
309.000000	3.867766
310.000000	3.863940
311.000000	3.859693
312.000000	3.857884
313.000000	3.853136
314.000000	3.851091
315.000000	3.851343
316.000000	3.850390
317.000000	3.875317
318.000000	3.896559
319.000000	3.907456
320.000000	3.920672
321.000000	3.938843
322.000000	3.953844
323.000000	3.967128
324.000000	3.977322
325.000000	3.991794
326.000000	3.994272
327.000000	3.977894
328.000000	3.964420
329.000000	3.964718
330.000000	3.957852
331.000000	3.950216
332.000000	3.946870
333.000000	3.948295
334.000000	3.947915
335.000000	3.943935
336.000000	3.954057
337.000000	3.950297
338.000000	3.947589
339.000000	3.940095
340.000000	3.940239
341.000000	3.939360
342.000000	3.934302
343.000000	3.931255
344.000000	3.930457
345.000000	3.930870
346.000000	3.925856
347.000000	3.927544
348.000000	3.930964
349.000000	3.935642
350.000000	3.940298
351.000000	3.941675
352.000000	3.941891
353.000000	3.940612
354.000000	3.940094
355.000000	3.934879
356.000000	3.934538
357.000000	3.934113
358.000000	3.933604
359.000000	3.934134
360.000000	3.934413
361.000000	3.934713
362.000000	3.936120
363.000000	3.936418
364.000000	3.937441
365.000000	3.939779
366.000000	3.939267
367.000000	3.935585
368.000000	3.928563
369.000000	3.922114
370.000000	3.916562
371.000000	3.909364
372.000000	3.901501
373.000000	3.892962
374.000000	3.878225
375.000000	3.869169
376.000000	3.866515
377.000000	3.862337
378.000000	3.860915
379.000000	3.858221
380.000000	3.854404
381.000000	3.852814
382.000000	3.855347
383.000000	3.857389
384.000000	3.864878
385.000000	3.868379
386.000000	3.865823
387.000000	3.867876
388.000000	3.869670
389.000000	3.870874
390.000000	3.872484
391.000000	3.874385
392.000000	3.875751
393.000000	3.877079
394.000000	3.878805
395.000000	3.880574
396.000000	3.882289
397.000000	3.883924
398.000000	3.885653
399.000000	3.887622
400.000000	3.889339
401.000000	3.891395
402.000000	3.893938
403.000000	3.896991
404.000000	3.899615
405.000000	3.902504
406.000000	3.905202
407.000000	3.908363
408.000000	3.911444
409.000000	3.914553
410.000000	3.917721
411.000000	3.920902
412.000000	3.924328
413.000000	3.927716
414.000000	3.931652
415.000000	3.935624
416.000000	3.939940
417.000000	3.944048
418.000000	3.948661
419.000000	3.953781
420.000000	3.959048
421.000000	3.964707
422.000000	3.970520
423.000000	3.976254
424.000000	3.981754
425.000000	3.987459
426.000000	3.993638
427.000000	4.000402
428.000000	4.006815
429.000000	4.013282
430.000000	4.020059
431.000000	4.026710
432.000000	4.033454
433.000000	4.040639
434.000000	4.048331
435.000000	4.055944
436.000000	4.063144
437.000000	4.070139
438.000000	4.077561
439.000000	4.085054
440.000000	4.092627
441.000000	4.100235
442.000000	4.107388
443.000000	4.114663
444.000000	4.121826
445.000000	4.128715
446.000000	4.135883
447.000000	4.143298
448.000000	4.151137
449.000000	4.159108
450.000000	4.167044
451.000000	4.175268
452.000000	4.184325
453.000000	4.193575
454.000000	4.203122
455.000000	4.213235
456.000000	4.223982
457.000000	4.235326
458.000000	4.246563
459.000000	4.258424
460.000000	4.270915
461.000000	4.284037
462.000000	4.297872
463.000000	4.312345
464.000000	4.327710
465.000000	4.343879
466.000000	4.360836
467.000000	4.378649
468.000000	4.397510
469.000000	4.417222
470.000000	4.437968
471.000000	4.459963
472.000000	4.483070
473.000000	4.507707
474.000000	4.533762
475.000000	4.561540
476.000000	4.590796
477.000000	4.621742
478.000000	4.654809
479.000000	4.690324
480.000000	4.728361
481.000000	4.768712
482.000000	4.812131
483.000000	4.858833
484.000000	4.909164
485.000000	4.963527
486.000000	5.022624
487.000000	5.086644
488.000000	5.155958
489.000000	5.230626
490.000000	5.311940
491.000000	5.399996
492.000000	5.494881
493.000000	5.597350
494.000000	5.707932
495.000000	5.827332
496.000000	5.955986
497.000000	6.094269
498.000000	6.243404
499.000000	6.404778
500.000000	6.579145
501.000000	6.768314
502.000000	6.973081
503.000000	7.194807
504.000000	7.433287
505.000000	7.688959
506.000000	7.962304
507.000000	8.254562
508.000000	8.566513
509.000000	8.899548
510.000000	9.254387
511.000000	9.632803
512.000000	10.035791
513.000000	10.465821
514.000000	10.926611
515.000000	11.421838
516.000000	11.954091
517.000000	12.525301
518.000000	13.136237
519.000000	13.785697
520.000000	14.468952
521.000000	15.178428
522.000000	15.904268
523.000000	16.633592
524.000000	17.356674
525.000000	18.067005
526.000000	18.764447
527.000000	19.455469
528.000000	20.149575
529.000000	20.860117
530.000000	21.593315
531.000000	22.348134
532.000000	23.115174
533.000000	23.882537
534.000000	24.637373
535.000000	25.366728
536.000000	26.054769
537.000000	26.685055
538.000000	27.241814
539.000000	27.706292
540.000000	28.073089
541.000000	28.345750
542.000000	28.540445
543.000000	28.676499
544.000000	28.771300
545.000000	28.839230
546.000000	28.892537
547.000000	28.935270
548.000000	28.970591
549.000000	29.001984
550.000000	29.030135
551.000000	29.056706
552.000000	29.081210
553.000000	29.104502
554.000000	29.125522
555.000000	29.145752
556.000000	29.165359
557.000000	29.184132
558.000000	29.201601
559.000000	29.217945
560.000000	29.221778
561.000000	29.222121
562.000000	29.222005
563.000000	29.219887
564.000000	29.217108
565.000000	29.213298
566.000000	29.206454
567.000000	29.198469
568.000000	29.189330
569.000000	29.178313
570.000000	29.177209
571.000000	29.175639
572.000000	29.171070
573.000000	29.164922
574.000000	29.157090
575.000000	29.145352
576.000000	29.131054
577.000000	29.114234
578.000000	29.093357
579.000000	29.068275
580.000000	29.038291
581.000000	29.003669
582.000000	28.962924
583.000000	28.915623
584.000000	28.860469
585.000000	28.797943
586.000000	28.723934
587.000000	28.639097
588.000000	28.541240
589.000000	28.429986
590.000000	28.303718
591.000000	28.160246
592.000000	27.999157
593.000000	27.818950
594.000000	27.622872
595.000000	27.413850
596.000000	27.201506
597.000000	26.991967
598.000000	26.796024
599.000000	26.619397
600.000000	26.464854
601.000000	26.330187
602.000000	26.208991
603.000000	26.092176
604.000000	25.970929
605.000000	25.837268
606.000000	25.685533
607.000000	25.511413
608.000000	25.312694
609.000000	25.094430
610.000000	24.867509
611.000000	24.645030
612.000000	24.441916
613.000000	24.268998
614.000000	24.131354
615.000000	24.024346
616.000000	23.941417
617.000000	23.873119
618.000000	23.811860
619.000000	23.750198
620.000000	23.682336
621.000000	23.611260
622.000000	23.541016
623.000000	23.484083
624.000000	23.451593
625.000000	23.455314
626.000000	23.498927
627.000000	23.583377
628.000000	23.701668
629.000000	23.840692
630.000000	23.981282
631.000000	24.102506
632.000000	24.187260
633.000000	24.219492
634.000000	24.191481
635.000000	24.105776
636.000000	23.975928
637.000000	23.819347
638.000000	23.659226
639.000000	23.520040
640.000000	23.424646
641.000000	23.389476
642.000000	23.420204
643.000000	23.516813
644.000000	23.673112
645.000000	23.870950
646.000000	24.092016
647.000000	24.314607
648.000000	24.517592
649.000000	24.678781
650.000000	24.785543
651.000000	24.831533
652.000000	24.820753
653.000000	24.764861
654.000000	24.676070
655.000000	24.578307
656.000000	24.489072
657.000000	24.426702
658.000000	24.405091
659.000000	24.436253
660.000000	24.523320
661.000000	24.662102
662.000000	24.845686
663.000000	25.059952
664.000000	25.290525
665.000000	25.521604
666.000000	25.735783
667.000000	25.922487
668.000000	26.073552
669.000000	26.186989
670.000000	26.263733
671.000000	26.312706
672.000000	26.343859
673.000000	26.369134
674.000000	26.401014
675.000000	26.449915
676.000000	26.527355
677.000000	26.637305
678.000000	26.781760
679.000000	26.957821
680.000000	27.161573
681.000000	27.385173
682.000000	27.619016
683.000000	27.852113
684.000000	28.077041
685.000000	28.284973
686.000000	28.472573
687.000000	28.637983
688.000000	28.782569
689.000000	28.909195
690.000000	29.021327
691.000000	29.125264
692.000000	29.226446
693.000000	29.333717
694.000000	29.451304
695.000000	29.582902
696.000000	29.725863
697.000000	29.880395
698.000000	30.042454
699.000000	30.209240
700.000000	30.379096
701.000000	30.547218
702.000000	30.708904
703.000000	30.860860
704.000000	31.000567
705.000000	31.127174
706.000000	31.243634
707.000000	31.350792
708.000000	31.450523
709.000000	31.545596
710.000000	31.639003
711.000000	31.733403
712.000000	31.830572
713.000000	31.927915
714.000000	32.026337
715.000000	32.127593
716.000000	32.230421
717.000000	32.332890
718.000000	32.434735
719.000000	32.533967
720.000000	32.629219
721.000000	32.719389
722.000000	32.805222
723.000000	32.888403
724.000000	32.968243
725.000000	33.045049
726.000000	33.117003
727.000000	33.186051
728.000000	33.254794
729.000000	33.325215
730.000000	33.397067
731.000000	33.468722
732.000000	33.541189
733.000000	33.614657
734.000000	33.687268
735.000000	33.758597
736.000000	33.832607
737.000000	33.907455
738.000000	33.982213
739.000000	34.054224
740.000000	34.122546
741.000000	34.189756
742.000000	34.255374
743.000000	34.320829
744.000000	34.387340
745.000000	34.455007
746.000000	34.522574
747.000000	34.591334
748.000000	34.659636
749.000000	34.729551
750.000000	34.802014
751.000000	34.875526
752.000000	34.950595
753.000000	35.026365
754.000000	35.102502
755.000000	35.176115
756.000000	35.246487
757.000000	35.314267
758.000000	35.384772
759.000000	35.453983
760.000000	35.521928
761.000000	35.594096
762.000000	35.662977
763.000000	35.727808
764.000000	35.792913
765.000000	35.861409
766.000000	35.933142
767.000000	36.007835
768.000000	36.080562
769.000000	36.153359
770.000000	36.227627
771.000000	36.299362
772.000000	36.372219
773.000000	36.445625
774.000000	36.519357
775.000000	36.593697
776.000000	36.665404
777.000000	36.735961
778.000000	36.807444
779.000000	36.875345
780.000000	36.944204
781.000000	37.014116
782.000000	37.082456
783.000000	37.153356
784.000000	37.229413
785.000000	37.304601
786.000000	37.377839
787.000000	37.453299
788.000000	37.528301
789.000000	37.610617
790.000000	37.692551
791.000000	37.771890
792.000000	37.854731
793.000000	37.939318
794.000000	38.019534
795.000000	38.100335
796.000000	38.187578
797.000000	38.267129
798.000000	38.345061
799.000000	38.421087
800.000000	38.498284
801.000000	38.574764
802.000000	38.650434
803.000000	38.726307
804.000000	38.806089
805.000000	38.883612
806.000000	38.960345
807.000000	39.042328
808.000000	39.128450
809.000000	39.215330
810.000000	39.301286
811.000000	39.387005
812.000000	39.474199
813.000000	39.558194
814.000000	39.637636
815.000000	39.714884
816.000000	39.787081
817.000000	39.860587
818.000000	39.931622
819.000000	40.007250
820.000000	40.077056
821.000000	40.148057
822.000000	40.218792
823.000000	40.293285
824.000000	40.364646
825.000000	40.437261
826.000000	40.511187
827.000000	40.578884
828.000000	40.646966
829.000000	40.705019
830.000000	40.762487
831.000000	40.813091
832.000000	40.866567
833.000000	40.912205
834.000000	40.949547
835.000000	40.988095
836.000000	41.022937
837.000000	41.056831
838.000000	41.090243
839.000000	41.123363
840.000000	41.165043
841.000000	41.206356
842.000000	41.233932
843.000000	41.263088
844.000000	41.293036
845.000000	41.319161
846.000000	41.346377
847.000000	41.384412
848.000000	41.406857
849.000000	41.425448
850.000000	41.431822
851.000000	41.448443
852.000000	41.463311
853.000000	41.467131
854.000000	41.478284
855.000000	41.498743
856.000000	41.512149
857.000000	41.499079
858.000000	41.487914
859.000000	41.564446
860.000000	41.653480
861.000000	41.719525
862.000000	41.776637
863.000000	41.839243
864.000000	41.904307
865.000000	41.930138
866.000000	41.973741
867.000000	42.035718
868.000000	42.094155
869.000000	42.070315
870.000000	42.028550
871.000000	41.991575
872.000000	41.968860
873.000000	41.942287
874.000000	41.906073
875.000000	41.894903
876.000000	41.873618
877.000000	41.837222
878.000000	41.791632
879.000000	41.750630
880.000000	41.704098
881.000000	41.667903
882.000000	41.624685
883.000000	41.578527
884.000000	41.539455
885.000000	41.488447
886.000000	41.431012
887.000000	41.377565
888.000000	41.332400
889.000000	41.278777
890.000000	41.233355
891.000000	41.179127
892.000000	41.124502
893.000000	41.076498
894.000000	41.014437
895.000000	40.957680
896.000000	40.905152
897.000000	40.849718
898.000000	40.799622
899.000000	40.748688
900.000000	40.693552
901.000000	40.628512
902.000000	40.573953
903.000000	40.509185
904.000000	40.453815
905.000000	40.402080
906.000000	40.343195
907.000000	40.292180
908.000000	40.235075
909.000000	40.174308
910.000000	40.118040
911.000000	40.071260
912.000000	40.017308
913.000000	39.971755
914.000000	39.922458
915.000000	39.874273
916.000000	39.825367
917.000000	39.778932
918.000000	39.744170
919.000000	39.712452
920.000000	39.675035
921.000000	39.643787
922.000000	39.612110
923.000000	39.580372
924.000000	39.546405
925.000000	39.512518
926.000000	39.483218
927.000000	39.450770
928.000000	39.417305
929.000000	39.381918
930.000000	39.352607
931.000000	39.318700
932.000000	39.285418
933.000000	39.255180
934.000000	39.228685
935.000000	39.204240
936.000000	39.186530
937.000000	39.169505
938.000000	39.147440
939.000000	39.124588
940.000000	39.103147
941.000000	39.085885
942.000000	39.068252
943.000000	39.047015
944.000000	39.028588
945.000000	39.012042
946.000000	38.991600
947.000000	38.970545
948.000000	38.954230
949.000000	38.942267
950.000000	38.930248
951.000000	38.918990
952.000000	38.910330
953.000000	38.905417
954.000000	38.901810
955.000000	38.896395
956.000000	38.888793
957.000000	38.883955
958.000000	38.880218
959.000000	38.875270
960.000000	38.870867
961.000000	38.866415
962.000000	38.862200
963.000000	38.859005
964.000000	38.854125
965.000000	38.850818
966.000000	38.850662
967.000000	38.851152
968.000000	38.850755
969.000000	38.851298
970.000000	38.854525
971.000000	38.858200
972.000000	38.861958
973.000000	38.866335
974.000000	38.872000
975.000000	38.877738
976.000000	38.882497
977.000000	38.886445
978.000000	38.890278
979.000000	38.895140
980.000000	38.900552
981.000000	38.905245
982.000000	38.910312
983.000000	38.914623
984.000000	38.918715
985.000000	38.923878
986.000000	38.930320
987.000000	38.938362
988.000000	38.947648
989.000000	38.955650
990.000000	38.963017
991.000000	38.970968
992.000000	38.980300
993.000000	38.991595
994.000000	39.002645
995.000000	39.012860
996.000000	39.021648
997.000000	39.030527
998.000000	39.039620
999.000000	39.049225
1000.000000	39.059027
1001.000000	39.070400
1002.000000	39.081640
1003.000000	39.090693
1004.000000	39.099770
1005.000000	39.111180
1006.000000	39.123760
1007.000000	39.135680
1008.000000	39.148162
1009.000000	39.161693
1010.000000	39.175142
1011.000000	39.186990
1012.000000	39.199180
1013.000000	39.213635
1014.000000	39.228842
1015.000000	39.241780
1016.000000	39.253055
1017.000000	39.264500
1018.000000	39.276493
1019.000000	39.289637
1020.000000	39.304085
1021.000000	39.319685
1022.000000	39.335035
1023.000000	39.350330
1024.000000	39.365922
1025.000000	39.383325
1026.000000	39.402675
1027.000000	39.423045
1028.000000	39.443728
1029.000000	39.464260
1030.000000	39.484155
1031.000000	39.503740
1032.000000	39.523688
1033.000000	39.543928
1034.000000	39.565143
1035.000000	39.585590
1036.000000	39.605947
1037.000000	39.627495
1038.000000	39.648420
1039.000000	39.668300
1040.000000	39.687092
1041.000000	39.705935
1042.000000	39.725032
1043.000000	39.743760
1044.000000	39.761962
1045.000000	39.780470
1046.000000	39.798885
1047.000000	39.817038
1048.000000	39.835347
1049.000000	39.853350
1050.000000	39.872300
1051.000000	39.891290
1052.000000	39.910122
1053.000000	39.928573
1054.000000	39.947320
1055.000000	39.966760
1056.000000	39.986283
1057.000000	40.004410
1058.000000	40.022388
1059.000000	40.040872
1060.000000	40.059410
1061.000000	40.079135
1062.000000	40.097513
1063.000000	40.116602
1064.000000	40.135672
1065.000000	40.154377
1066.000000	40.172747
1067.000000	40.192390
1068.000000	40.211633
1069.000000	40.230582
1070.000000	40.249660
1071.000000	40.268502
1072.000000	40.288273
1073.000000	40.308242
1074.000000	40.327160
1075.000000	40.345840
1076.000000	40.365225
1077.000000	40.383720
1078.000000	40.402772
1079.000000	40.422280
1080.000000	40.440970
1081.000000	40.458112
1082.000000	40.476262
1083.000000	40.493127
1084.000000	40.509403
1085.000000	40.525235
1086.000000	40.540598
1087.000000	40.556438
1088.000000	40.570453
1089.000000	40.585257
1090.000000	40.598462
1091.000000	40.612760
1092.000000	40.626795
1093.000000	40.639612
1094.000000	40.653255
1095.000000	40.667275
1096.000000	40.680020
1097.000000	40.690340
1098.000000	40.701805
1099.000000	40.711073
1100.000000	40.722665
1101.000000	40.733177
1102.000000	40.742545
1103.000000	40.752572
1104.000000	40.759750
1105.000000	40.766587
1106.000000	40.772573
1107.000000	40.780172
1108.000000	40.788202
1109.000000	40.795682
1110.000000	40.802185
1111.000000	40.808213
1112.000000	40.814068
1113.000000	40.818422
1114.000000	40.823217
1115.000000	40.827665
1116.000000	40.832187
1117.000000	40.836705
1118.000000	40.839380
1119.000000	40.841253
1120.000000	40.841390
1121.000000	40.839633
1122.000000	40.837027
1123.000000	40.832248
1124.000000	40.825943
1125.000000	40.816855
1126.000000	40.806125
1127.000000	40.791888
1128.000000	40.775458
1129.000000	40.756543
1130.000000	40.733522
1131.000000	40.707060
1132.000000	40.674485
1133.000000	40.643570
1134.000000	40.612195
1135.000000	40.579700
1136.000000	40.542748
1137.000000	40.502110
1138.000000	40.458588
1139.000000	40.414360
1140.000000	40.371215
1141.000000	40.329830
1142.000000	40.291573
1143.000000	40.250910
1144.000000	40.210285
1145.000000	40.170648
1146.000000	40.133358
1147.000000	40.098743
1148.000000	40.065480
1149.000000	40.031320
1150.000000	39.997497
1151.000000	39.963615
1152.000000	39.928467
1153.000000	39.892398
1154.000000	39.853250
1155.000000	39.811827
1156.000000	39.767107
1157.000000	39.719755
1158.000000	39.669145
1159.000000	39.615995
1160.000000	39.560115
1161.000000	39.500073
1162.000000	39.436720
1163.000000	39.371340
1164.000000	39.303325
1165.000000	39.234288
1166.000000	39.166580
1167.000000	39.098387
1168.000000	39.030900
1169.000000	38.966015
1170.000000	38.902352
1171.000000	38.841853
1172.000000	38.784280
1173.000000	38.729535
1174.000000	38.678967
1175.000000	38.631267
1176.000000	38.586498
1177.000000	38.543835
1178.000000	38.506365
1179.000000	38.469282
1180.000000	38.435223
1181.000000	38.403360
1182.000000	38.375628
1183.000000	38.350718
1184.000000	38.328568
1185.000000	38.309890
1186.000000	38.295977
1187.000000	38.287417
1188.000000	38.280870
1189.000000	38.280145
1190.000000	38.284785
1191.000000	38.295240
1192.000000	38.309068
1193.000000	38.326858
1194.000000	38.349043
1195.000000	38.374457
1196.000000	38.402240
1197.000000	38.432960
1198.000000	38.465517
1199.000000	38.498540
1200.000000	38.531678
1201.000000	38.562573
1202.000000	38.593977
1203.000000	38.624907
1204.000000	38.655292
1205.000000	38.683793
1206.000000	38.712330
1207.000000	38.739173
1208.000000	38.766008
1209.000000	38.791782
1210.000000	38.816947
1211.000000	38.842477
1212.000000	38.866645
1213.000000	38.890680
1214.000000	38.913495
1215.000000	38.935410
1216.000000	38.953580
1217.000000	38.971067
1218.000000	38.988025
1219.000000	39.004375
1220.000000	39.019323
1221.000000	39.033993
1222.000000	39.047745
1223.000000	39.059595
1224.000000	39.071880
1225.000000	39.083872
1226.000000	39.096567
1227.000000	39.108362
1228.000000	39.119523
1229.000000	39.131500
1230.000000	39.143422
1231.000000	39.155322
1232.000000	39.166975
1233.000000	39.179520
1234.000000	39.191210
1235.000000	39.202398
1236.000000	39.214463
1237.000000	39.227150
1238.000000	39.238512
1239.000000	39.250475
1240.000000	39.262478
1241.000000	39.275465
1242.000000	39.289995
1243.000000	39.304390
1244.000000	39.319300
1245.000000	39.335565
1246.000000	39.352863
1247.000000	39.370635
1248.000000	39.390890
1249.000000	39.411378
1250.000000	39.431405
1251.000000	39.451035
1252.000000	39.469903
1253.000000	39.488473
1254.000000	39.506698
1255.000000	39.524055
1256.000000	39.539593
1257.000000	39.554668
1258.000000	39.568562
1259.000000	39.580673
1260.000000	39.592005
1261.000000	39.601618
1262.000000	39.610063
1263.000000	39.618320
1264.000000	39.626170
1265.000000	39.633153
1266.000000	39.639747
1267.000000	39.644800
1268.000000	39.648587
1269.000000	39.652842
1270.000000	39.657668
1271.000000	39.662002
1272.000000	39.666235
1273.000000	39.670232
1274.000000	39.673068
1275.000000	39.675538
1276.000000	39.678643
1277.000000	39.683540
1278.000000	39.690020
1279.000000	39.696003
1280.000000	39.702168
1281.000000	39.710210
1282.000000	39.719467
1283.000000	39.729210
1284.000000	39.740728
1285.000000	39.753667
1286.000000	39.766730
1287.000000	39.779260
1288.000000	39.791247
1289.000000	39.803940
1290.000000	39.816783
1291.000000	39.828567
1292.000000	39.839602
1293.000000	39.849720
1294.000000	39.858402
1295.000000	39.866528
1296.000000	39.874158
1297.000000	39.881462
1298.000000	39.887570
1299.000000	39.892780
1300.000000	39.896805
1301.000000	39.899625
1302.000000	39.901812
1303.000000	39.903800
1304.000000	39.904630
1305.000000	39.903715
1306.000000	39.901243
1307.000000	39.896920
1308.000000	39.891792
1309.000000	39.884550
1310.000000	39.875743
1311.000000	39.865875
1312.000000	39.854185
1313.000000	39.841080
1314.000000	39.827148
1315.000000	39.811208
1316.000000	39.794015
1317.000000	39.775295
1318.000000	39.754670
1319.000000	39.733860
1320.000000	39.712387
1321.000000	39.689050
1322.000000	39.663432
1323.000000	39.635800
1324.000000	39.606183
1325.000000	39.575715
1326.000000	39.543560
1327.000000	39.509497
1328.000000	39.472640
1329.000000	39.432815
1330.000000	39.390767
1331.000000	39.347255
1332.000000	39.301487
1333.000000	39.253285
1334.000000	39.202977
1335.000000	39.149838
1336.000000	39.093522
1337.000000	39.034595
1338.000000	38.973275
1339.000000	38.909365
1340.000000	38.842340
1341.000000	38.770722
1342.000000	38.696883
1343.000000	38.620425
1344.000000	38.540348
1345.000000	38.457420
1346.000000	38.371250
1347.000000	38.282380
1348.000000	38.191613
1349.000000	38.097420
1350.000000	38.000895
1351.000000	37.903360
1352.000000	37.804465
1353.000000	37.707185
1354.000000	37.614800
1355.000000	37.525663
1356.000000	37.438992
1357.000000	37.356097
1358.000000	37.274983
1359.000000	37.197915
1360.000000	37.128743
1361.000000	37.068735
1362.000000	37.011737
1363.000000	36.953250
1364.000000	36.893755
1365.000000	36.830717
1366.000000	36.765675
1367.000000	36.700080
1368.000000	36.629593
1369.000000	36.552438
1370.000000	36.463853
1371.000000	36.361245
1372.000000	36.244110
1373.000000	36.110888
1374.000000	35.960815
1375.000000	35.797477
1376.000000	35.617892
1377.000000	35.420895
1378.000000	35.212882
1379.000000	34.997720
1380.000000	34.782322
1381.000000	34.571848
1382.000000	34.370035
1383.000000	34.180822
1384.000000	34.001305
1385.000000	33.833727
1386.000000	33.682670
1387.000000	33.550140
1388.000000	33.431400
1389.000000	33.321668
1390.000000	33.214557
1391.000000	33.111567
1392.000000	33.012470
1393.000000	32.915472
1394.000000	32.825165
1395.000000	32.739223
1396.000000	32.648670
1397.000000	32.546168
1398.000000	32.439245
1399.000000	32.336300
1400.000000	32.235170
1401.000000	32.119630
1402.000000	31.990653
1403.000000	31.851935
1404.000000	31.705325
1405.000000	31.545590
1406.000000	31.380535
1407.000000	31.213335
1408.000000	31.041963
1409.000000	30.858765
1410.000000	30.663023
1411.000000	30.466620
1412.000000	30.272668
1413.000000	30.082307
1414.000000	29.889162
1415.000000	29.695440
1416.000000	29.501485
1417.000000	29.312645
1418.000000	29.128963
1419.000000	28.948910
1420.000000	28.774210
1421.000000	28.603820
1422.000000	28.440535
1423.000000	28.281685
1424.000000	28.126038
1425.000000	27.976657
1426.000000	27.834440
1427.000000	27.696170
1428.000000	27.561222
1429.000000	27.430145
1430.000000	27.304623
1431.000000	27.188457
1432.000000	27.074285
1433.000000	26.961900
1434.000000	26.854262
1435.000000	26.750688
1436.000000	26.652303
1437.000000	26.557207
1438.000000	26.464500
1439.000000	26.375365
1440.000000	26.290062
1441.000000	26.205830
1442.000000	26.124163
1443.000000	26.045110
1444.000000	25.969650
1445.000000	25.899365
1446.000000	25.828257
1447.000000	25.755493
1448.000000	25.684013
1449.000000	25.616392
1450.000000	25.550625
1451.000000	25.484695
1452.000000	25.419455
1453.000000	25.353875
1454.000000	25.288258
1455.000000	25.221843
1456.000000	25.156025
1457.000000	25.092550
1458.000000	25.027840
1459.000000	24.961733
1460.000000	24.894890
1461.000000	24.828935
1462.000000	24.763227
1463.000000	24.697450
1464.000000	24.631167
1465.000000	24.565030
1466.000000	24.500303
1467.000000	24.434330
1468.000000	24.370378
1469.000000	24.308360
1470.000000	24.247087
1471.000000	24.185987
1472.000000	24.125830
1473.000000	24.067920
1474.000000	24.010540
1475.000000	23.954760
1476.000000	23.901285
1477.000000	23.851405
1478.000000	23.803900
1479.000000	23.757492
1480.000000	23.713793
1481.000000	23.673713
1482.000000	23.637622
1483.000000	23.604283
1484.000000	23.574132
1485.000000	23.547470
1486.000000	23.523047
1487.000000	23.501233
1488.000000	23.482035
1489.000000	23.465008
1490.000000	23.449945
1491.000000	23.437275
1492.000000	23.427095
1493.000000	23.419790
1494.000000	23.415937
1495.000000	23.412880
1496.000000	23.412580
1497.000000	23.416482
1498.000000	23.423240
1499.000000	23.433995
1500.000000	23.449900
1501.000000	23.468920
1502.000000	23.491667
1503.000000	23.519318
1504.000000	23.550738
1505.000000	23.586855
1506.000000	23.626838
1507.000000	23.668268
1508.000000	23.713205
1509.000000	23.761340
1510.000000	23.810443
1511.000000	23.862140
1512.000000	23.915472
1513.000000	23.968843
1514.000000	24.023030
1515.000000	24.077015
1516.000000	24.131060
1517.000000	24.186092
1518.000000	24.240437
1519.000000	24.294738
1520.000000	24.348582
1521.000000	24.401545
1522.000000	24.454062
1523.000000	24.505827
1524.000000	24.556430
1525.000000	24.606893
1526.000000	24.656663
1527.000000	24.706155
1528.000000	24.754922
1529.000000	24.801115
1530.000000	24.846555
1531.000000	24.890577
1532.000000	24.933770
1533.000000	24.975863
1534.000000	25.016693
1535.000000	25.056463
1536.000000	25.095038
1537.000000	25.132325
1538.000000	25.168123
1539.000000	25.203075
1540.000000	25.236908
1541.000000	25.269852
1542.000000	25.301200
1543.000000	25.332870
1544.000000	25.365065
1545.000000	25.397810
1546.000000	25.431980
1547.000000	25.467108
1548.000000	25.503870
1549.000000	25.541577
1550.000000	25.580490
1551.000000	25.622062
1552.000000	25.665132
1553.000000	25.707973
1554.000000	25.750943
1555.000000	25.792385
1556.000000	25.831340
1557.000000	25.867872
1558.000000	25.901270
1559.000000	25.931815
1560.000000	25.959020
1561.000000	25.980937
1562.000000	25.998595
1563.000000	26.012867
1564.000000	26.021828
1565.000000	26.026612
1566.000000	26.028260
1567.000000	26.026925
1568.000000	26.023022
1569.000000	26.016835
1570.000000	26.009287
1571.000000	26.002137
1572.000000	25.995450
1573.000000	25.987772
1574.000000	25.981462
1575.000000	25.977680
1576.000000	25.975130
1577.000000	25.974175
1578.000000	25.976367
1579.000000	25.981193
1580.000000	25.989088
1581.000000	25.998700
1582.000000	26.010275
1583.000000	26.024993
1584.000000	26.041913
1585.000000	26.061293
1586.000000	26.083440
1587.000000	26.108590
1588.000000	26.136108
1589.000000	26.165450
1590.000000	26.195185
1591.000000	26.226155
1592.000000	26.258630
1593.000000	26.291945
1594.000000	26.327160
1595.000000	26.363400
1596.000000	26.401185
1597.000000	26.440498
1598.000000	26.479750
1599.000000	26.520395
1600.000000	26.563275
1601.000000	26.607235
1602.000000	26.652490
1603.000000	26.700212
1604.000000	26.749113
1605.000000	26.798267
1606.000000	26.848070
1607.000000	26.898130
1608.000000	26.948070
1609.000000	26.997978
1610.000000	27.046772
1611.000000	27.094637
1612.000000	27.140555
1613.000000	27.185113
1614.000000	27.227313
1615.000000	27.268055
1616.000000	27.305550
1617.000000	27.341270
1618.000000	27.376280
1619.000000	27.409470
1620.000000	27.441255
1621.000000	27.472138
1622.000000	27.501975
1623.000000	27.530575
1624.000000	27.558902
1625.000000	27.587327
1626.000000	27.616898
1627.000000	27.644877
1628.000000	27.672780
1629.000000	27.699027
1630.000000	27.725563
1631.000000	27.751457
1632.000000	27.777415
1633.000000	27.801958
1634.000000	27.824560
1635.000000	27.845743
1636.000000	27.864900
1637.000000	27.882533
1638.000000	27.897462
1639.000000	27.912833
1640.000000	27.925425
1641.000000	27.935993
1642.000000	27.944108
1643.000000	27.951053
1644.000000	27.957943
1645.000000	27.962650
1646.000000	27.966123
1647.000000	27.969432
1648.000000	27.971697
1649.000000	27.969700
1650.000000	27.965590
1651.000000	27.959650
1652.000000	27.951667
1653.000000	27.939150
1654.000000	27.921410
1655.000000	27.898193
1656.000000	27.871775
1657.000000	27.838380
1658.000000	27.800020
1659.000000	27.757335
1660.000000	27.708035
1661.000000	27.650588
1662.000000	27.585983
1663.000000	27.516655
1664.000000	27.441575
1665.000000	27.362970
1666.000000	27.276592
1667.000000	27.187638
1668.000000	27.088162
1669.000000	26.982207
1670.000000	26.874338
1671.000000	26.764943
1672.000000	26.651608
1673.000000	26.536770
1674.000000	26.419677
1675.000000	26.302218
1676.000000	26.183570
1677.000000	26.061330
1678.000000	25.943092
1679.000000	25.825095
1680.000000	25.704250
1681.000000	25.581482
1682.000000	25.459325
1683.000000	25.334177
1684.000000	25.211225
1685.000000	25.088847
1686.000000	24.973163
1687.000000	24.868795
1688.000000	24.775697
1689.000000	24.699795
1690.000000	24.639385
1691.000000	24.597745
1692.000000	24.573160
1693.000000	24.567235
1694.000000	24.575437
1695.000000	24.596947
1696.000000	24.626092
1697.000000	24.655297
1698.000000	24.686400
1699.000000	24.713155
1700.000000	24.736850
1701.000000	24.754703
1702.000000	24.763787
1703.000000	24.765152
1704.000000	24.758680
1705.000000	24.743095
1706.000000	24.718760
1707.000000	24.687197
1708.000000	24.647190
1709.000000	24.597640
1710.000000	24.538180
1711.000000	24.469423
1712.000000	24.391525
1713.000000	24.302343
1714.000000	24.203612
1715.000000	24.094045
1716.000000	23.978338
1717.000000	23.856147
1718.000000	23.726230
1719.000000	23.594693
1720.000000	23.464175
1721.000000	23.335815
1722.000000	23.215790
1723.000000	23.106800
1724.000000	23.010192
1725.000000	22.930865
1726.000000	22.867358
1727.000000	22.820460
1728.000000	22.793005
1729.000000	22.782395
1730.000000	22.786090
1731.000000	22.800930
1732.000000	22.826600
1733.000000	22.859633
1734.000000	22.898613
1735.000000	22.941943
1736.000000	22.987948
1737.000000	23.037995
1738.000000	23.090228
1739.000000	23.143615
1740.000000	23.199390
1741.000000	23.256827
1742.000000	23.316502
1743.000000	23.377297
1744.000000	23.439205
1745.000000	23.499690
1746.000000	23.558447
1747.000000	23.615533
1748.000000	23.670335
1749.000000	23.721357
1750.000000	23.768248
1751.000000	23.811592
1752.000000	23.846935
1753.000000	23.876422
1754.000000	23.900040
1755.000000	23.919455
1756.000000	23.935740
1757.000000	23.947950
1758.000000	23.956692
1759.000000	23.962990
1760.000000	23.966930
1761.000000	23.970353
1762.000000	23.974685
1763.000000	23.981203
1764.000000	23.988835
1765.000000	23.997965
1766.000000	24.008947
1767.000000	24.022150
1768.000000	24.036815
1769.000000	24.053805
1770.000000	24.073487
1771.000000	24.095512
1772.000000	24.119292
1773.000000	24.143093
1774.000000	24.169442
1775.000000	24.196315
1776.000000	24.224285
1777.000000	24.252920
1778.000000	24.281030
1779.000000	24.308895
1780.000000	24.335660
1781.000000	24.359088
1782.000000	24.381222
1783.000000	24.402825
1784.000000	24.422420
1785.000000	24.440707
1786.000000	24.454805
1787.000000	24.467012
1788.000000	24.476847
1789.000000	24.484873
1790.000000	24.491202
1791.000000	24.498585
1792.000000	24.506698
1793.000000	24.514875
1794.000000	24.522820
1795.000000	24.530948
1796.000000	24.540288
1797.000000	24.549700
1798.000000	24.560603
1799.000000	24.573998
1800.000000	24.590183
1801.000000	24.607013
1802.000000	24.621958
1803.000000	24.635063
1804.000000	24.648913
1805.000000	24.663892
1806.000000	24.680105
1807.000000	24.696835
1808.000000	24.712938
1809.000000	24.726940
1810.000000	24.741490
1811.000000	24.756318
1812.000000	24.772157
1813.000000	24.787962
1814.000000	24.802713
1815.000000	24.816410
1816.000000	24.826770
1817.000000	24.833357
1818.000000	24.838430
1819.000000	24.846538
1820.000000	24.856450
1821.000000	24.865837
1822.000000	24.870865
1823.000000	24.871980
1824.000000	24.871007
1825.000000	24.869810
1826.000000	24.871932
1827.000000	24.879358
1828.000000	24.890595
1829.000000	24.899625
1830.000000	24.904963
1831.000000	24.910183
1832.000000	24.918765
1833.000000	24.929953
1834.000000	24.943590
1835.000000	24.960728
1836.000000	24.981123
1837.000000	25.002440
1838.000000	25.022883
1839.000000	25.044620
1840.000000	25.067935
1841.000000	25.096677
1842.000000	25.126895
1843.000000	25.152728
1844.000000	25.169505
1845.000000	25.180990
1846.000000	25.192963
1847.000000	25.208835
1848.000000	25.227780
1849.000000	25.239900
1850.000000	25.242660
1851.000000	25.233773
1852.000000	25.222437
1853.000000	25.216740
1854.000000	25.218897
1855.000000	25.219532
1856.000000	25.209142
1857.000000	25.188030
1858.000000	25.162295
1859.000000	25.140027
1860.000000	25.121830
1861.000000	25.101002
1862.000000	25.072188
1863.000000	25.032565
1864.000000	24.981917
1865.000000	24.924945
1866.000000	24.862905
1867.000000	24.795178
1868.000000	24.716803
1869.000000	24.630145
1870.000000	24.537278
1871.000000	24.441533
1872.000000	24.342215
1873.000000	24.240618
1874.000000	24.133570
1875.000000	24.019282
1876.000000	23.896387
1877.000000	23.760273
1878.000000	23.609965
1879.000000	23.446255
1880.000000	23.266580
1881.000000	23.073683
1882.000000	22.868783
1883.000000	22.651670
1884.000000	22.423010
1885.000000	22.182920
1886.000000	21.931830
1887.000000	21.670022
1888.000000	21.398675
1889.000000	21.118340
1890.000000	20.830253
1891.000000	20.532395
1892.000000	20.223990
1893.000000	19.905500
1894.000000	19.577713
1895.000000	19.239742
1896.000000	18.893693
1897.000000	18.543937
1898.000000	18.195148
1899.000000	17.843540
1900.000000	17.490428
1901.000000	17.139373
1902.000000	16.789093
1903.000000	16.443745
1904.000000	16.106257
1905.000000	15.778377
1906.000000	15.463558
1907.000000	15.159445
1908.000000	14.863145
1909.000000	14.575600
1910.000000	14.300183
1911.000000	14.033010
1912.000000	13.783750
1913.000000	13.549505
1914.000000	13.328390
1915.000000	13.118737
1916.000000	12.916545
1917.000000	12.727213
1918.000000	12.546420
1919.000000	12.381520
1920.000000	12.228605
1921.000000	12.087808
1922.000000	11.956053
1923.000000	11.831340
1924.000000	11.716128
1925.000000	11.607675
1926.000000	11.512688
1927.000000	11.425143
1928.000000	11.352530
1929.000000	11.285053
1930.000000	11.222255
1931.000000	11.167085
1932.000000	11.116600
1933.000000	11.072688
1934.000000	11.033868
1935.000000	11.003308
1936.000000	10.979353
1937.000000	10.961070
1938.000000	10.949710
1939.000000	10.944472
1940.000000	10.944660
1941.000000	10.950635
1942.000000	10.962520
1943.000000	10.977135
1944.000000	10.995925
1945.000000	11.022932
1946.000000	11.051495
1947.000000	11.083848
1948.000000	11.116283
1949.000000	11.152030
1950.000000	11.192390
1951.000000	11.232045
1952.000000	11.276610
1953.000000	11.327222
1954.000000	11.383937
1955.000000	11.436038
1956.000000	11.491708
1957.000000	11.545063
1958.000000	11.601962
1959.000000	11.659447
1960.000000	11.716220
1961.000000	11.775885
1962.000000	11.835125
1963.000000	11.893710
1964.000000	11.950375
1965.000000	12.008970
1966.000000	12.064578
1967.000000	12.126843
1968.000000	12.182340
1969.000000	12.238782
1970.000000	12.295405
1971.000000	12.353307
1972.000000	12.409515
1973.000000	12.465597
1974.000000	12.521520
1975.000000	12.577170
1976.000000	12.636980
1977.000000	12.693485
1978.000000	12.751803
1979.000000	12.809420
1980.000000	12.870563
1981.000000	12.933590
1982.000000	12.995495
1983.000000	13.057335
1984.000000	13.120360
1985.000000	13.184932
1986.000000	13.247420
1987.000000	13.311613
1988.000000	13.377980
1989.000000	13.444233
1990.000000	13.505912
1991.000000	13.564423
1992.000000	13.626090
1993.000000	13.686095
1994.000000	13.745765
1995.000000	13.801760
1996.000000	13.855683
1997.000000	13.904492
1998.000000	13.951742
1999.000000	13.995648
2000.000000	14.038132
2001.000000	14.080542
2002.000000	14.119615
2003.000000	14.154852
2004.000000	14.182878
2005.000000	14.210043
2006.000000	14.235015
2007.000000	14.260020
2008.000000	14.279520
2009.000000	14.293920
2010.000000	14.306260
2011.000000	14.312963
2012.000000	14.313585
2013.000000	14.312265
2014.000000	14.307810
2015.000000	14.301190
2016.000000	14.291042
2017.000000	14.275178
2018.000000	14.256545
2019.000000	14.232640
2020.000000	14.204553
2021.000000	14.173585
2022.000000	14.137880
2023.000000	14.100345
2024.000000	14.061830
2025.000000	14.016930
2026.000000	13.965600
2027.000000	13.909755
2028.000000	13.851333
2029.000000	13.794882
2030.000000	13.737800
2031.000000	13.674322
2032.000000	13.605795
2033.000000	13.531657
2034.000000	13.453900
2035.000000	13.376788
2036.000000	13.296485
2037.000000	13.215625
2038.000000	13.132413
2039.000000	13.046873
2040.000000	12.956112
2041.000000	12.863845
2042.000000	12.771987
2043.000000	12.681360
2044.000000	12.586840
2045.000000	12.493725
2046.000000	12.405075
2047.000000	12.314578
2048.000000	12.226608
2049.000000	12.145123
2050.000000	12.068577
2051.000000	12.000943
2052.000000	11.941472
2053.000000	11.886815
2054.000000	11.846063
2055.000000	11.815088
2056.000000	11.796775
2057.000000	11.790590
2058.000000	11.791100
2059.000000	11.800395
2060.000000	11.821595
2061.000000	11.847072
2062.000000	11.879490
2063.000000	11.924517
2064.000000	11.974225
2065.000000	12.025493
2066.000000	12.079342
2067.000000	12.143942
2068.000000	12.214400
2069.000000	12.280463
2070.000000	12.345488
2071.000000	12.418530
2072.000000	12.493377
2073.000000	12.559345
2074.000000	12.618923
2075.000000	12.682355
2076.000000	12.744735
2077.000000	12.798420
2078.000000	12.851095
2079.000000	12.904582
2080.000000	12.951272
2081.000000	12.986645
2082.000000	13.018503
2083.000000	13.051020
2084.000000	13.082555
2085.000000	13.108670
2086.000000	13.125085
2087.000000	13.138715
2088.000000	13.148250
2089.000000	13.152050
2090.000000	13.156520
2091.000000	13.160082
2092.000000	13.162525
2093.000000	13.161585
2094.000000	13.159867
2095.000000	13.158485
2096.000000	13.157290
2097.000000	13.151675
2098.000000	13.138772
2099.000000	13.131717
2100.000000	13.126915
2101.000000	13.123792
2102.000000	13.119988
2103.000000	13.119487
2104.000000	13.116872
2105.000000	13.111955
2106.000000	13.111560
2107.000000	13.117770
2108.000000	13.129615
2109.000000	13.135800
2110.000000	13.137930
2111.000000	13.137420
2112.000000	13.139437
2113.000000	13.138618
2114.000000	13.136470
2115.000000	13.136585
2116.000000	13.135403
2117.000000	13.132587
2118.000000	13.129458
2119.000000	13.124367
2120.000000	13.117900
2121.000000	13.115035
2122.000000	13.109050
2123.000000	13.097172
2124.000000	13.087625
2125.000000	13.073615
2126.000000	13.063313
2127.000000	13.037985
2128.000000	13.002285
2129.000000	12.971045
2130.000000	12.941833
2131.000000	12.905537
2132.000000	12.861698
2133.000000	12.819295
2134.000000	12.777670
2135.000000	12.730512
2136.000000	12.676225
2137.000000	12.628495
2138.000000	12.575572
2139.000000	12.526053
2140.000000	12.468122
2141.000000	12.415450
2142.000000	12.351415
2143.000000	12.287628
2144.000000	12.222078
2145.000000	12.156455
2146.000000	12.076815
2147.000000	11.998297
2148.000000	11.936072
2149.000000	11.870300
2150.000000	11.798327
2151.000000	11.725042
2152.000000	11.657842
2153.000000	11.588883
2154.000000	11.520948
2155.000000	11.445140
2156.000000	11.382330
2157.000000	11.322273
2158.000000	11.260922
2159.000000	11.195505
2160.000000	11.140825
2161.000000	11.084392
2162.000000	11.042703
2163.000000	10.992847
2164.000000	10.941472
2165.000000	10.907920
2166.000000	10.871277
2167.000000	10.829228
2168.000000	10.790080
2169.000000	10.748627
2170.000000	10.710070
2171.000000	10.678247
2172.000000	10.647937
2173.000000	10.631193
2174.000000	10.606170
2175.000000	10.583547
2176.000000	10.553130
2177.000000	10.536658
2178.000000	10.521455
2179.000000	10.510293
2180.000000	10.500620
2181.000000	10.482830
2182.000000	10.462033
2183.000000	10.449895
2184.000000	10.442230
2185.000000	10.428147
2186.000000	10.426955
2187.000000	10.411328
2188.000000	10.390070
2189.000000	10.373123
2190.000000	10.350490
2191.000000	10.331693
2192.000000	10.301550
2193.000000	10.261560
2194.000000	10.232938
2195.000000	10.196682
2196.000000	10.154413
2197.000000	10.123055
2198.000000	10.078250
2199.000000	10.028022
2200.000000	9.980840
2201.000000	9.938042
2202.000000	9.897773
2203.000000	9.854695
2204.000000	9.811475
2205.000000	9.774373
2206.000000	9.744378
2207.000000	9.720290
2208.000000	9.708580
2209.000000	9.691078
2210.000000	9.680117
2211.000000	9.674415
2212.000000	9.674150
2213.000000	9.692587
2214.000000	9.717040
2215.000000	9.742105
2216.000000	9.781705
2217.000000	9.810950
2218.000000	9.860613
2219.000000	9.916818
2220.000000	9.977385
2221.000000	10.033183
2222.000000	10.097145
2223.000000	10.153037
2224.000000	10.202830
2225.000000	10.259665
2226.000000	10.293727
2227.000000	10.337790
2228.000000	10.379385
2229.000000	10.426692
2230.000000	10.470987
2231.000000	10.506117
2232.000000	10.536120
2233.000000	10.567148
2234.000000	10.591772
2235.000000	10.613660
2236.000000	10.640870
2237.000000	10.660203
2238.000000	10.671035
2239.000000	10.675015
2240.000000	10.659918
2241.000000	10.644483
2242.000000	10.632787
2243.000000	10.605110
2244.000000	10.578213
2245.000000	10.545538
2246.000000	10.505537
2247.000000	10.465662
2248.000000	10.413303
2249.000000	10.357097
2250.000000	10.306902
2251.000000	10.262835
2252.000000	10.208050
2253.000000	10.155477
2254.000000	10.098705
2255.000000	10.042517
2256.000000	9.988088
2257.000000	9.926560
2258.000000	9.866420
2259.000000	9.805225
2260.000000	9.743530
2261.000000	9.675817
2262.000000	9.606217
2263.000000	9.544560
2264.000000	9.499492
2265.000000	9.451160
2266.000000	9.404985
2267.000000	9.363652
2268.000000	9.323787
2269.000000	9.304775
2270.000000	9.295565
2271.000000	9.287020
2272.000000	9.283145
2273.000000	9.275907
2274.000000	9.262567
2275.000000	9.258905
2276.000000	9.264415
2277.000000	9.269135
2278.000000	9.271577
2279.000000	9.258310
2280.000000	9.249263
2281.000000	9.252755
2282.000000	9.271648
2283.000000	9.293833
2284.000000	9.306645
2285.000000	9.315738
2286.000000	9.327740
2287.000000	9.343208
2288.000000	9.352960
2289.000000	9.364113
2290.000000	9.378730
2291.000000	9.378037
2292.000000	9.368520
2293.000000	9.357490
2294.000000	9.351657
2295.000000	9.356095
2296.000000	9.358392
2297.000000	9.354840
2298.000000	9.364728
2299.000000	9.387607
2300.000000	9.406812
2301.000000	9.430560
2302.000000	9.447720
2303.000000	9.458345
2304.000000	9.478095
2305.000000	9.497860
2306.000000	9.515863
2307.000000	9.537240
2308.000000	9.560595
2309.000000	9.581638
2310.000000	9.604795
2311.000000	9.635972
2312.000000	9.669455
2313.000000	9.713015
2314.000000	9.747565
2315.000000	9.772730
2316.000000	9.791362
2317.000000	9.815007
2318.000000	9.842417
2319.000000	9.858097
2320.000000	9.866198
2321.000000	9.874725
2322.000000	9.886710
2323.000000	9.895865
2324.000000	9.912302
2325.000000	9.928023
2326.000000	9.941043
2327.000000	9.951280
2328.000000	9.947192
2329.000000	9.941865
2330.000000	9.935192
2331.000000	9.923098
2332.000000	9.924800
2333.000000	9.940028
2334.000000	9.944700
2335.000000	9.951360
2336.000000	9.972635
2337.000000	9.991177
2338.000000	10.017003
2339.000000	10.045725
2340.000000	10.080592
2341.000000	10.117855
2342.000000	10.141930
2343.000000	10.160540
2344.000000	10.177955
2345.000000	10.188645
2346.000000	10.187095
2347.000000	10.199290
2348.000000	10.228315
2349.000000	10.253702
2350.000000	10.262065
2351.000000	10.267355
2352.000000	10.275343
2353.000000	10.280500
2354.000000	10.291370
2355.000000	10.313400
2356.000000	10.345277
2357.000000	10.368830
2358.000000	10.375637
2359.000000	10.387430
2360.000000	10.415990
2361.000000	10.462740
2362.000000	10.501995
2363.000000	10.533877
2364.000000	10.549785
2365.000000	10.553777
2366.000000	10.571057
2367.000000	10.593735
2368.000000	10.619575
2369.000000	10.637487
2370.000000	10.652517
2371.000000	10.673675
2372.000000	10.694323
2373.000000	10.707275
2374.000000	10.724517
2375.000000	10.740700
2376.000000	10.747445
2377.000000	10.751217
2378.000000	10.735350
2379.000000	10.749483
2380.000000	10.761138
2381.000000	10.751288
2382.000000	10.755635
2383.000000	10.785170
2384.000000	10.809023
2385.000000	10.837858
2386.000000	10.860122
2387.000000	10.872333
2388.000000	10.893725
2389.000000	10.904955
2390.000000	10.905643
2391.000000	10.910843
2392.000000	10.918565
2393.000000	10.914820
2394.000000	10.922383
2395.000000	10.933865
2396.000000	10.943372
2397.000000	10.947415
2398.000000	10.951905
2399.000000	10.942255
2400.000000	10.943658
2401.000000	10.945408
2402.000000	10.919780
2403.000000	10.907107
2404.000000	10.899585
2405.000000	10.883998
2406.000000	10.868170
2407.000000	10.843180
2408.000000	10.832622
2409.000000	10.829353
2410.000000	10.825303
2411.000000	10.808930
2412.000000	10.825870
2413.000000	10.831753
2414.000000	10.825852
2415.000000	10.805943
2416.000000	10.786222
2417.000000	10.785808
2418.000000	10.764755
2419.000000	10.714310
2420.000000	10.693550
2421.000000	10.670205
2422.000000	10.628808
2423.000000	10.597320
2424.000000	10.543710
2425.000000	10.518430
2426.000000	10.469520
2427.000000	10.426320
2428.000000	10.381622
2429.000000	10.375373
2430.000000	10.336547
2431.000000	10.305840
2432.000000	10.258408
2433.000000	10.220725
2434.000000	10.175192
2435.000000	10.160428
2436.000000	10.169160
2437.000000	10.169675
2438.000000	10.150790
2439.000000	10.144797
2440.000000	10.126518
2441.000000	10.084120
2442.000000	10.053375
2443.000000	9.997708
2444.000000	9.960738
2445.000000	9.891570
2446.000000	9.846310
2447.000000	9.823920
2448.000000	9.836358
2449.000000	9.791830
2450.000000	9.724082
2451.000000	9.695492
2452.000000	9.712205
2453.000000	9.711968
2454.000000	9.739740
2455.000000	9.771505
2456.000000	9.806950
2457.000000	9.796988
2458.000000	9.782583
2459.000000	9.800862
2460.000000	9.867650
2461.000000	9.874273
2462.000000	9.901028
2463.000000	9.941685
2464.000000	9.933120
2465.000000	9.975290
2466.000000	9.969162
2467.000000	10.019475
2468.000000	10.046158
2469.000000	10.102267
2470.000000	10.169240
2471.000000	10.311132
2472.000000	10.401010
2473.000000	10.485015
2474.000000	10.606365
2475.000000	10.701555
2476.000000	10.758500
2477.000000	10.888333
2478.000000	11.068235
2479.000000	11.136865
2480.000000	11.202690
2481.000000	11.360248
2482.000000	11.422930
2483.000000	11.558340
2484.000000	11.695400
2485.000000	11.757677
2486.000000	11.988350
2487.000000	12.084320
2488.000000	12.169720
2489.000000	12.402880
2490.000000	12.587710
2491.000000	12.683895
2492.000000	12.825548
2493.000000	12.988865
2494.000000	13.174580
2495.000000	13.383587
2496.000000	13.502433
2497.000000	13.615838
2498.000000	13.770048
2499.000000	13.937225
2500.000000	14.092055
2501.000000	17.545255
2502.000000	21.104553
2503.000000	24.780257
2504.000000	28.457623
2505.000000	32.132778
2506.000000	36.057215
2507.000000	40.106385
2508.000000	43.833663
2509.000000	47.829995
2510.000000	52.156190
2511.000000	53.177910
2512.000000	54.186190
2513.000000	54.899980
2514.000000	55.852100
2515.000000	57.009730
2516.000000	58.179730
2517.000000	59.200220
2518.000000	60.656610
2519.000000	61.746550
2520.000000	62.849500
2521.000000	64.045840
2522.000000	64.854680
2523.000000	66.096070
2524.000000	66.956130
2525.000000	68.166630
2526.000000	68.765660
2527.000000	69.722820
2528.000000	70.637820
2529.000000	71.538290
2530.000000	72.288910
2531.000000	72.922640
2532.000000	73.508220
2533.000000	74.148100
2534.000000	74.822580
2535.000000	74.931980
2536.000000	75.644600
2537.000000	76.136840
2538.000000	76.742300
2539.000000	77.829740
2540.000000	78.526990
2541.000000	79.236850
2542.000000	80.759770
2543.000000	82.157120
2544.000000	84.142290
2545.000000	85.564450
2546.000000	86.504950
2547.000000	87.522030
2548.000000	88.068870
2549.000000	88.311600
2550.000000	89.534820
2551.000000	89.986690
2552.000000	90.003920
2553.000000	90.199960
2554.000000	89.898740
2555.000000	90.064760
2556.000000	90.486960
2557.000000	90.856810
2558.000000	91.625750
2559.000000	91.848390
2560.000000	91.677720
2561.000000	92.168550
2562.000000	92.262960
2563.000000	92.497000
2564.000000	92.648740
2565.000000	92.780240
2566.000000	92.512950
2567.000000	92.391550
2568.000000	92.534540
2569.000000	93.175260
2570.000000	93.167090
2571.000000	93.186870
2572.000000	94.013330
2573.000000	93.999420
2574.000000	94.866750
2575.000000	96.038980
2576.000000	96.415640
2577.000000	96.646550
2578.000000	97.298120
2579.000000	97.901610
2580.000000	98.091670
2581.000000	98.412640
2582.000000	98.346830
2583.000000	98.320710
2584.000000	97.712500
2585.000000	97.417460
2586.000000	98.010820
2587.000000	98.075310
2588.000000	97.318390
2589.000000	96.489310
2590.000000	96.677870
2591.000000	97.340090
2592.000000	97.630870
2593.000000	98.184720
2594.000000	98.915150
2595.000000	98.663590
2596.000000	98.160280
2597.000000	98.463430
2598.000000	99.037660
2599.000000	100.075390
2600.000000	100.994750
2601.000000	100.927700
2602.000000	100.894600
2603.000000	101.115380
2604.000000	101.153530
2605.000000	101.480710
2606.000000	102.094890
2607.000000	102.624850
2608.000000	103.337520
2609.000000	103.145980
2610.000000	102.707950
2611.000000	102.834600
2612.000000	103.064460
2613.000000	103.139470
2614.000000	102.893140
2615.000000	102.841250
2616.000000	103.067720
2617.000000	102.842920
2618.000000	101.826220
2619.000000	101.578210
2620.000000	101.276570
2621.000000	100.641030
2622.000000	100.508950
2623.000000	100.111690
2624.000000	100.045070
2625.000000	100.124060
2626.000000	99.953490
2627.000000	99.793110
2628.000000	99.790870
2629.000000	99.414370
2630.000000	99.339020
2631.000000	99.605010
2632.000000	99.501310
2633.000000	99.545260
2634.000000	99.331270
2635.000000	98.670870
2636.000000	98.302320
2637.000000	98.635600
2638.000000	98.852400
2639.000000	98.728510
2640.000000	98.455140
2641.000000	98.142360
2642.000000	98.021900
2643.000000	98.698660
2644.000000	98.877610
2645.000000	99.255840
2646.000000	99.072640
2647.000000	98.667380
2648.000000	99.612470
2649.000000	100.552000
2650.000000	101.292600
2651.000000	101.651640
2652.000000	101.994600
2653.000000	101.730910
2654.000000	101.084220
2655.000000	100.519440
2656.000000	100.477640
2657.000000	100.148670
2658.000000	98.879600
2659.000000	97.807790
2660.000000	97.481510
2661.000000	97.514480
2662.000000	97.484560
2663.000000	96.689160
2664.000000	97.070430
2665.000000	97.315100
2666.000000	97.140340
2667.000000	97.648370
2668.000000	98.385430
2669.000000	99.295880
2670.000000	99.596600
2671.000000	99.340160
2672.000000	99.026470
2673.000000	99.909000
2674.000000	100.227000
2675.000000	99.780360
2676.000000	99.534070
2677.000000	99.313350
2678.000000	98.249050
2679.000000	97.721760
2680.000000	97.291210
2681.000000	97.797020
2682.000000	98.221490
2683.000000	98.206630
2684.000000	97.603070
2685.000000	97.436100
2686.000000	98.707160
2687.000000	99.021780
2688.000000	99.984850
2689.000000	99.397820
2690.000000	98.804560
2691.000000	98.244860
2692.000000	98.287490
2693.000000	97.773050
2694.000000	98.207010
2695.000000	100.446900
2696.000000	100.137030
2697.000000	99.427880
2698.000000	99.047790
2699.000000	99.689430
2700.000000	100.507100
2701.000000	101.186620
2702.000000	101.130870
2703.000000	100.904710
2704.000000	100.395080
2705.000000	98.927000
2706.000000	99.036830
2707.000000	100.599600
2708.000000	100.537660
2709.000000	99.677610
2710.000000	99.596760
2711.000000	98.811430
2712.000000	99.003850
2713.000000	99.348780
2714.000000	100.650440
2715.000000	101.326550
2716.000000	101.655550
2717.000000	100.315630
2718.000000	99.673490
2719.000000	101.996240
2720.000000	101.766110
2721.000000	101.945890
2722.000000	101.406450
2723.000000	101.641710
2724.000000	100.886290
2725.000000	100.708750
2726.000000	100.413450
2727.000000	100.926070
2728.000000	101.870110
2729.000000	100.388090
2730.000000	100.445420
2731.000000	100.282730
2732.000000	99.644320
2733.000000	99.363610
2734.000000	99.351400
2735.000000	98.611210
2736.000000	97.909760
2737.000000	97.502800
2738.000000	97.644360
2739.000000	97.356900
2740.000000	97.249440
2741.000000	97.586570
2742.000000	99.098410
2743.000000	98.174760
2744.000000	98.630320
2745.000000	99.321170
2746.000000	99.498450
2747.000000	100.030350
2748.000000	99.588800
2749.000000	100.020950
2750.000000	100.269460
2751.000000	100.261040
2752.000000	99.665010
2753.000000	100.566380
2754.000000	99.728330
2755.000000	99.638280
2756.000000	100.394730
2757.000000	99.600800
2758.000000	98.986060
2759.000000	98.521420
2760.000000	98.216060
2761.000000	98.944470
2762.000000	98.712170
2763.000000	99.108880
2764.000000	99.070640
2765.000000	99.468950
2766.000000	98.726290
2767.000000	99.391100
2768.000000	100.236020
2769.000000	100.511590
2770.000000	101.186960
2771.000000	100.476720
2772.000000	101.581220
2773.000000	101.239180
2774.000000	100.919890
2775.000000	100.157890
2776.000000	100.497920
2777.000000	99.507640
2778.000000	99.335350
2779.000000	98.964100
2780.000000	98.261920
2781.000000	98.542560
2782.000000	97.833690
2783.000000	98.013250
2784.000000	98.556200
2785.000000	98.331280
2786.000000	97.940280
2787.000000	98.147860
2788.000000	98.516010
2789.000000	99.604900
2790.000000	99.812950
2791.000000	99.575050
2792.000000	99.534230
2793.000000	99.264570
2794.000000	99.266340
2795.000000	99.712020
2796.000000	99.826940
2797.000000	100.551030
2798.000000	100.328600
2799.000000	100.225210
2800.000000	100.151650
2801.000000	100.191000
2802.000000	99.776820
2803.000000	99.427180
2804.000000	99.636910
2805.000000	99.447200
2806.000000	100.196730
2807.000000	100.400220
2808.000000	100.015150
2809.000000	99.292720
2810.000000	99.531050
2811.000000	99.617330
2812.000000	99.836630
2813.000000	99.806810
2814.000000	99.685640
2815.000000	99.805410
2816.000000	99.333120
2817.000000	99.359190
2818.000000	99.716850
2819.000000	99.415210
2820.000000	98.907220
2821.000000	98.416540
2822.000000	98.566720
2823.000000	98.858030
2824.000000	98.363110
2825.000000	98.049010
2826.000000	98.511110
2827.000000	97.935530
2828.000000	97.328650
2829.000000	97.483160
2830.000000	97.127530
2831.000000	96.738970
2832.000000	96.012880
2833.000000	96.071670
2834.000000	96.789080
2835.000000	97.140540
2836.000000	96.477950
2837.000000	96.645560
2838.000000	96.748320
2839.000000	97.359450
2840.000000	98.442650
2841.000000	99.126460
2842.000000	99.406170
2843.000000	99.293460
2844.000000	99.245660
2845.000000	99.128760
2846.000000	99.615570
2847.000000	100.106070
2848.000000	100.908540
2849.000000	100.794590
2850.000000	100.425930
2851.000000	100.167750
2852.000000	100.016060
2853.000000	100.241530
2854.000000	99.976180
2855.000000	100.443390
2856.000000	101.046780
2857.000000	100.914660
2858.000000	100.508120
2859.000000	100.383920
2860.000000	100.479240
2861.000000	101.003730
2862.000000	101.882120
2863.000000	102.249800
2864.000000	102.603560
2865.000000	102.530430
2866.000000	102.157140
2867.000000	101.900700
2868.000000	102.138770
2869.000000	103.036930
2870.000000	102.938090
2871.000000	102.374970
2872.000000	102.090600
2873.000000	101.631840
2874.000000	101.347510
2875.000000	100.617470
2876.000000	99.859500
2877.000000	99.828820
2878.000000	99.620100
2879.000000	98.784440
2880.000000	98.607380
2881.000000	98.285670
2882.000000	97.878510
2883.000000	97.839280
2884.000000	97.951960
2885.000000	98.932290
2886.000000	99.850740
2887.000000	100.161800
2888.000000	100.828990
2889.000000	101.383380
2890.000000	101.739070
2891.000000	102.190790
2892.000000	102.178830
2893.000000	101.880700
2894.000000	101.395240
2895.000000	100.612080
2896.000000	100.006670
2897.000000	99.413860
2898.000000	98.552720
2899.000000	97.911320
2900.000000	97.881360
2901.000000	97.675930
2902.000000	97.273810
2903.000000	97.863260
2904.000000	98.151000
2905.000000	97.964610
2906.000000	97.310660
2907.000000	97.689960
2908.000000	97.891970
2909.000000	98.183550
2910.000000	98.316570
2911.000000	98.353880
2912.000000	98.469360
2913.000000	97.919010
2914.000000	98.135200
2915.000000	98.035210
2916.000000	97.860210
2917.000000	97.351560
2918.000000	97.191700
2919.000000	96.516960
2920.000000	96.048420
2921.000000	96.231110
2922.000000	96.883660
2923.000000	96.626760
2924.000000	96.452980
2925.000000	96.525380
2926.000000	96.890980
2927.000000	96.602380
2928.000000	96.673830
2929.000000	97.307810
2930.000000	97.535280
2931.000000	97.535360
2932.000000	96.989590
2933.000000	97.764310
2934.000000	98.559760
2935.000000	99.218490
2936.000000	99.305620
2937.000000	100.188370
2938.000000	99.644090
2939.000000	98.598190
2940.000000	98.853640
2941.000000	99.235380
2942.000000	99.184880
2943.000000	98.763510
2944.000000	98.230160
2945.000000	97.705870
2946.000000	98.198900
2947.000000	98.000300
2948.000000	98.438550
2949.000000	99.277140
2950.000000	98.639670
2951.000000	97.628430
2952.000000	98.043180
2953.000000	97.772540
2954.000000	97.421830
2955.000000	97.390040
2956.000000	96.286830
2957.000000	96.158530
2958.000000	95.725500
2959.000000	95.393470
2960.000000	95.055910
2961.000000	95.701530
2962.000000	95.358570
2963.000000	96.216110
2964.000000	96.406520
2965.000000	96.358000
2966.000000	97.362770
2967.000000	97.559420
2968.000000	97.734180
2969.000000	98.209840
2970.000000	99.023070
2971.000000	99.299310
2972.000000	99.811820
2973.000000	99.931830
2974.000000	99.617230
2975.000000	99.551150
2976.000000	98.719530
2977.000000	99.260440
2978.000000	99.143540
2979.000000	99.123860
2980.000000	98.670220
2981.000000	98.345500
2982.000000	98.647400
2983.000000	98.249670
2984.000000	99.546860
2985.000000	100.100920
2986.000000	100.270410
2987.000000	99.935590
2988.000000	99.753880
2989.000000	99.795910
2990.000000	100.234710
2991.000000	99.855560
2992.000000	99.974840
2993.000000	99.095270
2994.000000	97.528640
2995.000000	96.602020
2996.000000	97.176550
2997.000000	97.128840
2998.000000	97.452310
2999.000000	97.062230
3000.000000	97.827460
