PE UV       SUBTECH     SPECTRUM    ASCII       PEDS        4.00        
   -1
INBUCR0426-4.Sample.ASC
24/02/09
14:39:33.00
24/02/09
14:39:33.00
Vinicio Soto Monge
Chrysina resplendens .COSTA RICA. Prov. Guanacaste. Cañas. P.N. Volcán Tenorio. Río Martirio. La Rejolla. 1000-1100m. 14-15 JUN 2007. J. A. Azofeifa. M. Campos. Tp. Luz  Mercurio. #91628.. INB0004090510. Un élitro está en un vial con desecante.
250,000000
1
Lambda 1050
1050L1511233
PerkinElmer UV WinLab 6.3.2.0749 / 2.02.05 Lambda 900 UV/VIS/NIR, Aug  7 2015 09:38:08

0
0
3350/servo 860,8/2
0
0
UV/VIS
1
1
1
DoubleDePol,CommonBeamDepol,RBeamAtt,SBeamAtt,60mm sphere, WB InGaAs Detector
0
0
0
0
Program
Program
3350/servo 860,8/2
3350/0,2 860,8/0,2
3350/0,2 860,8/0,2
0
15.00
 
 
 
0
 
860,8
319,2
860,8
Front
100
on
S:100 R:100
0
0
0
0
 
0
 
 
 
0
 
 
0
0
0
0
0
 
 
 
 
0
0


0
0
#HDR
-1
-1
#GR
nm
%R
1.0
0.0
2500,000000
-1,000000
2251
8
18,062000
1,326400
#DATA

250.000000	nan
251.000000	nan
252.000000	nan
253.000000	nan
254.000000	nan
255.000000	nan
256.000000	nan
257.000000	nan
258.000000	nan
259.000000	3.817106
260.000000	3.847956
261.000000	3.877589
262.000000	3.907121
263.000000	3.937096
264.000000	3.964060
265.000000	3.993148
266.000000	3.990459
267.000000	3.986931
268.000000	3.984254
269.000000	3.980788
270.000000	3.976071
271.000000	3.970456
272.000000	3.965371
273.000000	3.961312
274.000000	3.958099
275.000000	3.952650
276.000000	3.947717
277.000000	3.942403
278.000000	3.936625
279.000000	3.932215
280.000000	3.928935
281.000000	3.928690
282.000000	3.929701
283.000000	3.929311
284.000000	3.928447
285.000000	3.929151
286.000000	3.930325
287.000000	3.933398
288.000000	3.935407
289.000000	3.938028
290.000000	3.941749
291.000000	3.944759
292.000000	3.946045
293.000000	3.949606
294.000000	3.954252
295.000000	3.958045
296.000000	3.961649
297.000000	3.967648
298.000000	3.974937
299.000000	3.982539
300.000000	3.987976
301.000000	3.992287
302.000000	3.997523
303.000000	4.001339
304.000000	4.005471
305.000000	4.009725
306.000000	4.047290
307.000000	4.082571
308.000000	4.116038
309.000000	4.150604
310.000000	4.187482
311.000000	4.257128
312.000000	4.326412
313.000000	4.395433
314.000000	4.465132
315.000000	4.566777
316.000000	4.636768
317.000000	4.790140
318.000000	4.941689
319.000000	5.084498
320.000000	5.244417
321.000000	5.397376
322.000000	5.546626
323.000000	5.691584
324.000000	5.842398
325.000000	5.956728
326.000000	6.063890
327.000000	6.083335
328.000000	6.112227
329.000000	6.147453
330.000000	6.200131
331.000000	6.227262
332.000000	6.252827
333.000000	6.281607
334.000000	6.302228
335.000000	6.328932
336.000000	6.358150
337.000000	6.385956
338.000000	6.415287
339.000000	6.444227
340.000000	6.434765
341.000000	6.429684
342.000000	6.430268
343.000000	6.430214
344.000000	6.432242
345.000000	6.431482
346.000000	6.432970
347.000000	6.444464
348.000000	6.444639
349.000000	6.478200
350.000000	6.515078
351.000000	6.547117
352.000000	6.575054
353.000000	6.608762
354.000000	6.637708
355.000000	6.666240
356.000000	6.695489
357.000000	6.723876
358.000000	6.757101
359.000000	6.757207
360.000000	6.756688
361.000000	6.754414
362.000000	6.754974
363.000000	6.752451
364.000000	6.752906
365.000000	6.754937
366.000000	6.758911
367.000000	6.757950
368.000000	6.754629
369.000000	6.749167
370.000000	6.741555
371.000000	6.736557
372.000000	6.732518
373.000000	6.728257
374.000000	6.720112
375.000000	6.716509
376.000000	6.684631
377.000000	6.644285
378.000000	6.605691
379.000000	6.570181
380.000000	6.536646
381.000000	6.502568
382.000000	6.468863
383.000000	6.434718
384.000000	6.405296
385.000000	6.372110
386.000000	6.365116
387.000000	6.368062
388.000000	6.370451
389.000000	6.372760
390.000000	6.375788
391.000000	6.379062
392.000000	6.382038
393.000000	6.384845
394.000000	6.387267
395.000000	6.389609
396.000000	6.392229
397.000000	6.395178
398.000000	6.397786
399.000000	6.400306
400.000000	6.402472
401.000000	6.404786
402.000000	6.407064
403.000000	6.409901
404.000000	6.412523
405.000000	6.414981
406.000000	6.417417
407.000000	6.419555
408.000000	6.422095
409.000000	6.424575
410.000000	6.426530
411.000000	6.428366
412.000000	6.430669
413.000000	6.432747
414.000000	6.434997
415.000000	6.437415
416.000000	6.439453
417.000000	6.441681
418.000000	6.444027
419.000000	6.446380
420.000000	6.449136
421.000000	6.452191
422.000000	6.454964
423.000000	6.457605
424.000000	6.460325
425.000000	6.463363
426.000000	6.466513
427.000000	6.469397
428.000000	6.472416
429.000000	6.475693
430.000000	6.478954
431.000000	6.482088
432.000000	6.485019
433.000000	6.488161
434.000000	6.491519
435.000000	6.494717
436.000000	6.498266
437.000000	6.502063
438.000000	6.505629
439.000000	6.509033
440.000000	6.512640
441.000000	6.516481
442.000000	6.520383
443.000000	6.523789
444.000000	6.527040
445.000000	6.530907
446.000000	6.534863
447.000000	6.570796
448.000000	6.606775
449.000000	6.642512
450.000000	6.678257
451.000000	6.714033
452.000000	6.750066
453.000000	6.786412
454.000000	6.823129
455.000000	6.859708
456.000000	6.895943
457.000000	6.900227
458.000000	6.904451
459.000000	6.908989
460.000000	6.913465
461.000000	6.917962
462.000000	6.922579
463.000000	6.927407
464.000000	6.931951
465.000000	6.936014
466.000000	6.940083
467.000000	6.944198
468.000000	6.948637
469.000000	6.953026
470.000000	6.957257
471.000000	6.961226
472.000000	6.965190
473.000000	6.969027
474.000000	6.972557
475.000000	6.976058
476.000000	6.979515
477.000000	6.982852
478.000000	6.985625
479.000000	6.988105
480.000000	6.989928
481.000000	6.990726
482.000000	6.990827
483.000000	6.990758
484.000000	6.991077
485.000000	6.992111
486.000000	6.993912
487.000000	6.996285
488.000000	6.999520
489.000000	7.003674
490.000000	7.009194
491.000000	7.016423
492.000000	7.024805
493.000000	7.033895
494.000000	7.043509
495.000000	7.085174
496.000000	7.126693
497.000000	7.167857
498.000000	7.209145
499.000000	7.250484
500.000000	7.291817
501.000000	7.333182
502.000000	7.374725
503.000000	7.416451
504.000000	7.457946
505.000000	7.467239
506.000000	7.476630
507.000000	7.486480
508.000000	7.495998
509.000000	7.505040
510.000000	7.513595
511.000000	7.521957
512.000000	7.529929
513.000000	7.537448
514.000000	7.544773
515.000000	7.551810
516.000000	7.558378
517.000000	7.564376
518.000000	7.570223
519.000000	7.575919
520.000000	7.581878
521.000000	7.587468
522.000000	7.592987
523.000000	7.598375
524.000000	7.603880
525.000000	7.609580
526.000000	7.615451
527.000000	7.621755
528.000000	7.628907
529.000000	7.636268
530.000000	7.643737
531.000000	7.651653
532.000000	7.659884
533.000000	7.668610
534.000000	7.709868
535.000000	7.751231
536.000000	7.793041
537.000000	7.834952
538.000000	7.876440
539.000000	7.918256
540.000000	7.960390
541.000000	8.002847
542.000000	8.045333
543.000000	8.087814
544.000000	8.098201
545.000000	8.109067
546.000000	8.119868
547.000000	8.130821
548.000000	8.141695
549.000000	8.152744
550.000000	8.163762
551.000000	8.174425
552.000000	8.185348
553.000000	8.196482
554.000000	8.207639
555.000000	8.218425
556.000000	8.229067
557.000000	8.239538
558.000000	8.250362
559.000000	8.260766
560.000000	8.266247
561.000000	8.270843
562.000000	8.274907
563.000000	8.278949
564.000000	8.282564
565.000000	8.285757
566.000000	8.288833
567.000000	8.292445
568.000000	8.295700
569.000000	8.299082
570.000000	8.307367
571.000000	8.316426
572.000000	8.325563
573.000000	8.334687
574.000000	8.343801
575.000000	8.353541
576.000000	8.363564
577.000000	8.373359
578.000000	8.383124
579.000000	8.393022
580.000000	8.402971
581.000000	8.413122
582.000000	8.423334
583.000000	8.465198
584.000000	8.507859
585.000000	8.550292
586.000000	8.592767
587.000000	8.634548
588.000000	8.676539
589.000000	8.718807
590.000000	8.761053
591.000000	8.803806
592.000000	8.846820
593.000000	8.858208
594.000000	8.869030
595.000000	8.879717
596.000000	8.889955
597.000000	8.900929
598.000000	8.911961
599.000000	8.922721
600.000000	8.933080
601.000000	8.943429
602.000000	8.953798
603.000000	8.964269
604.000000	8.975096
605.000000	8.986113
606.000000	8.997773
607.000000	9.009225
608.000000	9.020370
609.000000	9.031665
610.000000	9.043565
611.000000	9.055069
612.000000	9.066712
613.000000	9.077904
614.000000	9.089617
615.000000	9.101681
616.000000	9.113056
617.000000	9.124259
618.000000	9.135843
619.000000	9.147638
620.000000	9.159185
621.000000	9.170689
622.000000	9.182133
623.000000	9.194170
624.000000	9.205547
625.000000	9.248896
626.000000	9.292414
627.000000	9.336716
628.000000	9.380898
629.000000	9.425130
630.000000	9.469069
631.000000	9.514264
632.000000	9.559784
633.000000	9.605111
634.000000	9.650998
635.000000	9.664832
636.000000	9.679397
637.000000	9.693589
638.000000	9.708318
639.000000	9.723804
640.000000	9.740259
641.000000	9.756056
642.000000	9.771838
643.000000	9.788031
644.000000	9.804459
645.000000	9.821683
646.000000	9.838703
647.000000	9.856170
648.000000	9.873889
649.000000	9.891227
650.000000	9.908698
651.000000	9.926524
652.000000	9.944831
653.000000	9.963339
654.000000	9.981880
655.000000	10.032446
656.000000	10.083636
657.000000	10.134987
658.000000	10.185892
659.000000	10.236610
660.000000	10.287357
661.000000	10.337895
662.000000	10.388430
663.000000	10.438887
664.000000	10.489650
665.000000	10.508031
666.000000	10.526348
667.000000	10.544505
668.000000	10.563021
669.000000	10.582233
670.000000	10.601708
671.000000	10.620653
672.000000	10.639573
673.000000	10.658475
674.000000	10.676927
675.000000	10.695476
676.000000	10.714269
677.000000	10.733092
678.000000	10.751878
679.000000	10.770290
680.000000	10.788355
681.000000	10.806910
682.000000	10.825581
683.000000	10.875729
684.000000	10.926082
685.000000	10.976708
686.000000	11.027164
687.000000	11.078323
688.000000	11.129783
689.000000	11.180342
690.000000	11.230729
691.000000	11.281845
692.000000	11.332511
693.000000	11.351877
694.000000	11.370829
695.000000	11.389548
696.000000	11.408120
697.000000	11.425775
698.000000	11.443107
699.000000	11.461625
700.000000	11.480756
701.000000	11.499328
702.000000	11.518569
703.000000	11.537857
704.000000	11.557419
705.000000	11.577291
706.000000	11.596981
707.000000	11.616943
708.000000	11.668518
709.000000	11.720127
710.000000	11.771239
711.000000	11.822435
712.000000	11.873555
713.000000	11.925372
714.000000	11.976824
715.000000	12.028005
716.000000	12.079818
717.000000	12.131454
718.000000	12.152357
719.000000	12.172897
720.000000	12.193878
721.000000	12.215293
722.000000	12.236345
723.000000	12.256697
724.000000	12.277202
725.000000	12.297337
726.000000	12.317574
727.000000	12.338958
728.000000	12.359805
729.000000	12.380808
730.000000	12.400807
731.000000	12.451987
732.000000	12.503600
733.000000	12.555350
734.000000	12.607188
735.000000	12.660308
736.000000	12.713893
737.000000	12.766689
738.000000	12.820003
739.000000	12.873843
740.000000	12.928658
741.000000	12.952282
742.000000	12.975066
743.000000	12.997569
744.000000	13.021064
745.000000	13.044127
746.000000	13.065311
747.000000	13.086512
748.000000	13.107767
749.000000	13.128737
750.000000	13.150004
751.000000	13.203070
752.000000	13.256883
753.000000	13.311455
754.000000	13.366126
755.000000	13.419993
756.000000	13.475430
757.000000	13.532579
758.000000	13.589662
759.000000	13.646520
760.000000	13.703675
761.000000	13.729860
762.000000	13.754935
763.000000	13.779287
764.000000	13.804398
765.000000	13.830534
766.000000	13.855627
767.000000	13.878926
768.000000	13.902646
769.000000	13.926658
770.000000	13.981522
771.000000	14.036160
772.000000	14.092381
773.000000	14.148733
774.000000	14.203591
775.000000	14.257980
776.000000	14.313362
777.000000	14.368991
778.000000	14.424170
779.000000	14.479864
780.000000	14.504174
781.000000	14.527882
782.000000	14.551796
783.000000	14.575815
784.000000	14.599721
785.000000	14.624157
786.000000	14.648672
787.000000	14.673746
788.000000	14.730556
789.000000	14.786979
790.000000	14.842898
791.000000	14.899579
792.000000	14.955615
793.000000	15.011555
794.000000	15.070464
795.000000	15.127993
796.000000	15.184057
797.000000	15.242132
798.000000	15.270876
799.000000	15.297964
800.000000	15.324093
801.000000	15.350756
802.000000	15.378139
803.000000	15.405646
804.000000	15.430336
805.000000	15.456598
806.000000	15.484303
807.000000	15.542389
808.000000	15.598282
809.000000	15.655605
810.000000	15.714840
811.000000	15.772395
812.000000	15.829691
813.000000	15.886362
814.000000	15.944874
815.000000	16.005314
816.000000	16.064662
817.000000	16.089947
818.000000	16.112600
819.000000	16.136670
820.000000	16.161076
821.000000	16.184384
822.000000	16.207304
823.000000	16.230444
824.000000	16.252724
825.000000	16.270737
826.000000	16.290260
827.000000	16.312127
828.000000	16.334593
829.000000	16.387772
830.000000	16.438851
831.000000	16.490940
832.000000	16.541173
833.000000	16.592550
834.000000	16.641457
835.000000	16.690138
836.000000	16.738619
837.000000	16.785845
838.000000	16.835196
839.000000	16.852194
840.000000	16.867488
841.000000	16.882579
842.000000	16.899272
843.000000	16.916640
844.000000	16.931915
845.000000	16.948732
846.000000	16.960285
847.000000	16.973804
848.000000	16.986225
849.000000	16.992708
850.000000	17.005814
851.000000	17.013916
852.000000	17.017640
853.000000	17.028623
854.000000	17.042312
855.000000	17.047988
856.000000	17.064217
857.000000	17.090247
858.000000	17.484900
859.000000	17.550100
860.000000	17.611698
861.000000	17.680216
862.000000	17.778926
863.000000	17.868318
864.000000	17.908661
865.000000	17.981213
866.000000	18.022880
867.000000	18.076165
868.000000	17.760995
869.000000	17.755108
870.000000	17.748695
871.000000	17.763648
872.000000	17.727053
873.000000	17.689957
874.000000	17.676615
875.000000	17.638247
876.000000	17.647642
877.000000	17.607675
878.000000	17.566660
879.000000	17.551172
880.000000	17.533663
881.000000	17.467913
882.000000	17.452455
883.000000	17.436200
884.000000	17.420027
885.000000	17.404383
886.000000	17.365213
887.000000	17.350985
888.000000	17.336575
889.000000	17.321750
890.000000	17.308315
891.000000	17.319187
892.000000	17.279940
893.000000	17.265660
894.000000	17.277763
895.000000	17.263943
896.000000	17.250835
897.000000	17.237158
898.000000	17.223480
899.000000	17.211120
900.000000	17.199775
901.000000	17.187778
902.000000	17.176347
903.000000	17.166335
904.000000	17.155883
905.000000	17.170567
906.000000	17.185195
907.000000	17.200457
908.000000	17.217607
909.000000	17.232433
910.000000	17.222730
911.000000	17.216417
912.000000	17.233515
913.000000	17.225095
914.000000	17.217495
915.000000	17.210308
916.000000	17.202915
917.000000	17.195908
918.000000	17.188305
919.000000	17.183845
920.000000	17.203693
921.000000	17.220815
922.000000	17.238410
923.000000	17.256823
924.000000	17.273320
925.000000	17.291752
926.000000	17.309410
927.000000	17.327278
928.000000	17.342932
929.000000	17.357800
930.000000	17.371350
931.000000	17.384945
932.000000	17.401108
933.000000	17.417420
934.000000	17.435890
935.000000	17.453080
936.000000	17.470562
937.000000	17.487592
938.000000	17.506442
939.000000	17.497335
940.000000	17.489925
941.000000	17.506922
942.000000	17.521180
943.000000	17.536095
944.000000	17.549243
945.000000	17.537440
946.000000	17.526020
947.000000	17.513915
948.000000	17.501175
949.000000	17.515955
950.000000	17.530995
951.000000	17.521615
952.000000	17.512383
953.000000	17.501975
954.000000	17.491600
955.000000	17.505675
956.000000	17.519865
957.000000	17.534695
958.000000	17.549187
959.000000	17.563535
960.000000	17.576555
961.000000	17.590293
962.000000	17.603875
963.000000	17.617220
964.000000	17.630007
965.000000	17.642618
966.000000	17.655280
967.000000	17.667630
968.000000	17.679945
969.000000	17.691643
970.000000	17.703732
971.000000	17.716000
972.000000	17.728603
973.000000	17.740603
974.000000	17.752598
975.000000	17.764930
976.000000	17.776410
977.000000	17.788362
978.000000	17.800410
979.000000	17.811747
980.000000	17.822938
981.000000	17.833723
982.000000	17.844595
983.000000	17.855495
984.000000	17.866582
985.000000	17.877440
986.000000	17.888140
987.000000	17.898645
988.000000	17.909617
989.000000	17.920960
990.000000	17.931620
991.000000	17.941273
992.000000	17.951428
993.000000	17.962105
994.000000	17.972478
995.000000	17.982185
996.000000	17.992213
997.000000	18.002750
998.000000	18.012663
999.000000	18.021863
1000.000000	18.031073
1001.000000	18.041708
1002.000000	18.051742
1003.000000	18.061268
1004.000000	18.070815
1005.000000	18.080845
1006.000000	18.090277
1007.000000	18.098410
1008.000000	18.106877
1009.000000	18.116305
1010.000000	18.125985
1011.000000	18.134823
1012.000000	18.143248
1013.000000	18.151630
1014.000000	18.160633
1015.000000	18.169715
1016.000000	18.178762
1017.000000	18.188315
1018.000000	18.198005
1019.000000	18.207763
1020.000000	18.218197
1021.000000	18.228510
1022.000000	18.238943
1023.000000	18.249490
1024.000000	18.258932
1025.000000	18.268368
1026.000000	18.278703
1027.000000	18.288745
1028.000000	18.298768
1029.000000	18.308868
1030.000000	18.317988
1031.000000	18.327240
1032.000000	18.336498
1033.000000	18.345645
1034.000000	18.355718
1035.000000	18.365407
1036.000000	18.374285
1037.000000	18.383010
1038.000000	18.391790
1039.000000	18.400565
1040.000000	18.409672
1041.000000	18.418222
1042.000000	18.426092
1043.000000	18.432860
1044.000000	18.440027
1045.000000	18.449165
1046.000000	18.458275
1047.000000	18.466697
1048.000000	18.474908
1049.000000	18.482875
1050.000000	18.491280
1051.000000	18.500160
1052.000000	18.509235
1053.000000	18.519112
1054.000000	18.528780
1055.000000	18.536975
1056.000000	18.545217
1057.000000	18.553983
1058.000000	18.562902
1059.000000	18.572152
1060.000000	18.580005
1061.000000	18.587673
1062.000000	18.596120
1063.000000	18.604605
1064.000000	18.612380
1065.000000	18.619808
1066.000000	18.627390
1067.000000	18.635562
1068.000000	18.644195
1069.000000	18.652992
1070.000000	18.662402
1071.000000	18.671615
1072.000000	18.681295
1073.000000	18.691533
1074.000000	18.701358
1075.000000	18.711693
1076.000000	18.721827
1077.000000	18.731637
1078.000000	18.740815
1079.000000	18.748683
1080.000000	18.756120
1081.000000	18.763083
1082.000000	18.769497
1083.000000	18.776187
1084.000000	18.783115
1085.000000	18.789305
1086.000000	18.795673
1087.000000	18.802653
1088.000000	18.809050
1089.000000	18.815818
1090.000000	18.822102
1091.000000	18.828855
1092.000000	18.836002
1093.000000	18.842230
1094.000000	18.848375
1095.000000	18.854837
1096.000000	18.860418
1097.000000	18.865563
1098.000000	18.870910
1099.000000	18.876280
1100.000000	18.882573
1101.000000	18.889075
1102.000000	18.894355
1103.000000	18.900243
1104.000000	18.905525
1105.000000	18.910515
1106.000000	18.915762
1107.000000	18.920275
1108.000000	18.925018
1109.000000	18.928947
1110.000000	18.932557
1111.000000	18.935895
1112.000000	18.938770
1113.000000	18.940665
1114.000000	18.943278
1115.000000	18.944520
1116.000000	18.945790
1117.000000	18.947942
1118.000000	18.949605
1119.000000	18.951105
1120.000000	18.952680
1121.000000	18.954795
1122.000000	18.958370
1123.000000	18.962520
1124.000000	18.966448
1125.000000	18.971315
1126.000000	18.975860
1127.000000	18.979330
1128.000000	18.981545
1129.000000	18.984637
1130.000000	18.986973
1131.000000	18.985643
1132.000000	18.981775
1133.000000	18.978417
1134.000000	18.976487
1135.000000	18.975997
1136.000000	18.973935
1137.000000	18.970490
1138.000000	18.966990
1139.000000	18.962652
1140.000000	18.958170
1141.000000	18.955777
1142.000000	18.954185
1143.000000	18.951863
1144.000000	18.947783
1145.000000	18.943140
1146.000000	18.939935
1147.000000	18.937310
1148.000000	18.935163
1149.000000	18.934442
1150.000000	18.933420
1151.000000	18.931980
1152.000000	18.931893
1153.000000	18.931307
1154.000000	18.930100
1155.000000	18.927350
1156.000000	18.923425
1157.000000	18.918585
1158.000000	18.914618
1159.000000	18.907853
1160.000000	18.900447
1161.000000	18.891240
1162.000000	18.880645
1163.000000	18.869627
1164.000000	18.857908
1165.000000	18.845613
1166.000000	18.832630
1167.000000	18.820322
1168.000000	18.806537
1169.000000	18.793850
1170.000000	18.782220
1171.000000	18.772163
1172.000000	18.761965
1173.000000	18.750385
1174.000000	18.742847
1175.000000	18.735160
1176.000000	18.727770
1177.000000	18.721725
1178.000000	18.717325
1179.000000	18.711447
1180.000000	18.706300
1181.000000	18.701412
1182.000000	18.698152
1183.000000	18.696475
1184.000000	18.692163
1185.000000	18.689123
1186.000000	18.688002
1187.000000	18.686985
1188.000000	18.685173
1189.000000	18.685932
1190.000000	18.686637
1191.000000	18.689457
1192.000000	18.691420
1193.000000	18.694255
1194.000000	18.697435
1195.000000	18.701693
1196.000000	18.706872
1197.000000	18.711593
1198.000000	18.718180
1199.000000	18.724695
1200.000000	18.732073
1201.000000	18.738885
1202.000000	18.746070
1203.000000	18.753158
1204.000000	18.761405
1205.000000	18.768702
1206.000000	18.776100
1207.000000	18.784960
1208.000000	18.792133
1209.000000	18.799102
1210.000000	18.806335
1211.000000	18.814213
1212.000000	18.822800
1213.000000	18.831590
1214.000000	18.839515
1215.000000	18.847480
1216.000000	18.855448
1217.000000	18.862575
1218.000000	18.869667
1219.000000	18.877965
1220.000000	18.885510
1221.000000	18.891865
1222.000000	18.896000
1223.000000	18.900470
1224.000000	18.905530
1225.000000	18.910225
1226.000000	18.913760
1227.000000	18.916142
1228.000000	18.919097
1229.000000	18.920170
1230.000000	18.920290
1231.000000	18.920602
1232.000000	18.922497
1233.000000	18.924103
1234.000000	18.924237
1235.000000	18.924535
1236.000000	18.924178
1237.000000	18.924048
1238.000000	18.924275
1239.000000	18.924555
1240.000000	18.925445
1241.000000	18.927115
1242.000000	18.929145
1243.000000	18.930528
1244.000000	18.931458
1245.000000	18.933328
1246.000000	18.936145
1247.000000	18.940463
1248.000000	18.945000
1249.000000	18.949790
1250.000000	18.955752
1251.000000	18.961530
1252.000000	18.967345
1253.000000	18.973950
1254.000000	18.981025
1255.000000	18.987990
1256.000000	18.996010
1257.000000	19.003448
1258.000000	19.010758
1259.000000	19.018690
1260.000000	19.025845
1261.000000	19.032052
1262.000000	19.037205
1263.000000	19.042432
1264.000000	19.048560
1265.000000	19.054130
1266.000000	19.058417
1267.000000	19.062158
1268.000000	19.065125
1269.000000	19.067552
1270.000000	19.069130
1271.000000	19.070980
1272.000000	19.072897
1273.000000	19.074213
1274.000000	19.075470
1275.000000	19.075855
1276.000000	19.075990
1277.000000	19.076643
1278.000000	19.077435
1279.000000	19.078188
1280.000000	19.079632
1281.000000	19.081040
1282.000000	19.082843
1283.000000	19.084910
1284.000000	19.085683
1285.000000	19.087382
1286.000000	19.089965
1287.000000	19.092092
1288.000000	19.095153
1289.000000	19.098475
1290.000000	19.101427
1291.000000	19.105027
1292.000000	19.109023
1293.000000	19.113170
1294.000000	19.118690
1295.000000	19.123890
1296.000000	19.128620
1297.000000	19.133762
1298.000000	19.137950
1299.000000	19.142205
1300.000000	19.146825
1301.000000	19.151125
1302.000000	19.154335
1303.000000	19.156820
1304.000000	19.158597
1305.000000	19.160050
1306.000000	19.161385
1307.000000	19.162540
1308.000000	19.163480
1309.000000	19.163968
1310.000000	19.163835
1311.000000	19.162743
1312.000000	19.161545
1313.000000	19.160730
1314.000000	19.158505
1315.000000	19.155030
1316.000000	19.151275
1317.000000	19.146742
1318.000000	19.141827
1319.000000	19.136235
1320.000000	19.129638
1321.000000	19.122637
1322.000000	19.115462
1323.000000	19.107885
1324.000000	19.101222
1325.000000	19.094890
1326.000000	19.087610
1327.000000	19.080410
1328.000000	19.072472
1329.000000	19.063625
1330.000000	19.055088
1331.000000	19.046450
1332.000000	19.037198
1333.000000	19.026632
1334.000000	19.015935
1335.000000	19.005092
1336.000000	18.994778
1337.000000	18.983922
1338.000000	18.972970
1339.000000	18.962580
1340.000000	18.951493
1341.000000	18.938835
1342.000000	18.925917
1343.000000	18.913635
1344.000000	18.900102
1345.000000	18.884287
1346.000000	18.867342
1347.000000	18.851670
1348.000000	18.836652
1349.000000	18.819318
1350.000000	18.801195
1351.000000	18.782755
1352.000000	18.762575
1353.000000	18.741063
1354.000000	18.723832
1355.000000	18.685830
1356.000000	18.646430
1357.000000	18.603632
1358.000000	18.558623
1359.000000	18.512078
1360.000000	18.468855
1361.000000	18.435050
1362.000000	18.404622
1363.000000	18.371787
1364.000000	18.335297
1365.000000	18.321620
1366.000000	18.305578
1367.000000	18.266472
1368.000000	18.227697
1369.000000	18.187235
1370.000000	18.140608
1371.000000	18.084810
1372.000000	18.020793
1373.000000	17.949955
1374.000000	17.869585
1375.000000	17.756988
1376.000000	17.639373
1377.000000	17.537900
1378.000000	17.426070
1379.000000	17.311412
1380.000000	17.196065
1381.000000	17.086270
1382.000000	16.985082
1383.000000	16.871825
1384.000000	16.765422
1385.000000	16.689560
1386.000000	16.622845
1387.000000	16.569752
1388.000000	16.533320
1389.000000	16.502862
1390.000000	16.474370
1391.000000	16.445473
1392.000000	16.419263
1393.000000	16.414950
1394.000000	16.415230
1395.000000	16.428293
1396.000000	16.445538
1397.000000	16.452578
1398.000000	16.448123
1399.000000	16.451475
1400.000000	16.467610
1401.000000	16.480395
1402.000000	16.480740
1403.000000	16.476890
1404.000000	16.475455
1405.000000	16.463805
1406.000000	16.446478
1407.000000	16.432125
1408.000000	16.425328
1409.000000	16.413380
1410.000000	16.388168
1411.000000	16.358505
1412.000000	16.332800
1413.000000	16.313275
1414.000000	16.291558
1415.000000	16.265287
1416.000000	16.235910
1417.000000	16.207817
1418.000000	16.180537
1419.000000	16.154167
1420.000000	16.127340
1421.000000	16.100192
1422.000000	16.077103
1423.000000	16.053645
1424.000000	16.026767
1425.000000	16.001183
1426.000000	15.979337
1427.000000	15.958475
1428.000000	15.936568
1429.000000	15.910327
1430.000000	15.887150
1431.000000	15.869995
1432.000000	15.852990
1433.000000	15.833755
1434.000000	15.815860
1435.000000	15.800107
1436.000000	15.784565
1437.000000	15.771387
1438.000000	15.757025
1439.000000	15.745070
1440.000000	15.733302
1441.000000	15.720208
1442.000000	15.706958
1443.000000	15.694445
1444.000000	15.682110
1445.000000	15.674710
1446.000000	15.666823
1447.000000	15.655570
1448.000000	15.643050
1449.000000	15.632307
1450.000000	15.624578
1451.000000	15.617027
1452.000000	15.607915
1453.000000	15.599393
1454.000000	15.590042
1455.000000	15.577065
1456.000000	15.566213
1457.000000	15.555587
1458.000000	15.546877
1459.000000	15.538138
1460.000000	15.526352
1461.000000	15.514343
1462.000000	15.504005
1463.000000	15.492795
1464.000000	15.483140
1465.000000	15.472663
1466.000000	15.462268
1467.000000	15.451373
1468.000000	15.439805
1469.000000	15.428275
1470.000000	15.419723
1471.000000	15.411055
1472.000000	15.403023
1473.000000	15.395908
1474.000000	15.386287
1475.000000	15.375592
1476.000000	15.364593
1477.000000	15.355275
1478.000000	15.322938
1479.000000	15.290635
1480.000000	15.256630
1481.000000	15.223165
1482.000000	15.188790
1483.000000	15.154743
1484.000000	15.122020
1485.000000	15.091318
1486.000000	15.060762
1487.000000	15.030185
1488.000000	15.022697
1489.000000	15.014937
1490.000000	15.006315
1491.000000	14.997855
1492.000000	14.990822
1493.000000	14.984193
1494.000000	14.978280
1495.000000	14.972472
1496.000000	14.967195
1497.000000	14.962560
1498.000000	14.960123
1499.000000	14.958598
1500.000000	14.958838
1501.000000	14.959190
1502.000000	14.959803
1503.000000	14.962105
1504.000000	14.966370
1505.000000	14.971170
1506.000000	14.976945
1507.000000	14.983580
1508.000000	14.990615
1509.000000	14.997137
1510.000000	15.028807
1511.000000	15.061443
1512.000000	15.095140
1513.000000	15.128480
1514.000000	15.161452
1515.000000	15.195443
1516.000000	15.229155
1517.000000	15.263092
1518.000000	15.297590
1519.000000	15.333070
1520.000000	15.343330
1521.000000	15.354195
1522.000000	15.365118
1523.000000	15.374842
1524.000000	15.384945
1525.000000	15.395383
1526.000000	15.405460
1527.000000	15.415480
1528.000000	15.424808
1529.000000	15.434410
1530.000000	15.444298
1531.000000	15.452785
1532.000000	15.459935
1533.000000	15.468165
1534.000000	15.475820
1535.000000	15.482238
1536.000000	15.489470
1537.000000	15.496697
1538.000000	15.502885
1539.000000	15.508513
1540.000000	15.513557
1541.000000	15.518575
1542.000000	15.523978
1543.000000	15.528462
1544.000000	15.533357
1545.000000	15.538170
1546.000000	15.542292
1547.000000	15.546425
1548.000000	15.551690
1549.000000	15.556815
1550.000000	15.562212
1551.000000	15.568630
1552.000000	15.575332
1553.000000	15.582048
1554.000000	15.587633
1555.000000	15.593697
1556.000000	15.600297
1557.000000	15.605920
1558.000000	15.610585
1559.000000	15.615780
1560.000000	15.620935
1561.000000	15.624697
1562.000000	15.626965
1563.000000	15.629295
1564.000000	15.632157
1565.000000	15.634553
1566.000000	15.635695
1567.000000	15.636595
1568.000000	15.637447
1569.000000	15.637053
1570.000000	15.635605
1571.000000	15.634815
1572.000000	15.634773
1573.000000	15.633938
1574.000000	15.632897
1575.000000	15.632170
1576.000000	15.631250
1577.000000	15.630377
1578.000000	15.629375
1579.000000	15.629017
1580.000000	15.630175
1581.000000	15.631002
1582.000000	15.632315
1583.000000	15.634410
1584.000000	15.636190
1585.000000	15.637820
1586.000000	15.640158
1587.000000	15.643392
1588.000000	15.646467
1589.000000	15.649928
1590.000000	15.652838
1591.000000	15.655787
1592.000000	15.659140
1593.000000	15.662537
1594.000000	15.666123
1595.000000	15.669957
1596.000000	15.674392
1597.000000	15.679385
1598.000000	15.685253
1599.000000	15.690310
1600.000000	15.695333
1601.000000	15.701125
1602.000000	15.706988
1603.000000	15.713325
1604.000000	15.720297
1605.000000	15.726613
1606.000000	15.731720
1607.000000	15.736770
1608.000000	15.741825
1609.000000	15.747803
1610.000000	15.753932
1611.000000	15.759242
1612.000000	15.764580
1613.000000	15.769430
1614.000000	15.773220
1615.000000	15.777672
1616.000000	15.783482
1617.000000	15.788143
1618.000000	15.792295
1619.000000	15.795497
1620.000000	15.798003
1621.000000	15.799952
1622.000000	15.801067
1623.000000	15.801360
1624.000000	15.801913
1625.000000	15.801945
1626.000000	15.802015
1627.000000	15.803025
1628.000000	15.804310
1629.000000	15.805797
1630.000000	15.808340
1631.000000	15.810892
1632.000000	15.813325
1633.000000	15.816977
1634.000000	15.820112
1635.000000	15.822833
1636.000000	15.824872
1637.000000	15.826315
1638.000000	15.827315
1639.000000	15.829148
1640.000000	15.830110
1641.000000	15.806310
1642.000000	15.783813
1643.000000	15.760293
1644.000000	15.738058
1645.000000	15.716530
1646.000000	15.694828
1647.000000	15.672795
1648.000000	15.651198
1649.000000	15.628335
1650.000000	15.604328
1651.000000	15.580583
1652.000000	15.554907
1653.000000	15.528862
1654.000000	15.500620
1655.000000	15.470795
1656.000000	15.439772
1657.000000	15.407272
1658.000000	15.372585
1659.000000	15.338273
1660.000000	15.302485
1661.000000	15.290203
1662.000000	15.277252
1663.000000	15.264382
1664.000000	15.251253
1665.000000	15.237010
1666.000000	15.221573
1667.000000	15.206725
1668.000000	15.187770
1669.000000	15.166033
1670.000000	15.143955
1671.000000	15.121315
1672.000000	15.097627
1673.000000	15.072663
1674.000000	15.047802
1675.000000	15.022420
1676.000000	14.995482
1677.000000	14.967788
1678.000000	14.943920
1679.000000	14.919245
1680.000000	14.894310
1681.000000	14.868383
1682.000000	14.842820
1683.000000	14.816482
1684.000000	14.788637
1685.000000	14.761475
1686.000000	14.735555
1687.000000	14.710700
1688.000000	14.687185
1689.000000	14.667255
1690.000000	14.652147
1691.000000	14.640785
1692.000000	14.631728
1693.000000	14.625055
1694.000000	14.622823
1695.000000	14.623737
1696.000000	14.626172
1697.000000	14.628750
1698.000000	14.632917
1699.000000	14.636527
1700.000000	14.639203
1701.000000	14.641448
1702.000000	14.643045
1703.000000	14.644065
1704.000000	14.643560
1705.000000	14.641938
1706.000000	14.639408
1707.000000	14.636515
1708.000000	14.631435
1709.000000	14.625765
1710.000000	14.617417
1711.000000	14.607265
1712.000000	14.594853
1713.000000	14.580265
1714.000000	14.564988
1715.000000	14.546120
1716.000000	14.526067
1717.000000	14.503915
1718.000000	14.480567
1719.000000	14.455163
1720.000000	14.429757
1721.000000	14.404008
1722.000000	14.380092
1723.000000	14.357962
1724.000000	14.337470
1725.000000	14.319560
1726.000000	14.305385
1727.000000	14.294728
1728.000000	14.286000
1729.000000	14.281215
1730.000000	14.279285
1731.000000	14.280703
1732.000000	14.283168
1733.000000	14.287550
1734.000000	14.292607
1735.000000	14.298630
1736.000000	14.304407
1737.000000	14.311800
1738.000000	14.321523
1739.000000	14.331395
1740.000000	14.341218
1741.000000	14.350782
1742.000000	14.361380
1743.000000	14.372323
1744.000000	14.382882
1745.000000	14.394398
1746.000000	14.406315
1747.000000	14.417015
1748.000000	14.426455
1749.000000	14.435912
1750.000000	14.444703
1751.000000	14.452685
1752.000000	14.459280
1753.000000	14.489792
1754.000000	14.519710
1755.000000	14.549455
1756.000000	14.578145
1757.000000	14.606020
1758.000000	14.634342
1759.000000	14.660507
1760.000000	14.687082
1761.000000	14.714328
1762.000000	14.741545
1763.000000	14.744180
1764.000000	14.746785
1765.000000	14.748550
1766.000000	14.751610
1767.000000	14.755388
1768.000000	14.758240
1769.000000	14.763462
1770.000000	14.768855
1771.000000	14.774447
1772.000000	14.781225
1773.000000	14.787593
1774.000000	14.793960
1775.000000	14.801080
1776.000000	14.807980
1777.000000	14.814585
1778.000000	14.822415
1779.000000	14.830203
1780.000000	14.837395
1781.000000	14.843620
1782.000000	14.849010
1783.000000	14.854380
1784.000000	14.860012
1785.000000	14.864813
1786.000000	14.868405
1787.000000	14.871197
1788.000000	14.873160
1789.000000	14.873880
1790.000000	14.874073
1791.000000	14.873893
1792.000000	14.873637
1793.000000	14.873623
1794.000000	14.873372
1795.000000	14.873785
1796.000000	14.874195
1797.000000	14.874968
1798.000000	14.874182
1799.000000	14.873803
1800.000000	14.875148
1801.000000	14.877670
1802.000000	14.880613
1803.000000	14.881425
1804.000000	14.881160
1805.000000	14.881820
1806.000000	14.884325
1807.000000	14.886805
1808.000000	14.888155
1809.000000	14.886870
1810.000000	14.884875
1811.000000	14.884760
1812.000000	14.884260
1813.000000	14.883855
1814.000000	14.884728
1815.000000	14.885318
1816.000000	14.883038
1817.000000	14.876253
1818.000000	14.867852
1819.000000	14.864863
1820.000000	14.869650
1821.000000	14.878362
1822.000000	14.885030
1823.000000	14.885493
1824.000000	14.879587
1825.000000	14.871398
1826.000000	14.866823
1827.000000	14.868630
1828.000000	14.875193
1829.000000	14.880835
1830.000000	14.881447
1831.000000	14.874610
1832.000000	14.864795
1833.000000	14.857458
1834.000000	14.853597
1835.000000	14.878075
1836.000000	14.905290
1837.000000	14.933800
1838.000000	14.961168
1839.000000	14.987070
1840.000000	15.013925
1841.000000	15.050242
1842.000000	15.092655
1843.000000	15.132030
1844.000000	15.160193
1845.000000	15.151905
1846.000000	15.143768
1847.000000	15.147870
1848.000000	15.164660
1849.000000	15.179705
1850.000000	15.180038
1851.000000	15.162762
1852.000000	15.142882
1853.000000	15.133805
1854.000000	15.141740
1855.000000	15.158812
1856.000000	15.164997
1857.000000	15.152115
1858.000000	15.130017
1859.000000	15.113872
1860.000000	15.109985
1861.000000	15.114988
1862.000000	15.117160
1863.000000	15.108790
1864.000000	15.063888
1865.000000	15.037060
1866.000000	14.984843
1867.000000	14.932555
1868.000000	14.875055
1869.000000	14.817118
1870.000000	14.763595
1871.000000	14.712375
1872.000000	14.668867
1873.000000	14.635515
1874.000000	14.633287
1875.000000	14.611635
1876.000000	14.616927
1877.000000	14.622135
1878.000000	14.623505
1879.000000	14.612070
1880.000000	14.585063
1881.000000	14.524133
1882.000000	14.455313
1883.000000	14.382067
1884.000000	14.307577
1885.000000	14.230555
1886.000000	14.148962
1887.000000	14.060180
1888.000000	13.968523
1889.000000	13.878717
1890.000000	13.768265
1891.000000	13.686457
1892.000000	13.605590
1893.000000	13.518705
1894.000000	13.423813
1895.000000	13.318347
1896.000000	13.208667
1897.000000	13.075712
1898.000000	12.947978
1899.000000	12.824800
1900.000000	12.725820
1901.000000	12.621060
1902.000000	12.510158
1903.000000	12.400617
1904.000000	12.274505
1905.000000	12.188530
1906.000000	12.087582
1907.000000	12.016417
1908.000000	11.939628
1909.000000	11.853732
1910.000000	11.765065
1911.000000	11.681043
1912.000000	11.607382
1913.000000	11.542993
1914.000000	11.505475
1915.000000	11.412138
1916.000000	11.363890
1917.000000	11.287318
1918.000000	11.240480
1919.000000	11.179728
1920.000000	11.128830
1921.000000	11.083045
1922.000000	11.036220
1923.000000	10.984193
1924.000000	10.927175
1925.000000	10.897293
1926.000000	10.850140
1927.000000	10.836947
1928.000000	10.803757
1929.000000	10.795093
1930.000000	10.786345
1931.000000	10.774733
1932.000000	10.761093
1933.000000	10.750367
1934.000000	10.743898
1935.000000	10.739085
1936.000000	10.734385
1937.000000	10.729310
1938.000000	10.726380
1939.000000	10.726902
1940.000000	10.725990
1941.000000	10.725523
1942.000000	10.727773
1943.000000	10.731210
1944.000000	10.736305
1945.000000	10.743805
1946.000000	10.753027
1947.000000	10.762460
1948.000000	10.769258
1949.000000	10.774423
1950.000000	10.780970
1951.000000	10.789058
1952.000000	10.798168
1953.000000	10.807512
1954.000000	10.819520
1955.000000	10.831632
1956.000000	10.841608
1957.000000	10.852428
1958.000000	10.864307
1959.000000	10.874878
1960.000000	10.885607
1961.000000	10.896762
1962.000000	10.908027
1963.000000	10.944682
1964.000000	10.979857
1965.000000	11.015467
1966.000000	11.051050
1967.000000	11.085215
1968.000000	11.118885
1969.000000	11.154193
1970.000000	11.188868
1971.000000	11.224203
1972.000000	11.258670
1973.000000	11.268043
1974.000000	11.276483
1975.000000	11.284242
1976.000000	11.293038
1977.000000	11.301625
1978.000000	11.311315
1979.000000	11.318890
1980.000000	11.327105
1981.000000	11.335470
1982.000000	11.344028
1983.000000	11.351757
1984.000000	11.359167
1985.000000	11.366383
1986.000000	11.373563
1987.000000	11.382205
1988.000000	11.389295
1989.000000	11.423085
1990.000000	11.455490
1991.000000	11.486383
1992.000000	11.517105
1993.000000	11.548280
1994.000000	11.579488
1995.000000	11.610250
1996.000000	11.641742
1997.000000	11.672420
1998.000000	11.704060
1999.000000	11.709967
2000.000000	11.715800
2001.000000	11.722217
2002.000000	11.729410
2003.000000	11.736965
2004.000000	11.744900
2005.000000	11.753267
2006.000000	11.761083
2007.000000	11.768525
2008.000000	11.774922
2009.000000	11.780373
2010.000000	11.785990
2011.000000	11.790398
2012.000000	11.793072
2013.000000	11.795790
2014.000000	11.797287
2015.000000	11.797028
2016.000000	11.795625
2017.000000	11.793427
2018.000000	11.790558
2019.000000	11.788172
2020.000000	11.783812
2021.000000	11.779423
2022.000000	11.774198
2023.000000	11.766410
2024.000000	11.758140
2025.000000	11.749462
2026.000000	11.740023
2027.000000	11.729820
2028.000000	11.719047
2029.000000	11.706355
2030.000000	11.694558
2031.000000	11.680330
2032.000000	11.665585
2033.000000	11.650448
2034.000000	11.634620
2035.000000	11.618880
2036.000000	11.601592
2037.000000	11.583993
2038.000000	11.564220
2039.000000	11.543700
2040.000000	11.522672
2041.000000	11.502540
2042.000000	11.481735
2043.000000	11.460598
2044.000000	11.439978
2045.000000	11.419060
2046.000000	11.397428
2047.000000	11.375792
2048.000000	11.356638
2049.000000	11.338820
2050.000000	11.296503
2051.000000	11.256082
2052.000000	11.216262
2053.000000	11.203265
2054.000000	11.166258
2055.000000	11.156892
2056.000000	11.151615
2057.000000	11.147475
2058.000000	11.145613
2059.000000	11.145558
2060.000000	11.172607
2061.000000	11.201458
2062.000000	11.233495
2063.000000	11.241700
2064.000000	11.276332
2065.000000	11.285923
2066.000000	11.295217
2067.000000	11.307067
2068.000000	11.318738
2069.000000	11.330327
2070.000000	11.341468
2071.000000	11.352012
2072.000000	11.362280
2073.000000	11.372387
2074.000000	11.381895
2075.000000	11.390897
2076.000000	11.400125
2077.000000	11.407642
2078.000000	11.414595
2079.000000	11.421540
2080.000000	11.427500
2081.000000	11.433075
2082.000000	11.437807
2083.000000	11.440653
2084.000000	11.443007
2085.000000	11.445842
2086.000000	11.447740
2087.000000	11.448783
2088.000000	11.449223
2089.000000	11.448567
2090.000000	11.447798
2091.000000	11.445733
2092.000000	11.442870
2093.000000	11.441352
2094.000000	11.439613
2095.000000	11.436215
2096.000000	11.432847
2097.000000	11.430162
2098.000000	11.426940
2099.000000	11.423290
2100.000000	11.420000
2101.000000	11.417240
2102.000000	11.414093
2103.000000	11.409490
2104.000000	11.404475
2105.000000	11.399300
2106.000000	11.394045
2107.000000	11.388500
2108.000000	11.382917
2109.000000	11.377738
2110.000000	11.371337
2111.000000	11.363645
2112.000000	11.355707
2113.000000	11.349028
2114.000000	11.317538
2115.000000	11.310975
2116.000000	11.303948
2117.000000	11.271050
2118.000000	11.237855
2119.000000	11.204762
2120.000000	11.171978
2121.000000	11.139510
2122.000000	11.106920
2123.000000	11.073955
2124.000000	11.065752
2125.000000	11.031910
2126.000000	10.998468
2127.000000	10.989732
2128.000000	10.980060
2129.000000	10.970070
2130.000000	10.960225
2131.000000	10.924948
2132.000000	10.889468
2133.000000	10.852655
2134.000000	10.839752
2135.000000	10.802702
2136.000000	10.789725
2137.000000	10.776663
2138.000000	10.764048
2139.000000	10.750297
2140.000000	10.735682
2141.000000	10.745127
2142.000000	10.754460
2143.000000	10.763208
2144.000000	10.746897
2145.000000	10.755600
2146.000000	10.713377
2147.000000	10.671345
2148.000000	10.628863
2149.000000	10.610820
2150.000000	10.593097
2151.000000	10.576570
2152.000000	10.559590
2153.000000	10.518625
2154.000000	10.503507
2155.000000	10.487443
2156.000000	10.497277
2157.000000	10.506957
2158.000000	10.492720
2159.000000	10.454802
2160.000000	10.417747
2161.000000	10.380788
2162.000000	10.344468
2163.000000	10.332907
2164.000000	10.297335
2165.000000	10.262237
2166.000000	10.227488
2167.000000	10.192308
2168.000000	10.181580
2169.000000	10.171313
2170.000000	10.160168
2171.000000	10.124837
2172.000000	10.113902
2173.000000	10.079360
2174.000000	10.069195
2175.000000	10.058708
2176.000000	10.048222
2177.000000	10.038028
2178.000000	10.002802
2179.000000	9.966933
2180.000000	9.930843
2181.000000	9.919090
2182.000000	9.881837
2183.000000	9.867047
2184.000000	9.825895
2185.000000	9.759983
2186.000000	9.716928
2187.000000	9.671795
2188.000000	9.623585
2189.000000	9.573358
2190.000000	9.520188
2191.000000	9.464055
2192.000000	9.405090
2193.000000	9.345018
2194.000000	9.255878
2195.000000	9.188078
2196.000000	9.092497
2197.000000	8.994125
2198.000000	8.920020
2199.000000	8.818700
2200.000000	8.717970
2201.000000	8.616173
2202.000000	8.515950
2203.000000	8.416110
2204.000000	8.344247
2205.000000	8.274167
2206.000000	8.183670
2207.000000	8.098688
2208.000000	8.017700
2209.000000	7.967268
2210.000000	7.920702
2211.000000	7.880665
2212.000000	7.844545
2213.000000	7.813370
2214.000000	7.786952
2215.000000	7.766253
2216.000000	7.773810
2217.000000	7.784387
2218.000000	7.798188
2219.000000	7.814798
2220.000000	7.833502
2221.000000	7.851732
2222.000000	7.871245
2223.000000	7.890922
2224.000000	7.910020
2225.000000	7.929082
2226.000000	7.948390
2227.000000	7.966735
2228.000000	7.982890
2229.000000	7.997425
2230.000000	8.010000
2231.000000	8.023373
2232.000000	8.035872
2233.000000	8.045822
2234.000000	8.053750
2235.000000	8.060025
2236.000000	8.065152
2237.000000	8.067868
2238.000000	8.069123
2239.000000	8.070625
2240.000000	8.071660
2241.000000	8.069840
2242.000000	8.066433
2243.000000	8.063220
2244.000000	8.060137
2245.000000	8.054965
2246.000000	8.048852
2247.000000	8.041622
2248.000000	8.035847
2249.000000	8.002858
2250.000000	7.995195
2251.000000	7.987550
2252.000000	7.979765
2253.000000	7.972092
2254.000000	7.965018
2255.000000	7.959043
2256.000000	7.952500
2257.000000	7.947930
2258.000000	7.944773
2259.000000	7.991865
2260.000000	8.013813
2261.000000	8.012775
2262.000000	8.038630
2263.000000	8.064855
2264.000000	8.091935
2265.000000	8.119597
2266.000000	8.148422
2267.000000	8.178422
2268.000000	8.208050
2269.000000	8.214135
2270.000000	8.221377
2271.000000	8.253585
2272.000000	8.261800
2273.000000	8.295198
2274.000000	8.329090
2275.000000	8.362777
2276.000000	8.397133
2277.000000	8.430850
2278.000000	8.464453
2279.000000	8.497373
2280.000000	8.530465
2281.000000	8.563358
2282.000000	8.619612
2283.000000	8.651240
2284.000000	8.657455
2285.000000	8.664875
2286.000000	8.671565
2287.000000	8.678240
2288.000000	8.684125
2289.000000	8.690632
2290.000000	8.695785
2291.000000	8.727320
2292.000000	8.733550
2293.000000	8.739650
2294.000000	8.770532
2295.000000	8.801847
2296.000000	8.832672
2297.000000	8.838615
2298.000000	8.870675
2299.000000	8.902965
2300.000000	8.935863
2301.000000	8.942705
2302.000000	8.950658
2303.000000	8.983577
2304.000000	8.992667
2305.000000	9.000920
2306.000000	9.009767
2307.000000	9.043725
2308.000000	9.052790
2309.000000	9.086450
2310.000000	9.120990
2311.000000	9.155552
2312.000000	9.189640
2313.000000	9.199845
2314.000000	9.234258
2315.000000	9.267595
2316.000000	9.300645
2317.000000	9.334090
2318.000000	9.366390
2319.000000	9.372930
2320.000000	9.378580
2321.000000	9.383388
2322.000000	9.387137
2323.000000	9.389040
2324.000000	9.390290
2325.000000	9.391530
2326.000000	9.391785
2327.000000	9.415980
2328.000000	9.439688
2329.000000	9.463313
2330.000000	9.486960
2331.000000	9.510605
2332.000000	9.534325
2333.000000	9.558183
2334.000000	9.581438
2335.000000	9.605305
2336.000000	9.630377
2337.000000	9.630520
2338.000000	9.631533
2339.000000	9.632932
2340.000000	9.634265
2341.000000	9.635628
2342.000000	9.662565
2343.000000	9.690012
2344.000000	9.693587
2345.000000	9.697495
2346.000000	9.725388
2347.000000	9.753445
2348.000000	9.781525
2349.000000	9.810045
2350.000000	9.839200
2351.000000	9.843257
2352.000000	9.822200
2353.000000	9.825770
2354.000000	9.854355
2355.000000	9.882432
2356.000000	9.886152
2357.000000	9.915513
2358.000000	9.944678
2359.000000	9.973495
2360.000000	9.976778
2361.000000	10.004660
2362.000000	10.032155
2363.000000	10.035237
2364.000000	10.037738
2365.000000	10.039560
2366.000000	10.066360
2367.000000	10.068135
2368.000000	10.069812
2369.000000	10.070913
2370.000000	10.096737
2371.000000	10.123215
2372.000000	10.150308
2373.000000	10.176890
2374.000000	10.177937
2375.000000	10.204708
2376.000000	10.206608
2377.000000	10.207987
2378.000000	10.184258
2379.000000	10.185465
2380.000000	10.185867
2381.000000	10.185892
2382.000000	10.185570
2383.000000	10.209900
2384.000000	10.259818
2385.000000	10.259272
2386.000000	10.256665
2387.000000	10.278317
2388.000000	10.300563
2389.000000	10.322760
2390.000000	10.344735
2391.000000	10.342035
2392.000000	10.363407
2393.000000	10.358960
2394.000000	10.354080
2395.000000	10.373615
2396.000000	10.368905
2397.000000	10.339775
2398.000000	10.334518
2399.000000	10.303235
2400.000000	10.296160
2401.000000	10.313310
2402.000000	10.306160
2403.000000	10.299460
2404.000000	10.291588
2405.000000	10.258192
2406.000000	10.249673
2407.000000	10.265688
2408.000000	10.281057
2409.000000	10.271675
2410.000000	10.262332
2411.000000	10.227638
2412.000000	10.216540
2413.000000	10.205187
2414.000000	10.194440
2415.000000	10.208665
2416.000000	10.246833
2417.000000	10.233282
2418.000000	10.218572
2419.000000	10.228158
2420.000000	10.212968
2421.000000	10.221915
2422.000000	10.205690
2423.000000	10.188813
2424.000000	10.146408
2425.000000	10.102695
2426.000000	10.033748
2427.000000	9.990375
2428.000000	9.972807
2429.000000	9.980030
2430.000000	9.961837
2431.000000	9.968765
2432.000000	9.951072
2433.000000	9.907810
2434.000000	9.939738
2435.000000	9.948192
2436.000000	9.957415
2437.000000	9.941315
2438.000000	9.924970
2439.000000	9.908055
2440.000000	9.916372
2441.000000	9.900207
2442.000000	9.908255
2443.000000	9.967450
2444.000000	9.975867
2445.000000	10.007828
2446.000000	9.989752
2447.000000	10.022417
2448.000000	10.056115
2449.000000	10.064893
2450.000000	10.073562
2451.000000	10.082035
2452.000000	10.091865
2453.000000	10.076705
2454.000000	10.062480
2455.000000	10.098685
2456.000000	10.134485
2457.000000	10.144885
2458.000000	10.179230
2459.000000	10.215305
2460.000000	10.251195
2461.000000	10.312300
2462.000000	10.397750
2463.000000	10.482565
2464.000000	10.544210
2465.000000	10.556632
2466.000000	10.592990
2467.000000	10.706022
2468.000000	10.794353
2469.000000	10.856625
2470.000000	10.922262
2471.000000	10.987568
2472.000000	11.028870
2473.000000	11.146105
2474.000000	11.261087
2475.000000	11.404925
2476.000000	11.625600
2477.000000	11.745605
2478.000000	11.840180
2479.000000	12.014985
2480.000000	12.185425
2481.000000	12.382860
2482.000000	12.530058
2483.000000	12.626130
2484.000000	12.701448
2485.000000	12.848800
2486.000000	12.870485
2487.000000	12.991890
2488.000000	13.115822
2489.000000	13.190318
2490.000000	13.290775
2491.000000	13.364560
2492.000000	13.543270
2493.000000	13.672072
2494.000000	13.921905
2495.000000	14.100103
2496.000000	14.401273
2497.000000	14.609480
2498.000000	14.738975
2499.000000	14.920415
2500.000000	15.149912
