PE UV       SUBTECH     SPECTRUM    ASCII       PEDS        4.00        
   -1
INBUCR0234-4.Sample.ASC
24/02/08
15:03:51.00
24/02/08
15:03:51.00
Vinicio Soto Monge
COSTA RICA, Prov. Guanacaste, A.C.G. La Cruz, Parque Nacional Guanacaste, Est. Biol Maritza, 600-700 m. 1 JUN 1987. Janzen de Luz L_N_326900_374200 #52560 INB0003028187 INBIOCRI COSTA RICA C. bruyeai Det: A. Solís Falta élitro Izq.
250,000000
1
Lambda 1050
1050L1511233
PerkinElmer UV WinLab 6.3.2.0749 / 2.02.05 Lambda 900 UV/VIS/NIR, Aug  7 2015 09:38:08

0
0
3350/servo 860,8/2
0
0
UV/VIS
1
1
1
DoubleDePol,CommonBeamDepol,RBeamAtt,SBeamAtt,60mm sphere, WB InGaAs Detector
0
0
0
0
Program
Program
3350/servo 860,8/2
3350/0,2 860,8/0,2
3350/0,2 860,8/0,2
0
15.00
 
 
 
0
 
860,8
319,2
860,8
Front
100
on
S:100 R:100
0
0
0
0
 
0
 
 
 
0
 
 
0
0
0
0
0
 
 
 
 
0
0


0
0
#HDR
-1
-1
#GR
nm
%R
1.0
0.0
2500,000000
-1,000000
2251
8
10,347000
0,796900
#DATA

250.000000	nan
251.000000	nan
252.000000	nan
253.000000	nan
254.000000	nan
255.000000	nan
256.000000	nan
257.000000	nan
258.000000	nan
259.000000	2.942214
260.000000	2.939274
261.000000	2.937403
262.000000	2.936749
263.000000	2.932959
264.000000	2.928056
265.000000	2.923604
266.000000	2.920768
267.000000	2.916883
268.000000	2.911118
269.000000	2.904554
270.000000	2.899149
271.000000	2.894562
272.000000	2.888219
273.000000	2.884519
274.000000	2.879444
275.000000	2.875786
276.000000	2.871704
277.000000	2.868216
278.000000	2.865345
279.000000	2.863479
280.000000	2.860282
281.000000	2.856622
282.000000	2.852219
283.000000	2.850722
284.000000	2.850463
285.000000	2.847450
286.000000	2.847002
287.000000	2.846284
288.000000	2.846686
289.000000	2.842285
290.000000	2.839731
291.000000	2.838806
292.000000	2.839173
293.000000	2.838799
294.000000	2.839582
295.000000	2.844094
296.000000	2.846350
297.000000	2.846427
298.000000	2.849335
299.000000	2.853060
300.000000	2.855045
301.000000	2.856844
302.000000	2.860868
303.000000	2.863724
304.000000	2.868627
305.000000	2.871434
306.000000	2.879944
307.000000	2.889782
308.000000	2.899825
309.000000	2.915330
310.000000	2.933135
311.000000	2.954697
312.000000	2.978738
313.000000	3.005083
314.000000	3.035159
315.000000	3.069617
316.000000	3.106597
317.000000	3.188545
318.000000	3.259836
319.000000	3.334595
320.000000	3.405711
321.000000	3.483190
322.000000	3.555441
323.000000	3.623385
324.000000	3.682620
325.000000	3.736347
326.000000	3.789675
327.000000	3.789749
328.000000	3.801205
329.000000	3.808171
330.000000	3.817939
331.000000	3.815047
332.000000	3.818358
333.000000	3.823325
334.000000	3.826016
335.000000	3.835476
336.000000	3.836708
337.000000	3.852573
338.000000	3.868147
339.000000	3.885458
340.000000	3.900169
341.000000	3.913754
342.000000	3.922155
343.000000	3.933588
344.000000	3.951155
345.000000	3.964633
346.000000	3.981476
347.000000	3.989625
348.000000	4.001471
349.000000	4.010344
350.000000	4.020865
351.000000	4.037264
352.000000	4.056036
353.000000	4.071430
354.000000	4.085010
355.000000	4.104043
356.000000	4.124244
357.000000	4.147703
358.000000	4.165749
359.000000	4.189399
360.000000	4.214251
361.000000	4.237173
362.000000	4.260416
363.000000	4.287242
364.000000	4.316698
365.000000	4.343736
366.000000	4.370171
367.000000	4.403358
368.000000	4.435771
369.000000	4.466188
370.000000	4.493135
371.000000	4.523583
372.000000	4.557129
373.000000	4.588503
374.000000	4.617032
375.000000	4.647165
376.000000	4.685526
377.000000	4.706370
378.000000	4.732280
379.000000	4.758818
380.000000	4.792720
381.000000	4.828138
382.000000	4.864743
383.000000	4.904319
384.000000	4.951094
385.000000	4.998024
386.000000	5.039126
387.000000	5.097064
388.000000	5.155190
389.000000	5.214487
390.000000	5.273923
391.000000	5.333624
392.000000	5.393530
393.000000	5.454756
394.000000	5.515754
395.000000	5.577020
396.000000	5.638535
397.000000	5.700227
398.000000	5.762306
399.000000	5.823248
400.000000	5.883579
401.000000	5.943785
402.000000	6.003087
403.000000	6.061571
404.000000	6.119255
405.000000	6.176293
406.000000	6.232214
407.000000	6.286624
408.000000	6.339324
409.000000	6.392079
410.000000	6.444298
411.000000	6.495170
412.000000	6.546180
413.000000	6.595929
414.000000	6.644361
415.000000	6.691922
416.000000	6.739019
417.000000	6.784666
418.000000	6.829529
419.000000	6.873516
420.000000	6.916752
421.000000	6.958961
422.000000	6.999300
423.000000	7.038452
424.000000	7.077062
425.000000	7.114807
426.000000	7.151101
427.000000	7.187111
428.000000	7.222452
429.000000	7.256056
430.000000	7.287794
431.000000	7.318637
432.000000	7.348861
433.000000	7.378388
434.000000	7.406936
435.000000	7.434050
436.000000	7.460237
437.000000	7.485196
438.000000	7.509423
439.000000	7.533271
440.000000	7.556784
441.000000	7.579413
442.000000	7.601138
443.000000	7.622044
444.000000	7.641588
445.000000	7.660364
446.000000	7.678644
447.000000	7.696424
448.000000	7.713646
449.000000	7.730658
450.000000	7.746938
451.000000	7.762081
452.000000	7.776738
453.000000	7.791100
454.000000	7.805967
455.000000	7.820640
456.000000	7.834632
457.000000	7.848574
458.000000	7.862321
459.000000	7.875398
460.000000	7.888702
461.000000	7.903125
462.000000	7.918031
463.000000	7.933965
464.000000	7.950349
465.000000	7.967685
466.000000	7.986568
467.000000	8.006750
468.000000	8.028464
469.000000	8.051734
470.000000	8.076495
471.000000	8.102911
472.000000	8.131564
473.000000	8.161704
474.000000	8.193904
475.000000	8.228803
476.000000	8.266389
477.000000	8.306710
478.000000	8.349950
479.000000	8.396894
480.000000	8.446751
481.000000	8.498547
482.000000	8.553297
483.000000	8.612320
484.000000	8.676372
485.000000	8.745282
486.000000	8.819244
487.000000	8.898391
488.000000	8.983224
489.000000	9.073975
490.000000	9.170492
491.000000	9.274344
492.000000	9.384876
493.000000	9.501873
494.000000	9.625098
495.000000	9.753794
496.000000	9.887611
497.000000	10.026958
498.000000	10.171711
499.000000	10.322281
500.000000	10.478960
501.000000	10.642685
502.000000	10.812323
503.000000	10.986585
504.000000	11.165591
505.000000	11.350450
506.000000	11.540729
507.000000	11.736128
508.000000	11.935425
509.000000	12.138531
510.000000	12.345593
511.000000	12.554179
512.000000	12.765323
513.000000	12.979169
514.000000	13.194908
515.000000	13.411066
516.000000	13.627323
517.000000	13.844316
518.000000	14.061772
519.000000	14.278098
520.000000	14.494096
521.000000	14.709017
522.000000	14.923107
523.000000	15.135487
524.000000	15.345325
525.000000	15.553470
526.000000	15.759330
527.000000	15.961072
528.000000	16.159122
529.000000	16.353736
530.000000	16.543971
531.000000	16.728961
532.000000	16.907223
533.000000	17.079291
534.000000	17.245649
535.000000	17.405524
536.000000	17.558891
537.000000	17.706137
538.000000	17.846827
539.000000	17.981086
540.000000	18.108467
541.000000	18.230571
542.000000	18.347695
543.000000	18.461249
544.000000	18.569885
545.000000	18.674439
546.000000	18.775102
547.000000	18.872186
548.000000	18.965819
549.000000	19.056813
550.000000	19.144551
551.000000	19.229271
552.000000	19.310140
553.000000	19.385781
554.000000	19.457993
555.000000	19.524993
556.000000	19.588331
557.000000	19.645692
558.000000	19.696876
559.000000	19.740872
560.000000	19.771933
561.000000	19.794388
562.000000	19.809088
563.000000	19.816100
564.000000	19.813626
565.000000	19.802453
566.000000	19.780280
567.000000	19.749691
568.000000	19.710334
569.000000	19.660091
570.000000	19.606130
571.000000	19.544265
572.000000	19.472030
573.000000	19.389933
574.000000	19.299428
575.000000	19.198516
576.000000	19.089859
577.000000	18.972305
578.000000	18.845837
579.000000	18.711448
580.000000	18.568812
581.000000	18.417576
582.000000	18.258860
583.000000	18.091980
584.000000	17.917093
585.000000	17.736403
586.000000	17.547478
587.000000	17.353000
588.000000	17.152339
589.000000	16.946534
590.000000	16.735743
591.000000	16.520740
592.000000	16.303815
593.000000	16.084689
594.000000	15.865423
595.000000	15.646055
596.000000	15.429110
597.000000	15.214169
598.000000	15.004737
599.000000	14.801987
600.000000	14.606304
601.000000	14.419847
602.000000	14.241061
603.000000	14.074300
604.000000	13.918428
605.000000	13.775487
606.000000	13.645423
607.000000	13.528218
608.000000	13.423538
609.000000	13.331002
610.000000	13.250341
611.000000	13.180526
612.000000	13.123000
613.000000	13.074631
614.000000	13.034941
615.000000	13.003290
616.000000	12.978302
617.000000	12.959050
618.000000	12.943776
619.000000	12.932749
620.000000	12.927506
621.000000	12.925046
622.000000	12.926117
623.000000	12.929011
624.000000	12.933872
625.000000	12.940800
626.000000	12.950621
627.000000	12.962205
628.000000	12.976691
629.000000	12.994334
630.000000	13.013001
631.000000	13.035570
632.000000	13.060075
633.000000	13.088544
634.000000	13.120560
635.000000	13.155262
636.000000	13.192524
637.000000	13.233328
638.000000	13.276508
639.000000	13.322368
640.000000	13.372346
641.000000	13.424829
642.000000	13.479955
643.000000	13.536857
644.000000	13.597068
645.000000	13.660200
646.000000	13.725190
647.000000	13.792618
648.000000	13.864346
649.000000	13.937713
650.000000	14.013208
651.000000	14.090828
652.000000	14.171642
653.000000	14.256515
654.000000	14.344705
655.000000	14.436293
656.000000	14.532107
657.000000	14.629669
658.000000	14.729316
659.000000	14.832909
660.000000	14.937938
661.000000	15.046318
662.000000	15.157692
663.000000	15.270123
664.000000	15.384157
665.000000	15.501413
666.000000	15.619705
667.000000	15.740608
668.000000	15.863510
669.000000	15.988161
670.000000	16.115470
671.000000	16.244873
672.000000	16.375459
673.000000	16.509944
674.000000	16.646010
675.000000	16.782420
676.000000	16.921820
677.000000	17.062223
678.000000	17.204038
679.000000	17.348018
680.000000	17.495562
681.000000	17.644517
682.000000	17.796483
683.000000	17.949997
684.000000	18.105473
685.000000	18.261947
686.000000	18.418488
687.000000	18.578152
688.000000	18.739538
689.000000	18.901102
690.000000	19.062398
691.000000	19.224081
692.000000	19.385166
693.000000	19.546369
694.000000	19.707418
695.000000	19.868735
696.000000	20.032301
697.000000	20.195861
698.000000	20.358516
699.000000	20.519977
700.000000	20.680621
701.000000	20.841416
702.000000	21.002195
703.000000	21.162171
704.000000	21.321621
705.000000	21.480192
706.000000	21.634950
707.000000	21.786498
708.000000	21.936577
709.000000	22.088610
710.000000	22.238667
711.000000	22.384573
712.000000	22.527212
713.000000	22.669871
714.000000	22.810258
715.000000	22.946596
716.000000	23.081682
717.000000	23.215558
718.000000	23.347564
719.000000	23.474225
720.000000	23.599037
721.000000	23.723675
722.000000	23.848393
723.000000	23.966312
724.000000	24.082264
725.000000	24.197842
726.000000	24.309995
727.000000	24.419723
728.000000	24.528101
729.000000	24.634688
730.000000	24.737399
731.000000	24.837892
732.000000	24.934028
733.000000	25.029289
734.000000	25.120481
735.000000	25.209965
736.000000	25.298693
737.000000	25.385537
738.000000	25.468860
739.000000	25.548200
740.000000	25.626280
741.000000	25.702406
742.000000	25.778174
743.000000	25.852018
744.000000	25.926354
745.000000	25.997081
746.000000	26.063427
747.000000	26.129102
748.000000	26.193327
749.000000	26.257176
750.000000	26.320904
751.000000	26.381588
752.000000	26.439038
753.000000	26.496643
754.000000	26.550195
755.000000	26.602162
756.000000	26.657402
757.000000	26.710641
758.000000	26.760689
759.000000	26.809502
760.000000	26.856651
761.000000	26.905584
762.000000	26.953841
763.000000	26.998794
764.000000	27.041919
765.000000	27.087395
766.000000	27.130042
767.000000	27.171024
768.000000	27.213591
769.000000	27.256991
770.000000	27.299903
771.000000	27.339075
772.000000	27.379762
773.000000	27.421524
774.000000	27.464402
775.000000	27.504992
776.000000	27.543623
777.000000	27.583120
778.000000	27.622246
779.000000	27.660121
780.000000	27.698021
781.000000	27.739019
782.000000	27.774623
783.000000	27.810548
784.000000	27.852059
785.000000	27.893495
786.000000	27.936696
787.000000	27.979411
788.000000	28.023581
789.000000	28.066872
790.000000	28.110566
791.000000	28.153231
792.000000	28.200381
793.000000	28.250708
794.000000	28.294727
795.000000	28.338338
796.000000	28.383488
797.000000	28.431036
798.000000	28.475923
799.000000	28.519852
800.000000	28.561714
801.000000	28.609217
802.000000	28.655636
803.000000	28.695629
804.000000	28.737451
805.000000	28.782583
806.000000	28.828222
807.000000	28.873443
808.000000	28.922684
809.000000	28.976189
810.000000	29.027672
811.000000	29.072129
812.000000	29.116875
813.000000	29.167729
814.000000	29.217689
815.000000	29.263901
816.000000	29.311009
817.000000	29.358190
818.000000	29.399414
819.000000	29.436834
820.000000	29.477513
821.000000	29.518619
822.000000	29.558748
823.000000	29.600245
824.000000	29.638277
825.000000	29.674100
826.000000	29.711334
827.000000	29.747486
828.000000	29.783477
829.000000	29.815624
830.000000	29.849287
831.000000	29.885071
832.000000	29.919227
833.000000	29.945527
834.000000	29.978913
835.000000	30.007796
836.000000	30.036702
837.000000	30.058108
838.000000	30.088196
839.000000	30.116074
840.000000	30.146750
841.000000	30.173966
842.000000	30.195590
843.000000	30.218587
844.000000	30.237797
845.000000	30.262392
846.000000	30.287304
847.000000	30.319409
848.000000	30.330741
849.000000	30.354838
850.000000	30.372325
851.000000	30.397058
852.000000	30.410210
853.000000	30.425010
854.000000	30.434586
855.000000	30.439569
856.000000	30.446505
857.000000	30.451616
858.000000	30.639620
859.000000	30.705521
860.000000	30.772269
861.000000	30.835113
862.000000	30.910832
863.000000	30.993162
864.000000	31.067710
865.000000	31.146350
866.000000	31.208642
867.000000	31.249135
868.000000	31.115188
869.000000	31.094303
870.000000	31.071907
871.000000	31.044885
872.000000	31.016675
873.000000	30.976510
874.000000	30.931293
875.000000	30.896508
876.000000	30.856255
877.000000	30.845180
878.000000	30.819835
879.000000	30.803043
880.000000	30.774387
881.000000	30.746048
882.000000	30.713805
883.000000	30.677530
884.000000	30.648130
885.000000	30.614225
886.000000	30.578122
887.000000	30.525508
888.000000	30.510528
889.000000	30.471615
890.000000	30.441488
891.000000	30.401912
892.000000	30.373590
893.000000	30.347535
894.000000	30.326805
895.000000	30.293577
896.000000	30.274042
897.000000	30.256827
898.000000	30.210520
899.000000	30.183875
900.000000	30.159465
901.000000	30.138243
902.000000	30.120570
903.000000	30.101095
904.000000	30.074480
905.000000	30.053883
906.000000	30.030845
907.000000	30.009495
908.000000	29.999677
909.000000	29.976475
910.000000	29.955918
911.000000	29.935380
912.000000	29.904847
913.000000	29.885303
914.000000	29.871633
915.000000	29.854640
916.000000	29.834710
917.000000	29.819623
918.000000	29.799862
919.000000	29.791722
920.000000	29.771367
921.000000	29.758762
922.000000	29.747577
923.000000	29.727905
924.000000	29.712562
925.000000	29.700633
926.000000	29.688898
927.000000	29.674500
928.000000	29.664248
929.000000	29.648428
930.000000	29.640748
931.000000	29.629678
932.000000	29.617045
933.000000	29.607927
934.000000	29.597228
935.000000	29.582805
936.000000	29.575805
937.000000	29.566455
938.000000	29.552980
939.000000	29.542880
940.000000	29.529895
941.000000	29.516240
942.000000	29.507275
943.000000	29.498207
944.000000	29.489648
945.000000	29.484925
946.000000	29.477812
947.000000	29.471763
948.000000	29.461750
949.000000	29.450730
950.000000	29.444273
951.000000	29.438795
952.000000	29.431752
953.000000	29.423748
954.000000	29.415205
955.000000	29.407115
956.000000	29.398838
957.000000	29.392712
958.000000	29.392835
959.000000	29.391157
960.000000	29.388330
961.000000	29.383688
962.000000	29.378615
963.000000	29.373230
964.000000	29.368360
965.000000	29.361390
966.000000	29.356060
967.000000	29.350002
968.000000	29.341565
969.000000	29.335910
970.000000	29.331680
971.000000	29.329863
972.000000	29.327065
973.000000	29.322545
974.000000	29.319495
975.000000	29.317517
976.000000	29.313160
977.000000	29.308175
978.000000	29.304105
979.000000	29.300158
980.000000	29.295638
981.000000	29.290087
982.000000	29.285402
983.000000	29.282555
984.000000	29.278472
985.000000	29.274378
986.000000	29.270927
987.000000	29.269497
988.000000	29.268960
989.000000	29.267435
990.000000	29.266605
991.000000	29.265800
992.000000	29.265490
993.000000	29.265257
994.000000	29.265467
995.000000	29.267312
996.000000	29.270253
997.000000	29.271707
998.000000	29.273197
999.000000	29.275255
1000.000000	29.276310
1001.000000	29.275983
1002.000000	29.274240
1003.000000	29.272970
1004.000000	29.271270
1005.000000	29.269250
1006.000000	29.266810
1007.000000	29.263842
1008.000000	29.260458
1009.000000	29.257383
1010.000000	29.255370
1011.000000	29.254955
1012.000000	29.256728
1013.000000	29.258680
1014.000000	29.261425
1015.000000	29.264160
1016.000000	29.265665
1017.000000	29.268495
1018.000000	29.272305
1019.000000	29.275620
1020.000000	29.277642
1021.000000	29.280085
1022.000000	29.283287
1023.000000	29.286315
1024.000000	29.290220
1025.000000	29.293030
1026.000000	29.296002
1027.000000	29.298938
1028.000000	29.302282
1029.000000	29.306375
1030.000000	29.312008
1031.000000	29.318217
1032.000000	29.324035
1033.000000	29.331038
1034.000000	29.336890
1035.000000	29.342970
1036.000000	29.350610
1037.000000	29.358368
1038.000000	29.365282
1039.000000	29.372340
1040.000000	29.378342
1041.000000	29.383685
1042.000000	29.389670
1043.000000	29.395018
1044.000000	29.401355
1045.000000	29.408803
1046.000000	29.414817
1047.000000	29.420583
1048.000000	29.427253
1049.000000	29.435065
1050.000000	29.443135
1051.000000	29.451830
1052.000000	29.460245
1053.000000	29.469477
1054.000000	29.478427
1055.000000	29.483907
1056.000000	29.489722
1057.000000	29.497757
1058.000000	29.505942
1059.000000	29.513953
1060.000000	29.522905
1061.000000	29.531605
1062.000000	29.540345
1063.000000	29.547773
1064.000000	29.555163
1065.000000	29.565503
1066.000000	29.575853
1067.000000	29.585015
1068.000000	29.594230
1069.000000	29.602705
1070.000000	29.611350
1071.000000	29.620895
1072.000000	29.630555
1073.000000	29.640875
1074.000000	29.650640
1075.000000	29.660205
1076.000000	29.669845
1077.000000	29.679048
1078.000000	29.688540
1079.000000	29.699490
1080.000000	29.710363
1081.000000	29.719893
1082.000000	29.728953
1083.000000	29.737385
1084.000000	29.746350
1085.000000	29.756410
1086.000000	29.768203
1087.000000	29.779103
1088.000000	29.789025
1089.000000	29.797082
1090.000000	29.804552
1091.000000	29.813725
1092.000000	29.822978
1093.000000	29.832715
1094.000000	29.842150
1095.000000	29.850518
1096.000000	29.857518
1097.000000	29.865147
1098.000000	29.873210
1099.000000	29.882885
1100.000000	29.892505
1101.000000	29.900907
1102.000000	29.908667
1103.000000	29.917293
1104.000000	29.926120
1105.000000	29.935310
1106.000000	29.944200
1107.000000	29.952903
1108.000000	29.962538
1109.000000	29.970660
1110.000000	29.978225
1111.000000	29.985825
1112.000000	29.993925
1113.000000	30.001310
1114.000000	30.006908
1115.000000	30.012072
1116.000000	30.017682
1117.000000	30.025310
1118.000000	30.031572
1119.000000	30.037498
1120.000000	30.041520
1121.000000	30.046295
1122.000000	30.049865
1123.000000	30.053433
1124.000000	30.057980
1125.000000	30.060203
1126.000000	30.061830
1127.000000	30.059700
1128.000000	30.057040
1129.000000	30.055242
1130.000000	30.052137
1131.000000	30.045808
1132.000000	30.037153
1133.000000	30.028278
1134.000000	30.022593
1135.000000	30.020198
1136.000000	30.014603
1137.000000	30.008007
1138.000000	29.999778
1139.000000	29.990050
1140.000000	29.981575
1141.000000	29.974600
1142.000000	29.968263
1143.000000	29.959212
1144.000000	29.947893
1145.000000	29.935480
1146.000000	29.925973
1147.000000	29.917278
1148.000000	29.908090
1149.000000	29.898792
1150.000000	29.889930
1151.000000	29.882148
1152.000000	29.875318
1153.000000	29.868257
1154.000000	29.858770
1155.000000	29.847102
1156.000000	29.834110
1157.000000	29.819768
1158.000000	29.806053
1159.000000	29.789915
1160.000000	29.774188
1161.000000	29.755305
1162.000000	29.734685
1163.000000	29.712693
1164.000000	29.689615
1165.000000	29.665280
1166.000000	29.641163
1167.000000	29.616093
1168.000000	29.590875
1169.000000	29.567980
1170.000000	29.543753
1171.000000	29.519635
1172.000000	29.497470
1173.000000	29.477153
1174.000000	29.459060
1175.000000	29.443473
1176.000000	29.428115
1177.000000	29.415845
1178.000000	29.403640
1179.000000	29.391368
1180.000000	29.380960
1181.000000	29.371970
1182.000000	29.363380
1183.000000	29.356802
1184.000000	29.351382
1185.000000	29.346818
1186.000000	29.344640
1187.000000	29.344662
1188.000000	29.344850
1189.000000	29.347570
1190.000000	29.353177
1191.000000	29.361075
1192.000000	29.371575
1193.000000	29.383085
1194.000000	29.396037
1195.000000	29.410945
1196.000000	29.426730
1197.000000	29.443095
1198.000000	29.463257
1199.000000	29.484052
1200.000000	29.504717
1201.000000	29.526073
1202.000000	29.547830
1203.000000	29.570647
1204.000000	29.593543
1205.000000	29.615860
1206.000000	29.637207
1207.000000	29.657890
1208.000000	29.679383
1209.000000	29.701178
1210.000000	29.722428
1211.000000	29.743583
1212.000000	29.765108
1213.000000	29.786145
1214.000000	29.806368
1215.000000	29.825510
1216.000000	29.846253
1217.000000	29.868348
1218.000000	29.887207
1219.000000	29.905087
1220.000000	29.922267
1221.000000	29.938027
1222.000000	29.951602
1223.000000	29.964578
1224.000000	29.977893
1225.000000	29.992532
1226.000000	30.004987
1227.000000	30.016143
1228.000000	30.028780
1229.000000	30.041135
1230.000000	30.053735
1231.000000	30.066545
1232.000000	30.080200
1233.000000	30.093955
1234.000000	30.107015
1235.000000	30.118535
1236.000000	30.130060
1237.000000	30.140842
1238.000000	30.152100
1239.000000	30.163272
1240.000000	30.174035
1241.000000	30.185322
1242.000000	30.196805
1243.000000	30.209165
1244.000000	30.222918
1245.000000	30.237070
1246.000000	30.252777
1247.000000	30.270045
1248.000000	30.287372
1249.000000	30.306105
1250.000000	30.326780
1251.000000	30.347143
1252.000000	30.367768
1253.000000	30.387662
1254.000000	30.407248
1255.000000	30.426873
1256.000000	30.444508
1257.000000	30.461245
1258.000000	30.477380
1259.000000	30.491463
1260.000000	30.504080
1261.000000	30.516927
1262.000000	30.528270
1263.000000	30.538305
1264.000000	30.546550
1265.000000	30.554872
1266.000000	30.563997
1267.000000	30.573067
1268.000000	30.581423
1269.000000	30.589143
1270.000000	30.595970
1271.000000	30.602640
1272.000000	30.609697
1273.000000	30.615903
1274.000000	30.622770
1275.000000	30.629150
1276.000000	30.635880
1277.000000	30.643248
1278.000000	30.650775
1279.000000	30.659535
1280.000000	30.669315
1281.000000	30.679713
1282.000000	30.690447
1283.000000	30.702015
1284.000000	30.713733
1285.000000	30.726977
1286.000000	30.740498
1287.000000	30.753235
1288.000000	30.766595
1289.000000	30.780490
1290.000000	30.793698
1291.000000	30.805660
1292.000000	30.817355
1293.000000	30.830642
1294.000000	30.844178
1295.000000	30.856335
1296.000000	30.868560
1297.000000	30.880987
1298.000000	30.892705
1299.000000	30.903535
1300.000000	30.913897
1301.000000	30.923967
1302.000000	30.933135
1303.000000	30.940580
1304.000000	30.947337
1305.000000	30.952760
1306.000000	30.955687
1307.000000	30.957603
1308.000000	30.958940
1309.000000	30.959773
1310.000000	30.959690
1311.000000	30.957720
1312.000000	30.955723
1313.000000	30.954475
1314.000000	30.952742
1315.000000	30.950360
1316.000000	30.947700
1317.000000	30.943410
1318.000000	30.938063
1319.000000	30.931555
1320.000000	30.924375
1321.000000	30.917558
1322.000000	30.909367
1323.000000	30.899365
1324.000000	30.887980
1325.000000	30.875005
1326.000000	30.862170
1327.000000	30.849383
1328.000000	30.836085
1329.000000	30.821825
1330.000000	30.805305
1331.000000	30.787667
1332.000000	30.769420
1333.000000	30.749070
1334.000000	30.727895
1335.000000	30.707052
1336.000000	30.684240
1337.000000	30.659233
1338.000000	30.632170
1339.000000	30.604278
1340.000000	30.576680
1341.000000	30.546610
1342.000000	30.514012
1343.000000	30.480072
1344.000000	30.443700
1345.000000	30.404905
1346.000000	30.364368
1347.000000	30.324902
1348.000000	30.283833
1349.000000	30.239202
1350.000000	30.191278
1351.000000	30.142248
1352.000000	30.091837
1353.000000	30.042580
1354.000000	29.998003
1355.000000	29.956270
1356.000000	29.913480
1357.000000	29.867183
1358.000000	29.819735
1359.000000	29.771430
1360.000000	29.732830
1361.000000	29.709658
1362.000000	29.685180
1363.000000	29.654740
1364.000000	29.623315
1365.000000	29.587640
1366.000000	29.548795
1367.000000	29.514432
1368.000000	29.480360
1369.000000	29.442622
1370.000000	29.393230
1371.000000	29.324750
1372.000000	29.248627
1373.000000	29.162073
1374.000000	29.056935
1375.000000	28.940545
1376.000000	28.813620
1377.000000	28.666875
1378.000000	28.507655
1379.000000	28.342237
1380.000000	28.176948
1381.000000	28.021307
1382.000000	27.876963
1383.000000	27.748560
1384.000000	27.630780
1385.000000	27.522875
1386.000000	27.428463
1387.000000	27.356575
1388.000000	27.304255
1389.000000	27.259455
1390.000000	27.214990
1391.000000	27.172007
1392.000000	27.129807
1393.000000	27.083308
1394.000000	27.044585
1395.000000	27.020142
1396.000000	26.997382
1397.000000	26.955675
1398.000000	26.898367
1399.000000	26.854185
1400.000000	26.824903
1401.000000	26.780575
1402.000000	26.719630
1403.000000	26.654672
1404.000000	26.587398
1405.000000	26.503955
1406.000000	26.413460
1407.000000	26.328395
1408.000000	26.250355
1409.000000	26.159387
1410.000000	26.047387
1411.000000	25.932310
1412.000000	25.824542
1413.000000	25.722850
1414.000000	25.617518
1415.000000	25.508220
1416.000000	25.395015
1417.000000	25.285592
1418.000000	25.178452
1419.000000	25.072365
1420.000000	24.967395
1421.000000	24.868223
1422.000000	24.773487
1423.000000	24.679962
1424.000000	24.584872
1425.000000	24.492850
1426.000000	24.409215
1427.000000	24.328402
1428.000000	24.247037
1429.000000	24.165240
1430.000000	24.089900
1431.000000	24.021227
1432.000000	23.954950
1433.000000	23.887932
1434.000000	23.824312
1435.000000	23.764985
1436.000000	23.706700
1437.000000	23.651783
1438.000000	23.599342
1439.000000	23.550667
1440.000000	23.504045
1441.000000	23.458530
1442.000000	23.413535
1443.000000	23.367877
1444.000000	23.325255
1445.000000	23.289552
1446.000000	23.254770
1447.000000	23.216362
1448.000000	23.176507
1449.000000	23.139698
1450.000000	23.105277
1451.000000	23.070528
1452.000000	23.035598
1453.000000	23.002235
1454.000000	22.966632
1455.000000	22.927678
1456.000000	22.890337
1457.000000	22.855620
1458.000000	22.819702
1459.000000	22.783032
1460.000000	22.745368
1461.000000	22.707300
1462.000000	22.670390
1463.000000	22.633810
1464.000000	22.598955
1465.000000	22.563827
1466.000000	22.528610
1467.000000	22.491310
1468.000000	22.457095
1469.000000	22.423572
1470.000000	22.390988
1471.000000	22.358600
1472.000000	22.328920
1473.000000	22.299052
1474.000000	22.267730
1475.000000	22.236095
1476.000000	22.206827
1477.000000	22.180812
1478.000000	22.154772
1479.000000	22.128708
1480.000000	22.104748
1481.000000	22.081495
1482.000000	22.056362
1483.000000	22.033560
1484.000000	22.013212
1485.000000	21.994112
1486.000000	21.975075
1487.000000	21.958127
1488.000000	21.943237
1489.000000	21.928962
1490.000000	21.912547
1491.000000	21.898535
1492.000000	21.886300
1493.000000	21.875023
1494.000000	21.864900
1495.000000	21.857175
1496.000000	21.850317
1497.000000	21.844325
1498.000000	21.840120
1499.000000	21.838500
1500.000000	21.840035
1501.000000	21.844410
1502.000000	21.852207
1503.000000	21.862607
1504.000000	21.875495
1505.000000	21.889302
1506.000000	21.905072
1507.000000	21.923077
1508.000000	21.943642
1509.000000	21.965708
1510.000000	21.989685
1511.000000	22.014348
1512.000000	22.039372
1513.000000	22.065568
1514.000000	22.093218
1515.000000	22.122400
1516.000000	22.152320
1517.000000	22.182362
1518.000000	22.212100
1519.000000	22.241035
1520.000000	22.269380
1521.000000	22.297728
1522.000000	22.326377
1523.000000	22.355093
1524.000000	22.382760
1525.000000	22.410028
1526.000000	22.436550
1527.000000	22.462970
1528.000000	22.488895
1529.000000	22.514463
1530.000000	22.540043
1531.000000	22.565558
1532.000000	22.590080
1533.000000	22.613357
1534.000000	22.636555
1535.000000	22.658525
1536.000000	22.681148
1537.000000	22.702340
1538.000000	22.722532
1539.000000	22.743372
1540.000000	22.763565
1541.000000	22.782927
1542.000000	22.802390
1543.000000	22.822197
1544.000000	22.841450
1545.000000	22.862222
1546.000000	22.883250
1547.000000	22.905317
1548.000000	22.928480
1549.000000	22.952123
1550.000000	22.976577
1551.000000	23.000800
1552.000000	23.025727
1553.000000	23.050897
1554.000000	23.076937
1555.000000	23.102377
1556.000000	23.126390
1557.000000	23.148910
1558.000000	23.169138
1559.000000	23.187760
1560.000000	23.204550
1561.000000	23.218645
1562.000000	23.229425
1563.000000	23.237640
1564.000000	23.243248
1565.000000	23.246468
1566.000000	23.248815
1567.000000	23.249018
1568.000000	23.247678
1569.000000	23.244845
1570.000000	23.240603
1571.000000	23.236925
1572.000000	23.234132
1573.000000	23.231862
1574.000000	23.230038
1575.000000	23.229085
1576.000000	23.227390
1577.000000	23.226630
1578.000000	23.226865
1579.000000	23.228388
1580.000000	23.232048
1581.000000	23.236957
1582.000000	23.242273
1583.000000	23.248190
1584.000000	23.255835
1585.000000	23.264288
1586.000000	23.274950
1587.000000	23.287740
1588.000000	23.302250
1589.000000	23.317520
1590.000000	23.333945
1591.000000	23.350655
1592.000000	23.369788
1593.000000	23.389805
1594.000000	23.409695
1595.000000	23.429850
1596.000000	23.449890
1597.000000	23.469423
1598.000000	23.489618
1599.000000	23.510593
1600.000000	23.531285
1601.000000	23.553575
1602.000000	23.575652
1603.000000	23.598370
1604.000000	23.621645
1605.000000	23.646065
1606.000000	23.670037
1607.000000	23.695175
1608.000000	23.720075
1609.000000	23.745335
1610.000000	23.769182
1611.000000	23.791353
1612.000000	23.811900
1613.000000	23.830877
1614.000000	23.848432
1615.000000	23.864282
1616.000000	23.880655
1617.000000	23.895695
1618.000000	23.910047
1619.000000	23.922995
1620.000000	23.935308
1621.000000	23.947027
1622.000000	23.959657
1623.000000	23.973772
1624.000000	23.986548
1625.000000	23.998503
1626.000000	24.010315
1627.000000	24.021080
1628.000000	24.032560
1629.000000	24.044205
1630.000000	24.056347
1631.000000	24.067163
1632.000000	24.076315
1633.000000	24.085513
1634.000000	24.094483
1635.000000	24.102810
1636.000000	24.109288
1637.000000	24.114520
1638.000000	24.116795
1639.000000	24.117967
1640.000000	24.117610
1641.000000	24.117245
1642.000000	24.114573
1643.000000	24.110765
1644.000000	24.106623
1645.000000	24.102353
1646.000000	24.097415
1647.000000	24.090083
1648.000000	24.082988
1649.000000	24.073260
1650.000000	24.061383
1651.000000	24.047880
1652.000000	24.032995
1653.000000	24.014497
1654.000000	23.993430
1655.000000	23.967965
1656.000000	23.940487
1657.000000	23.911957
1658.000000	23.878690
1659.000000	23.844210
1660.000000	23.807455
1661.000000	23.768685
1662.000000	23.727267
1663.000000	23.684680
1664.000000	23.641360
1665.000000	23.598113
1666.000000	23.552443
1667.000000	23.505363
1668.000000	23.453990
1669.000000	23.400510
1670.000000	23.345343
1671.000000	23.288150
1672.000000	23.229928
1673.000000	23.168900
1674.000000	23.106205
1675.000000	23.041167
1676.000000	22.975570
1677.000000	22.907215
1678.000000	22.841345
1679.000000	22.773790
1680.000000	22.705270
1681.000000	22.634360
1682.000000	22.563265
1683.000000	22.489422
1684.000000	22.417455
1685.000000	22.347475
1686.000000	22.279723
1687.000000	22.216980
1688.000000	22.160603
1689.000000	22.110735
1690.000000	22.068557
1691.000000	22.035960
1692.000000	22.011968
1693.000000	21.998863
1694.000000	21.990325
1695.000000	21.985518
1696.000000	21.983878
1697.000000	21.984635
1698.000000	21.986538
1699.000000	21.987795
1700.000000	21.988592
1701.000000	21.987322
1702.000000	21.981483
1703.000000	21.971750
1704.000000	21.958860
1705.000000	21.944195
1706.000000	21.925700
1707.000000	21.905990
1708.000000	21.881183
1709.000000	21.853327
1710.000000	21.820130
1711.000000	21.782010
1712.000000	21.741037
1713.000000	21.693750
1714.000000	21.642610
1715.000000	21.586813
1716.000000	21.526682
1717.000000	21.460938
1718.000000	21.392398
1719.000000	21.321595
1720.000000	21.250743
1721.000000	21.182075
1722.000000	21.116398
1723.000000	21.057852
1724.000000	21.004500
1725.000000	20.957210
1726.000000	20.918097
1727.000000	20.887792
1728.000000	20.865882
1729.000000	20.851455
1730.000000	20.845575
1731.000000	20.844880
1732.000000	20.849015
1733.000000	20.854985
1734.000000	20.862723
1735.000000	20.874360
1736.000000	20.890273
1737.000000	20.907865
1738.000000	20.927970
1739.000000	20.950098
1740.000000	20.973028
1741.000000	20.999445
1742.000000	21.026868
1743.000000	21.057155
1744.000000	21.089472
1745.000000	21.122380
1746.000000	21.153020
1747.000000	21.182195
1748.000000	21.210070
1749.000000	21.236605
1750.000000	21.259670
1751.000000	21.279908
1752.000000	21.296878
1753.000000	21.311613
1754.000000	21.324045
1755.000000	21.334955
1756.000000	21.346110
1757.000000	21.355805
1758.000000	21.362762
1759.000000	21.369240
1760.000000	21.376805
1761.000000	21.383390
1762.000000	21.391440
1763.000000	21.399855
1764.000000	21.408830
1765.000000	21.417225
1766.000000	21.425045
1767.000000	21.435235
1768.000000	21.446867
1769.000000	21.459337
1770.000000	21.471715
1771.000000	21.485128
1772.000000	21.500593
1773.000000	21.516365
1774.000000	21.532977
1775.000000	21.550785
1776.000000	21.568268
1777.000000	21.585535
1778.000000	21.603587
1779.000000	21.621850
1780.000000	21.640197
1781.000000	21.656647
1782.000000	21.670317
1783.000000	21.683105
1784.000000	21.694983
1785.000000	21.706130
1786.000000	21.717702
1787.000000	21.726457
1788.000000	21.732550
1789.000000	21.735280
1790.000000	21.736773
1791.000000	21.738862
1792.000000	21.740942
1793.000000	21.743245
1794.000000	21.745138
1795.000000	21.746362
1796.000000	21.747447
1797.000000	21.748785
1798.000000	21.749433
1799.000000	21.752147
1800.000000	21.758272
1801.000000	21.766020
1802.000000	21.773148
1803.000000	21.776998
1804.000000	21.779835
1805.000000	21.784912
1806.000000	21.791340
1807.000000	21.798698
1808.000000	21.804453
1809.000000	21.807568
1810.000000	21.810837
1811.000000	21.815178
1812.000000	21.818965
1813.000000	21.823608
1814.000000	21.831193
1815.000000	21.837898
1816.000000	21.838522
1817.000000	21.832375
1818.000000	21.827537
1819.000000	21.832370
1820.000000	21.845260
1821.000000	21.860550
1822.000000	21.871187
1823.000000	21.872960
1824.000000	21.866595
1825.000000	21.858157
1826.000000	21.857090
1827.000000	21.865890
1828.000000	21.879487
1829.000000	21.887232
1830.000000	21.887187
1831.000000	21.881455
1832.000000	21.875278
1833.000000	21.873455
1834.000000	21.877878
1835.000000	21.887493
1836.000000	21.901550
1837.000000	21.915402
1838.000000	21.927480
1839.000000	21.939310
1840.000000	21.954892
1841.000000	21.981202
1842.000000	22.014032
1843.000000	22.040590
1844.000000	22.051858
1845.000000	22.050375
1846.000000	22.049330
1847.000000	22.064460
1848.000000	22.090320
1849.000000	22.108495
1850.000000	22.108087
1851.000000	22.087150
1852.000000	22.063495
1853.000000	22.054875
1854.000000	22.063972
1855.000000	22.077165
1856.000000	22.075140
1857.000000	22.048480
1858.000000	22.014735
1859.000000	21.991625
1860.000000	21.978110
1861.000000	21.969887
1862.000000	21.954355
1863.000000	21.922495
1864.000000	21.878077
1865.000000	21.828395
1866.000000	21.776345
1867.000000	21.723485
1868.000000	21.662580
1869.000000	21.598030
1870.000000	21.537405
1871.000000	21.478632
1872.000000	21.427005
1873.000000	21.382758
1874.000000	21.337690
1875.000000	21.291528
1876.000000	21.241750
1877.000000	21.185900
1878.000000	21.117380
1879.000000	21.028185
1880.000000	20.917670
1881.000000	20.794860
1882.000000	20.659803
1883.000000	20.515955
1884.000000	20.367642
1885.000000	20.208845
1886.000000	20.041915
1887.000000	19.861255
1888.000000	19.672790
1889.000000	19.485798
1890.000000	19.297182
1891.000000	19.107075
1892.000000	18.910833
1893.000000	18.701667
1894.000000	18.481470
1895.000000	18.253322
1896.000000	18.019033
1897.000000	17.785232
1898.000000	17.552520
1899.000000	17.321108
1900.000000	17.090520
1901.000000	16.851768
1902.000000	16.608262
1903.000000	16.373753
1904.000000	16.145082
1905.000000	15.930973
1906.000000	15.728460
1907.000000	15.529510
1908.000000	15.332390
1909.000000	15.129895
1910.000000	14.931185
1911.000000	14.743245
1912.000000	14.572863
1913.000000	14.415190
1914.000000	14.262913
1915.000000	14.110677
1916.000000	13.957422
1917.000000	13.813318
1918.000000	13.677103
1919.000000	13.561050
1920.000000	13.452148
1921.000000	13.356108
1922.000000	13.262855
1923.000000	13.169408
1924.000000	13.077835
1925.000000	12.994335
1926.000000	12.925592
1927.000000	12.865227
1928.000000	12.817552
1929.000000	12.766940
1930.000000	12.723665
1931.000000	12.679525
1932.000000	12.633955
1933.000000	12.593205
1934.000000	12.561702
1935.000000	12.536810
1936.000000	12.513830
1937.000000	12.492380
1938.000000	12.476090
1939.000000	12.467382
1940.000000	12.463202
1941.000000	12.460025
1942.000000	12.465295
1943.000000	12.471607
1944.000000	12.485267
1945.000000	12.498548
1946.000000	12.514330
1947.000000	12.535795
1948.000000	12.554822
1949.000000	12.571595
1950.000000	12.588332
1951.000000	12.607670
1952.000000	12.628370
1953.000000	12.654037
1954.000000	12.682338
1955.000000	12.712330
1956.000000	12.742825
1957.000000	12.773613
1958.000000	12.805615
1959.000000	12.845050
1960.000000	12.884312
1961.000000	12.926085
1962.000000	12.969188
1963.000000	13.010365
1964.000000	13.048652
1965.000000	13.087953
1966.000000	13.125268
1967.000000	13.163035
1968.000000	13.201902
1969.000000	13.235712
1970.000000	13.271113
1971.000000	13.305748
1972.000000	13.340620
1973.000000	13.377778
1974.000000	13.415310
1975.000000	13.453765
1976.000000	13.494998
1977.000000	13.534433
1978.000000	13.572998
1979.000000	13.611867
1980.000000	13.652550
1981.000000	13.693680
1982.000000	13.734897
1983.000000	13.775460
1984.000000	13.817263
1985.000000	13.857182
1986.000000	13.898020
1987.000000	13.938825
1988.000000	13.979843
1989.000000	14.023267
1990.000000	14.064875
1991.000000	14.105760
1992.000000	14.147327
1993.000000	14.185483
1994.000000	14.221605
1995.000000	14.259822
1996.000000	14.294912
1997.000000	14.332220
1998.000000	14.367162
1999.000000	14.397828
2000.000000	14.426842
2001.000000	14.458370
2002.000000	14.485788
2003.000000	14.513430
2004.000000	14.538880
2005.000000	14.563045
2006.000000	14.586028
2007.000000	14.606292
2008.000000	14.626527
2009.000000	14.645565
2010.000000	14.661443
2011.000000	14.673707
2012.000000	14.684610
2013.000000	14.692110
2014.000000	14.696673
2015.000000	14.697622
2016.000000	14.699483
2017.000000	14.696148
2018.000000	14.687110
2019.000000	14.676063
2020.000000	14.663615
2021.000000	14.648805
2022.000000	14.629145
2023.000000	14.607710
2024.000000	14.586600
2025.000000	14.562748
2026.000000	14.531290
2027.000000	14.499562
2028.000000	14.467593
2029.000000	14.431085
2030.000000	14.394460
2031.000000	14.354320
2032.000000	14.315890
2033.000000	14.279555
2034.000000	14.237197
2035.000000	14.188363
2036.000000	14.142745
2037.000000	14.094127
2038.000000	14.043003
2039.000000	13.991832
2040.000000	13.934925
2041.000000	13.875707
2042.000000	13.815062
2043.000000	13.749523
2044.000000	13.686343
2045.000000	13.626532
2046.000000	13.563825
2047.000000	13.506023
2048.000000	13.451322
2049.000000	13.399572
2050.000000	13.357595
2051.000000	13.319275
2052.000000	13.280750
2053.000000	13.249550
2054.000000	13.224210
2055.000000	13.205435
2056.000000	13.192477
2057.000000	13.185427
2058.000000	13.185682
2059.000000	13.189795
2060.000000	13.195657
2061.000000	13.213340
2062.000000	13.240015
2063.000000	13.266557
2064.000000	13.298263
2065.000000	13.336010
2066.000000	13.373740
2067.000000	13.414635
2068.000000	13.460757
2069.000000	13.512482
2070.000000	13.566442
2071.000000	13.615602
2072.000000	13.662873
2073.000000	13.714742
2074.000000	13.766225
2075.000000	13.810887
2076.000000	13.858017
2077.000000	13.901682
2078.000000	13.936250
2079.000000	13.966800
2080.000000	13.993995
2081.000000	14.022758
2082.000000	14.046598
2083.000000	14.063425
2084.000000	14.077395
2085.000000	14.092427
2086.000000	14.105300
2087.000000	14.116122
2088.000000	14.127360
2089.000000	14.135525
2090.000000	14.144285
2091.000000	14.145782
2092.000000	14.144085
2093.000000	14.148980
2094.000000	14.152893
2095.000000	14.156018
2096.000000	14.156772
2097.000000	14.159752
2098.000000	14.166073
2099.000000	14.169847
2100.000000	14.166070
2101.000000	14.159255
2102.000000	14.160475
2103.000000	14.156500
2104.000000	14.152520
2105.000000	14.154775
2106.000000	14.159600
2107.000000	14.151250
2108.000000	14.135340
2109.000000	14.130588
2110.000000	14.129155
2111.000000	14.127520
2112.000000	14.121562
2113.000000	14.110535
2114.000000	14.101747
2115.000000	14.088292
2116.000000	14.077715
2117.000000	14.073355
2118.000000	14.065793
2119.000000	14.047858
2120.000000	14.033840
2121.000000	14.026105
2122.000000	14.006778
2123.000000	13.992822
2124.000000	13.978375
2125.000000	13.955715
2126.000000	13.926077
2127.000000	13.896095
2128.000000	13.879622
2129.000000	13.854237
2130.000000	13.823630
2131.000000	13.785047
2132.000000	13.763725
2133.000000	13.738572
2134.000000	13.706650
2135.000000	13.675425
2136.000000	13.650395
2137.000000	13.622375
2138.000000	13.578997
2139.000000	13.539458
2140.000000	13.508855
2141.000000	13.484047
2142.000000	13.455108
2143.000000	13.415960
2144.000000	13.380848
2145.000000	13.348990
2146.000000	13.306187
2147.000000	13.262200
2148.000000	13.219973
2149.000000	13.181323
2150.000000	13.131530
2151.000000	13.079142
2152.000000	13.016262
2153.000000	12.962658
2154.000000	12.899650
2155.000000	12.836443
2156.000000	12.780227
2157.000000	12.720975
2158.000000	12.666640
2159.000000	12.623010
2160.000000	12.584540
2161.000000	12.536200
2162.000000	12.498800
2163.000000	12.466325
2164.000000	12.440380
2165.000000	12.420917
2166.000000	12.394295
2167.000000	12.372700
2168.000000	12.346457
2169.000000	12.321447
2170.000000	12.285637
2171.000000	12.268285
2172.000000	12.248842
2173.000000	12.222665
2174.000000	12.199210
2175.000000	12.168440
2176.000000	12.148978
2177.000000	12.129015
2178.000000	12.119153
2179.000000	12.098590
2180.000000	12.087438
2181.000000	12.059323
2182.000000	12.031625
2183.000000	12.014105
2184.000000	12.001555
2185.000000	11.983405
2186.000000	11.958925
2187.000000	11.936295
2188.000000	11.909975
2189.000000	11.880593
2190.000000	11.847742
2191.000000	11.823247
2192.000000	11.792413
2193.000000	11.749975
2194.000000	11.693895
2195.000000	11.646975
2196.000000	11.589263
2197.000000	11.534545
2198.000000	11.474557
2199.000000	11.404233
2200.000000	11.335340
2201.000000	11.265010
2202.000000	11.203872
2203.000000	11.143605
2204.000000	11.097040
2205.000000	11.043792
2206.000000	11.000888
2207.000000	10.963765
2208.000000	10.932127
2209.000000	10.918370
2210.000000	10.904445
2211.000000	10.907053
2212.000000	10.907235
2213.000000	10.917315
2214.000000	10.923575
2215.000000	10.939958
2216.000000	10.961750
2217.000000	10.978420
2218.000000	11.012645
2219.000000	11.045150
2220.000000	11.086510
2221.000000	11.118417
2222.000000	11.157282
2223.000000	11.197680
2224.000000	11.239190
2225.000000	11.283405
2226.000000	11.328925
2227.000000	11.385608
2228.000000	11.426375
2229.000000	11.474952
2230.000000	11.514045
2231.000000	11.546322
2232.000000	11.577502
2233.000000	11.600395
2234.000000	11.632268
2235.000000	11.649342
2236.000000	11.663845
2237.000000	11.662990
2238.000000	11.658907
2239.000000	11.650813
2240.000000	11.635565
2241.000000	11.628840
2242.000000	11.609680
2243.000000	11.593980
2244.000000	11.559802
2245.000000	11.531942
2246.000000	11.503980
2247.000000	11.480355
2248.000000	11.448960
2249.000000	11.409987
2250.000000	11.382525
2251.000000	11.343280
2252.000000	11.298230
2253.000000	11.258968
2254.000000	11.227213
2255.000000	11.191235
2256.000000	11.150102
2257.000000	11.120427
2258.000000	11.091535
2259.000000	11.047087
2260.000000	11.007073
2261.000000	10.975938
2262.000000	10.960440
2263.000000	10.944360
2264.000000	10.926462
2265.000000	10.907245
2266.000000	10.890702
2267.000000	10.865737
2268.000000	10.854945
2269.000000	10.865620
2270.000000	10.869250
2271.000000	10.877525
2272.000000	10.882143
2273.000000	10.884445
2274.000000	10.887650
2275.000000	10.894815
2276.000000	10.902357
2277.000000	10.904138
2278.000000	10.905835
2279.000000	10.909310
2280.000000	10.920290
2281.000000	10.933373
2282.000000	10.949022
2283.000000	10.950217
2284.000000	10.948680
2285.000000	10.955810
2286.000000	10.966225
2287.000000	10.967675
2288.000000	10.970630
2289.000000	10.983128
2290.000000	10.992595
2291.000000	10.990807
2292.000000	10.986400
2293.000000	10.998242
2294.000000	11.007578
2295.000000	11.017197
2296.000000	11.028975
2297.000000	11.055808
2298.000000	11.078777
2299.000000	11.087300
2300.000000	11.090215
2301.000000	11.101240
2302.000000	11.112695
2303.000000	11.127705
2304.000000	11.160655
2305.000000	11.190143
2306.000000	11.212713
2307.000000	11.224153
2308.000000	11.238493
2309.000000	11.258667
2310.000000	11.290862
2311.000000	11.316830
2312.000000	11.344915
2313.000000	11.373712
2314.000000	11.397642
2315.000000	11.420757
2316.000000	11.440475
2317.000000	11.469805
2318.000000	11.499695
2319.000000	11.530440
2320.000000	11.546542
2321.000000	11.565093
2322.000000	11.583800
2323.000000	11.602710
2324.000000	11.615562
2325.000000	11.618692
2326.000000	11.624152
2327.000000	11.629587
2328.000000	11.634398
2329.000000	11.634125
2330.000000	11.646555
2331.000000	11.667682
2332.000000	11.681280
2333.000000	11.675527
2334.000000	11.668423
2335.000000	11.670905
2336.000000	11.691460
2337.000000	11.711718
2338.000000	11.717383
2339.000000	11.722950
2340.000000	11.725605
2341.000000	11.723237
2342.000000	11.727230
2343.000000	11.747845
2344.000000	11.764907
2345.000000	11.773367
2346.000000	11.783690
2347.000000	11.793902
2348.000000	11.804605
2349.000000	11.826140
2350.000000	11.850917
2351.000000	11.883218
2352.000000	11.908407
2353.000000	11.926185
2354.000000	11.944825
2355.000000	11.965200
2356.000000	11.980372
2357.000000	12.008685
2358.000000	12.037603
2359.000000	12.059445
2360.000000	12.072612
2361.000000	12.067360
2362.000000	12.077835
2363.000000	12.096353
2364.000000	12.114310
2365.000000	12.133020
2366.000000	12.142813
2367.000000	12.141870
2368.000000	12.154082
2369.000000	12.175113
2370.000000	12.193912
2371.000000	12.207198
2372.000000	12.207025
2373.000000	12.222355
2374.000000	12.246805
2375.000000	12.255115
2376.000000	12.262420
2377.000000	12.285842
2378.000000	12.314438
2379.000000	12.316312
2380.000000	12.332395
2381.000000	12.349797
2382.000000	12.370515
2383.000000	12.374962
2384.000000	12.368765
2385.000000	12.383998
2386.000000	12.412165
2387.000000	12.416595
2388.000000	12.404685
2389.000000	12.393868
2390.000000	12.374958
2391.000000	12.359400
2392.000000	12.360088
2393.000000	12.386635
2394.000000	12.400338
2395.000000	12.414765
2396.000000	12.386445
2397.000000	12.386188
2398.000000	12.400408
2399.000000	12.433478
2400.000000	12.437805
2401.000000	12.455893
2402.000000	12.443505
2403.000000	12.395230
2404.000000	12.374645
2405.000000	12.352765
2406.000000	12.366050
2407.000000	12.362915
2408.000000	12.345940
2409.000000	12.325480
2410.000000	12.320330
2411.000000	12.306450
2412.000000	12.321190
2413.000000	12.339235
2414.000000	12.336630
2415.000000	12.338285
2416.000000	12.312465
2417.000000	12.274610
2418.000000	12.262550
2419.000000	12.247418
2420.000000	12.245980
2421.000000	12.238038
2422.000000	12.203822
2423.000000	12.158297
2424.000000	12.120805
2425.000000	12.107950
2426.000000	12.136805
2427.000000	12.133612
2428.000000	12.109692
2429.000000	12.082565
2430.000000	12.017835
2431.000000	11.945780
2432.000000	11.897367
2433.000000	11.875430
2434.000000	11.868613
2435.000000	11.830518
2436.000000	11.773115
2437.000000	11.747345
2438.000000	11.692517
2439.000000	11.662628
2440.000000	11.641183
2441.000000	11.646105
2442.000000	11.656097
2443.000000	11.620633
2444.000000	11.591080
2445.000000	11.541915
2446.000000	11.501110
2447.000000	11.456655
2448.000000	11.451663
2449.000000	11.419545
2450.000000	11.421677
2451.000000	11.419315
2452.000000	11.403585
2453.000000	11.425133
2454.000000	11.409395
2455.000000	11.435453
2456.000000	11.461302
2457.000000	11.511602
2458.000000	11.499392
2459.000000	11.521152
2460.000000	11.508587
2461.000000	11.518833
2462.000000	11.520335
2463.000000	11.548337
2464.000000	11.612987
2465.000000	11.681790
2466.000000	11.676470
2467.000000	11.676143
2468.000000	11.766408
2469.000000	11.802478
2470.000000	11.904155
2471.000000	11.982627
2472.000000	12.102705
2473.000000	12.154267
2474.000000	12.218255
2475.000000	12.279150
2476.000000	12.415165
2477.000000	12.518810
2478.000000	12.629642
2479.000000	12.782538
2480.000000	12.874065
2481.000000	12.957227
2482.000000	13.056498
2483.000000	13.200230
2484.000000	13.330980
2485.000000	13.408895
2486.000000	13.527775
2487.000000	13.758343
2488.000000	13.907780
2489.000000	14.049810
2490.000000	14.198913
2491.000000	14.380308
2492.000000	14.504253
2493.000000	14.678675
2494.000000	14.791082
2495.000000	14.972500
2496.000000	15.173927
2497.000000	15.221940
2498.000000	15.302723
2499.000000	15.463088
2500.000000	15.710600
2501.000000	19.283870
2502.000000	23.009080
2503.000000	27.085900
2504.000000	31.130487
2505.000000	35.089127
2506.000000	39.025160
2507.000000	42.998863
2508.000000	46.775860
2509.000000	50.756520
2510.000000	54.926130
2511.000000	56.181640
2512.000000	56.692080
2513.000000	57.307310
2514.000000	57.786250
2515.000000	58.010180
2516.000000	59.038260
2517.000000	60.148440
2518.000000	61.781830
2519.000000	63.124080
2520.000000	64.016820
2521.000000	64.711850
2522.000000	66.194840
2523.000000	67.367390
2524.000000	68.420450
2525.000000	70.334140
2526.000000	71.097370
2527.000000	71.633900
2528.000000	72.244670
2529.000000	72.679200
2530.000000	73.626020
2531.000000	74.331920
2532.000000	74.984390
2533.000000	75.667390
2534.000000	76.487890
2535.000000	76.783810
2536.000000	77.919420
2537.000000	79.174150
2538.000000	80.153700
2539.000000	81.700530
2540.000000	82.851620
2541.000000	84.219350
2542.000000	84.869180
2543.000000	84.939580
2544.000000	85.663450
2545.000000	85.981410
2546.000000	86.119840
2547.000000	86.082660
2548.000000	85.950410
2549.000000	85.700670
2550.000000	85.711370
2551.000000	85.825180
2552.000000	86.712410
2553.000000	87.682580
2554.000000	88.342470
2555.000000	88.818870
2556.000000	88.861460
2557.000000	89.691610
2558.000000	90.560700
2559.000000	91.081460
2560.000000	91.421000
2561.000000	91.952720
2562.000000	92.007830
2563.000000	93.060950
2564.000000	93.578990
2565.000000	94.305890
2566.000000	95.442810
2567.000000	96.521970
2568.000000	97.317130
2569.000000	97.820640
2570.000000	98.030580
2571.000000	98.159400
2572.000000	98.626680
2573.000000	97.703830
2574.000000	96.998950
2575.000000	97.097010
2576.000000	97.068290
2577.000000	96.564870
2578.000000	95.868320
2579.000000	95.575470
2580.000000	95.794160
2581.000000	95.788340
2582.000000	95.442920
2583.000000	96.126110
2584.000000	97.117520
2585.000000	97.178410
2586.000000	97.262450
2587.000000	97.563570
2588.000000	97.720200
2589.000000	97.768740
2590.000000	97.881920
2591.000000	98.032100
2592.000000	98.197160
2593.000000	98.244850
2594.000000	98.393860
2595.000000	98.651190
2596.000000	98.415940
2597.000000	98.110580
2598.000000	98.235080
2599.000000	97.994910
2600.000000	97.795470
2601.000000	97.463720
2602.000000	97.138010
2603.000000	96.595670
2604.000000	96.220810
2605.000000	96.410900
2606.000000	96.721970
2607.000000	97.008770
2608.000000	97.911120
2609.000000	99.140710
2610.000000	100.128210
2611.000000	100.953160
2612.000000	101.683490
2613.000000	102.360290
2614.000000	102.704220
2615.000000	103.281990
2616.000000	103.855710
2617.000000	104.250300
2618.000000	104.235840
2619.000000	103.252510
2620.000000	102.259000
2621.000000	101.907000
2622.000000	101.673080
2623.000000	101.192450
2624.000000	100.906750
2625.000000	100.420690
2626.000000	100.409350
2627.000000	100.219200
2628.000000	99.566630
2629.000000	100.294570
2630.000000	101.210520
2631.000000	100.822290
2632.000000	100.476390
2633.000000	100.630450
2634.000000	100.562880
2635.000000	100.626080
2636.000000	100.773340
2637.000000	100.758310
2638.000000	101.020820
2639.000000	100.903730
2640.000000	100.605600
2641.000000	100.935260
2642.000000	101.270450
2643.000000	101.607910
2644.000000	102.874330
2645.000000	103.177830
2646.000000	101.587780
2647.000000	101.354100
2648.000000	102.016590
2649.000000	102.198280
2650.000000	102.440210
2651.000000	102.340530
2652.000000	103.023810
2653.000000	102.862580
2654.000000	101.915170
2655.000000	101.232230
2656.000000	102.374530
2657.000000	102.564990
2658.000000	101.671720
2659.000000	101.550580
2660.000000	101.102860
2661.000000	101.178100
2662.000000	100.451070
2663.000000	99.520000
2664.000000	98.720440
2665.000000	99.002740
2666.000000	98.787530
2667.000000	98.741960
2668.000000	99.091520
2669.000000	99.004140
2670.000000	99.025910
2671.000000	99.063170
2672.000000	99.554880
2673.000000	100.595400
2674.000000	101.767320
2675.000000	102.123810
2676.000000	102.573590
2677.000000	102.247210
2678.000000	101.764360
2679.000000	102.239720
2680.000000	102.895380
2681.000000	103.229490
2682.000000	103.076860
2683.000000	102.562310
2684.000000	102.242100
2685.000000	101.955460
2686.000000	101.933410
2687.000000	101.811790
2688.000000	101.928020
2689.000000	101.874990
2690.000000	101.320080
2691.000000	100.985340
2692.000000	100.806230
2693.000000	101.698590
2694.000000	102.150420
2695.000000	102.660050
2696.000000	101.732340
2697.000000	101.547630
2698.000000	101.345440
2699.000000	101.627670
2700.000000	101.011290
2701.000000	101.597800
2702.000000	101.815580
2703.000000	101.485870
2704.000000	100.418470
2705.000000	99.543530
2706.000000	100.718750
2707.000000	102.135420
2708.000000	102.115960
2709.000000	101.970050
2710.000000	102.555760
2711.000000	101.984570
2712.000000	101.757180
2713.000000	101.357410
2714.000000	101.471340
2715.000000	101.899860
2716.000000	101.652650
2717.000000	101.124580
2718.000000	101.838340
2719.000000	101.904410
2720.000000	102.702400
2721.000000	102.757780
2722.000000	102.752710
2723.000000	102.713750
2724.000000	102.971880
2725.000000	102.716120
2726.000000	101.558450
2727.000000	101.232160
2728.000000	100.539230
2729.000000	99.526050
2730.000000	98.651950
2731.000000	98.140170
2732.000000	98.129220
2733.000000	98.281260
2734.000000	97.996120
2735.000000	97.996020
2736.000000	98.903850
2737.000000	99.391870
2738.000000	100.387240
2739.000000	100.153170
2740.000000	100.442570
2741.000000	100.490900
2742.000000	100.639140
2743.000000	100.393780
2744.000000	100.573780
2745.000000	100.959730
2746.000000	99.972020
2747.000000	99.666770
2748.000000	99.546570
2749.000000	99.871410
2750.000000	100.142930
2751.000000	100.549930
2752.000000	100.397090
2753.000000	100.698150
2754.000000	101.366960
2755.000000	101.304820
2756.000000	102.918320
2757.000000	102.593090
2758.000000	101.743790
2759.000000	102.174560
2760.000000	102.317160
2761.000000	102.253120
2762.000000	102.876010
2763.000000	103.204390
2764.000000	102.346690
2765.000000	101.522380
2766.000000	100.528500
2767.000000	99.925720
2768.000000	100.340180
2769.000000	99.649490
2770.000000	99.889570
2771.000000	101.052950
2772.000000	101.062990
2773.000000	100.891660
2774.000000	101.792850
2775.000000	103.269520
2776.000000	103.507380
2777.000000	104.282540
2778.000000	104.383830
2779.000000	105.777160
2780.000000	105.719930
2781.000000	104.975240
2782.000000	104.913990
2783.000000	105.015560
2784.000000	104.539540
2785.000000	103.649740
2786.000000	104.115990
2787.000000	104.483510
2788.000000	104.304460
2789.000000	103.373680
2790.000000	102.874050
2791.000000	102.660320
2792.000000	102.738350
2793.000000	102.755750
2794.000000	102.480600
2795.000000	102.741650
2796.000000	102.341410
2797.000000	102.373940
2798.000000	103.145700
2799.000000	103.255560
2800.000000	102.943740
2801.000000	103.278760
2802.000000	102.897700
2803.000000	102.903180
2804.000000	103.284790
2805.000000	102.975400
2806.000000	102.885320
2807.000000	102.260840
2808.000000	101.996700
2809.000000	101.910190
2810.000000	101.881390
2811.000000	101.336890
2812.000000	101.058580
2813.000000	101.222650
2814.000000	101.031640
2815.000000	100.224020
2816.000000	100.353680
2817.000000	100.913990
2818.000000	99.898990
2819.000000	100.368270
2820.000000	100.634410
2821.000000	100.033230
2822.000000	100.051350
2823.000000	99.523020
2824.000000	99.147080
2825.000000	99.867250
2826.000000	99.992230
2827.000000	100.526770
2828.000000	101.689540
2829.000000	101.679120
2830.000000	102.030550
2831.000000	102.806280
2832.000000	102.630670
2833.000000	102.219390
2834.000000	102.037920
2835.000000	101.892790
2836.000000	101.574490
2837.000000	100.840880
2838.000000	100.333020
2839.000000	99.910660
2840.000000	99.449860
2841.000000	99.660510
2842.000000	99.836110
2843.000000	100.357650
2844.000000	100.911910
2845.000000	101.216720
2846.000000	101.035280
2847.000000	100.465070
2848.000000	100.277630
2849.000000	100.472530
2850.000000	100.478980
2851.000000	100.531570
2852.000000	101.105540
2853.000000	101.335950
2854.000000	101.921790
2855.000000	102.574590
2856.000000	102.820890
2857.000000	103.105370
2858.000000	103.251440
2859.000000	103.451230
2860.000000	103.848180
2861.000000	104.101610
2862.000000	104.106190
2863.000000	103.727810
2864.000000	102.721270
2865.000000	101.774370
2866.000000	101.247390
2867.000000	101.058410
2868.000000	101.002060
2869.000000	100.637340
2870.000000	100.107240
2871.000000	99.712420
2872.000000	99.185550
2873.000000	99.444380
2874.000000	99.858640
2875.000000	99.997770
2876.000000	101.225380
2877.000000	101.911430
2878.000000	101.773320
2879.000000	102.028560
2880.000000	102.231500
2881.000000	101.876590
2882.000000	102.277030
2883.000000	102.245300
2884.000000	101.782900
2885.000000	102.370780
2886.000000	101.994670
2887.000000	101.431350
2888.000000	101.338550
2889.000000	100.746550
2890.000000	100.612140
2891.000000	100.464210
2892.000000	99.876010
2893.000000	100.098950
2894.000000	100.565030
2895.000000	99.570440
2896.000000	99.070320
2897.000000	99.356600
2898.000000	98.986910
2899.000000	98.721290
2900.000000	99.070890
2901.000000	99.264080
2902.000000	99.206160
2903.000000	98.295810
2904.000000	97.976860
2905.000000	97.891420
2906.000000	98.130920
2907.000000	97.970640
2908.000000	98.094830
2909.000000	98.792550
2910.000000	98.550840
2911.000000	99.059010
2912.000000	99.512720
2913.000000	99.991900
2914.000000	100.189920
2915.000000	100.544800
2916.000000	100.664650
2917.000000	101.545760
2918.000000	102.558130
2919.000000	102.636050
2920.000000	103.013090
2921.000000	102.712930
2922.000000	102.345550
2923.000000	101.857500
2924.000000	101.688400
2925.000000	101.773060
2926.000000	101.665550
2927.000000	101.013700
2928.000000	99.996000
2929.000000	99.590220
2930.000000	99.175120
2931.000000	99.099860
2932.000000	99.625400
2933.000000	99.971920
2934.000000	99.968090
2935.000000	99.721950
2936.000000	99.137250
2937.000000	98.606770
2938.000000	98.603330
2939.000000	98.786130
2940.000000	98.379860
2941.000000	97.704100
2942.000000	97.054920
2943.000000	97.353750
2944.000000	97.864140
2945.000000	98.989120
2946.000000	100.252900
2947.000000	100.750620
2948.000000	101.125470
2949.000000	101.776200
2950.000000	102.260550
2951.000000	102.460020
2952.000000	102.094530
2953.000000	102.006860
2954.000000	101.521320
2955.000000	101.311750
2956.000000	100.570900
2957.000000	100.290830
2958.000000	100.382280
2959.000000	99.737900
2960.000000	99.906500
2961.000000	101.117460
2962.000000	101.208170
2963.000000	100.836880
2964.000000	100.770020
2965.000000	100.158400
2966.000000	100.418420
2967.000000	100.484050
2968.000000	99.996320
2969.000000	100.435930
2970.000000	100.463900
2971.000000	99.467910
2972.000000	100.221140
2973.000000	101.344950
2974.000000	101.150730
2975.000000	100.872230
2976.000000	100.795630
2977.000000	100.910590
2978.000000	102.039940
2979.000000	102.148950
2980.000000	101.585650
2981.000000	102.578880
2982.000000	102.539340
2983.000000	102.513990
2984.000000	103.642560
2985.000000	104.585860
2986.000000	104.561980
2987.000000	104.413460
2988.000000	104.076620
2989.000000	103.373640
2990.000000	102.700750
2991.000000	100.887040
2992.000000	99.937490
2993.000000	99.591360
2994.000000	98.839440
2995.000000	98.340420
2996.000000	98.877410
2997.000000	98.468830
2998.000000	98.304260
2999.000000	98.579890
3000.000000	99.334070
