PE UV       SUBTECH     SPECTRUM    ASCII       PEDS        4.00        
   -1
INBUCR0212-4.Sample.ASC
24/02/07
16:24:58.00
24/02/07
16:24:58.00
Vinicio Soto Monge
Chrysina boucardi. Escarabajo grande, falta élitro derecho, cobrizo morado.Det: A. Solís Costa Rica, Prov Limón. P.I La Amistad Caribe Camp 1: Río Lori, Transecto 2. 1800 m - 1900 m 17 Feb 2007 B Gamboa M. Moraga Tp Luz #90738. INB0004065610 
250,000000
1
Lambda 1050
1050L1511233
PerkinElmer UV WinLab 6.3.2.0749 / 2.02.05 Lambda 900 UV/VIS/NIR, Aug  7 2015 09:38:08

0
0
3350/servo 860,8/2
0
0
UV/VIS
1
1
1
DoubleDePol,CommonBeamDepol,RBeamAtt,SBeamAtt,60mm sphere, WB InGaAs Detector
0
0
0
0
Program
Program
3350/servo 860,8/2
3350/0,2 860,8/0,2
3350/0,2 860,8/0,2
0
15.00
 
 
 
0
 
860,8
319,2
860,8
Front
100
on
S:100 R:100
0
0
0
0
 
0
 
 
 
0
 
 
0
0
0
0
0
 
 
 
 
0
0


0
0
#HDR
-1
-1
#GR
nm
%R
1.0
0.0
2500,000000
-1,000000
2251
8
14,823900
1,175300
#DATA

250.000000	nan
251.000000	nan
252.000000	nan
253.000000	nan
254.000000	nan
255.000000	nan
256.000000	nan
257.000000	nan
258.000000	nan
259.000000	3.780747
260.000000	3.768211
261.000000	3.757943
262.000000	3.749343
263.000000	3.739879
264.000000	3.729025
265.000000	3.715069
266.000000	3.704770
267.000000	3.691383
268.000000	3.680744
269.000000	3.669212
270.000000	3.658696
271.000000	3.647568
272.000000	3.633752
273.000000	3.622940
274.000000	3.613353
275.000000	3.606238
276.000000	3.597039
277.000000	3.590185
278.000000	3.582582
279.000000	3.575612
280.000000	3.571370
281.000000	3.567365
282.000000	3.564480
283.000000	3.561215
284.000000	3.559105
285.000000	3.555822
286.000000	3.552997
287.000000	3.549157
288.000000	3.545985
289.000000	3.542475
290.000000	3.537947
291.000000	3.534108
292.000000	3.530419
293.000000	3.529056
294.000000	3.524787
295.000000	3.520180
296.000000	3.518165
297.000000	3.517478
298.000000	3.515786
299.000000	3.514954
300.000000	3.513410
301.000000	3.513172
302.000000	3.511514
303.000000	3.508811
304.000000	3.508014
305.000000	3.506168
306.000000	3.502855
307.000000	3.501494
308.000000	3.502032
309.000000	3.501826
310.000000	3.501747
311.000000	3.498518
312.000000	3.498051
313.000000	3.496805
314.000000	3.493996
315.000000	3.495835
316.000000	3.496148
317.000000	3.508999
318.000000	3.525481
319.000000	3.537390
320.000000	3.546732
321.000000	3.551772
322.000000	3.556663
323.000000	3.564165
324.000000	3.573654
325.000000	3.582774
326.000000	3.587223
327.000000	3.581596
328.000000	3.568027
329.000000	3.557840
330.000000	3.553260
331.000000	3.552073
332.000000	3.549146
333.000000	3.547476
334.000000	3.541112
335.000000	3.535744
336.000000	3.532771
337.000000	3.526769
338.000000	3.524356
339.000000	3.523602
340.000000	3.516642
341.000000	3.515119
342.000000	3.513941
343.000000	3.512598
344.000000	3.514103
345.000000	3.512160
346.000000	3.513552
347.000000	3.513374
348.000000	3.516809
349.000000	3.519734
350.000000	3.527405
351.000000	3.535509
352.000000	3.543160
353.000000	3.551892
354.000000	3.563595
355.000000	3.579626
356.000000	3.600227
357.000000	3.622351
358.000000	3.646907
359.000000	3.678552
360.000000	3.716529
361.000000	3.756171
362.000000	3.805008
363.000000	3.859071
364.000000	3.919037
365.000000	3.982482
366.000000	4.055494
367.000000	4.137627
368.000000	4.224832
369.000000	4.322564
370.000000	4.423220
371.000000	4.530833
372.000000	4.646083
373.000000	4.767645
374.000000	4.894255
375.000000	5.025974
376.000000	5.167545
377.000000	5.335613
378.000000	5.507239
379.000000	5.678855
380.000000	5.855203
381.000000	6.033398
382.000000	6.211449
383.000000	6.387147
384.000000	6.562182
385.000000	6.736381
386.000000	6.899084
387.000000	7.036809
388.000000	7.170074
389.000000	7.297916
390.000000	7.420915
391.000000	7.539682
392.000000	7.654100
393.000000	7.764615
394.000000	7.873702
395.000000	7.979505
396.000000	8.082232
397.000000	8.180380
398.000000	8.276981
399.000000	8.371070
400.000000	8.462433
401.000000	8.551357
402.000000	8.637470
403.000000	8.720998
404.000000	8.800842
405.000000	8.877733
406.000000	8.951073
407.000000	9.022396
408.000000	9.087885
409.000000	9.148744
410.000000	9.205350
411.000000	9.257058
412.000000	9.302956
413.000000	9.342556
414.000000	9.376364
415.000000	9.403106
416.000000	9.424145
417.000000	9.439108
418.000000	9.449792
419.000000	9.455957
420.000000	9.456940
421.000000	9.454749
422.000000	9.451208
423.000000	9.447343
424.000000	9.445360
425.000000	9.447621
426.000000	9.454134
427.000000	9.466886
428.000000	9.488108
429.000000	9.517933
430.000000	9.558980
431.000000	9.609840
432.000000	9.669391
433.000000	9.738114
434.000000	9.813417
435.000000	9.893420
436.000000	9.977877
437.000000	10.064045
438.000000	10.147604
439.000000	10.227756
440.000000	10.302414
441.000000	10.370106
442.000000	10.430129
443.000000	10.480620
444.000000	10.521986
445.000000	10.554969
446.000000	10.578769
447.000000	10.593906
448.000000	10.602814
449.000000	10.605060
450.000000	10.601393
451.000000	10.594668
452.000000	10.585974
453.000000	10.576665
454.000000	10.567305
455.000000	10.559069
456.000000	10.553215
457.000000	10.550262
458.000000	10.551114
459.000000	10.556281
460.000000	10.565683
461.000000	10.578606
462.000000	10.594639
463.000000	10.612993
464.000000	10.632955
465.000000	10.653569
466.000000	10.674690
467.000000	10.696169
468.000000	10.716425
469.000000	10.736014
470.000000	10.755611
471.000000	10.774692
472.000000	10.792591
473.000000	10.810451
474.000000	10.829196
475.000000	10.848803
476.000000	10.869378
477.000000	10.890669
478.000000	10.913359
479.000000	10.937920
480.000000	10.963412
481.000000	10.988216
482.000000	11.013124
483.000000	11.038224
484.000000	11.064294
485.000000	11.091057
486.000000	11.117246
487.000000	11.143268
488.000000	11.168855
489.000000	11.192695
490.000000	11.214554
491.000000	11.235462
492.000000	11.255135
493.000000	11.273083
494.000000	11.286923
495.000000	11.295464
496.000000	11.299928
497.000000	11.300117
498.000000	11.295204
499.000000	11.285942
500.000000	11.272581
501.000000	11.256148
502.000000	11.237003
503.000000	11.215329
504.000000	11.192165
505.000000	11.169886
506.000000	11.148607
507.000000	11.129276
508.000000	11.112942
509.000000	11.100280
510.000000	11.092606
511.000000	11.089782
512.000000	11.092439
513.000000	11.101388
514.000000	11.117945
515.000000	11.141358
516.000000	11.171396
517.000000	11.207671
518.000000	11.250138
519.000000	11.298038
520.000000	11.349928
521.000000	11.404691
522.000000	11.462103
523.000000	11.520404
524.000000	11.579208
525.000000	11.638163
526.000000	11.696984
527.000000	11.755856
528.000000	11.816341
529.000000	11.879150
530.000000	11.945469
531.000000	12.017581
532.000000	12.095382
533.000000	12.179869
534.000000	12.270302
535.000000	12.367125
536.000000	12.470156
537.000000	12.578091
538.000000	12.689281
539.000000	12.802462
540.000000	12.915760
541.000000	13.027353
542.000000	13.136133
543.000000	13.241487
544.000000	13.342833
545.000000	13.438789
546.000000	13.528864
547.000000	13.613232
548.000000	13.691756
549.000000	13.764027
550.000000	13.830890
551.000000	13.891830
552.000000	13.947696
553.000000	13.999335
554.000000	14.046115
555.000000	14.087945
556.000000	14.126504
557.000000	14.162584
558.000000	14.195572
559.000000	14.226324
560.000000	14.254656
561.000000	14.280454
562.000000	14.305061
563.000000	14.327494
564.000000	14.348389
565.000000	14.369603
566.000000	14.390324
567.000000	14.411013
568.000000	14.432607
569.000000	14.454818
570.000000	14.478897
571.000000	14.505530
572.000000	14.533557
573.000000	14.563434
574.000000	14.594804
575.000000	14.628803
576.000000	14.663616
577.000000	14.699543
578.000000	14.734356
579.000000	14.770447
580.000000	14.804692
581.000000	14.838288
582.000000	14.870351
583.000000	14.900341
584.000000	14.929653
585.000000	14.954561
586.000000	14.977972
587.000000	14.998246
588.000000	15.019059
589.000000	15.037379
590.000000	15.055252
591.000000	15.072702
592.000000	15.091367
593.000000	15.112153
594.000000	15.133611
595.000000	15.157403
596.000000	15.182421
597.000000	15.208426
598.000000	15.234277
599.000000	15.258800
600.000000	15.282710
601.000000	15.302464
602.000000	15.318199
603.000000	15.327652
604.000000	15.331904
605.000000	15.331015
606.000000	15.325927
607.000000	15.317518
608.000000	15.305530
609.000000	15.293455
610.000000	15.280511
611.000000	15.267555
612.000000	15.253232
613.000000	15.239944
614.000000	15.224682
615.000000	15.207944
616.000000	15.187850
617.000000	15.164582
618.000000	15.137454
619.000000	15.105495
620.000000	15.067766
621.000000	15.027679
622.000000	14.985127
623.000000	14.940450
624.000000	14.897917
625.000000	14.857505
626.000000	14.821375
627.000000	14.789785
628.000000	14.763765
629.000000	14.743065
630.000000	14.730618
631.000000	14.725215
632.000000	14.725087
633.000000	14.730035
634.000000	14.738329
635.000000	14.750221
636.000000	14.764192
637.000000	14.778473
638.000000	14.793396
639.000000	14.809750
640.000000	14.825388
641.000000	14.839482
642.000000	14.856706
643.000000	14.875129
644.000000	14.896478
645.000000	14.920248
646.000000	14.945648
647.000000	14.976030
648.000000	15.010173
649.000000	15.047898
650.000000	15.090526
651.000000	15.137735
652.000000	15.187919
653.000000	15.242904
654.000000	15.301475
655.000000	15.363900
656.000000	15.432339
657.000000	15.505601
658.000000	15.584476
659.000000	15.668539
660.000000	15.758977
661.000000	15.855632
662.000000	15.957450
663.000000	16.065797
664.000000	16.179011
665.000000	16.298049
666.000000	16.421198
667.000000	16.548713
668.000000	16.679168
669.000000	16.812895
670.000000	16.948259
671.000000	17.086906
672.000000	17.229942
673.000000	17.374946
674.000000	17.522858
675.000000	17.673663
676.000000	17.828691
677.000000	17.987008
678.000000	18.150187
679.000000	18.318532
680.000000	18.491110
681.000000	18.668825
682.000000	18.850042
683.000000	19.034520
684.000000	19.223842
685.000000	19.415144
686.000000	19.608911
687.000000	19.804990
688.000000	20.004086
689.000000	20.203948
690.000000	20.404973
691.000000	20.606233
692.000000	20.807060
693.000000	21.010142
694.000000	21.214024
695.000000	21.420239
696.000000	21.626799
697.000000	21.833008
698.000000	22.036229
699.000000	22.240123
700.000000	22.444313
701.000000	22.648158
702.000000	22.851774
703.000000	23.052225
704.000000	23.250002
705.000000	23.445848
706.000000	23.640382
707.000000	23.833389
708.000000	24.027589
709.000000	24.219060
710.000000	24.408733
711.000000	24.597250
712.000000	24.784671
713.000000	24.969669
714.000000	25.152318
715.000000	25.332690
716.000000	25.509212
717.000000	25.684235
718.000000	25.854724
719.000000	26.021682
720.000000	26.185716
721.000000	26.347162
722.000000	26.503706
723.000000	26.658083
724.000000	26.808166
725.000000	26.952706
726.000000	27.096772
727.000000	27.238198
728.000000	27.377409
729.000000	27.513861
730.000000	27.646920
731.000000	27.775099
732.000000	27.901360
733.000000	28.024652
734.000000	28.146300
735.000000	28.265641
736.000000	28.378486
737.000000	28.488065
738.000000	28.596051
739.000000	28.703168
740.000000	28.806736
741.000000	28.906519
742.000000	29.004135
743.000000	29.099739
744.000000	29.193828
745.000000	29.288209
746.000000	29.384033
747.000000	29.476129
748.000000	29.566018
749.000000	29.653353
750.000000	29.740140
751.000000	29.827221
752.000000	29.910844
753.000000	29.992241
754.000000	30.072640
755.000000	30.152253
756.000000	30.229498
757.000000	30.306289
758.000000	30.383093
759.000000	30.459625
760.000000	30.536601
761.000000	30.612961
762.000000	30.688264
763.000000	30.764037
764.000000	30.842535
765.000000	30.917661
766.000000	30.989324
767.000000	31.059450
768.000000	31.129817
769.000000	31.198980
770.000000	31.265377
771.000000	31.332112
772.000000	31.398402
773.000000	31.464462
774.000000	31.527801
775.000000	31.591573
776.000000	31.658568
777.000000	31.727652
778.000000	31.793837
779.000000	31.859741
780.000000	31.927571
781.000000	31.991319
782.000000	32.057406
783.000000	32.123405
784.000000	32.189062
785.000000	32.255062
786.000000	32.318875
787.000000	32.382580
788.000000	32.445334
789.000000	32.506905
790.000000	32.566989
791.000000	32.630537
792.000000	32.689166
793.000000	32.748385
794.000000	32.806046
795.000000	32.861905
796.000000	32.920862
797.000000	32.980383
798.000000	33.043069
799.000000	33.106621
800.000000	33.171091
801.000000	33.232621
802.000000	33.297821
803.000000	33.363422
804.000000	33.428179
805.000000	33.494754
806.000000	33.557591
807.000000	33.617945
808.000000	33.678016
809.000000	33.739734
810.000000	33.803027
811.000000	33.866735
812.000000	33.927361
813.000000	33.987268
814.000000	34.049981
815.000000	34.109960
816.000000	34.173335
817.000000	34.234397
818.000000	34.293997
819.000000	34.354989
820.000000	34.414458
821.000000	34.478532
822.000000	34.543972
823.000000	34.606597
824.000000	34.670751
825.000000	34.733675
826.000000	34.794622
827.000000	34.858578
828.000000	34.920364
829.000000	34.976594
830.000000	35.028330
831.000000	35.077795
832.000000	35.131091
833.000000	35.182207
834.000000	35.231674
835.000000	35.284955
836.000000	35.338329
837.000000	35.385615
838.000000	35.432441
839.000000	35.486222
840.000000	35.544514
841.000000	35.598231
842.000000	35.647951
843.000000	35.699725
844.000000	35.755552
845.000000	35.805131
846.000000	35.854106
847.000000	35.913104
848.000000	35.961275
849.000000	36.000426
850.000000	36.048190
851.000000	36.084953
852.000000	36.126388
853.000000	36.170454
854.000000	36.191190
855.000000	36.233113
856.000000	36.270710
857.000000	36.304984
858.000000	36.588856
859.000000	36.681898
860.000000	36.782889
861.000000	36.881708
862.000000	36.991401
863.000000	37.086951
864.000000	37.202188
865.000000	37.286377
866.000000	37.379673
867.000000	37.470117
868.000000	37.342498
869.000000	37.387815
870.000000	37.407765
871.000000	37.431475
872.000000	37.441005
873.000000	37.467243
874.000000	37.477953
875.000000	37.514685
876.000000	37.549130
877.000000	37.576853
878.000000	37.577940
879.000000	37.604315
880.000000	37.600453
881.000000	37.616372
882.000000	37.622035
883.000000	37.619577
884.000000	37.636895
885.000000	37.645507
886.000000	37.646547
887.000000	37.653638
888.000000	37.661920
889.000000	37.657130
890.000000	37.677782
891.000000	37.678600
892.000000	37.685167
893.000000	37.693975
894.000000	37.690602
895.000000	37.680880
896.000000	37.673642
897.000000	37.666665
898.000000	37.661158
899.000000	37.656230
900.000000	37.650330
901.000000	37.650623
902.000000	37.645873
903.000000	37.641970
904.000000	37.636420
905.000000	37.635005
906.000000	37.631907
907.000000	37.626427
908.000000	37.620270
909.000000	37.610147
910.000000	37.604175
911.000000	37.598872
912.000000	37.593145
913.000000	37.588400
914.000000	37.583578
915.000000	37.576440
916.000000	37.567213
917.000000	37.558213
918.000000	37.546365
919.000000	37.539262
920.000000	37.533327
921.000000	37.526575
922.000000	37.520898
923.000000	37.503208
924.000000	37.492645
925.000000	37.479095
926.000000	37.464133
927.000000	37.443192
928.000000	37.424783
929.000000	37.406662
930.000000	37.389077
931.000000	37.368300
932.000000	37.345250
933.000000	37.327215
934.000000	37.305155
935.000000	37.281255
936.000000	37.258868
937.000000	37.236420
938.000000	37.211287
939.000000	37.184065
940.000000	37.158400
941.000000	37.131507
942.000000	37.109153
943.000000	37.085695
944.000000	37.059238
945.000000	37.032502
946.000000	37.003677
947.000000	36.978428
948.000000	36.952040
949.000000	36.927142
950.000000	36.900013
951.000000	36.873928
952.000000	36.848010
953.000000	36.824410
954.000000	36.800410
955.000000	36.777518
956.000000	36.752845
957.000000	36.727717
958.000000	36.702253
959.000000	36.677242
960.000000	36.653878
961.000000	36.631510
962.000000	36.607855
963.000000	36.582595
964.000000	36.556785
965.000000	36.531523
966.000000	36.509005
967.000000	36.487360
968.000000	36.469057
969.000000	36.447568
970.000000	36.422597
971.000000	36.398430
972.000000	36.376865
973.000000	36.356605
974.000000	36.337867
975.000000	36.319313
976.000000	36.300252
977.000000	36.280137
978.000000	36.260120
979.000000	36.243232
980.000000	36.228482
981.000000	36.214637
982.000000	36.200333
983.000000	36.187688
984.000000	36.176005
985.000000	36.163792
986.000000	36.153320
987.000000	36.144063
988.000000	36.135577
989.000000	36.129875
990.000000	36.125310
991.000000	36.122532
992.000000	36.120105
993.000000	36.116370
994.000000	36.112830
995.000000	36.111990
996.000000	36.112827
997.000000	36.113835
998.000000	36.114863
999.000000	36.115440
1000.000000	36.117908
1001.000000	36.120913
1002.000000	36.124510
1003.000000	36.130193
1004.000000	36.137923
1005.000000	36.143707
1006.000000	36.147937
1007.000000	36.153917
1008.000000	36.160395
1009.000000	36.168400
1010.000000	36.176265
1011.000000	36.184502
1012.000000	36.194862
1013.000000	36.205690
1014.000000	36.215567
1015.000000	36.227370
1016.000000	36.242548
1017.000000	36.258092
1018.000000	36.274677
1019.000000	36.293057
1020.000000	36.312640
1021.000000	36.333340
1022.000000	36.354483
1023.000000	36.376960
1024.000000	36.398843
1025.000000	36.421880
1026.000000	36.446263
1027.000000	36.472060
1028.000000	36.498750
1029.000000	36.524617
1030.000000	36.552085
1031.000000	36.580332
1032.000000	36.608650
1033.000000	36.637510
1034.000000	36.667893
1035.000000	36.696872
1036.000000	36.724833
1037.000000	36.753603
1038.000000	36.783280
1039.000000	36.812945
1040.000000	36.841787
1041.000000	36.872368
1042.000000	36.904025
1043.000000	36.935057
1044.000000	36.966362
1045.000000	37.000250
1046.000000	37.034670
1047.000000	37.067720
1048.000000	37.100507
1049.000000	37.135262
1050.000000	37.170407
1051.000000	37.202938
1052.000000	37.235150
1053.000000	37.268617
1054.000000	37.303270
1055.000000	37.338268
1056.000000	37.373142
1057.000000	37.409082
1058.000000	37.445755
1059.000000	37.481103
1060.000000	37.517083
1061.000000	37.554487
1062.000000	37.592850
1063.000000	37.630747
1064.000000	37.667703
1065.000000	37.704625
1066.000000	37.741380
1067.000000	37.778460
1068.000000	37.815068
1069.000000	37.852182
1070.000000	37.888825
1071.000000	37.926370
1072.000000	37.962995
1073.000000	37.999587
1074.000000	38.037667
1075.000000	38.075050
1076.000000	38.113525
1077.000000	38.151573
1078.000000	38.189662
1079.000000	38.227252
1080.000000	38.264027
1081.000000	38.299678
1082.000000	38.335972
1083.000000	38.371960
1084.000000	38.407122
1085.000000	38.443080
1086.000000	38.479000
1087.000000	38.515265
1088.000000	38.549847
1089.000000	38.582923
1090.000000	38.616223
1091.000000	38.649950
1092.000000	38.683040
1093.000000	38.715212
1094.000000	38.746775
1095.000000	38.777580
1096.000000	38.807222
1097.000000	38.836170
1098.000000	38.865462
1099.000000	38.897910
1100.000000	38.929347
1101.000000	38.959090
1102.000000	38.988302
1103.000000	39.016200
1104.000000	39.044702
1105.000000	39.072093
1106.000000	39.098910
1107.000000	39.124990
1108.000000	39.149592
1109.000000	39.171892
1110.000000	39.193140
1111.000000	39.215378
1112.000000	39.236378
1113.000000	39.256690
1114.000000	39.276463
1115.000000	39.295522
1116.000000	39.313508
1117.000000	39.330510
1118.000000	39.349090
1119.000000	39.366685
1120.000000	39.384000
1121.000000	39.399703
1122.000000	39.414617
1123.000000	39.427903
1124.000000	39.437830
1125.000000	39.444900
1126.000000	39.450350
1127.000000	39.451230
1128.000000	39.449180
1129.000000	39.442275
1130.000000	39.430752
1131.000000	39.412238
1132.000000	39.389180
1133.000000	39.364887
1134.000000	39.339658
1135.000000	39.311930
1136.000000	39.277935
1137.000000	39.242270
1138.000000	39.204168
1139.000000	39.165430
1140.000000	39.126605
1141.000000	39.090727
1142.000000	39.055270
1143.000000	39.020043
1144.000000	38.985182
1145.000000	38.952100
1146.000000	38.922942
1147.000000	38.895135
1148.000000	38.866962
1149.000000	38.841497
1150.000000	38.816862
1151.000000	38.790520
1152.000000	38.763805
1153.000000	38.735008
1154.000000	38.701837
1155.000000	38.665300
1156.000000	38.625560
1157.000000	38.583480
1158.000000	38.538017
1159.000000	38.487115
1160.000000	38.432552
1161.000000	38.374365
1162.000000	38.312607
1163.000000	38.247698
1164.000000	38.181120
1165.000000	38.112968
1166.000000	38.044215
1167.000000	37.973430
1168.000000	37.902555
1169.000000	37.834875
1170.000000	37.768952
1171.000000	37.705777
1172.000000	37.646028
1173.000000	37.589555
1174.000000	37.537013
1175.000000	37.489232
1176.000000	37.444835
1177.000000	37.405320
1178.000000	37.370975
1179.000000	37.338757
1180.000000	37.308965
1181.000000	37.282063
1182.000000	37.257065
1183.000000	37.235118
1184.000000	37.216223
1185.000000	37.201432
1186.000000	37.191280
1187.000000	37.185895
1188.000000	37.184380
1189.000000	37.189312
1190.000000	37.200407
1191.000000	37.218675
1192.000000	37.243363
1193.000000	37.273983
1194.000000	37.310052
1195.000000	37.348640
1196.000000	37.390370
1197.000000	37.436000
1198.000000	37.485110
1199.000000	37.533525
1200.000000	37.583473
1201.000000	37.634280
1202.000000	37.684427
1203.000000	37.732903
1204.000000	37.780780
1205.000000	37.828180
1206.000000	37.874250
1207.000000	37.920262
1208.000000	37.965055
1209.000000	38.009973
1210.000000	38.054445
1211.000000	38.096693
1212.000000	38.138668
1213.000000	38.180135
1214.000000	38.219390
1215.000000	38.256592
1216.000000	38.293022
1217.000000	38.327272
1218.000000	38.360383
1219.000000	38.392232
1220.000000	38.422303
1221.000000	38.451845
1222.000000	38.480510
1223.000000	38.507452
1224.000000	38.535180
1225.000000	38.563943
1226.000000	38.592820
1227.000000	38.620620
1228.000000	38.648398
1229.000000	38.676200
1230.000000	38.704825
1231.000000	38.733288
1232.000000	38.761665
1233.000000	38.791340
1234.000000	38.820265
1235.000000	38.849030
1236.000000	38.878060
1237.000000	38.907407
1238.000000	38.937315
1239.000000	38.967612
1240.000000	38.997727
1241.000000	39.028697
1242.000000	39.060437
1243.000000	39.093918
1244.000000	39.128640
1245.000000	39.164162
1246.000000	39.199472
1247.000000	39.235518
1248.000000	39.271943
1249.000000	39.308473
1250.000000	39.345105
1251.000000	39.381155
1252.000000	39.416315
1253.000000	39.449060
1254.000000	39.480045
1255.000000	39.508910
1256.000000	39.537382
1257.000000	39.564005
1258.000000	39.587737
1259.000000	39.609478
1260.000000	39.628915
1261.000000	39.646437
1262.000000	39.661925
1263.000000	39.676753
1264.000000	39.690510
1265.000000	39.703653
1266.000000	39.714885
1267.000000	39.725183
1268.000000	39.734748
1269.000000	39.744303
1270.000000	39.753503
1271.000000	39.761405
1272.000000	39.769312
1273.000000	39.776843
1274.000000	39.784827
1275.000000	39.793080
1276.000000	39.801975
1277.000000	39.812407
1278.000000	39.824407
1279.000000	39.836367
1280.000000	39.849217
1281.000000	39.864137
1282.000000	39.881613
1283.000000	39.900560
1284.000000	39.919697
1285.000000	39.939442
1286.000000	39.960307
1287.000000	39.981882
1288.000000	40.004068
1289.000000	40.027405
1290.000000	40.050812
1291.000000	40.073815
1292.000000	40.095140
1293.000000	40.115162
1294.000000	40.135515
1295.000000	40.156177
1296.000000	40.174780
1297.000000	40.191183
1298.000000	40.206277
1299.000000	40.219952
1300.000000	40.231822
1301.000000	40.242440
1302.000000	40.251855
1303.000000	40.259882
1304.000000	40.264537
1305.000000	40.265840
1306.000000	40.266088
1307.000000	40.265207
1308.000000	40.262408
1309.000000	40.256905
1310.000000	40.249795
1311.000000	40.240350
1312.000000	40.228578
1313.000000	40.214813
1314.000000	40.199310
1315.000000	40.182620
1316.000000	40.164550
1317.000000	40.144033
1318.000000	40.122160
1319.000000	40.099293
1320.000000	40.075205
1321.000000	40.049780
1322.000000	40.021882
1323.000000	39.991687
1324.000000	39.960025
1325.000000	39.925885
1326.000000	39.890028
1327.000000	39.853828
1328.000000	39.814585
1329.000000	39.772970
1330.000000	39.728928
1331.000000	39.681522
1332.000000	39.631720
1333.000000	39.578495
1334.000000	39.522053
1335.000000	39.462715
1336.000000	39.398935
1337.000000	39.329118
1338.000000	39.256218
1339.000000	39.178858
1340.000000	39.096112
1341.000000	39.009208
1342.000000	38.918168
1343.000000	38.824195
1344.000000	38.724287
1345.000000	38.619535
1346.000000	38.511410
1347.000000	38.401418
1348.000000	38.286768
1349.000000	38.168077
1350.000000	38.047123
1351.000000	37.924465
1352.000000	37.801203
1353.000000	37.679893
1354.000000	37.565655
1355.000000	37.455550
1356.000000	37.349085
1357.000000	37.245398
1358.000000	37.147217
1359.000000	37.055923
1360.000000	36.974683
1361.000000	36.905488
1362.000000	36.839527
1363.000000	36.773097
1364.000000	36.706958
1365.000000	36.638362
1366.000000	36.567087
1367.000000	36.496192
1368.000000	36.420225
1369.000000	36.336748
1370.000000	36.239767
1371.000000	36.126395
1372.000000	35.998068
1373.000000	35.852195
1374.000000	35.686018
1375.000000	35.506647
1376.000000	35.310635
1377.000000	35.097093
1378.000000	34.869903
1379.000000	34.633512
1380.000000	34.397280
1381.000000	34.166518
1382.000000	33.944027
1383.000000	33.737965
1384.000000	33.542580
1385.000000	33.357732
1386.000000	33.189338
1387.000000	33.040537
1388.000000	32.905010
1389.000000	32.778928
1390.000000	32.654663
1391.000000	32.532395
1392.000000	32.413125
1393.000000	32.292620
1394.000000	32.178505
1395.000000	32.070260
1396.000000	31.956870
1397.000000	31.827375
1398.000000	31.695148
1399.000000	31.565725
1400.000000	31.440312
1401.000000	31.299813
1402.000000	31.147297
1403.000000	30.984775
1404.000000	30.814143
1405.000000	30.630930
1406.000000	30.442370
1407.000000	30.254510
1408.000000	30.061003
1409.000000	29.856763
1410.000000	29.639040
1411.000000	29.422467
1412.000000	29.210408
1413.000000	29.002522
1414.000000	28.796283
1415.000000	28.587980
1416.000000	28.379943
1417.000000	28.178273
1418.000000	27.985067
1419.000000	27.797140
1420.000000	27.614785
1421.000000	27.441250
1422.000000	27.273823
1423.000000	27.110475
1424.000000	26.950337
1425.000000	26.798617
1426.000000	26.656308
1427.000000	26.518977
1428.000000	26.383755
1429.000000	26.252733
1430.000000	26.132153
1431.000000	26.016065
1432.000000	25.905075
1433.000000	25.799793
1434.000000	25.696850
1435.000000	25.599345
1436.000000	25.506615
1437.000000	25.416548
1438.000000	25.330470
1439.000000	25.249290
1440.000000	25.169105
1441.000000	25.092177
1442.000000	25.015853
1443.000000	24.941378
1444.000000	24.871620
1445.000000	24.806783
1446.000000	24.741965
1447.000000	24.676102
1448.000000	24.609855
1449.000000	24.547290
1450.000000	24.487038
1451.000000	24.427855
1452.000000	24.368673
1453.000000	24.308327
1454.000000	24.246625
1455.000000	24.183075
1456.000000	24.119615
1457.000000	24.058510
1458.000000	23.998095
1459.000000	23.935110
1460.000000	23.871147
1461.000000	23.806185
1462.000000	23.743360
1463.000000	23.681290
1464.000000	23.620345
1465.000000	23.560327
1466.000000	23.500863
1467.000000	23.442457
1468.000000	23.384165
1469.000000	23.327850
1470.000000	23.272520
1471.000000	23.219080
1472.000000	23.166307
1473.000000	23.114937
1474.000000	23.064985
1475.000000	23.014940
1476.000000	22.968498
1477.000000	22.923948
1478.000000	22.882198
1479.000000	22.842820
1480.000000	22.805753
1481.000000	22.771323
1482.000000	22.740095
1483.000000	22.712515
1484.000000	22.687565
1485.000000	22.665290
1486.000000	22.644032
1487.000000	22.623970
1488.000000	22.606162
1489.000000	22.589580
1490.000000	22.574833
1491.000000	22.562205
1492.000000	22.550873
1493.000000	22.541580
1494.000000	22.534530
1495.000000	22.530310
1496.000000	22.529387
1497.000000	22.532415
1498.000000	22.538902
1499.000000	22.548233
1500.000000	22.561637
1501.000000	22.578498
1502.000000	22.600335
1503.000000	22.626497
1504.000000	22.656353
1505.000000	22.689698
1506.000000	22.726675
1507.000000	22.767388
1508.000000	22.811867
1509.000000	22.859178
1510.000000	22.909118
1511.000000	22.961787
1512.000000	23.015163
1513.000000	23.068307
1514.000000	23.122132
1515.000000	23.176472
1516.000000	23.231078
1517.000000	23.286157
1518.000000	23.340248
1519.000000	23.394262
1520.000000	23.447290
1521.000000	23.499378
1522.000000	23.551047
1523.000000	23.602812
1524.000000	23.654975
1525.000000	23.706830
1526.000000	23.757860
1527.000000	23.807260
1528.000000	23.855835
1529.000000	23.903887
1530.000000	23.951105
1531.000000	23.997315
1532.000000	24.041905
1533.000000	24.085043
1534.000000	24.127282
1535.000000	24.168610
1536.000000	24.208720
1537.000000	24.248320
1538.000000	24.286445
1539.000000	24.323065
1540.000000	24.358287
1541.000000	24.392200
1542.000000	24.426658
1543.000000	24.461830
1544.000000	24.496837
1545.000000	24.532310
1546.000000	24.569313
1547.000000	24.607455
1548.000000	24.648988
1549.000000	24.693013
1550.000000	24.738570
1551.000000	24.786223
1552.000000	24.834100
1553.000000	24.881698
1554.000000	24.929110
1555.000000	24.975185
1556.000000	25.018585
1557.000000	25.059525
1558.000000	25.095917
1559.000000	25.127698
1560.000000	25.155757
1561.000000	25.180978
1562.000000	25.202727
1563.000000	25.219902
1564.000000	25.232527
1565.000000	25.241525
1566.000000	25.246623
1567.000000	25.248172
1568.000000	25.247590
1569.000000	25.245857
1570.000000	25.243198
1571.000000	25.238917
1572.000000	25.233148
1573.000000	25.228590
1574.000000	25.225272
1575.000000	25.222528
1576.000000	25.222473
1577.000000	25.224975
1578.000000	25.229388
1579.000000	25.236640
1580.000000	25.246942
1581.000000	25.258960
1582.000000	25.274783
1583.000000	25.293095
1584.000000	25.313820
1585.000000	25.338120
1586.000000	25.364980
1587.000000	25.393740
1588.000000	25.424118
1589.000000	25.455710
1590.000000	25.489305
1591.000000	25.525180
1592.000000	25.560960
1593.000000	25.596550
1594.000000	25.634395
1595.000000	25.674448
1596.000000	25.715375
1597.000000	25.757590
1598.000000	25.801952
1599.000000	25.848655
1600.000000	25.896380
1601.000000	25.945210
1602.000000	25.996920
1603.000000	26.051405
1604.000000	26.105273
1605.000000	26.159550
1606.000000	26.214940
1607.000000	26.269842
1608.000000	26.324102
1609.000000	26.377143
1610.000000	26.428725
1611.000000	26.478483
1612.000000	26.526863
1613.000000	26.572950
1614.000000	26.618340
1615.000000	26.660545
1616.000000	26.699548
1617.000000	26.737277
1618.000000	26.774088
1619.000000	26.809405
1620.000000	26.843897
1621.000000	26.877522
1622.000000	26.909550
1623.000000	26.940740
1624.000000	26.971275
1625.000000	27.001160
1626.000000	27.031282
1627.000000	27.059998
1628.000000	27.089033
1629.000000	27.117453
1630.000000	27.144227
1631.000000	27.169880
1632.000000	27.195677
1633.000000	27.221022
1634.000000	27.244462
1635.000000	27.266910
1636.000000	27.286987
1637.000000	27.307005
1638.000000	27.323985
1639.000000	27.339755
1640.000000	27.353442
1641.000000	27.366415
1642.000000	27.375718
1643.000000	27.383060
1644.000000	27.389842
1645.000000	27.395780
1646.000000	27.400230
1647.000000	27.402545
1648.000000	27.403308
1649.000000	27.400485
1650.000000	27.396258
1651.000000	27.387757
1652.000000	27.377205
1653.000000	27.362065
1654.000000	27.342050
1655.000000	27.315487
1656.000000	27.283028
1657.000000	27.244815
1658.000000	27.199780
1659.000000	27.147653
1660.000000	27.087515
1661.000000	27.021203
1662.000000	26.947635
1663.000000	26.868400
1664.000000	26.781392
1665.000000	26.688915
1666.000000	26.590920
1667.000000	26.486787
1668.000000	26.376628
1669.000000	26.261888
1670.000000	26.143928
1671.000000	26.024063
1672.000000	25.902033
1673.000000	25.779583
1674.000000	25.657005
1675.000000	25.535947
1676.000000	25.415110
1677.000000	25.295935
1678.000000	25.176538
1679.000000	25.057523
1680.000000	24.937605
1681.000000	24.814883
1682.000000	24.692570
1683.000000	24.568500
1684.000000	24.447295
1685.000000	24.327348
1686.000000	24.214055
1687.000000	24.109783
1688.000000	24.020105
1689.000000	23.944987
1690.000000	23.887995
1691.000000	23.850155
1692.000000	23.830210
1693.000000	23.827783
1694.000000	23.838935
1695.000000	23.860980
1696.000000	23.892253
1697.000000	23.926308
1698.000000	23.958695
1699.000000	23.988473
1700.000000	24.012270
1701.000000	24.028787
1702.000000	24.035527
1703.000000	24.035160
1704.000000	24.026785
1705.000000	24.010605
1706.000000	23.984108
1707.000000	23.948105
1708.000000	23.905005
1709.000000	23.854160
1710.000000	23.795000
1711.000000	23.726868
1712.000000	23.649850
1713.000000	23.561737
1714.000000	23.463545
1715.000000	23.357610
1716.000000	23.244018
1717.000000	23.124380
1718.000000	22.998613
1719.000000	22.869695
1720.000000	22.741167
1721.000000	22.616485
1722.000000	22.500380
1723.000000	22.394695
1724.000000	22.302755
1725.000000	22.225485
1726.000000	22.165730
1727.000000	22.124120
1728.000000	22.099770
1729.000000	22.091537
1730.000000	22.097650
1731.000000	22.115200
1732.000000	22.140440
1733.000000	22.174100
1734.000000	22.213273
1735.000000	22.256352
1736.000000	22.302013
1737.000000	22.349710
1738.000000	22.400335
1739.000000	22.455312
1740.000000	22.511335
1741.000000	22.569145
1742.000000	22.629540
1743.000000	22.690983
1744.000000	22.752828
1745.000000	22.814708
1746.000000	22.876420
1747.000000	22.936415
1748.000000	22.993050
1749.000000	23.044230
1750.000000	23.092365
1751.000000	23.135895
1752.000000	23.174240
1753.000000	23.206938
1754.000000	23.234720
1755.000000	23.258408
1756.000000	23.276485
1757.000000	23.291225
1758.000000	23.304633
1759.000000	23.315743
1760.000000	23.325493
1761.000000	23.334570
1762.000000	23.343500
1763.000000	23.353290
1764.000000	23.364330
1765.000000	23.377455
1766.000000	23.394107
1767.000000	23.413018
1768.000000	23.433188
1769.000000	23.455835
1770.000000	23.480992
1771.000000	23.508385
1772.000000	23.537580
1773.000000	23.568365
1774.000000	23.601150
1775.000000	23.634315
1776.000000	23.668210
1777.000000	23.702378
1778.000000	23.736775
1779.000000	23.771565
1780.000000	23.803865
1781.000000	23.834515
1782.000000	23.863847
1783.000000	23.889585
1784.000000	23.912400
1785.000000	23.933480
1786.000000	23.950872
1787.000000	23.965283
1788.000000	23.977485
1789.000000	23.986097
1790.000000	23.993212
1791.000000	24.000532
1792.000000	24.008288
1793.000000	24.017267
1794.000000	24.026398
1795.000000	24.035455
1796.000000	24.046195
1797.000000	24.057772
1798.000000	24.070150
1799.000000	24.085317
1800.000000	24.103790
1801.000000	24.124170
1802.000000	24.143780
1803.000000	24.161358
1804.000000	24.178110
1805.000000	24.196672
1806.000000	24.216695
1807.000000	24.237137
1808.000000	24.255023
1809.000000	24.271392
1810.000000	24.288525
1811.000000	24.305277
1812.000000	24.321360
1813.000000	24.338757
1814.000000	24.356848
1815.000000	24.373125
1816.000000	24.385805
1817.000000	24.393718
1818.000000	24.400875
1819.000000	24.411738
1820.000000	24.425133
1821.000000	24.438585
1822.000000	24.448255
1823.000000	24.451420
1824.000000	24.451560
1825.000000	24.451950
1826.000000	24.455127
1827.000000	24.465970
1828.000000	24.480843
1829.000000	24.494217
1830.000000	24.505132
1831.000000	24.513948
1832.000000	24.523195
1833.000000	24.536755
1834.000000	24.555032
1835.000000	24.577638
1836.000000	24.604180
1837.000000	24.629697
1838.000000	24.654780
1839.000000	24.681230
1840.000000	24.709035
1841.000000	24.741160
1842.000000	24.777795
1843.000000	24.811145
1844.000000	24.833638
1845.000000	24.846990
1846.000000	24.859915
1847.000000	24.880405
1848.000000	24.904583
1849.000000	24.921377
1850.000000	24.925695
1851.000000	24.919735
1852.000000	24.909315
1853.000000	24.903090
1854.000000	24.905420
1855.000000	24.909017
1856.000000	24.901680
1857.000000	24.880052
1858.000000	24.851302
1859.000000	24.825747
1860.000000	24.803442
1861.000000	24.779643
1862.000000	24.750335
1863.000000	24.711602
1864.000000	24.661350
1865.000000	24.602602
1866.000000	24.541625
1867.000000	24.474192
1868.000000	24.399217
1869.000000	24.314185
1870.000000	24.227377
1871.000000	24.136468
1872.000000	24.038103
1873.000000	23.937307
1874.000000	23.829775
1875.000000	23.713977
1876.000000	23.584070
1877.000000	23.444093
1878.000000	23.290448
1879.000000	23.121525
1880.000000	22.930102
1881.000000	22.722905
1882.000000	22.507493
1883.000000	22.278420
1884.000000	22.039475
1885.000000	21.790128
1886.000000	21.530865
1887.000000	21.257285
1888.000000	20.974475
1889.000000	20.683122
1890.000000	20.387120
1891.000000	20.085372
1892.000000	19.772348
1893.000000	19.452272
1894.000000	19.122107
1895.000000	18.785435
1896.000000	18.445070
1897.000000	18.104087
1898.000000	17.760555
1899.000000	17.417848
1900.000000	17.074413
1901.000000	16.733420
1902.000000	16.394447
1903.000000	16.057803
1904.000000	15.735542
1905.000000	15.424955
1906.000000	15.124133
1907.000000	14.834475
1908.000000	14.552855
1909.000000	14.282835
1910.000000	14.022032
1911.000000	13.774690
1912.000000	13.546905
1913.000000	13.332052
1914.000000	13.128430
1915.000000	12.936232
1916.000000	12.753995
1917.000000	12.582915
1918.000000	12.429190
1919.000000	12.287785
1920.000000	12.160608
1921.000000	12.041858
1922.000000	11.928152
1923.000000	11.824203
1924.000000	11.726180
1925.000000	11.633850
1926.000000	11.553638
1927.000000	11.481583
1928.000000	11.417708
1929.000000	11.358117
1930.000000	11.304150
1931.000000	11.252905
1932.000000	11.212840
1933.000000	11.179035
1934.000000	11.150057
1935.000000	11.125993
1936.000000	11.108977
1937.000000	11.094278
1938.000000	11.086738
1939.000000	11.086940
1940.000000	11.093578
1941.000000	11.105567
1942.000000	11.117575
1943.000000	11.135727
1944.000000	11.157715
1945.000000	11.187910
1946.000000	11.220680
1947.000000	11.258640
1948.000000	11.293640
1949.000000	11.330678
1950.000000	11.371263
1951.000000	11.416075
1952.000000	11.463685
1953.000000	11.513243
1954.000000	11.569850
1955.000000	11.626057
1956.000000	11.680200
1957.000000	11.736335
1958.000000	11.795162
1959.000000	11.853087
1960.000000	11.909860
1961.000000	11.968077
1962.000000	12.025695
1963.000000	12.084948
1964.000000	12.141687
1965.000000	12.197612
1966.000000	12.253692
1967.000000	12.308440
1968.000000	12.365568
1969.000000	12.422532
1970.000000	12.480395
1971.000000	12.537725
1972.000000	12.597758
1973.000000	12.658177
1974.000000	12.713735
1975.000000	12.769935
1976.000000	12.828070
1977.000000	12.888753
1978.000000	12.945718
1979.000000	13.004513
1980.000000	13.062470
1981.000000	13.125140
1982.000000	13.184508
1983.000000	13.243170
1984.000000	13.304927
1985.000000	13.366502
1986.000000	13.427655
1987.000000	13.487515
1988.000000	13.550618
1989.000000	13.612497
1990.000000	13.674645
1991.000000	13.730938
1992.000000	13.789140
1993.000000	13.843830
1994.000000	13.897285
1995.000000	13.951358
1996.000000	14.002918
1997.000000	14.051448
1998.000000	14.095347
1999.000000	14.140620
2000.000000	14.183877
2001.000000	14.225352
2002.000000	14.262780
2003.000000	14.301455
2004.000000	14.341870
2005.000000	14.375955
2006.000000	14.405477
2007.000000	14.431852
2008.000000	14.456950
2009.000000	14.475547
2010.000000	14.491043
2011.000000	14.505045
2012.000000	14.513510
2013.000000	14.515460
2014.000000	14.508495
2015.000000	14.497643
2016.000000	14.483102
2017.000000	14.467643
2018.000000	14.448508
2019.000000	14.426438
2020.000000	14.401048
2021.000000	14.370978
2022.000000	14.339007
2023.000000	14.303405
2024.000000	14.260775
2025.000000	14.217570
2026.000000	14.170530
2027.000000	14.119980
2028.000000	14.067798
2029.000000	14.012525
2030.000000	13.953745
2031.000000	13.890123
2032.000000	13.822995
2033.000000	13.751140
2034.000000	13.679750
2035.000000	13.604900
2036.000000	13.529905
2037.000000	13.451040
2038.000000	13.368728
2039.000000	13.284820
2040.000000	13.198753
2041.000000	13.112007
2042.000000	13.022602
2043.000000	12.935207
2044.000000	12.848390
2045.000000	12.763467
2046.000000	12.679940
2047.000000	12.595657
2048.000000	12.511700
2049.000000	12.434195
2050.000000	12.361580
2051.000000	12.292265
2052.000000	12.237725
2053.000000	12.193135
2054.000000	12.155290
2055.000000	12.126867
2056.000000	12.108008
2057.000000	12.101020
2058.000000	12.104408
2059.000000	12.115532
2060.000000	12.137715
2061.000000	12.171812
2062.000000	12.208625
2063.000000	12.247820
2064.000000	12.297620
2065.000000	12.350065
2066.000000	12.402692
2067.000000	12.460517
2068.000000	12.520040
2069.000000	12.578800
2070.000000	12.637090
2071.000000	12.699652
2072.000000	12.767312
2073.000000	12.835582
2074.000000	12.899627
2075.000000	12.961385
2076.000000	13.020380
2077.000000	13.075943
2078.000000	13.130478
2079.000000	13.182880
2080.000000	13.230568
2081.000000	13.272020
2082.000000	13.306145
2083.000000	13.337148
2084.000000	13.362143
2085.000000	13.381230
2086.000000	13.400018
2087.000000	13.418095
2088.000000	13.432053
2089.000000	13.441975
2090.000000	13.452505
2091.000000	13.461665
2092.000000	13.466942
2093.000000	13.468925
2094.000000	13.467343
2095.000000	13.465373
2096.000000	13.459345
2097.000000	13.453415
2098.000000	13.451863
2099.000000	13.449325
2100.000000	13.446620
2101.000000	13.443600
2102.000000	13.441825
2103.000000	13.435897
2104.000000	13.435240
2105.000000	13.440402
2106.000000	13.454885
2107.000000	13.464630
2108.000000	13.468562
2109.000000	13.478035
2110.000000	13.481572
2111.000000	13.481707
2112.000000	13.478800
2113.000000	13.477148
2114.000000	13.475100
2115.000000	13.474785
2116.000000	13.467987
2117.000000	13.456475
2118.000000	13.450700
2119.000000	13.438605
2120.000000	13.421267
2121.000000	13.405985
2122.000000	13.390040
2123.000000	13.383110
2124.000000	13.381685
2125.000000	13.369170
2126.000000	13.351175
2127.000000	13.329667
2128.000000	13.295263
2129.000000	13.263212
2130.000000	13.231957
2131.000000	13.198805
2132.000000	13.169127
2133.000000	13.133107
2134.000000	13.082945
2135.000000	13.032108
2136.000000	12.984790
2137.000000	12.932377
2138.000000	12.882767
2139.000000	12.828593
2140.000000	12.775545
2141.000000	12.714200
2142.000000	12.648105
2143.000000	12.580525
2144.000000	12.513845
2145.000000	12.443898
2146.000000	12.370805
2147.000000	12.296682
2148.000000	12.224012
2149.000000	12.157855
2150.000000	12.091017
2151.000000	12.032882
2152.000000	11.970313
2153.000000	11.904838
2154.000000	11.830610
2155.000000	11.758970
2156.000000	11.690225
2157.000000	11.639640
2158.000000	11.587820
2159.000000	11.535407
2160.000000	11.477367
2161.000000	11.418862
2162.000000	11.367172
2163.000000	11.311182
2164.000000	11.275868
2165.000000	11.247468
2166.000000	11.213577
2167.000000	11.181890
2168.000000	11.152212
2169.000000	11.120105
2170.000000	11.087338
2171.000000	11.050625
2172.000000	11.024497
2173.000000	11.007442
2174.000000	10.971927
2175.000000	10.950943
2176.000000	10.933400
2177.000000	10.903270
2178.000000	10.885200
2179.000000	10.867120
2180.000000	10.856505
2181.000000	10.858197
2182.000000	10.842535
2183.000000	10.832795
2184.000000	10.838883
2185.000000	10.818877
2186.000000	10.804205
2187.000000	10.801687
2188.000000	10.784907
2189.000000	10.761492
2190.000000	10.745055
2191.000000	10.714730
2192.000000	10.693127
2193.000000	10.662380
2194.000000	10.628850
2195.000000	10.603727
2196.000000	10.572492
2197.000000	10.526447
2198.000000	10.480947
2199.000000	10.445150
2200.000000	10.409085
2201.000000	10.364850
2202.000000	10.322825
2203.000000	10.289715
2204.000000	10.247727
2205.000000	10.204598
2206.000000	10.169160
2207.000000	10.149545
2208.000000	10.138172
2209.000000	10.118982
2210.000000	10.111213
2211.000000	10.114928
2212.000000	10.119727
2213.000000	10.120093
2214.000000	10.151193
2215.000000	10.177758
2216.000000	10.215385
2217.000000	10.256858
2218.000000	10.302398
2219.000000	10.357238
2220.000000	10.399868
2221.000000	10.449603
2222.000000	10.500685
2223.000000	10.562820
2224.000000	10.609530
2225.000000	10.663372
2226.000000	10.720735
2227.000000	10.774423
2228.000000	10.813197
2229.000000	10.850135
2230.000000	10.886505
2231.000000	10.931167
2232.000000	10.963160
2233.000000	10.992687
2234.000000	11.016897
2235.000000	11.046050
2236.000000	11.056965
2237.000000	11.053105
2238.000000	11.056645
2239.000000	11.056083
2240.000000	11.054793
2241.000000	11.041658
2242.000000	11.032460
2243.000000	11.012647
2244.000000	10.981973
2245.000000	10.932660
2246.000000	10.882138
2247.000000	10.831805
2248.000000	10.783898
2249.000000	10.734383
2250.000000	10.684943
2251.000000	10.626835
2252.000000	10.561465
2253.000000	10.493842
2254.000000	10.427695
2255.000000	10.376603
2256.000000	10.314065
2257.000000	10.269190
2258.000000	10.213017
2259.000000	10.156200
2260.000000	10.098553
2261.000000	10.048917
2262.000000	10.010645
2263.000000	9.965277
2264.000000	9.928123
2265.000000	9.904505
2266.000000	9.892172
2267.000000	9.872463
2268.000000	9.855003
2269.000000	9.833805
2270.000000	9.813510
2271.000000	9.801847
2272.000000	9.791295
2273.000000	9.796325
2274.000000	9.801652
2275.000000	9.805958
2276.000000	9.806245
2277.000000	9.792480
2278.000000	9.778395
2279.000000	9.778967
2280.000000	9.791818
2281.000000	9.805827
2282.000000	9.813400
2283.000000	9.816010
2284.000000	9.823583
2285.000000	9.812445
2286.000000	9.802980
2287.000000	9.817700
2288.000000	9.841630
2289.000000	9.858413
2290.000000	9.870855
2291.000000	9.873718
2292.000000	9.869710
2293.000000	9.863012
2294.000000	9.848670
2295.000000	9.847290
2296.000000	9.860063
2297.000000	9.864487
2298.000000	9.882938
2299.000000	9.901855
2300.000000	9.905147
2301.000000	9.903702
2302.000000	9.914290
2303.000000	9.935210
2304.000000	9.957500
2305.000000	9.974898
2306.000000	9.993270
2307.000000	10.007315
2308.000000	10.005202
2309.000000	10.006918
2310.000000	10.016320
2311.000000	10.034318
2312.000000	10.069510
2313.000000	10.107195
2314.000000	10.148130
2315.000000	10.182075
2316.000000	10.202478
2317.000000	10.221352
2318.000000	10.244300
2319.000000	10.273235
2320.000000	10.304407
2321.000000	10.329715
2322.000000	10.347312
2323.000000	10.346655
2324.000000	10.333100
2325.000000	10.332555
2326.000000	10.352453
2327.000000	10.384198
2328.000000	10.408328
2329.000000	10.422605
2330.000000	10.433255
2331.000000	10.434603
2332.000000	10.417175
2333.000000	10.411623
2334.000000	10.427370
2335.000000	10.444235
2336.000000	10.458293
2337.000000	10.475070
2338.000000	10.492625
2339.000000	10.495963
2340.000000	10.496438
2341.000000	10.511190
2342.000000	10.543363
2343.000000	10.589817
2344.000000	10.633002
2345.000000	10.659167
2346.000000	10.669892
2347.000000	10.669560
2348.000000	10.667312
2349.000000	10.675810
2350.000000	10.696105
2351.000000	10.737562
2352.000000	10.777753
2353.000000	10.781785
2354.000000	10.770895
2355.000000	10.777838
2356.000000	10.795420
2357.000000	10.823943
2358.000000	10.853542
2359.000000	10.889480
2360.000000	10.922855
2361.000000	10.933255
2362.000000	10.921803
2363.000000	10.918340
2364.000000	10.946615
2365.000000	10.974165
2366.000000	10.997520
2367.000000	11.011183
2368.000000	11.021452
2369.000000	11.028583
2370.000000	11.044703
2371.000000	11.044195
2372.000000	11.063510
2373.000000	11.098140
2374.000000	11.113975
2375.000000	11.144338
2376.000000	11.164148
2377.000000	11.163653
2378.000000	11.170810
2379.000000	11.179897
2380.000000	11.177575
2381.000000	11.197280
2382.000000	11.225377
2383.000000	11.242170
2384.000000	11.247365
2385.000000	11.218440
2386.000000	11.197045
2387.000000	11.206402
2388.000000	11.224395
2389.000000	11.250692
2390.000000	11.273290
2391.000000	11.296387
2392.000000	11.301272
2393.000000	11.300707
2394.000000	11.308260
2395.000000	11.333905
2396.000000	11.357690
2397.000000	11.372885
2398.000000	11.375513
2399.000000	11.383490
2400.000000	11.405528
2401.000000	11.407875
2402.000000	11.382808
2403.000000	11.380118
2404.000000	11.382522
2405.000000	11.385430
2406.000000	11.382970
2407.000000	11.375205
2408.000000	11.366542
2409.000000	11.343438
2410.000000	11.303295
2411.000000	11.303220
2412.000000	11.320015
2413.000000	11.322495
2414.000000	11.306555
2415.000000	11.285522
2416.000000	11.267827
2417.000000	11.247198
2418.000000	11.244053
2419.000000	11.229285
2420.000000	11.220255
2421.000000	11.193873
2422.000000	11.153585
2423.000000	11.124955
2424.000000	11.100455
2425.000000	11.067573
2426.000000	11.053802
2427.000000	11.032737
2428.000000	10.996825
2429.000000	10.943235
2430.000000	10.892053
2431.000000	10.844555
2432.000000	10.808505
2433.000000	10.754285
2434.000000	10.704142
2435.000000	10.697315
2436.000000	10.670237
2437.000000	10.619653
2438.000000	10.581967
2439.000000	10.567620
2440.000000	10.557087
2441.000000	10.529790
2442.000000	10.517443
2443.000000	10.539748
2444.000000	10.566950
2445.000000	10.527940
2446.000000	10.494583
2447.000000	10.487510
2448.000000	10.465860
2449.000000	10.512040
2450.000000	10.510885
2451.000000	10.505948
2452.000000	10.485222
2453.000000	10.440890
2454.000000	10.416010
2455.000000	10.444562
2456.000000	10.484622
2457.000000	10.498658
2458.000000	10.545955
2459.000000	10.506810
2460.000000	10.498513
2461.000000	10.480470
2462.000000	10.528060
2463.000000	10.584878
2464.000000	10.607905
2465.000000	10.668223
2466.000000	10.674785
2467.000000	10.733467
2468.000000	10.711940
2469.000000	10.738750
2470.000000	10.844435
2471.000000	10.966805
2472.000000	11.095245
2473.000000	11.143815
2474.000000	11.206835
2475.000000	11.199265
2476.000000	11.300457
2477.000000	11.401982
2478.000000	11.538860
2479.000000	11.672543
2480.000000	11.734683
2481.000000	11.850893
2482.000000	11.797820
2483.000000	11.894603
2484.000000	12.062497
2485.000000	12.276355
2486.000000	12.381782
2487.000000	12.450325
2488.000000	12.661845
2489.000000	12.821783
2490.000000	12.992358
2491.000000	13.080505
2492.000000	13.298225
2493.000000	13.492152
2494.000000	13.663350
2495.000000	13.827120
2496.000000	14.081585
2497.000000	14.259872
2498.000000	14.324350
2499.000000	14.460195
2500.000000	14.691982
2501.000000	18.336145
2502.000000	22.184140
2503.000000	26.072775
2504.000000	29.866573
2505.000000	33.697865
2506.000000	37.801870
2507.000000	42.121732
2508.000000	46.326010
2509.000000	50.741257
2510.000000	55.123050
2511.000000	56.088300
2512.000000	56.833840
2513.000000	57.440000
2514.000000	58.592280
2515.000000	59.803490
2516.000000	60.589940
2517.000000	61.204450
2518.000000	62.576100
2519.000000	63.056120
2520.000000	63.767210
2521.000000	64.848940
2522.000000	66.119990
2523.000000	67.305360
2524.000000	68.415900
2525.000000	69.308890
2526.000000	70.017050
2527.000000	70.929160
2528.000000	71.241900
2529.000000	72.746970
2530.000000	74.356610
2531.000000	75.759780
2532.000000	77.021680
2533.000000	78.289450
2534.000000	78.766440
2535.000000	79.021940
2536.000000	80.080660
2537.000000	81.717670
2538.000000	82.897600
2539.000000	83.018730
2540.000000	82.790490
2541.000000	82.464990
2542.000000	81.955670
2543.000000	81.783470
2544.000000	82.549700
2545.000000	84.386500
2546.000000	85.088930
2547.000000	84.983830
2548.000000	85.322100
2549.000000	85.884490
2550.000000	86.725310
2551.000000	87.948350
2552.000000	89.687850
2553.000000	91.458810
2554.000000	91.568260
2555.000000	90.878980
2556.000000	90.898250
2557.000000	91.421530
2558.000000	92.736910
2559.000000	94.145290
2560.000000	95.218970
2561.000000	95.509320
2562.000000	94.703700
2563.000000	93.525970
2564.000000	93.382890
2565.000000	93.921890
2566.000000	95.076840
2567.000000	95.740000
2568.000000	95.693140
2569.000000	95.410500
2570.000000	94.897390
2571.000000	94.326990
2572.000000	95.234450
2573.000000	96.269060
2574.000000	97.431660
2575.000000	98.471310
2576.000000	98.512530
2577.000000	97.813180
2578.000000	96.505100
2579.000000	95.841990
2580.000000	96.274020
2581.000000	97.801500
2582.000000	98.281670
2583.000000	98.757400
2584.000000	98.611490
2585.000000	97.681430
2586.000000	96.990760
2587.000000	97.695210
2588.000000	99.735330
2589.000000	101.293450
2590.000000	101.531540
2591.000000	100.673600
2592.000000	99.665120
2593.000000	98.893280
2594.000000	98.954150
2595.000000	99.594420
2596.000000	101.084000
2597.000000	101.396460
2598.000000	100.370910
2599.000000	99.629450
2600.000000	99.000790
2601.000000	98.784130
2602.000000	99.644240
2603.000000	100.905710
2604.000000	101.792090
2605.000000	101.510700
2606.000000	100.175460
2607.000000	99.688410
2608.000000	99.913320
2609.000000	100.591740
2610.000000	101.279470
2611.000000	101.559380
2612.000000	100.926640
2613.000000	99.475480
2614.000000	98.035010
2615.000000	98.033160
2616.000000	98.558790
2617.000000	99.195460
2618.000000	99.793390
2619.000000	99.612730
2620.000000	99.535650
2621.000000	99.828020
2622.000000	99.947060
2623.000000	100.300370
2624.000000	101.211130
2625.000000	101.893410
2626.000000	102.140440
2627.000000	101.411940
2628.000000	99.940450
2629.000000	98.731330
2630.000000	98.393600
2631.000000	98.739230
2632.000000	99.610590
2633.000000	100.286420
2634.000000	99.958920
2635.000000	98.616510
2636.000000	97.679930
2637.000000	97.179570
2638.000000	98.375790
2639.000000	100.179380
2640.000000	101.318850
2641.000000	101.338540
2642.000000	100.688880
2643.000000	99.695970
2644.000000	99.691200
2645.000000	101.262590
2646.000000	102.687110
2647.000000	104.315680
2648.000000	104.229560
2649.000000	102.991650
2650.000000	102.019130
2651.000000	101.195330
2652.000000	101.581470
2653.000000	102.707840
2654.000000	103.791080
2655.000000	103.806590
2656.000000	102.939170
2657.000000	102.331060
2658.000000	102.167300
2659.000000	102.665580
2660.000000	103.122220
2661.000000	104.178480
2662.000000	103.916470
2663.000000	103.015230
2664.000000	101.035620
2665.000000	100.159390
2666.000000	100.761820
2667.000000	100.915250
2668.000000	100.609570
2669.000000	100.203240
2670.000000	98.650680
2671.000000	97.736290
2672.000000	97.900260
2673.000000	98.579150
2674.000000	99.493780
2675.000000	99.772120
2676.000000	99.148950
2677.000000	98.804470
2678.000000	99.352260
2679.000000	100.338060
2680.000000	102.280460
2681.000000	102.438430
2682.000000	102.229930
2683.000000	101.591070
2684.000000	101.534590
2685.000000	100.972450
2686.000000	101.075640
2687.000000	102.080620
2688.000000	102.806350
2689.000000	102.740830
2690.000000	101.041120
2691.000000	100.681630
2692.000000	100.956530
2693.000000	101.495860
2694.000000	102.078260
2695.000000	102.768380
2696.000000	103.279100
2697.000000	101.766000
2698.000000	99.728320
2699.000000	98.453630
2700.000000	99.392900
2701.000000	100.100330
2702.000000	100.300930
2703.000000	100.593320
2704.000000	99.995600
2705.000000	99.210210
2706.000000	98.056400
2707.000000	99.195570
2708.000000	100.463570
2709.000000	102.156720
2710.000000	101.350910
2711.000000	100.585600
2712.000000	99.814530
2713.000000	98.904010
2714.000000	99.085170
2715.000000	99.855640
2716.000000	100.206210
2717.000000	99.330310
2718.000000	97.823580
2719.000000	96.196460
2720.000000	97.744670
2721.000000	98.419760
2722.000000	99.436170
2723.000000	99.766210
2724.000000	99.938520
2725.000000	100.148900
2726.000000	99.400710
2727.000000	99.529140
2728.000000	100.424230
2729.000000	102.092030
2730.000000	101.995370
2731.000000	102.397950
2732.000000	102.298370
2733.000000	102.411980
2734.000000	102.005810
2735.000000	100.368180
2736.000000	101.814800
2737.000000	102.504990
2738.000000	103.870770
2739.000000	102.664560
2740.000000	101.296310
2741.000000	99.388830
2742.000000	98.252090
2743.000000	99.594670
2744.000000	100.159410
2745.000000	101.854960
2746.000000	101.234880
2747.000000	100.191700
2748.000000	97.660900
2749.000000	97.038570
2750.000000	97.783010
2751.000000	100.425660
2752.000000	101.677420
2753.000000	100.513760
2754.000000	100.657260
2755.000000	98.242830
2756.000000	98.273330
2757.000000	98.820260
2758.000000	100.605580
2759.000000	101.713110
2760.000000	101.720880
2761.000000	99.917170
2762.000000	98.709110
2763.000000	98.388050
2764.000000	98.040790
2765.000000	100.726040
2766.000000	101.502550
2767.000000	102.102700
2768.000000	102.031610
2769.000000	101.452580
2770.000000	101.481000
2771.000000	100.950970
2772.000000	101.138350
2773.000000	101.632040
2774.000000	101.982060
2775.000000	100.957820
2776.000000	101.173180
2777.000000	100.388710
2778.000000	100.120860
2779.000000	100.972930
2780.000000	101.266700
2781.000000	102.569810
2782.000000	103.687430
2783.000000	103.400420
2784.000000	102.528940
2785.000000	101.769120
2786.000000	100.598710
2787.000000	101.945840
2788.000000	102.413460
2789.000000	101.824340
2790.000000	101.429980
2791.000000	100.593810
2792.000000	99.661560
2793.000000	99.577440
2794.000000	100.624140
2795.000000	102.441010
2796.000000	103.474310
2797.000000	101.877310
2798.000000	101.089630
2799.000000	100.411040
2800.000000	99.411290
2801.000000	99.645180
2802.000000	100.276580
2803.000000	100.706070
2804.000000	100.050520
2805.000000	98.761050
2806.000000	97.295030
2807.000000	98.007670
2808.000000	98.384060
2809.000000	99.498490
2810.000000	101.220710
2811.000000	102.592410
2812.000000	102.266380
2813.000000	101.518730
2814.000000	101.044230
2815.000000	101.467180
2816.000000	103.564100
2817.000000	103.765980
2818.000000	103.876930
2819.000000	102.927340
2820.000000	101.858810
2821.000000	100.298900
2822.000000	99.904310
2823.000000	101.102230
2824.000000	102.758660
2825.000000	103.423890
2826.000000	102.006290
2827.000000	100.757520
2828.000000	100.423060
2829.000000	100.727670
2830.000000	101.276150
2831.000000	101.982430
2832.000000	102.126040
2833.000000	100.654520
2834.000000	98.834890
2835.000000	97.950510
2836.000000	97.564760
2837.000000	98.186350
2838.000000	98.562120
2839.000000	99.453140
2840.000000	99.447600
2841.000000	99.113470
2842.000000	98.971620
2843.000000	99.489450
2844.000000	99.790840
2845.000000	100.557370
2846.000000	101.447880
2847.000000	101.351690
2848.000000	100.467720
2849.000000	99.254800
2850.000000	99.170650
2851.000000	98.854720
2852.000000	99.530610
2853.000000	100.743400
2854.000000	101.223110
2855.000000	100.533950
2856.000000	99.720980
2857.000000	99.901480
2858.000000	101.536590
2859.000000	102.524200
2860.000000	102.566920
2861.000000	102.822690
2862.000000	101.774160
2863.000000	100.146080
2864.000000	100.097860
2865.000000	100.789750
2866.000000	101.938200
2867.000000	102.259110
2868.000000	101.363540
2869.000000	100.278110
2870.000000	99.174840
2871.000000	98.890220
2872.000000	99.836160
2873.000000	101.038300
2874.000000	101.378990
2875.000000	100.828850
2876.000000	99.392840
2877.000000	97.822010
2878.000000	97.510140
2879.000000	98.393120
2880.000000	99.626710
2881.000000	100.204170
2882.000000	100.252410
2883.000000	99.741460
2884.000000	99.128400
2885.000000	98.907400
2886.000000	99.782240
2887.000000	101.545280
2888.000000	102.502900
2889.000000	102.271940
2890.000000	101.451570
2891.000000	100.478250
2892.000000	99.607690
2893.000000	99.360810
2894.000000	99.898150
2895.000000	100.866750
2896.000000	101.143990
2897.000000	100.010120
2898.000000	98.345830
2899.000000	97.651830
2900.000000	97.881260
2901.000000	99.394050
2902.000000	100.067920
2903.000000	99.961780
2904.000000	99.469220
2905.000000	98.087990
2906.000000	97.668950
2907.000000	98.319310
2908.000000	99.602480
2909.000000	101.072520
2910.000000	101.761940
2911.000000	101.209240
2912.000000	100.590320
2913.000000	100.736910
2914.000000	100.607510
2915.000000	101.631080
2916.000000	102.180600
2917.000000	102.218570
2918.000000	101.667620
2919.000000	100.190770
2920.000000	99.011930
2921.000000	98.987460
2922.000000	99.185060
2923.000000	99.745920
2924.000000	101.110640
2925.000000	100.717760
2926.000000	99.347340
2927.000000	99.313330
2928.000000	99.782940
2929.000000	101.367050
2930.000000	103.395770
2931.000000	103.959890
2932.000000	103.867810
2933.000000	103.169660
2934.000000	101.370970
2935.000000	101.135990
2936.000000	102.545400
2937.000000	103.307110
2938.000000	104.429080
2939.000000	103.404390
2940.000000	102.060110
2941.000000	100.764140
2942.000000	101.373200
2943.000000	101.664440
2944.000000	103.281930
2945.000000	103.999390
2946.000000	103.386670
2947.000000	101.723240
2948.000000	99.205010
2949.000000	99.056660
2950.000000	99.300990
2951.000000	99.464260
2952.000000	99.920810
2953.000000	100.095250
2954.000000	99.359810
2955.000000	98.477510
2956.000000	98.073690
2957.000000	99.545680
2958.000000	102.003950
2959.000000	102.600350
2960.000000	102.622340
2961.000000	102.779120
2962.000000	101.197400
2963.000000	100.893190
2964.000000	101.049910
2965.000000	102.414540
2966.000000	103.545190
2967.000000	103.079420
2968.000000	101.775980
2969.000000	100.176440
2970.000000	99.736920
2971.000000	100.435190
2972.000000	101.058720
2973.000000	101.552430
2974.000000	101.829520
2975.000000	100.285720
2976.000000	98.687530
2977.000000	98.371940
2978.000000	99.468300
2979.000000	101.554870
2980.000000	101.141310
2981.000000	99.597940
2982.000000	99.170970
2983.000000	98.629240
2984.000000	97.751820
2985.000000	99.379870
2986.000000	100.992620
2987.000000	102.071140
2988.000000	101.747800
2989.000000	100.538340
2990.000000	101.341180
2991.000000	102.246790
2992.000000	103.663380
2993.000000	104.242870
2994.000000	104.708730
2995.000000	104.372080
2996.000000	102.744050
2997.000000	101.445880
2998.000000	100.325000
2999.000000	101.191750
3000.000000	102.071210
