PE UV       SUBTECH     SPECTRUM    ASCII       PEDS        4.00        
   -1
INBUCR0131-4.Sample.ASC
24/02/07
12:17:12.00
24/02/07
12:17:12.00
Vinicio Soto Monge
Pelidnota prolixa. Color café con ambos élitros (Det: A. Solís) COSTA RICA Prov. Puntarenas. Golfito. Jiménez. Est. FJ Tigre, Area Administrativa. 47 m. 15-16 NOV 2007. J. A. Azofeifa. Tp Luz. L_S_277800_529600 #92867 INB0004128045 INBIOCRI COSTA RICA 
250,000000
1
Lambda 1050
1050L1511233
PerkinElmer UV WinLab 6.3.2.0749 / 2.02.05 Lambda 900 UV/VIS/NIR, Aug  7 2015 09:38:08

0
0
3350/servo 860,8/2
0
0
UV/VIS
1
1
1
DoubleDePol,CommonBeamDepol,RBeamAtt,SBeamAtt,60mm sphere, WB InGaAs Detector
0
0
0
0
Program
Program
3350/servo 860,8/2
3350/0,2 860,8/0,2
3350/0,2 860,8/0,2
0
15.00
 
 
 
0
 
860,8
319,2
860,8
Front
100
on
S:100 R:100
0
0
0
0
 
0
 
 
 
0
 
 
0
0
0
0
0
 
 
 
 
0
0


0
0
#HDR
-1
-1
#GR
nm
%R
1.0
0.0
2500,000000
-1,000000
2251
8
17,747900
1,072000
#DATA

250.000000	nan
251.000000	nan
252.000000	nan
253.000000	nan
254.000000	nan
255.000000	nan
256.000000	nan
257.000000	nan
258.000000	nan
259.000000	3.905136
260.000000	3.895447
261.000000	3.885139
262.000000	3.873509
263.000000	3.861063
264.000000	3.847984
265.000000	3.833794
266.000000	3.818150
267.000000	3.804725
268.000000	3.789276
269.000000	3.773654
270.000000	3.756389
271.000000	3.741427
272.000000	3.727558
273.000000	3.714786
274.000000	3.703189
275.000000	3.690555
276.000000	3.681580
277.000000	3.669806
278.000000	3.659993
279.000000	3.652059
280.000000	3.645959
281.000000	3.634953
282.000000	3.626994
283.000000	3.619197
284.000000	3.611931
285.000000	3.603459
286.000000	3.596862
287.000000	3.592577
288.000000	3.588815
289.000000	3.583873
290.000000	3.579883
291.000000	3.581372
292.000000	3.580490
293.000000	3.579851
294.000000	3.579693
295.000000	3.583206
296.000000	3.583361
297.000000	3.584213
298.000000	3.582634
299.000000	3.582593
300.000000	3.581607
301.000000	3.580331
302.000000	3.579416
303.000000	3.578882
304.000000	3.579307
305.000000	3.576787
306.000000	3.574318
307.000000	3.572954
308.000000	3.572209
309.000000	3.571664
310.000000	3.570122
311.000000	3.568264
312.000000	3.568185
313.000000	3.565978
314.000000	3.563346
315.000000	3.564562
316.000000	3.564973
317.000000	3.580846
318.000000	3.594772
319.000000	3.607152
320.000000	3.618495
321.000000	3.632132
322.000000	3.634195
323.000000	3.635464
324.000000	3.643425
325.000000	3.645981
326.000000	3.650172
327.000000	3.638287
328.000000	3.630529
329.000000	3.622411
330.000000	3.621068
331.000000	3.611754
332.000000	3.614757
333.000000	3.619804
334.000000	3.619553
335.000000	3.620175
336.000000	3.618743
337.000000	3.617172
338.000000	3.617754
339.000000	3.616941
340.000000	3.612286
341.000000	3.615176
342.000000	3.614844
343.000000	3.612074
344.000000	3.608076
345.000000	3.608259
346.000000	3.608416
347.000000	3.606260
348.000000	3.601841
349.000000	3.600304
350.000000	3.598986
351.000000	3.595343
352.000000	3.594739
353.000000	3.595648
354.000000	3.595499
355.000000	3.591632
356.000000	3.589659
357.000000	3.591015
358.000000	3.591420
359.000000	3.591473
360.000000	3.591909
361.000000	3.589817
362.000000	3.585033
363.000000	3.584556
364.000000	3.583194
365.000000	3.584662
366.000000	3.584645
367.000000	3.583204
368.000000	3.580236
369.000000	3.577235
370.000000	3.575699
371.000000	3.573520
372.000000	3.572758
373.000000	3.570155
374.000000	3.568620
375.000000	3.565550
376.000000	3.563727
377.000000	3.553385
378.000000	3.544567
379.000000	3.536886
380.000000	3.526893
381.000000	3.519220
382.000000	3.510317
383.000000	3.500593
384.000000	3.490468
385.000000	3.481879
386.000000	3.473901
387.000000	3.472997
388.000000	3.472791
389.000000	3.472380
390.000000	3.471498
391.000000	3.470671
392.000000	3.469821
393.000000	3.469606
394.000000	3.469697
395.000000	3.469629
396.000000	3.469147
397.000000	3.469867
398.000000	3.470039
399.000000	3.470463
400.000000	3.470983
401.000000	3.471752
402.000000	3.473014
403.000000	3.474221
404.000000	3.475453
405.000000	3.476713
406.000000	3.478971
407.000000	3.481764
408.000000	3.484468
409.000000	3.486985
410.000000	3.490156
411.000000	3.493916
412.000000	3.497991
413.000000	3.502722
414.000000	3.508341
415.000000	3.514393
416.000000	3.520448
417.000000	3.527025
418.000000	3.534669
419.000000	3.543678
420.000000	3.553681
421.000000	3.564563
422.000000	3.576311
423.000000	3.588861
424.000000	3.602538
425.000000	3.617299
426.000000	3.633110
427.000000	3.649843
428.000000	3.667069
429.000000	3.684689
430.000000	3.702946
431.000000	3.722202
432.000000	3.742438
433.000000	3.763065
434.000000	3.783779
435.000000	3.804961
436.000000	3.826424
437.000000	3.848164
438.000000	3.870910
439.000000	3.894457
440.000000	3.918429
441.000000	3.942974
442.000000	3.967768
443.000000	3.993094
444.000000	4.019136
445.000000	4.045789
446.000000	4.072905
447.000000	4.100526
448.000000	4.128929
449.000000	4.157569
450.000000	4.186310
451.000000	4.215129
452.000000	4.244459
453.000000	4.274499
454.000000	4.304708
455.000000	4.334728
456.000000	4.365398
457.000000	4.396191
458.000000	4.426722
459.000000	4.457861
460.000000	4.489479
461.000000	4.521136
462.000000	4.552915
463.000000	4.584580
464.000000	4.616095
465.000000	4.648346
466.000000	4.680750
467.000000	4.713195
468.000000	4.745939
469.000000	4.778579
470.000000	4.811351
471.000000	4.844453
472.000000	4.877357
473.000000	4.910317
474.000000	4.943595
475.000000	4.977009
476.000000	5.010511
477.000000	5.044246
478.000000	5.078313
479.000000	5.112750
480.000000	5.147381
481.000000	5.181618
482.000000	5.216463
483.000000	5.251623
484.000000	5.287095
485.000000	5.322977
486.000000	5.359218
487.000000	5.395695
488.000000	5.432373
489.000000	5.468747
490.000000	5.505581
491.000000	5.543834
492.000000	5.582604
493.000000	5.621830
494.000000	5.661418
495.000000	5.701466
496.000000	5.741631
497.000000	5.782604
498.000000	5.823849
499.000000	5.865996
500.000000	5.908512
501.000000	5.950945
502.000000	5.993730
503.000000	6.036906
504.000000	6.080727
505.000000	6.124855
506.000000	6.170105
507.000000	6.215597
508.000000	6.261423
509.000000	6.307538
510.000000	6.354384
511.000000	6.401628
512.000000	6.449401
513.000000	6.498177
514.000000	6.547570
515.000000	6.597602
516.000000	6.647828
517.000000	6.699040
518.000000	6.751465
519.000000	6.804654
520.000000	6.858264
521.000000	6.913374
522.000000	6.969516
523.000000	7.026510
524.000000	7.084420
525.000000	7.143236
526.000000	7.203235
527.000000	7.263969
528.000000	7.325885
529.000000	7.389188
530.000000	7.453753
531.000000	7.519345
532.000000	7.585657
533.000000	7.652899
534.000000	7.721614
535.000000	7.791613
536.000000	7.862452
537.000000	7.934538
538.000000	8.007629
539.000000	8.081962
540.000000	8.157280
541.000000	8.233470
542.000000	8.310828
543.000000	8.389660
544.000000	8.469105
545.000000	8.549530
546.000000	8.631205
547.000000	8.714328
548.000000	8.797864
549.000000	8.881651
550.000000	8.966778
551.000000	9.052658
552.000000	9.139457
553.000000	9.226707
554.000000	9.314940
555.000000	9.403907
556.000000	9.493708
557.000000	9.583255
558.000000	9.673438
559.000000	9.764737
560.000000	9.853038
561.000000	9.941776
562.000000	10.030497
563.000000	10.120134
564.000000	10.209896
565.000000	10.300166
566.000000	10.390752
567.000000	10.482230
568.000000	10.574552
569.000000	10.667481
570.000000	10.763884
571.000000	10.860472
572.000000	10.958337
573.000000	11.056728
574.000000	11.155288
575.000000	11.254277
576.000000	11.353901
577.000000	11.454046
578.000000	11.554206
579.000000	11.654266
580.000000	11.755170
581.000000	11.856798
582.000000	11.958632
583.000000	12.060711
584.000000	12.163895
585.000000	12.267340
586.000000	12.371140
587.000000	12.475588
588.000000	12.580208
589.000000	12.686377
590.000000	12.793402
591.000000	12.900253
592.000000	13.008447
593.000000	13.117172
594.000000	13.225698
595.000000	13.335259
596.000000	13.446091
597.000000	13.556710
598.000000	13.668954
599.000000	13.780814
600.000000	13.892825
601.000000	14.007203
602.000000	14.121121
603.000000	14.236312
604.000000	14.352002
605.000000	14.468365
606.000000	14.584853
607.000000	14.702466
608.000000	14.820465
609.000000	14.939766
610.000000	15.059219
611.000000	15.178828
612.000000	15.299547
613.000000	15.420675
614.000000	15.542556
615.000000	15.664778
616.000000	15.787330
617.000000	15.911102
618.000000	16.034745
619.000000	16.158204
620.000000	16.283060
621.000000	16.407737
622.000000	16.532637
623.000000	16.657579
624.000000	16.783782
625.000000	16.910114
626.000000	17.037067
627.000000	17.164338
628.000000	17.291792
629.000000	17.420728
630.000000	17.549064
631.000000	17.678302
632.000000	17.808187
633.000000	17.939679
634.000000	18.071075
635.000000	18.203057
636.000000	18.335785
637.000000	18.467742
638.000000	18.601441
639.000000	18.734058
640.000000	18.867641
641.000000	19.002653
642.000000	19.138760
643.000000	19.273776
644.000000	19.409685
645.000000	19.545487
646.000000	19.681402
647.000000	19.818561
648.000000	19.955968
649.000000	20.095304
650.000000	20.235232
651.000000	20.373869
652.000000	20.512906
653.000000	20.652527
654.000000	20.792169
655.000000	20.932420
656.000000	21.073121
657.000000	21.213389
658.000000	21.354224
659.000000	21.494386
660.000000	21.634395
661.000000	21.773721
662.000000	21.912647
663.000000	22.052116
664.000000	22.191961
665.000000	22.331039
666.000000	22.469344
667.000000	22.608113
668.000000	22.746288
669.000000	22.883698
670.000000	23.020115
671.000000	23.157317
672.000000	23.293360
673.000000	23.428160
674.000000	23.563054
675.000000	23.697708
676.000000	23.832120
677.000000	23.965835
678.000000	24.098441
679.000000	24.230764
680.000000	24.363590
681.000000	24.496809
682.000000	24.629422
683.000000	24.761937
684.000000	24.891588
685.000000	25.022114
686.000000	25.152051
687.000000	25.281847
688.000000	25.413036
689.000000	25.543337
690.000000	25.674109
691.000000	25.803445
692.000000	25.931948
693.000000	26.059303
694.000000	26.186750
695.000000	26.312675
696.000000	26.439040
697.000000	26.564836
698.000000	26.688484
699.000000	26.813195
700.000000	26.936821
701.000000	27.061318
702.000000	27.185646
703.000000	27.309566
704.000000	27.434643
705.000000	27.560154
706.000000	27.684512
707.000000	27.809027
708.000000	27.934329
709.000000	28.058850
710.000000	28.182983
711.000000	28.304958
712.000000	28.426705
713.000000	28.550167
714.000000	28.673107
715.000000	28.796123
716.000000	28.920574
717.000000	29.042561
718.000000	29.162802
719.000000	29.282637
720.000000	29.401795
721.000000	29.523783
722.000000	29.646810
723.000000	29.767278
724.000000	29.887282
725.000000	30.006953
726.000000	30.125429
727.000000	30.243701
728.000000	30.363579
729.000000	30.484660
730.000000	30.607556
731.000000	30.726472
732.000000	30.844056
733.000000	30.963234
734.000000	31.081992
735.000000	31.200351
736.000000	31.318402
737.000000	31.438177
738.000000	31.556477
739.000000	31.672961
740.000000	31.787235
741.000000	31.902795
742.000000	32.021528
743.000000	32.141000
744.000000	32.261416
745.000000	32.379549
746.000000	32.495887
747.000000	32.614298
748.000000	32.733102
749.000000	32.851477
750.000000	32.967891
751.000000	33.084997
752.000000	33.199818
753.000000	33.313424
754.000000	33.428667
755.000000	33.549255
756.000000	33.670906
757.000000	33.786508
758.000000	33.901226
759.000000	34.019440
760.000000	34.142357
761.000000	34.264237
762.000000	34.382006
763.000000	34.500509
764.000000	34.618390
765.000000	34.732103
766.000000	34.846912
767.000000	34.968057
768.000000	35.088900
769.000000	35.204808
770.000000	35.319279
771.000000	35.433921
772.000000	35.551368
773.000000	35.663579
774.000000	35.776117
775.000000	35.889673
776.000000	36.002134
777.000000	36.113036
778.000000	36.228663
779.000000	36.343798
780.000000	36.458284
781.000000	36.571219
782.000000	36.685715
783.000000	36.803426
784.000000	36.920542
785.000000	37.036735
786.000000	37.149136
787.000000	37.266188
788.000000	37.377345
789.000000	37.488216
790.000000	37.599459
791.000000	37.712872
792.000000	37.821512
793.000000	37.933920
794.000000	38.045771
795.000000	38.154056
796.000000	38.266118
797.000000	38.370324
798.000000	38.479589
799.000000	38.589656
800.000000	38.698594
801.000000	38.804744
802.000000	38.918317
803.000000	39.024373
804.000000	39.129199
805.000000	39.238433
806.000000	39.349195
807.000000	39.458475
808.000000	39.566721
809.000000	39.674837
810.000000	39.782766
811.000000	39.887119
812.000000	39.988249
813.000000	40.096456
814.000000	40.200879
815.000000	40.301811
816.000000	40.403349
817.000000	40.500829
818.000000	40.599838
819.000000	40.693159
820.000000	40.792205
821.000000	40.888554
822.000000	40.985319
823.000000	41.067261
824.000000	41.158503
825.000000	41.250863
826.000000	41.339165
827.000000	41.427046
828.000000	41.512368
829.000000	41.600341
830.000000	41.676613
831.000000	41.759382
832.000000	41.838969
833.000000	41.929213
834.000000	42.010751
835.000000	42.080174
836.000000	42.150685
837.000000	42.229006
838.000000	42.300635
839.000000	42.373128
840.000000	42.452517
841.000000	42.517877
842.000000	42.579602
843.000000	42.648981
844.000000	42.721694
845.000000	42.794799
846.000000	42.863808
847.000000	42.925349
848.000000	42.985661
849.000000	43.032455
850.000000	43.073645
851.000000	43.130763
852.000000	43.180497
853.000000	43.226301
854.000000	43.258093
855.000000	43.292475
856.000000	43.347269
857.000000	43.391080
858.000000	43.531030
859.000000	43.661476
860.000000	43.805782
861.000000	43.936608
862.000000	44.072759
863.000000	44.209211
864.000000	44.339229
865.000000	44.477708
866.000000	44.587402
867.000000	44.696519
868.000000	44.717120
869.000000	44.750565
870.000000	44.760782
871.000000	44.797605
872.000000	44.811018
873.000000	44.805693
874.000000	44.822758
875.000000	44.829185
876.000000	44.841417
877.000000	44.856230
878.000000	44.870145
879.000000	44.879025
880.000000	44.901418
881.000000	44.900585
882.000000	44.931798
883.000000	44.957932
884.000000	44.966575
885.000000	44.982195
886.000000	44.994425
887.000000	45.004330
888.000000	45.013720
889.000000	45.029908
890.000000	45.034335
891.000000	45.031905
892.000000	45.021465
893.000000	45.024920
894.000000	45.021635
895.000000	45.020660
896.000000	45.021017
897.000000	45.032603
898.000000	45.043143
899.000000	45.050625
900.000000	45.061060
901.000000	45.066695
902.000000	45.079315
903.000000	45.085223
904.000000	45.110920
905.000000	45.123852
906.000000	45.143550
907.000000	45.158502
908.000000	45.168500
909.000000	45.178435
910.000000	45.190678
911.000000	45.216118
912.000000	45.238122
913.000000	45.259145
914.000000	45.279570
915.000000	45.299640
916.000000	45.316187
917.000000	45.335887
918.000000	45.357490
919.000000	45.386138
920.000000	45.411247
921.000000	45.434533
922.000000	45.454365
923.000000	45.479330
924.000000	45.500082
925.000000	45.524135
926.000000	45.549037
927.000000	45.573813
928.000000	45.593792
929.000000	45.610228
930.000000	45.628548
931.000000	45.649410
932.000000	45.669142
933.000000	45.684535
934.000000	45.697100
935.000000	45.716725
936.000000	45.732435
937.000000	45.746610
938.000000	45.757310
939.000000	45.767000
940.000000	45.776270
941.000000	45.787005
942.000000	45.794975
943.000000	45.804140
944.000000	45.814540
945.000000	45.821138
946.000000	45.826817
947.000000	45.833773
948.000000	45.844352
949.000000	45.857582
950.000000	45.871330
951.000000	45.877260
952.000000	45.885765
953.000000	45.895350
954.000000	45.903258
955.000000	45.912565
956.000000	45.922300
957.000000	45.926958
958.000000	45.931445
959.000000	45.935488
960.000000	45.939360
961.000000	45.945190
962.000000	45.946915
963.000000	45.951255
964.000000	45.956880
965.000000	45.960640
966.000000	45.963715
967.000000	45.969440
968.000000	45.973430
969.000000	45.976418
970.000000	45.976875
971.000000	45.978027
972.000000	45.983022
973.000000	45.985755
974.000000	45.985682
975.000000	45.984758
976.000000	45.983297
977.000000	45.982840
978.000000	45.982450
979.000000	45.984055
980.000000	45.984642
981.000000	45.983528
982.000000	45.980550
983.000000	45.977337
984.000000	45.974550
985.000000	45.971505
986.000000	45.968295
987.000000	45.966795
988.000000	45.965623
989.000000	45.963058
990.000000	45.961738
991.000000	45.960905
992.000000	45.959897
993.000000	45.959717
994.000000	45.960118
995.000000	45.961728
996.000000	45.963490
997.000000	45.963870
998.000000	45.963962
999.000000	45.963065
1000.000000	45.961607
1001.000000	45.962385
1002.000000	45.962073
1003.000000	45.961455
1004.000000	45.960383
1005.000000	45.957835
1006.000000	45.955237
1007.000000	45.953645
1008.000000	45.951113
1009.000000	45.950308
1010.000000	45.951693
1011.000000	45.951123
1012.000000	45.949930
1013.000000	45.950610
1014.000000	45.952568
1015.000000	45.956245
1016.000000	45.960465
1017.000000	45.962578
1018.000000	45.967035
1019.000000	45.972625
1020.000000	45.978050
1021.000000	45.987095
1022.000000	45.999865
1023.000000	46.012110
1024.000000	46.023832
1025.000000	46.035670
1026.000000	46.049163
1027.000000	46.064727
1028.000000	46.080230
1029.000000	46.095730
1030.000000	46.112530
1031.000000	46.128808
1032.000000	46.144938
1033.000000	46.160647
1034.000000	46.177105
1035.000000	46.195020
1036.000000	46.212330
1037.000000	46.230223
1038.000000	46.247710
1039.000000	46.264378
1040.000000	46.279005
1041.000000	46.294303
1042.000000	46.310192
1043.000000	46.325128
1044.000000	46.340663
1045.000000	46.354867
1046.000000	46.368803
1047.000000	46.381187
1048.000000	46.393345
1049.000000	46.406965
1050.000000	46.421970
1051.000000	46.435310
1052.000000	46.447400
1053.000000	46.461890
1054.000000	46.475887
1055.000000	46.490122
1056.000000	46.505385
1057.000000	46.521770
1058.000000	46.539615
1059.000000	46.556815
1060.000000	46.573682
1061.000000	46.590998
1062.000000	46.609517
1063.000000	46.627150
1064.000000	46.647137
1065.000000	46.666440
1066.000000	46.684390
1067.000000	46.703148
1068.000000	46.720460
1069.000000	46.737280
1070.000000	46.755095
1071.000000	46.773120
1072.000000	46.791038
1073.000000	46.809393
1074.000000	46.825172
1075.000000	46.841650
1076.000000	46.859158
1077.000000	46.875280
1078.000000	46.891720
1079.000000	46.908110
1080.000000	46.921850
1081.000000	46.938417
1082.000000	46.953093
1083.000000	46.965895
1084.000000	46.977105
1085.000000	46.988712
1086.000000	46.999977
1087.000000	47.011482
1088.000000	47.023035
1089.000000	47.034980
1090.000000	47.046908
1091.000000	47.056140
1092.000000	47.063850
1093.000000	47.072522
1094.000000	47.081120
1095.000000	47.089085
1096.000000	47.094747
1097.000000	47.100238
1098.000000	47.106150
1099.000000	47.110375
1100.000000	47.114055
1101.000000	47.117692
1102.000000	47.119875
1103.000000	47.121310
1104.000000	47.123115
1105.000000	47.125250
1106.000000	47.127938
1107.000000	47.128430
1108.000000	47.126778
1109.000000	47.124760
1110.000000	47.122450
1111.000000	47.118205
1112.000000	47.113577
1113.000000	47.107323
1114.000000	47.099827
1115.000000	47.091657
1116.000000	47.081277
1117.000000	47.070565
1118.000000	47.059395
1119.000000	47.047620
1120.000000	47.034047
1121.000000	47.018335
1122.000000	47.003068
1123.000000	46.985765
1124.000000	46.965772
1125.000000	46.939770
1126.000000	46.911055
1127.000000	46.878703
1128.000000	46.840595
1129.000000	46.796690
1130.000000	46.746140
1131.000000	46.688653
1132.000000	46.624138
1133.000000	46.558388
1134.000000	46.490740
1135.000000	46.421098
1136.000000	46.346108
1137.000000	46.264660
1138.000000	46.182572
1139.000000	46.098532
1140.000000	46.016072
1141.000000	45.934668
1142.000000	45.855947
1143.000000	45.776720
1144.000000	45.699030
1145.000000	45.622935
1146.000000	45.550570
1147.000000	45.484262
1148.000000	45.418860
1149.000000	45.354157
1150.000000	45.291725
1151.000000	45.230100
1152.000000	45.167702
1153.000000	45.100747
1154.000000	45.029457
1155.000000	44.953045
1156.000000	44.872585
1157.000000	44.785265
1158.000000	44.693027
1159.000000	44.596247
1160.000000	44.492375
1161.000000	44.382903
1162.000000	44.268142
1163.000000	44.148615
1164.000000	44.025712
1165.000000	43.901517
1166.000000	43.774635
1167.000000	43.650108
1168.000000	43.525578
1169.000000	43.405518
1170.000000	43.288260
1171.000000	43.176623
1172.000000	43.069685
1173.000000	42.970845
1174.000000	42.877125
1175.000000	42.790355
1176.000000	42.712092
1177.000000	42.638055
1178.000000	42.570637
1179.000000	42.505312
1180.000000	42.445295
1181.000000	42.389057
1182.000000	42.336782
1183.000000	42.287060
1184.000000	42.241745
1185.000000	42.200952
1186.000000	42.164170
1187.000000	42.134528
1188.000000	42.112105
1189.000000	42.099045
1190.000000	42.092935
1191.000000	42.094888
1192.000000	42.105475
1193.000000	42.123528
1194.000000	42.149038
1195.000000	42.180477
1196.000000	42.216522
1197.000000	42.254765
1198.000000	42.294238
1199.000000	42.334208
1200.000000	42.375290
1201.000000	42.413580
1202.000000	42.449667
1203.000000	42.485247
1204.000000	42.519125
1205.000000	42.549478
1206.000000	42.578105
1207.000000	42.605145
1208.000000	42.631502
1209.000000	42.656182
1210.000000	42.679097
1211.000000	42.704400
1212.000000	42.729452
1213.000000	42.754258
1214.000000	42.777800
1215.000000	42.801975
1216.000000	42.827168
1217.000000	42.853935
1218.000000	42.880967
1219.000000	42.908653
1220.000000	42.937767
1221.000000	42.966268
1222.000000	42.996488
1223.000000	43.026455
1224.000000	43.057082
1225.000000	43.090600
1226.000000	43.122857
1227.000000	43.154767
1228.000000	43.186957
1229.000000	43.219622
1230.000000	43.250883
1231.000000	43.281657
1232.000000	43.311327
1233.000000	43.341415
1234.000000	43.371680
1235.000000	43.398510
1236.000000	43.425728
1237.000000	43.451768
1238.000000	43.476715
1239.000000	43.501288
1240.000000	43.526440
1241.000000	43.552860
1242.000000	43.580120
1243.000000	43.607045
1244.000000	43.635030
1245.000000	43.665698
1246.000000	43.696590
1247.000000	43.728673
1248.000000	43.761990
1249.000000	43.795200
1250.000000	43.828315
1251.000000	43.859885
1252.000000	43.889677
1253.000000	43.918365
1254.000000	43.945217
1255.000000	43.968942
1256.000000	43.990815
1257.000000	44.010842
1258.000000	44.029045
1259.000000	44.044593
1260.000000	44.058058
1261.000000	44.069965
1262.000000	44.080798
1263.000000	44.091107
1264.000000	44.100140
1265.000000	44.108663
1266.000000	44.116805
1267.000000	44.123870
1268.000000	44.129965
1269.000000	44.136477
1270.000000	44.142750
1271.000000	44.148535
1272.000000	44.153810
1273.000000	44.158867
1274.000000	44.164603
1275.000000	44.170293
1276.000000	44.176865
1277.000000	44.184240
1278.000000	44.192030
1279.000000	44.201228
1280.000000	44.211867
1281.000000	44.223782
1282.000000	44.237850
1283.000000	44.253312
1284.000000	44.268752
1285.000000	44.284845
1286.000000	44.302013
1287.000000	44.319413
1288.000000	44.338028
1289.000000	44.357578
1290.000000	44.376622
1291.000000	44.394840
1292.000000	44.411862
1293.000000	44.427475
1294.000000	44.442977
1295.000000	44.458730
1296.000000	44.473363
1297.000000	44.487312
1298.000000	44.499115
1299.000000	44.507460
1300.000000	44.514610
1301.000000	44.521605
1302.000000	44.526902
1303.000000	44.530670
1304.000000	44.532520
1305.000000	44.532497
1306.000000	44.530105
1307.000000	44.524940
1308.000000	44.517295
1309.000000	44.508790
1310.000000	44.498103
1311.000000	44.484277
1312.000000	44.468550
1313.000000	44.451017
1314.000000	44.431418
1315.000000	44.408997
1316.000000	44.384123
1317.000000	44.357938
1318.000000	44.329818
1319.000000	44.299985
1320.000000	44.268755
1321.000000	44.235725
1322.000000	44.200820
1323.000000	44.163773
1324.000000	44.124540
1325.000000	44.083630
1326.000000	44.040170
1327.000000	43.994185
1328.000000	43.946907
1329.000000	43.895302
1330.000000	43.840092
1331.000000	43.781507
1332.000000	43.718865
1333.000000	43.652115
1334.000000	43.581812
1335.000000	43.506748
1336.000000	43.428410
1337.000000	43.346873
1338.000000	43.260533
1339.000000	43.170605
1340.000000	43.076422
1341.000000	42.977030
1342.000000	42.874655
1343.000000	42.767792
1344.000000	42.654218
1345.000000	42.535480
1346.000000	42.412902
1347.000000	42.285610
1348.000000	42.152812
1349.000000	42.014967
1350.000000	41.873432
1351.000000	41.729478
1352.000000	41.582680
1353.000000	41.438172
1354.000000	41.300750
1355.000000	41.169047
1356.000000	41.039570
1357.000000	40.914740
1358.000000	40.795743
1359.000000	40.683445
1360.000000	40.582633
1361.000000	40.496682
1362.000000	40.413463
1363.000000	40.329075
1364.000000	40.245267
1365.000000	40.159740
1366.000000	40.070457
1367.000000	39.982123
1368.000000	39.889880
1369.000000	39.790087
1370.000000	39.677813
1371.000000	39.547960
1372.000000	39.405302
1373.000000	39.248218
1374.000000	39.071412
1375.000000	38.880627
1376.000000	38.677397
1377.000000	38.455910
1378.000000	38.221117
1379.000000	37.980635
1380.000000	37.737187
1381.000000	37.498370
1382.000000	37.268752
1383.000000	37.051595
1384.000000	36.844823
1385.000000	36.647143
1386.000000	36.462820
1387.000000	36.296855
1388.000000	36.144068
1389.000000	35.997210
1390.000000	35.855338
1391.000000	35.718450
1392.000000	35.584543
1393.000000	35.449530
1394.000000	35.323647
1395.000000	35.205523
1396.000000	35.084547
1397.000000	34.949738
1398.000000	34.812982
1399.000000	34.681528
1400.000000	34.553270
1401.000000	34.408747
1402.000000	34.249405
1403.000000	34.081688
1404.000000	33.902235
1405.000000	33.707473
1406.000000	33.506327
1407.000000	33.303130
1408.000000	33.092615
1409.000000	32.870050
1410.000000	32.632492
1411.000000	32.394292
1412.000000	32.161257
1413.000000	31.933010
1414.000000	31.703160
1415.000000	31.473832
1416.000000	31.244733
1417.000000	31.021763
1418.000000	30.806117
1419.000000	30.597505
1420.000000	30.394452
1421.000000	30.197965
1422.000000	30.006860
1423.000000	29.822160
1424.000000	29.641630
1425.000000	29.466940
1426.000000	29.302135
1427.000000	29.142937
1428.000000	28.986475
1429.000000	28.831663
1430.000000	28.686555
1431.000000	28.549935
1432.000000	28.418645
1433.000000	28.288533
1434.000000	28.165137
1435.000000	28.047598
1436.000000	27.934113
1437.000000	27.824437
1438.000000	27.717500
1439.000000	27.617405
1440.000000	27.520312
1441.000000	27.424780
1442.000000	27.331747
1443.000000	27.240300
1444.000000	27.152390
1445.000000	27.068717
1446.000000	26.986180
1447.000000	26.902332
1448.000000	26.820970
1449.000000	26.740987
1450.000000	26.663258
1451.000000	26.585835
1452.000000	26.506837
1453.000000	26.430088
1454.000000	26.351543
1455.000000	26.272578
1456.000000	26.194598
1457.000000	26.116690
1458.000000	26.037723
1459.000000	25.958665
1460.000000	25.876993
1461.000000	25.796325
1462.000000	25.717600
1463.000000	25.639337
1464.000000	25.560540
1465.000000	25.482148
1466.000000	25.403115
1467.000000	25.325328
1468.000000	25.247620
1469.000000	25.170562
1470.000000	25.095875
1471.000000	25.021430
1472.000000	24.947907
1473.000000	24.875048
1474.000000	24.803785
1475.000000	24.734547
1476.000000	24.667095
1477.000000	24.603455
1478.000000	24.544632
1479.000000	24.488610
1480.000000	24.434432
1481.000000	24.384152
1482.000000	24.338097
1483.000000	24.294212
1484.000000	24.254673
1485.000000	24.218655
1486.000000	24.186585
1487.000000	24.155930
1488.000000	24.128010
1489.000000	24.101968
1490.000000	24.078680
1491.000000	24.056675
1492.000000	24.038195
1493.000000	24.023913
1494.000000	24.012475
1495.000000	24.003000
1496.000000	23.997238
1497.000000	23.998090
1498.000000	24.003050
1499.000000	24.011950
1500.000000	24.026075
1501.000000	24.046312
1502.000000	24.071047
1503.000000	24.101045
1504.000000	24.136585
1505.000000	24.177017
1506.000000	24.221350
1507.000000	24.269237
1508.000000	24.320383
1509.000000	24.377177
1510.000000	24.436665
1511.000000	24.498950
1512.000000	24.562755
1513.000000	24.627905
1514.000000	24.694190
1515.000000	24.761958
1516.000000	24.830697
1517.000000	24.899075
1518.000000	24.967705
1519.000000	25.034923
1520.000000	25.101882
1521.000000	25.167803
1522.000000	25.232390
1523.000000	25.296398
1524.000000	25.360255
1525.000000	25.422717
1526.000000	25.484860
1527.000000	25.545795
1528.000000	25.605577
1529.000000	25.664105
1530.000000	25.721445
1531.000000	25.778112
1532.000000	25.834132
1533.000000	25.889193
1534.000000	25.942517
1535.000000	25.994263
1536.000000	26.043200
1537.000000	26.090907
1538.000000	26.137385
1539.000000	26.182415
1540.000000	26.226277
1541.000000	26.269133
1542.000000	26.311102
1543.000000	26.351395
1544.000000	26.391905
1545.000000	26.434058
1546.000000	26.478465
1547.000000	26.524850
1548.000000	26.573545
1549.000000	26.623708
1550.000000	26.676135
1551.000000	26.730130
1552.000000	26.785245
1553.000000	26.842032
1554.000000	26.898225
1555.000000	26.952420
1556.000000	27.004228
1557.000000	27.053745
1558.000000	27.099728
1559.000000	27.140637
1560.000000	27.176010
1561.000000	27.206645
1562.000000	27.232752
1563.000000	27.252893
1564.000000	27.268025
1565.000000	27.278415
1566.000000	27.283953
1567.000000	27.285357
1568.000000	27.283438
1569.000000	27.279892
1570.000000	27.273273
1571.000000	27.264610
1572.000000	27.255907
1573.000000	27.248312
1574.000000	27.242310
1575.000000	27.237680
1576.000000	27.234792
1577.000000	27.233385
1578.000000	27.233940
1579.000000	27.237900
1580.000000	27.246935
1581.000000	27.260090
1582.000000	27.276988
1583.000000	27.297632
1584.000000	27.320657
1585.000000	27.346055
1586.000000	27.375342
1587.000000	27.408093
1588.000000	27.443720
1589.000000	27.481803
1590.000000	27.521735
1591.000000	27.562530
1592.000000	27.604160
1593.000000	27.646078
1594.000000	27.691048
1595.000000	27.739663
1596.000000	27.790305
1597.000000	27.842410
1598.000000	27.896622
1599.000000	27.953080
1600.000000	28.011907
1601.000000	28.073327
1602.000000	28.137048
1603.000000	28.203332
1604.000000	28.269358
1605.000000	28.336548
1606.000000	28.404463
1607.000000	28.473225
1608.000000	28.541490
1609.000000	28.609465
1610.000000	28.676110
1611.000000	28.741090
1612.000000	28.803688
1613.000000	28.865805
1614.000000	28.926290
1615.000000	28.982815
1616.000000	29.037005
1617.000000	29.088935
1618.000000	29.138410
1619.000000	29.185047
1620.000000	29.229382
1621.000000	29.272737
1622.000000	29.315465
1623.000000	29.354700
1624.000000	29.393565
1625.000000	29.432772
1626.000000	29.471880
1627.000000	29.509573
1628.000000	29.548488
1629.000000	29.586495
1630.000000	29.624870
1631.000000	29.662797
1632.000000	29.698685
1633.000000	29.734955
1634.000000	29.770508
1635.000000	29.805755
1636.000000	29.837217
1637.000000	29.868355
1638.000000	29.896013
1639.000000	29.922528
1640.000000	29.945405
1641.000000	29.966495
1642.000000	29.986213
1643.000000	30.004535
1644.000000	30.021452
1645.000000	30.034160
1646.000000	30.047390
1647.000000	30.056707
1648.000000	30.063972
1649.000000	30.069768
1650.000000	30.074027
1651.000000	30.074298
1652.000000	30.071188
1653.000000	30.062605
1654.000000	30.049637
1655.000000	30.030113
1656.000000	30.003280
1657.000000	29.968745
1658.000000	29.928245
1659.000000	29.878397
1660.000000	29.820810
1661.000000	29.754705
1662.000000	29.677915
1663.000000	29.592068
1664.000000	29.495810
1665.000000	29.393122
1666.000000	29.280108
1667.000000	29.162755
1668.000000	29.032060
1669.000000	28.895040
1670.000000	28.751165
1671.000000	28.601345
1672.000000	28.449275
1673.000000	28.293757
1674.000000	28.134960
1675.000000	27.975220
1676.000000	27.815928
1677.000000	27.652670
1678.000000	27.492653
1679.000000	27.329680
1680.000000	27.165017
1681.000000	26.997688
1682.000000	26.826895
1683.000000	26.654743
1684.000000	26.483103
1685.000000	26.316212
1686.000000	26.154933
1687.000000	26.003998
1688.000000	25.869067
1689.000000	25.752897
1690.000000	25.658713
1691.000000	25.588847
1692.000000	25.543975
1693.000000	25.522512
1694.000000	25.521738
1695.000000	25.534883
1696.000000	25.559207
1697.000000	25.590438
1698.000000	25.621175
1699.000000	25.650395
1700.000000	25.674403
1701.000000	25.689113
1702.000000	25.693655
1703.000000	25.686990
1704.000000	25.670815
1705.000000	25.641895
1706.000000	25.602625
1707.000000	25.552335
1708.000000	25.494667
1709.000000	25.423702
1710.000000	25.341968
1711.000000	25.250090
1712.000000	25.145790
1713.000000	25.028985
1714.000000	24.898412
1715.000000	24.759853
1716.000000	24.610217
1717.000000	24.452477
1718.000000	24.286130
1719.000000	24.119338
1720.000000	23.949260
1721.000000	23.783410
1722.000000	23.626870
1723.000000	23.483767
1724.000000	23.356867
1725.000000	23.247720
1726.000000	23.160170
1727.000000	23.095415
1728.000000	23.052915
1729.000000	23.031165
1730.000000	23.031305
1731.000000	23.048830
1732.000000	23.083140
1733.000000	23.128970
1734.000000	23.186667
1735.000000	23.252870
1736.000000	23.328300
1737.000000	23.409075
1738.000000	23.497447
1739.000000	23.591160
1740.000000	23.688100
1741.000000	23.788863
1742.000000	23.889168
1743.000000	23.992033
1744.000000	24.093790
1745.000000	24.194605
1746.000000	24.292450
1747.000000	24.387733
1748.000000	24.474483
1749.000000	24.554337
1750.000000	24.627698
1751.000000	24.692663
1752.000000	24.750113
1753.000000	24.799460
1754.000000	24.840283
1755.000000	24.873408
1756.000000	24.900530
1757.000000	24.920907
1758.000000	24.937983
1759.000000	24.952400
1760.000000	24.963383
1761.000000	24.973485
1762.000000	24.982985
1763.000000	24.993585
1764.000000	25.008862
1765.000000	25.026232
1766.000000	25.047570
1767.000000	25.073345
1768.000000	25.104063
1769.000000	25.137725
1770.000000	25.176630
1771.000000	25.219082
1772.000000	25.265898
1773.000000	25.315840
1774.000000	25.367258
1775.000000	25.420200
1776.000000	25.471967
1777.000000	25.524472
1778.000000	25.576470
1779.000000	25.628255
1780.000000	25.679032
1781.000000	25.727270
1782.000000	25.772350
1783.000000	25.812910
1784.000000	25.849480
1785.000000	25.883750
1786.000000	25.915478
1787.000000	25.941335
1788.000000	25.961523
1789.000000	25.978875
1790.000000	25.993920
1791.000000	26.008232
1792.000000	26.022668
1793.000000	26.037925
1794.000000	26.053665
1795.000000	26.068975
1796.000000	26.084518
1797.000000	26.101948
1798.000000	26.121725
1799.000000	26.142962
1800.000000	26.165958
1801.000000	26.190233
1802.000000	26.213480
1803.000000	26.235093
1804.000000	26.255978
1805.000000	26.278848
1806.000000	26.303753
1807.000000	26.328888
1808.000000	26.352398
1809.000000	26.374823
1810.000000	26.397095
1811.000000	26.419655
1812.000000	26.442782
1813.000000	26.465590
1814.000000	26.488123
1815.000000	26.508823
1816.000000	26.525112
1817.000000	26.536310
1818.000000	26.546850
1819.000000	26.559340
1820.000000	26.574478
1821.000000	26.588798
1822.000000	26.598715
1823.000000	26.603983
1824.000000	26.606860
1825.000000	26.609473
1826.000000	26.615150
1827.000000	26.627807
1828.000000	26.643993
1829.000000	26.660065
1830.000000	26.674095
1831.000000	26.686425
1832.000000	26.701628
1833.000000	26.722005
1834.000000	26.744943
1835.000000	26.770425
1836.000000	26.799347
1837.000000	26.828943
1838.000000	26.858952
1839.000000	26.891438
1840.000000	26.927812
1841.000000	26.971795
1842.000000	27.016852
1843.000000	27.054132
1844.000000	27.081995
1845.000000	27.103885
1846.000000	27.127240
1847.000000	27.159197
1848.000000	27.197035
1849.000000	27.224905
1850.000000	27.238020
1851.000000	27.239297
1852.000000	27.239283
1853.000000	27.245980
1854.000000	27.261307
1855.000000	27.277165
1856.000000	27.281715
1857.000000	27.269442
1858.000000	27.246295
1859.000000	27.226963
1860.000000	27.212602
1861.000000	27.196690
1862.000000	27.173060
1863.000000	27.139762
1864.000000	27.094455
1865.000000	27.040247
1866.000000	26.978302
1867.000000	26.909250
1868.000000	26.829172
1869.000000	26.741278
1870.000000	26.645985
1871.000000	26.541905
1872.000000	26.432130
1873.000000	26.316415
1874.000000	26.193518
1875.000000	26.060035
1876.000000	25.917765
1877.000000	25.761685
1878.000000	25.595327
1879.000000	25.410285
1880.000000	25.206467
1881.000000	24.985903
1882.000000	24.749390
1883.000000	24.500322
1884.000000	24.237130
1885.000000	23.960942
1886.000000	23.672908
1887.000000	23.374510
1888.000000	23.061193
1889.000000	22.737473
1890.000000	22.405917
1891.000000	22.065650
1892.000000	21.716192
1893.000000	21.356020
1894.000000	20.987313
1895.000000	20.613413
1896.000000	20.230935
1897.000000	19.843695
1898.000000	19.455407
1899.000000	19.066508
1900.000000	18.675655
1901.000000	18.287973
1902.000000	17.903398
1903.000000	17.522525
1904.000000	17.155440
1905.000000	16.793260
1906.000000	16.443180
1907.000000	16.109282
1908.000000	15.782262
1909.000000	15.468985
1910.000000	15.173430
1911.000000	14.893145
1912.000000	14.627852
1913.000000	14.380670
1914.000000	14.138003
1915.000000	13.914605
1916.000000	13.703435
1917.000000	13.502347
1918.000000	13.317967
1919.000000	13.148960
1920.000000	12.989687
1921.000000	12.838150
1922.000000	12.696425
1923.000000	12.564005
1924.000000	12.448155
1925.000000	12.338328
1926.000000	12.236185
1927.000000	12.143430
1928.000000	12.061440
1929.000000	11.987293
1930.000000	11.919527
1931.000000	11.860563
1932.000000	11.808743
1933.000000	11.761285
1934.000000	11.717578
1935.000000	11.682395
1936.000000	11.657045
1937.000000	11.640548
1938.000000	11.628510
1939.000000	11.620320
1940.000000	11.619655
1941.000000	11.627075
1942.000000	11.636930
1943.000000	11.655898
1944.000000	11.678845
1945.000000	11.707548
1946.000000	11.740030
1947.000000	11.771905
1948.000000	11.812062
1949.000000	11.852943
1950.000000	11.895160
1951.000000	11.939063
1952.000000	11.989755
1953.000000	12.041830
1954.000000	12.099445
1955.000000	12.156643
1956.000000	12.214495
1957.000000	12.276970
1958.000000	12.335190
1959.000000	12.396062
1960.000000	12.458782
1961.000000	12.522335
1962.000000	12.586515
1963.000000	12.651560
1964.000000	12.713320
1965.000000	12.777265
1966.000000	12.840453
1967.000000	12.905627
1968.000000	12.969190
1969.000000	13.034425
1970.000000	13.097033
1971.000000	13.157635
1972.000000	13.218765
1973.000000	13.280548
1974.000000	13.345812
1975.000000	13.411392
1976.000000	13.477530
1977.000000	13.540273
1978.000000	13.605635
1979.000000	13.669610
1980.000000	13.738063
1981.000000	13.809813
1982.000000	13.881190
1983.000000	13.948128
1984.000000	14.015177
1985.000000	14.078528
1986.000000	14.147030
1987.000000	14.213040
1988.000000	14.279735
1989.000000	14.345035
1990.000000	14.409255
1991.000000	14.473295
1992.000000	14.533915
1993.000000	14.595423
1994.000000	14.654037
1995.000000	14.711880
1996.000000	14.762195
1997.000000	14.815453
1998.000000	14.868308
1999.000000	14.918910
2000.000000	14.963700
2001.000000	15.005822
2002.000000	15.049608
2003.000000	15.090598
2004.000000	15.126965
2005.000000	15.161062
2006.000000	15.192427
2007.000000	15.215010
2008.000000	15.234688
2009.000000	15.251465
2010.000000	15.264788
2011.000000	15.270120
2012.000000	15.269145
2013.000000	15.262472
2014.000000	15.253635
2015.000000	15.238502
2016.000000	15.218030
2017.000000	15.197260
2018.000000	15.169870
2019.000000	15.136385
2020.000000	15.096410
2021.000000	15.051958
2022.000000	15.001527
2023.000000	14.949253
2024.000000	14.892158
2025.000000	14.830535
2026.000000	14.764065
2027.000000	14.691775
2028.000000	14.618345
2029.000000	14.540668
2030.000000	14.461745
2031.000000	14.380955
2032.000000	14.297682
2033.000000	14.208260
2034.000000	14.109938
2035.000000	14.009297
2036.000000	13.911722
2037.000000	13.808018
2038.000000	13.698097
2039.000000	13.583975
2040.000000	13.466028
2041.000000	13.347317
2042.000000	13.226800
2043.000000	13.107780
2044.000000	12.994452
2045.000000	12.879198
2046.000000	12.756450
2047.000000	12.642907
2048.000000	12.538687
2049.000000	12.441583
2050.000000	12.348005
2051.000000	12.263452
2052.000000	12.190310
2053.000000	12.125550
2054.000000	12.071138
2055.000000	12.033440
2056.000000	12.010505
2057.000000	11.992777
2058.000000	11.981380
2059.000000	11.980350
2060.000000	11.997993
2061.000000	12.024570
2062.000000	12.060015
2063.000000	12.105205
2064.000000	12.157625
2065.000000	12.215072
2066.000000	12.280580
2067.000000	12.353282
2068.000000	12.428508
2069.000000	12.510457
2070.000000	12.592538
2071.000000	12.675265
2072.000000	12.760705
2073.000000	12.843155
2074.000000	12.919650
2075.000000	12.995112
2076.000000	13.067902
2077.000000	13.133672
2078.000000	13.199420
2079.000000	13.261310
2080.000000	13.317810
2081.000000	13.366585
2082.000000	13.405687
2083.000000	13.445010
2084.000000	13.483735
2085.000000	13.515263
2086.000000	13.541870
2087.000000	13.571768
2088.000000	13.591872
2089.000000	13.604160
2090.000000	13.612480
2091.000000	13.622450
2092.000000	13.628880
2093.000000	13.631440
2094.000000	13.632497
2095.000000	13.634473
2096.000000	13.634303
2097.000000	13.620408
2098.000000	13.610098
2099.000000	13.607640
2100.000000	13.607715
2101.000000	13.605482
2102.000000	13.610510
2103.000000	13.616675
2104.000000	13.618875
2105.000000	13.616133
2106.000000	13.616782
2107.000000	13.627845
2108.000000	13.643530
2109.000000	13.649605
2110.000000	13.655120
2111.000000	13.656035
2112.000000	13.653665
2113.000000	13.647402
2114.000000	13.636160
2115.000000	13.639645
2116.000000	13.640318
2117.000000	13.645525
2118.000000	13.639890
2119.000000	13.633625
2120.000000	13.620825
2121.000000	13.609600
2122.000000	13.592763
2123.000000	13.577150
2124.000000	13.571078
2125.000000	13.545198
2126.000000	13.516333
2127.000000	13.481390
2128.000000	13.453615
2129.000000	13.421905
2130.000000	13.385135
2131.000000	13.352183
2132.000000	13.322720
2133.000000	13.277033
2134.000000	13.229170
2135.000000	13.185640
2136.000000	13.134807
2137.000000	13.073538
2138.000000	13.009910
2139.000000	12.945358
2140.000000	12.877218
2141.000000	12.801327
2142.000000	12.718075
2143.000000	12.643785
2144.000000	12.566360
2145.000000	12.493873
2146.000000	12.414677
2147.000000	12.342738
2148.000000	12.269958
2149.000000	12.201387
2150.000000	12.123010
2151.000000	12.040450
2152.000000	11.963922
2153.000000	11.885993
2154.000000	11.803505
2155.000000	11.712497
2156.000000	11.636463
2157.000000	11.555065
2158.000000	11.472645
2159.000000	11.388590
2160.000000	11.324550
2161.000000	11.260372
2162.000000	11.200253
2163.000000	11.136757
2164.000000	11.080967
2165.000000	11.026190
2166.000000	10.974185
2167.000000	10.935355
2168.000000	10.896347
2169.000000	10.854408
2170.000000	10.820663
2171.000000	10.792658
2172.000000	10.764572
2173.000000	10.736945
2174.000000	10.703240
2175.000000	10.686585
2176.000000	10.669140
2177.000000	10.647407
2178.000000	10.632975
2179.000000	10.629135
2180.000000	10.611860
2181.000000	10.600763
2182.000000	10.587207
2183.000000	10.575107
2184.000000	10.568552
2185.000000	10.556258
2186.000000	10.550755
2187.000000	10.533807
2188.000000	10.528165
2189.000000	10.514940
2190.000000	10.506158
2191.000000	10.486133
2192.000000	10.463973
2193.000000	10.448470
2194.000000	10.423760
2195.000000	10.398210
2196.000000	10.353500
2197.000000	10.317597
2198.000000	10.258930
2199.000000	10.212315
2200.000000	10.164615
2201.000000	10.126635
2202.000000	10.085487
2203.000000	10.046477
2204.000000	10.018038
2205.000000	9.984230
2206.000000	9.966787
2207.000000	9.954420
2208.000000	9.945090
2209.000000	9.929280
2210.000000	9.926763
2211.000000	9.938125
2212.000000	9.957187
2213.000000	9.972148
2214.000000	9.993170
2215.000000	10.029287
2216.000000	10.069128
2217.000000	10.114115
2218.000000	10.177795
2219.000000	10.243885
2220.000000	10.296862
2221.000000	10.342160
2222.000000	10.392917
2223.000000	10.455972
2224.000000	10.523343
2225.000000	10.581968
2226.000000	10.635872
2227.000000	10.688852
2228.000000	10.732432
2229.000000	10.776267
2230.000000	10.823420
2231.000000	10.866697
2232.000000	10.898097
2233.000000	10.939780
2234.000000	10.963733
2235.000000	10.981520
2236.000000	10.990440
2237.000000	10.995240
2238.000000	11.000035
2239.000000	10.997618
2240.000000	10.999303
2241.000000	10.984998
2242.000000	10.970033
2243.000000	10.927050
2244.000000	10.901125
2245.000000	10.861578
2246.000000	10.818870
2247.000000	10.760358
2248.000000	10.696233
2249.000000	10.625158
2250.000000	10.555532
2251.000000	10.488868
2252.000000	10.409363
2253.000000	10.339060
2254.000000	10.256295
2255.000000	10.184320
2256.000000	10.108045
2257.000000	10.033730
2258.000000	9.946100
2259.000000	9.875032
2260.000000	9.789112
2261.000000	9.713072
2262.000000	9.647647
2263.000000	9.572532
2264.000000	9.498947
2265.000000	9.436443
2266.000000	9.400443
2267.000000	9.370698
2268.000000	9.344025
2269.000000	9.311470
2270.000000	9.296675
2271.000000	9.281510
2272.000000	9.266822
2273.000000	9.253163
2274.000000	9.251245
2275.000000	9.241988
2276.000000	9.226185
2277.000000	9.214203
2278.000000	9.214080
2279.000000	9.218613
2280.000000	9.213097
2281.000000	9.210035
2282.000000	9.208763
2283.000000	9.217405
2284.000000	9.212217
2285.000000	9.204823
2286.000000	9.192465
2287.000000	9.182908
2288.000000	9.174212
2289.000000	9.173360
2290.000000	9.163675
2291.000000	9.153635
2292.000000	9.153120
2293.000000	9.157225
2294.000000	9.164953
2295.000000	9.167382
2296.000000	9.168302
2297.000000	9.165775
2298.000000	9.164305
2299.000000	9.153243
2300.000000	9.150520
2301.000000	9.142530
2302.000000	9.128483
2303.000000	9.117862
2304.000000	9.121790
2305.000000	9.134448
2306.000000	9.142527
2307.000000	9.144778
2308.000000	9.147525
2309.000000	9.162450
2310.000000	9.187430
2311.000000	9.212937
2312.000000	9.243720
2313.000000	9.273748
2314.000000	9.296215
2315.000000	9.328383
2316.000000	9.363468
2317.000000	9.412048
2318.000000	9.452675
2319.000000	9.476678
2320.000000	9.491370
2321.000000	9.520780
2322.000000	9.553472
2323.000000	9.580350
2324.000000	9.599080
2325.000000	9.606710
2326.000000	9.623962
2327.000000	9.637810
2328.000000	9.656862
2329.000000	9.677392
2330.000000	9.697002
2331.000000	9.706848
2332.000000	9.713908
2333.000000	9.721367
2334.000000	9.730982
2335.000000	9.743372
2336.000000	9.756073
2337.000000	9.758517
2338.000000	9.761525
2339.000000	9.764388
2340.000000	9.771095
2341.000000	9.787862
2342.000000	9.804657
2343.000000	9.818877
2344.000000	9.821170
2345.000000	9.825855
2346.000000	9.821822
2347.000000	9.832147
2348.000000	9.852500
2349.000000	9.883192
2350.000000	9.919500
2351.000000	9.937115
2352.000000	9.955070
2353.000000	9.977208
2354.000000	10.014625
2355.000000	10.065237
2356.000000	10.116490
2357.000000	10.151915
2358.000000	10.190202
2359.000000	10.216565
2360.000000	10.230890
2361.000000	10.259942
2362.000000	10.288100
2363.000000	10.297900
2364.000000	10.303125
2365.000000	10.301770
2366.000000	10.315535
2367.000000	10.337348
2368.000000	10.342225
2369.000000	10.346755
2370.000000	10.365470
2371.000000	10.378490
2372.000000	10.394108
2373.000000	10.415707
2374.000000	10.440900
2375.000000	10.459703
2376.000000	10.456740
2377.000000	10.452973
2378.000000	10.474327
2379.000000	10.519572
2380.000000	10.532478
2381.000000	10.534197
2382.000000	10.522990
2383.000000	10.531657
2384.000000	10.561595
2385.000000	10.584452
2386.000000	10.604522
2387.000000	10.638612
2388.000000	10.650932
2389.000000	10.650245
2390.000000	10.668192
2391.000000	10.698393
2392.000000	10.730647
2393.000000	10.745650
2394.000000	10.747508
2395.000000	10.755073
2396.000000	10.777050
2397.000000	10.777637
2398.000000	10.773517
2399.000000	10.773055
2400.000000	10.771863
2401.000000	10.758100
2402.000000	10.745313
2403.000000	10.753277
2404.000000	10.750953
2405.000000	10.758305
2406.000000	10.754703
2407.000000	10.749920
2408.000000	10.723527
2409.000000	10.705472
2410.000000	10.712020
2411.000000	10.708595
2412.000000	10.693052
2413.000000	10.676675
2414.000000	10.656338
2415.000000	10.635370
2416.000000	10.606045
2417.000000	10.570835
2418.000000	10.587503
2419.000000	10.578368
2420.000000	10.566720
2421.000000	10.548787
2422.000000	10.540268
2423.000000	10.504342
2424.000000	10.475020
2425.000000	10.444903
2426.000000	10.422882
2427.000000	10.395220
2428.000000	10.337903
2429.000000	10.296423
2430.000000	10.241255
2431.000000	10.226742
2432.000000	10.205130
2433.000000	10.189958
2434.000000	10.155782
2435.000000	10.108200
2436.000000	10.069995
2437.000000	10.043755
2438.000000	10.030515
2439.000000	10.046045
2440.000000	10.010573
2441.000000	9.956262
2442.000000	9.904248
2443.000000	9.860265
2444.000000	9.829975
2445.000000	9.847055
2446.000000	9.839887
2447.000000	9.826985
2448.000000	9.844580
2449.000000	9.786818
2450.000000	9.784735
2451.000000	9.749197
2452.000000	9.730020
2453.000000	9.691298
2454.000000	9.710373
2455.000000	9.675747
2456.000000	9.656482
2457.000000	9.636565
2458.000000	9.608940
2459.000000	9.634037
2460.000000	9.680750
2461.000000	9.773293
2462.000000	9.844788
2463.000000	9.939317
2464.000000	9.980140
2465.000000	10.016858
2466.000000	10.075295
2467.000000	10.089680
2468.000000	10.160900
2469.000000	10.210350
2470.000000	10.275090
2471.000000	10.274503
2472.000000	10.320882
2473.000000	10.343390
2474.000000	10.400768
2475.000000	10.466500
2476.000000	10.554265
2477.000000	10.713618
2478.000000	10.824803
2479.000000	10.902265
2480.000000	11.053310
2481.000000	11.159145
2482.000000	11.248910
2483.000000	11.424715
2484.000000	11.598565
2485.000000	11.818613
2486.000000	11.993058
2487.000000	12.175547
2488.000000	12.295990
2489.000000	12.511230
2490.000000	12.603717
2491.000000	12.858115
2492.000000	13.045900
2493.000000	13.146150
2494.000000	13.182368
2495.000000	13.192063
2496.000000	13.203530
2497.000000	13.266130
2498.000000	13.452205
2499.000000	13.617845
2500.000000	13.859293
2501.000000	17.492557
2502.000000	21.126420
2503.000000	24.848768
2504.000000	28.655858
2505.000000	32.448197
2506.000000	36.514985
2507.000000	41.012025
2508.000000	44.779195
2509.000000	49.464527
2510.000000	54.138490
2511.000000	55.057340
2512.000000	56.484400
2513.000000	57.554850
2514.000000	58.519270
2515.000000	60.037400
2516.000000	61.086390
2517.000000	61.790130
2518.000000	62.967110
2519.000000	63.259800
2520.000000	63.549820
2521.000000	64.076540
2522.000000	64.435870
2523.000000	64.985150
2524.000000	66.282440
2525.000000	67.077330
2526.000000	68.154830
2527.000000	68.925390
2528.000000	69.676920
2529.000000	70.266270
2530.000000	71.193210
2531.000000	72.516010
2532.000000	73.424910
2533.000000	74.643580
2534.000000	75.041260
2535.000000	75.491910
2536.000000	75.885600
2537.000000	76.962340
2538.000000	78.490170
2539.000000	79.985510
2540.000000	80.743460
2541.000000	80.973440
2542.000000	81.754580
2543.000000	83.036960
2544.000000	83.982350
2545.000000	84.382800
2546.000000	85.299920
2547.000000	85.825200
2548.000000	86.193290
2549.000000	86.528990
2550.000000	87.364760
2551.000000	88.494240
2552.000000	89.753790
2553.000000	90.137050
2554.000000	90.119000
2555.000000	90.812670
2556.000000	91.264690
2557.000000	91.904960
2558.000000	91.998560
2559.000000	91.736430
2560.000000	91.193130
2561.000000	90.920840
2562.000000	90.376120
2563.000000	90.928500
2564.000000	91.998970
2565.000000	92.496710
2566.000000	93.101920
2567.000000	93.454360
2568.000000	93.563040
2569.000000	94.145170
2570.000000	95.210790
2571.000000	95.536710
2572.000000	95.932980
2573.000000	95.712220
2574.000000	96.306890
2575.000000	96.487600
2576.000000	96.434090
2577.000000	96.774870
2578.000000	97.226100
2579.000000	97.345740
2580.000000	97.043350
2581.000000	97.356920
2582.000000	97.068430
2583.000000	96.437370
2584.000000	95.766720
2585.000000	96.235240
2586.000000	96.490640
2587.000000	96.054880
2588.000000	96.122470
2589.000000	96.156550
2590.000000	96.918600
2591.000000	97.881480
2592.000000	98.756140
2593.000000	99.376970
2594.000000	99.256880
2595.000000	98.659040
2596.000000	98.525100
2597.000000	99.070850
2598.000000	99.748290
2599.000000	100.861620
2600.000000	100.992020
2601.000000	100.356090
2602.000000	100.054700
2603.000000	100.027590
2604.000000	100.067690
2605.000000	100.244470
2606.000000	100.413300
2607.000000	99.834930
2608.000000	98.821060
2609.000000	98.645390
2610.000000	98.596960
2611.000000	99.169250
2612.000000	99.522190
2613.000000	99.902660
2614.000000	100.867500
2615.000000	100.991150
2616.000000	100.602480
2617.000000	100.649190
2618.000000	101.588570
2619.000000	101.429970
2620.000000	101.790820
2621.000000	102.102890
2622.000000	102.713860
2623.000000	103.590700
2624.000000	104.139240
2625.000000	104.878480
2626.000000	105.573350
2627.000000	106.041460
2628.000000	105.615790
2629.000000	105.677770
2630.000000	105.182640
2631.000000	104.233350
2632.000000	103.166170
2633.000000	102.414140
2634.000000	101.053810
2635.000000	100.700250
2636.000000	100.871760
2637.000000	100.799980
2638.000000	100.982420
2639.000000	100.175260
2640.000000	100.246080
2641.000000	100.498130
2642.000000	101.077940
2643.000000	100.851790
2644.000000	101.143420
2645.000000	100.720130
2646.000000	99.675720
2647.000000	99.605290
2648.000000	99.944700
2649.000000	100.785110
2650.000000	100.471730
2651.000000	99.987500
2652.000000	99.731670
2653.000000	99.612530
2654.000000	99.192030
2655.000000	99.614120
2656.000000	100.545830
2657.000000	100.101330
2658.000000	99.795810
2659.000000	100.157520
2660.000000	100.819960
2661.000000	101.553640
2662.000000	102.183840
2663.000000	102.197680
2664.000000	102.729280
2665.000000	102.505230
2666.000000	101.631840
2667.000000	101.908260
2668.000000	101.897440
2669.000000	101.324260
2670.000000	100.257910
2671.000000	99.660390
2672.000000	98.929990
2673.000000	99.031220
2674.000000	99.034230
2675.000000	99.210350
2676.000000	99.652640
2677.000000	99.528640
2678.000000	99.219940
2679.000000	99.150680
2680.000000	99.430400
2681.000000	99.648180
2682.000000	99.452020
2683.000000	99.166720
2684.000000	99.235580
2685.000000	99.392710
2686.000000	99.535180
2687.000000	99.548530
2688.000000	99.385480
2689.000000	98.980840
2690.000000	99.416230
2691.000000	99.800210
2692.000000	100.079580
2693.000000	101.392710
2694.000000	101.119370
2695.000000	100.776330
2696.000000	100.472640
2697.000000	101.422820
2698.000000	101.870350
2699.000000	101.678180
2700.000000	101.525640
2701.000000	101.099590
2702.000000	101.453500
2703.000000	100.075900
2704.000000	100.085020
2705.000000	99.980080
2706.000000	102.023880
2707.000000	101.117440
2708.000000	101.927000
2709.000000	102.966500
2710.000000	103.411470
2711.000000	102.881660
2712.000000	102.410870
2713.000000	103.698820
2714.000000	104.266800
2715.000000	105.342360
2716.000000	104.442970
2717.000000	104.267380
2718.000000	103.756420
2719.000000	104.254440
2720.000000	105.642590
2721.000000	106.405000
2722.000000	107.545280
2723.000000	107.289540
2724.000000	106.931660
2725.000000	105.587420
2726.000000	105.182640
2727.000000	106.049830
2728.000000	105.951410
2729.000000	105.659080
2730.000000	103.933000
2731.000000	105.508040
2732.000000	104.453740
2733.000000	105.475910
2734.000000	105.311990
2735.000000	105.873890
2736.000000	105.131740
2737.000000	104.223010
2738.000000	104.734350
2739.000000	104.129740
2740.000000	105.035530
2741.000000	103.254520
2742.000000	104.393100
2743.000000	103.415550
2744.000000	104.477020
2745.000000	104.160890
2746.000000	103.757530
2747.000000	105.290460
2748.000000	104.876060
2749.000000	104.693350
2750.000000	103.503200
2751.000000	103.950370
2752.000000	103.323800
2753.000000	102.972750
2754.000000	102.641350
2755.000000	102.899130
2756.000000	104.495520
2757.000000	103.393210
2758.000000	102.660010
2759.000000	102.828940
2760.000000	103.144510
2761.000000	103.351780
2762.000000	104.001030
2763.000000	103.754990
2764.000000	103.995170
2765.000000	104.155640
2766.000000	103.030900
2767.000000	103.288390
2768.000000	103.151020
2769.000000	103.253150
2770.000000	103.105470
2771.000000	102.873990
2772.000000	102.162880
2773.000000	102.482060
2774.000000	101.661680
2775.000000	100.869380
2776.000000	101.433330
2777.000000	101.542100
2778.000000	101.752940
2779.000000	102.322140
2780.000000	101.821330
2781.000000	100.149370
2782.000000	98.612920
2783.000000	98.510060
2784.000000	98.540920
2785.000000	99.535250
2786.000000	100.020380
2787.000000	99.992780
2788.000000	99.876030
2789.000000	98.973200
2790.000000	100.147890
2791.000000	101.596840
2792.000000	102.483550
2793.000000	101.948960
2794.000000	102.268530
2795.000000	101.360920
2796.000000	100.254890
2797.000000	99.626600
2798.000000	99.527960
2799.000000	99.531510
2800.000000	98.241310
2801.000000	98.114040
2802.000000	98.281030
2803.000000	98.806090
2804.000000	98.922290
2805.000000	100.073460
2806.000000	100.189950
2807.000000	100.016530
2808.000000	100.293920
2809.000000	99.946880
2810.000000	100.913020
2811.000000	100.634920
2812.000000	100.842630
2813.000000	100.619780
2814.000000	100.301580
2815.000000	100.688090
2816.000000	101.557470
2817.000000	102.007510
2818.000000	102.411650
2819.000000	103.137790
2820.000000	102.851550
2821.000000	103.946160
2822.000000	104.009180
2823.000000	104.063480
2824.000000	104.296930
2825.000000	103.896380
2826.000000	103.373930
2827.000000	102.651080
2828.000000	102.528470
2829.000000	102.659780
2830.000000	102.536290
2831.000000	101.170170
2832.000000	100.540890
2833.000000	100.196050
2834.000000	100.291400
2835.000000	100.245010
2836.000000	100.348550
2837.000000	100.780490
2838.000000	100.760040
2839.000000	101.348950
2840.000000	102.036920
2841.000000	102.877520
2842.000000	103.629930
2843.000000	104.432810
2844.000000	105.110630
2845.000000	104.870780
2846.000000	104.450390
2847.000000	104.504940
2848.000000	104.728530
2849.000000	104.739580
2850.000000	104.503580
2851.000000	103.657280
2852.000000	103.211260
2853.000000	102.639690
2854.000000	101.450370
2855.000000	101.493080
2856.000000	101.507120
2857.000000	101.641960
2858.000000	101.381690
2859.000000	100.406810
2860.000000	100.230700
2861.000000	100.821230
2862.000000	101.058920
2863.000000	101.052090
2864.000000	101.086620
2865.000000	100.737870
2866.000000	101.032130
2867.000000	101.612250
2868.000000	101.831670
2869.000000	101.634850
2870.000000	101.574790
2871.000000	102.529380
2872.000000	103.534170
2873.000000	103.691470
2874.000000	102.986650
2875.000000	102.204290
2876.000000	101.435650
2877.000000	100.815530
2878.000000	100.292740
2879.000000	100.645070
2880.000000	100.477810
2881.000000	99.462790
2882.000000	98.677920
2883.000000	98.662740
2884.000000	99.256950
2885.000000	100.093770
2886.000000	101.316140
2887.000000	101.792680
2888.000000	102.746820
2889.000000	103.405560
2890.000000	103.997790
2891.000000	104.501380
2892.000000	104.152540
2893.000000	104.318550
2894.000000	104.828750
2895.000000	104.817480
2896.000000	103.445630
2897.000000	102.484240
2898.000000	102.037320
2899.000000	101.526250
2900.000000	100.760540
2901.000000	99.946550
2902.000000	100.200630
2903.000000	100.194440
2904.000000	99.402670
2905.000000	98.877460
2906.000000	99.012920
2907.000000	99.823380
2908.000000	99.746430
2909.000000	100.060440
2910.000000	100.956670
2911.000000	101.793020
2912.000000	102.288230
2913.000000	102.677900
2914.000000	102.263160
2915.000000	102.448210
2916.000000	102.542620
2917.000000	101.581640
2918.000000	101.084630
2919.000000	100.396930
2920.000000	99.740520
2921.000000	98.743480
2922.000000	97.719760
2923.000000	96.298300
2924.000000	96.939840
2925.000000	97.471570
2926.000000	98.287780
2927.000000	99.696480
2928.000000	100.140560
2929.000000	100.697290
2930.000000	101.221020
2931.000000	101.870710
2932.000000	101.989910
2933.000000	103.125520
2934.000000	104.066690
2935.000000	103.768800
2936.000000	102.881910
2937.000000	101.877020
2938.000000	102.787100
2939.000000	102.731250
2940.000000	101.997060
2941.000000	101.571570
2942.000000	101.061610
2943.000000	100.899290
2944.000000	100.906100
2945.000000	101.221920
2946.000000	101.910270
2947.000000	101.827140
2948.000000	100.683050
2949.000000	100.345150
2950.000000	101.559990
2951.000000	102.339920
2952.000000	103.017660
2953.000000	101.964230
2954.000000	101.575620
2955.000000	101.388420
2956.000000	101.397870
2957.000000	102.417140
2958.000000	102.143640
2959.000000	102.521720
2960.000000	100.942670
2961.000000	100.473510
2962.000000	100.582190
2963.000000	102.202440
2964.000000	101.677880
2965.000000	101.506770
2966.000000	101.675200
2967.000000	100.436100
2968.000000	101.175460
2969.000000	101.477390
2970.000000	102.465460
2971.000000	102.830210
2972.000000	102.561890
2973.000000	101.297200
2974.000000	101.237780
2975.000000	103.159530
2976.000000	103.929510
2977.000000	104.055830
2978.000000	103.340660
2979.000000	102.183500
2980.000000	101.342220
2981.000000	100.398600
2982.000000	99.841400
2983.000000	99.938210
2984.000000	101.566800
2985.000000	100.422690
2986.000000	98.970140
2987.000000	99.648730
2988.000000	100.566480
2989.000000	100.911500
2990.000000	101.850700
2991.000000	101.842260
2992.000000	101.989720
2993.000000	103.149540
2994.000000	100.615090
2995.000000	99.832020
2996.000000	100.074950
2997.000000	99.643770
2998.000000	100.825820
2999.000000	101.162180
3000.000000	101.386090
