PE UV       SUBTECH     SPECTRUM    ASCII       PEDS        4.00        
   -1
INBUCR0222-4.Sample.ASC
24/02/08
10:24:55.00
24/02/08
10:24:55.00
Vinicio Soto Monge
C. batesi Det: A Solís COSTA RICA INBIOCRI002430774 Est. Cuerici, Sendero al Mirador, 4,6 km al E. de Villa Mills, San José, Costa Rica, 2640 m 17-22 Mar 1996. A Picado, de Luz L_S_389700_499600 #7026
250,000000
1
Lambda 1050
1050L1511233
PerkinElmer UV WinLab 6.3.2.0749 / 2.02.05 Lambda 900 UV/VIS/NIR, Aug  7 2015 09:38:08

0
0
3350/servo 860,8/2
0
0
UV/VIS
1
1
1
DoubleDePol,CommonBeamDepol,RBeamAtt,SBeamAtt,60mm sphere, WB InGaAs Detector
0
0
0
0
Program
Program
3350/servo 860,8/2
3350/0,2 860,8/0,2
3350/0,2 860,8/0,2
0
15.00
 
 
 
0
 
860,8
319,2
860,8
Front
100
on
S:100 R:100
0
0
0
0
 
0
 
 
 
0
 
 
0
0
0
0
0
 
 
 
 
0
0


0
0
#HDR
-1
-1
#GR
nm
%R
1.0
0.0
2500,000000
-1,000000
2251
8
12,467900
1,252400
#DATA

250.000000	nan
251.000000	nan
252.000000	nan
253.000000	nan
254.000000	nan
255.000000	nan
256.000000	nan
257.000000	nan
258.000000	nan
259.000000	4.219487
260.000000	4.206422
261.000000	4.193619
262.000000	4.180516
263.000000	4.166126
264.000000	4.152025
265.000000	4.137208
266.000000	4.122908
267.000000	4.102619
268.000000	4.089502
269.000000	4.072556
270.000000	4.054522
271.000000	4.036616
272.000000	4.021816
273.000000	4.007832
274.000000	3.995863
275.000000	3.983701
276.000000	3.970431
277.000000	3.960768
278.000000	3.950478
279.000000	3.943018
280.000000	3.936733
281.000000	3.931580
282.000000	3.923062
283.000000	3.915482
284.000000	3.908268
285.000000	3.900221
286.000000	3.894086
287.000000	3.891819
288.000000	3.886924
289.000000	3.881760
290.000000	3.875833
291.000000	3.870235
292.000000	3.866273
293.000000	3.862524
294.000000	3.861132
295.000000	3.858744
296.000000	3.858797
297.000000	3.851693
298.000000	3.846771
299.000000	3.842120
300.000000	3.840065
301.000000	3.837331
302.000000	3.836199
303.000000	3.832514
304.000000	3.825603
305.000000	3.820451
306.000000	3.812397
307.000000	3.807931
308.000000	3.801445
309.000000	3.796300
310.000000	3.789100
311.000000	3.783173
312.000000	3.777111
313.000000	3.772329
314.000000	3.767912
315.000000	3.764605
316.000000	3.763156
317.000000	3.794410
318.000000	3.822439
319.000000	3.843877
320.000000	3.862995
321.000000	3.878365
322.000000	3.902788
323.000000	3.917064
324.000000	3.934131
325.000000	3.952194
326.000000	3.970903
327.000000	3.954100
328.000000	3.934762
329.000000	3.922150
330.000000	3.913798
331.000000	3.910578
332.000000	3.893169
333.000000	3.886990
334.000000	3.886402
335.000000	3.877097
336.000000	3.866300
337.000000	3.859562
338.000000	3.862342
339.000000	3.861657
340.000000	3.857080
341.000000	3.848797
342.000000	3.846874
343.000000	3.849703
344.000000	3.843961
345.000000	3.847421
346.000000	3.846743
347.000000	3.843020
348.000000	3.841582
349.000000	3.838054
350.000000	3.840093
351.000000	3.847024
352.000000	3.852716
353.000000	3.853626
354.000000	3.855985
355.000000	3.851992
356.000000	3.855206
357.000000	3.861134
358.000000	3.864348
359.000000	3.869896
360.000000	3.876166
361.000000	3.880181
362.000000	3.881555
363.000000	3.881555
364.000000	3.883156
365.000000	3.889071
366.000000	3.893009
367.000000	3.896901
368.000000	3.898783
369.000000	3.902551
370.000000	3.902905
371.000000	3.902973
372.000000	3.906840
373.000000	3.913358
374.000000	3.919725
375.000000	3.930328
376.000000	3.953394
377.000000	3.969457
378.000000	3.990860
379.000000	4.018041
380.000000	4.050169
381.000000	4.089168
382.000000	4.135135
383.000000	4.188227
384.000000	4.250660
385.000000	4.319718
386.000000	4.388396
387.000000	4.477808
388.000000	4.578946
389.000000	4.693101
390.000000	4.822914
391.000000	4.968005
392.000000	5.131520
393.000000	5.314932
394.000000	5.519092
395.000000	5.745970
396.000000	5.995614
397.000000	6.268748
398.000000	6.567549
399.000000	6.892629
400.000000	7.242820
401.000000	7.618475
402.000000	8.018127
403.000000	8.441561
404.000000	8.888358
405.000000	9.355388
406.000000	9.839065
407.000000	10.338232
408.000000	10.848880
409.000000	11.367740
410.000000	11.893928
411.000000	12.423403
412.000000	12.952068
413.000000	13.477461
414.000000	13.994625
415.000000	14.501497
416.000000	14.998605
417.000000	15.482171
418.000000	15.949993
419.000000	16.399818
420.000000	16.829961
421.000000	17.241301
422.000000	17.633535
423.000000	18.003407
424.000000	18.352611
425.000000	18.681857
426.000000	18.989670
427.000000	19.276551
428.000000	19.542507
429.000000	19.790039
430.000000	20.018820
431.000000	20.226756
432.000000	20.415686
433.000000	20.587905
434.000000	20.741170
435.000000	20.876223
436.000000	20.993894
437.000000	21.093780
438.000000	21.176406
439.000000	21.241780
440.000000	21.290001
441.000000	21.321608
442.000000	21.333464
443.000000	21.326994
444.000000	21.303342
445.000000	21.261150
446.000000	21.200785
447.000000	21.122055
448.000000	21.025054
449.000000	20.907478
450.000000	20.768954
451.000000	20.609580
452.000000	20.431131
453.000000	20.230988
454.000000	20.009031
455.000000	19.766042
456.000000	19.500442
457.000000	19.212806
458.000000	18.903855
459.000000	18.574949
460.000000	18.227346
461.000000	17.862571
462.000000	17.481720
463.000000	17.089289
464.000000	16.689126
465.000000	16.284612
466.000000	15.881502
467.000000	15.485903
468.000000	15.103379
469.000000	14.739615
470.000000	14.400126
471.000000	14.091400
472.000000	13.819735
473.000000	13.589088
474.000000	13.402170
475.000000	13.261655
476.000000	13.168396
477.000000	13.121943
478.000000	13.120964
479.000000	13.163350
480.000000	13.244533
481.000000	13.358830
482.000000	13.499927
483.000000	13.661759
484.000000	13.838900
485.000000	14.024719
486.000000	14.213049
487.000000	14.398378
488.000000	14.575379
489.000000	14.739889
490.000000	14.889656
491.000000	15.023113
492.000000	15.138018
493.000000	15.233670
494.000000	15.308517
495.000000	15.362020
496.000000	15.394262
497.000000	15.405680
498.000000	15.398927
499.000000	15.379082
500.000000	15.352572
501.000000	15.326301
502.000000	15.311530
503.000000	15.318171
504.000000	15.356686
505.000000	15.436887
506.000000	15.566348
507.000000	15.752941
508.000000	16.003201
509.000000	16.324177
510.000000	16.723765
511.000000	17.209696
512.000000	17.783316
513.000000	18.437696
514.000000	19.159528
515.000000	19.929423
516.000000	20.724341
517.000000	21.522952
518.000000	22.303092
519.000000	23.044344
520.000000	23.725616
521.000000	24.328553
522.000000	24.840845
523.000000	25.259361
524.000000	25.590776
525.000000	25.847827
526.000000	26.049157
527.000000	26.211811
528.000000	26.352614
529.000000	26.482824
530.000000	26.612503
531.000000	26.746888
532.000000	26.886629
533.000000	27.031792
534.000000	27.179989
535.000000	27.328707
536.000000	27.474774
537.000000	27.613861
538.000000	27.743394
539.000000	27.861105
540.000000	27.964062
541.000000	28.051429
542.000000	28.125340
543.000000	28.186392
544.000000	28.235057
545.000000	28.273312
546.000000	28.302728
547.000000	28.325149
548.000000	28.342459
549.000000	28.354639
550.000000	28.362735
551.000000	28.369249
552.000000	28.372417
553.000000	28.372660
554.000000	28.369986
555.000000	28.364690
556.000000	28.356974
557.000000	28.346481
558.000000	28.330814
559.000000	28.310332
560.000000	28.276725
561.000000	28.233840
562.000000	28.183367
563.000000	28.123034
564.000000	28.050321
565.000000	27.963485
566.000000	27.860757
567.000000	27.742803
568.000000	27.610209
569.000000	27.464602
570.000000	27.316826
571.000000	27.166217
572.000000	27.015724
573.000000	26.873923
574.000000	26.744529
575.000000	26.629396
576.000000	26.527568
577.000000	26.432929
578.000000	26.341968
579.000000	26.246062
580.000000	26.138241
581.000000	26.011789
582.000000	25.864755
583.000000	25.697319
584.000000	25.516501
585.000000	25.333503
586.000000	25.162700
587.000000	25.016955
588.000000	24.905396
589.000000	24.834757
590.000000	24.801298
591.000000	24.800974
592.000000	24.821982
593.000000	24.849517
594.000000	24.867979
595.000000	24.861739
596.000000	24.817450
597.000000	24.732268
598.000000	24.608425
599.000000	24.456526
600.000000	24.294518
601.000000	24.139297
602.000000	24.006776
603.000000	23.908005
604.000000	23.848630
605.000000	23.825701
606.000000	23.832648
607.000000	23.855619
608.000000	23.879511
609.000000	23.888993
610.000000	23.870536
611.000000	23.812665
612.000000	23.715755
613.000000	23.585234
614.000000	23.432810
615.000000	23.278913
616.000000	23.140310
617.000000	23.033732
618.000000	22.967875
619.000000	22.943929
620.000000	22.961403
621.000000	23.012056
622.000000	23.080944
623.000000	23.155242
624.000000	23.217181
625.000000	23.251634
626.000000	23.252103
627.000000	23.214255
628.000000	23.144956
629.000000	23.055845
630.000000	22.960414
631.000000	22.871259
632.000000	22.802308
633.000000	22.759540
634.000000	22.748264
635.000000	22.763485
636.000000	22.798031
637.000000	22.843754
638.000000	22.888140
639.000000	22.917679
640.000000	22.923149
641.000000	22.899193
642.000000	22.843900
643.000000	22.762688
644.000000	22.664019
645.000000	22.560195
646.000000	22.463603
647.000000	22.382589
648.000000	22.324612
649.000000	22.294245
650.000000	22.290349
651.000000	22.308784
652.000000	22.340591
653.000000	22.374107
654.000000	22.399542
655.000000	22.408484
656.000000	22.395751
657.000000	22.357537
658.000000	22.296398
659.000000	22.218902
660.000000	22.132068
661.000000	22.047978
662.000000	21.976208
663.000000	21.925589
664.000000	21.902719
665.000000	21.910320
666.000000	21.945068
667.000000	22.005236
668.000000	22.081255
669.000000	22.163770
670.000000	22.242845
671.000000	22.311407
672.000000	22.364252
673.000000	22.398243
674.000000	22.411655
675.000000	22.408339
676.000000	22.393942
677.000000	22.375657
678.000000	22.359941
679.000000	22.354337
680.000000	22.364813
681.000000	22.392313
682.000000	22.435593
683.000000	22.491300
684.000000	22.556605
685.000000	22.623561
686.000000	22.685574
687.000000	22.735413
688.000000	22.772029
689.000000	22.793799
690.000000	22.801587
691.000000	22.800522
692.000000	22.797303
693.000000	22.798571
694.000000	22.810146
695.000000	22.838996
696.000000	22.888540
697.000000	22.961569
698.000000	23.056649
699.000000	23.168089
700.000000	23.293172
701.000000	23.422089
702.000000	23.549351
703.000000	23.666575
704.000000	23.769309
705.000000	23.854426
706.000000	23.920512
707.000000	23.969992
708.000000	24.004852
709.000000	24.030250
710.000000	24.049138
711.000000	24.068105
712.000000	24.088788
713.000000	24.115907
714.000000	24.150644
715.000000	24.195309
716.000000	24.250827
717.000000	24.313234
718.000000	24.382472
719.000000	24.457444
720.000000	24.534296
721.000000	24.609707
722.000000	24.683329
723.000000	24.756909
724.000000	24.832414
725.000000	24.908461
726.000000	24.986870
727.000000	25.070399
728.000000	25.159758
729.000000	25.257639
730.000000	25.365591
731.000000	25.485583
732.000000	25.617907
733.000000	25.760989
734.000000	25.910786
735.000000	26.066224
736.000000	26.222667
737.000000	26.373169
738.000000	26.514692
739.000000	26.645088
740.000000	26.762278
741.000000	26.863474
742.000000	26.948909
743.000000	27.018262
744.000000	27.072165
745.000000	27.112883
746.000000	27.145117
747.000000	27.174377
748.000000	27.203540
749.000000	27.232951
750.000000	27.262964
751.000000	27.295669
752.000000	27.330536
753.000000	27.367329
754.000000	27.403279
755.000000	27.439184
756.000000	27.470993
757.000000	27.498037
758.000000	27.521042
759.000000	27.540192
760.000000	27.558370
761.000000	27.578628
762.000000	27.601436
763.000000	27.627610
764.000000	27.663145
765.000000	27.706965
766.000000	27.763804
767.000000	27.834277
768.000000	27.918400
769.000000	28.012118
770.000000	28.117794
771.000000	28.229975
772.000000	28.350465
773.000000	28.479558
774.000000	28.614536
775.000000	28.751710
776.000000	28.888700
777.000000	29.027894
778.000000	29.162936
779.000000	29.300041
780.000000	29.435019
781.000000	29.566208
782.000000	29.692819
783.000000	29.816630
784.000000	29.939494
785.000000	30.061459
786.000000	30.178692
787.000000	30.291159
788.000000	30.402093
789.000000	30.511073
790.000000	30.618771
791.000000	30.724907
792.000000	30.826675
793.000000	30.920193
794.000000	31.008434
795.000000	31.093943
796.000000	31.176514
797.000000	31.249684
798.000000	31.317664
799.000000	31.376716
800.000000	31.429869
801.000000	31.479954
802.000000	31.527810
803.000000	31.576865
804.000000	31.623808
805.000000	31.663498
806.000000	31.701400
807.000000	31.742234
808.000000	31.785923
809.000000	31.830075
810.000000	31.867140
811.000000	31.901903
812.000000	31.935445
813.000000	31.965936
814.000000	31.988852
815.000000	32.009519
816.000000	32.027206
817.000000	32.039934
818.000000	32.047243
819.000000	32.048461
820.000000	32.050043
821.000000	32.045419
822.000000	32.040714
823.000000	32.031625
824.000000	32.023752
825.000000	32.012248
826.000000	31.999724
827.000000	31.987324
828.000000	31.975168
829.000000	31.958024
830.000000	31.935508
831.000000	31.905369
832.000000	31.872039
833.000000	31.833492
834.000000	31.787822
835.000000	31.742066
836.000000	31.691000
837.000000	31.636503
838.000000	31.568334
839.000000	31.498340
840.000000	31.428891
841.000000	31.369500
842.000000	31.291177
843.000000	31.212982
844.000000	31.136194
845.000000	31.043904
846.000000	30.953045
847.000000	30.854105
848.000000	30.750438
849.000000	30.647871
850.000000	30.532720
851.000000	30.411354
852.000000	30.292121
853.000000	30.170824
854.000000	30.016344
855.000000	29.894402
856.000000	29.751481
857.000000	29.617892
858.000000	29.604476
859.000000	29.566175
860.000000	29.524362
861.000000	29.462144
862.000000	29.397476
863.000000	29.323237
864.000000	29.287135
865.000000	29.212540
866.000000	29.137871
867.000000	29.079548
868.000000	28.902168
869.000000	28.726605
870.000000	28.548742
871.000000	28.396060
872.000000	28.229700
873.000000	28.071497
874.000000	27.914995
875.000000	27.761617
876.000000	27.618555
877.000000	27.438408
878.000000	27.256345
879.000000	27.103068
880.000000	26.971505
881.000000	26.828505
882.000000	26.711543
883.000000	26.578285
884.000000	26.428107
885.000000	26.284555
886.000000	26.140205
887.000000	26.014620
888.000000	25.895148
889.000000	25.757430
890.000000	25.625383
891.000000	25.491197
892.000000	25.352092
893.000000	25.224317
894.000000	25.098987
895.000000	24.986135
896.000000	24.870795
897.000000	24.767497
898.000000	24.666722
899.000000	24.567028
900.000000	24.455510
901.000000	24.363240
902.000000	24.262712
903.000000	24.182973
904.000000	24.106465
905.000000	24.036143
906.000000	23.978227
907.000000	23.900890
908.000000	23.829345
909.000000	23.776447
910.000000	23.721715
911.000000	23.661655
912.000000	23.628165
913.000000	23.587847
914.000000	23.555310
915.000000	23.517298
916.000000	23.492047
917.000000	23.471695
918.000000	23.454970
919.000000	23.441357
920.000000	23.434535
921.000000	23.439507
922.000000	23.440350
923.000000	23.447538
924.000000	23.455160
925.000000	23.467970
926.000000	23.478997
927.000000	23.496085
928.000000	23.515087
929.000000	23.539257
930.000000	23.571217
931.000000	23.595255
932.000000	23.620513
933.000000	23.643980
934.000000	23.674785
935.000000	23.709972
936.000000	23.747343
937.000000	23.788385
938.000000	23.826600
939.000000	23.860698
940.000000	23.898285
941.000000	23.942678
942.000000	23.987793
943.000000	24.033943
944.000000	24.079497
945.000000	24.124570
946.000000	24.169688
947.000000	24.218335
948.000000	24.271900
949.000000	24.328063
950.000000	24.386205
951.000000	24.439680
952.000000	24.496740
953.000000	24.555928
954.000000	24.614000
955.000000	24.672495
956.000000	24.731925
957.000000	24.792282
958.000000	24.854378
959.000000	24.917517
960.000000	24.978178
961.000000	25.042652
962.000000	25.105100
963.000000	25.167952
964.000000	25.234435
965.000000	25.302615
966.000000	25.369238
967.000000	25.433902
968.000000	25.501895
969.000000	25.570840
970.000000	25.637223
971.000000	25.702245
972.000000	25.771240
973.000000	25.841245
974.000000	25.909295
975.000000	25.977055
976.000000	26.046095
977.000000	26.116652
978.000000	26.184750
979.000000	26.252750
980.000000	26.323052
981.000000	26.395255
982.000000	26.463783
983.000000	26.531590
984.000000	26.602555
985.000000	26.673615
986.000000	26.743510
987.000000	26.813630
988.000000	26.881773
989.000000	26.950367
990.000000	27.019168
991.000000	27.087925
992.000000	27.159275
993.000000	27.230935
994.000000	27.301795
995.000000	27.370410
996.000000	27.438583
997.000000	27.507167
998.000000	27.578245
999.000000	27.649807
1000.000000	27.719870
1001.000000	27.789007
1002.000000	27.857777
1003.000000	27.926750
1004.000000	27.995558
1005.000000	28.065230
1006.000000	28.135252
1007.000000	28.205082
1008.000000	28.274577
1009.000000	28.342887
1010.000000	28.411777
1011.000000	28.480625
1012.000000	28.549655
1013.000000	28.618680
1014.000000	28.687023
1015.000000	28.753827
1016.000000	28.820815
1017.000000	28.890040
1018.000000	28.958347
1019.000000	29.026495
1020.000000	29.095450
1021.000000	29.165563
1022.000000	29.235650
1023.000000	29.304635
1024.000000	29.373960
1025.000000	29.445555
1026.000000	29.517757
1027.000000	29.589105
1028.000000	29.661185
1029.000000	29.732795
1030.000000	29.802710
1031.000000	29.871225
1032.000000	29.940185
1033.000000	30.010820
1034.000000	30.081043
1035.000000	30.150000
1036.000000	30.218583
1037.000000	30.285905
1038.000000	30.352632
1039.000000	30.419300
1040.000000	30.487782
1041.000000	30.556987
1042.000000	30.624943
1043.000000	30.691595
1044.000000	30.757133
1045.000000	30.823095
1046.000000	30.889495
1047.000000	30.955460
1048.000000	31.020717
1049.000000	31.085738
1050.000000	31.150898
1051.000000	31.215530
1052.000000	31.279900
1053.000000	31.343745
1054.000000	31.409003
1055.000000	31.474993
1056.000000	31.540528
1057.000000	31.605953
1058.000000	31.671285
1059.000000	31.736673
1060.000000	31.802585
1061.000000	31.868883
1062.000000	31.934545
1063.000000	31.999368
1064.000000	32.064338
1065.000000	32.127725
1066.000000	32.189463
1067.000000	32.251945
1068.000000	32.315760
1069.000000	32.379575
1070.000000	32.441770
1071.000000	32.503080
1072.000000	32.564977
1073.000000	32.627542
1074.000000	32.688830
1075.000000	32.749943
1076.000000	32.811517
1077.000000	32.871760
1078.000000	32.931742
1079.000000	32.991908
1080.000000	33.050725
1081.000000	33.108288
1082.000000	33.165025
1083.000000	33.221737
1084.000000	33.277720
1085.000000	33.334540
1086.000000	33.391393
1087.000000	33.448430
1088.000000	33.504330
1089.000000	33.559105
1090.000000	33.613118
1091.000000	33.667942
1092.000000	33.723417
1093.000000	33.778290
1094.000000	33.832853
1095.000000	33.885765
1096.000000	33.938550
1097.000000	33.990797
1098.000000	34.042597
1099.000000	34.094922
1100.000000	34.146687
1101.000000	34.198005
1102.000000	34.248712
1103.000000	34.297857
1104.000000	34.346725
1105.000000	34.395865
1106.000000	34.444750
1107.000000	34.493950
1108.000000	34.541387
1109.000000	34.587683
1110.000000	34.636197
1111.000000	34.684265
1112.000000	34.730837
1113.000000	34.776740
1114.000000	34.823590
1115.000000	34.869347
1116.000000	34.913695
1117.000000	34.957245
1118.000000	35.000130
1119.000000	35.042210
1120.000000	35.082058
1121.000000	35.121290
1122.000000	35.160550
1123.000000	35.199513
1124.000000	35.234930
1125.000000	35.268377
1126.000000	35.301367
1127.000000	35.331110
1128.000000	35.359395
1129.000000	35.385745
1130.000000	35.410010
1131.000000	35.429500
1132.000000	35.445715
1133.000000	35.460592
1134.000000	35.476660
1135.000000	35.493138
1136.000000	35.505860
1137.000000	35.516542
1138.000000	35.523952
1139.000000	35.530468
1140.000000	35.536400
1141.000000	35.543590
1142.000000	35.548685
1143.000000	35.554880
1144.000000	35.559390
1145.000000	35.563150
1146.000000	35.567237
1147.000000	35.572787
1148.000000	35.580352
1149.000000	35.586955
1150.000000	35.593720
1151.000000	35.600258
1152.000000	35.607463
1153.000000	35.611688
1154.000000	35.613713
1155.000000	35.612223
1156.000000	35.608410
1157.000000	35.602360
1158.000000	35.594980
1159.000000	35.584402
1160.000000	35.571152
1161.000000	35.554010
1162.000000	35.535992
1163.000000	35.514238
1164.000000	35.491357
1165.000000	35.466675
1166.000000	35.441697
1167.000000	35.416790
1168.000000	35.390037
1169.000000	35.364782
1170.000000	35.338987
1171.000000	35.314055
1172.000000	35.291725
1173.000000	35.273615
1174.000000	35.258135
1175.000000	35.244997
1176.000000	35.234713
1177.000000	35.226492
1178.000000	35.221198
1179.000000	35.218415
1180.000000	35.218790
1181.000000	35.222203
1182.000000	35.226870
1183.000000	35.232440
1184.000000	35.238655
1185.000000	35.248658
1186.000000	35.260917
1187.000000	35.276680
1188.000000	35.296250
1189.000000	35.319118
1190.000000	35.345748
1191.000000	35.377520
1192.000000	35.411538
1193.000000	35.449272
1194.000000	35.490562
1195.000000	35.535085
1196.000000	35.582113
1197.000000	35.629647
1198.000000	35.678210
1199.000000	35.727072
1200.000000	35.775512
1201.000000	35.823493
1202.000000	35.870602
1203.000000	35.918175
1204.000000	35.965908
1205.000000	36.012165
1206.000000	36.057585
1207.000000	36.102855
1208.000000	36.147807
1209.000000	36.192995
1210.000000	36.237943
1211.000000	36.282110
1212.000000	36.326850
1213.000000	36.369330
1214.000000	36.410405
1215.000000	36.450310
1216.000000	36.490210
1217.000000	36.529220
1218.000000	36.566380
1219.000000	36.602415
1220.000000	36.638503
1221.000000	36.672690
1222.000000	36.705137
1223.000000	36.737862
1224.000000	36.770992
1225.000000	36.804210
1226.000000	36.836505
1227.000000	36.868978
1228.000000	36.901237
1229.000000	36.932538
1230.000000	36.962452
1231.000000	36.993080
1232.000000	37.024585
1233.000000	37.055255
1234.000000	37.084985
1235.000000	37.114758
1236.000000	37.143588
1237.000000	37.171322
1238.000000	37.199058
1239.000000	37.227007
1240.000000	37.255882
1241.000000	37.285080
1242.000000	37.314042
1243.000000	37.342840
1244.000000	37.372252
1245.000000	37.401850
1246.000000	37.432352
1247.000000	37.463220
1248.000000	37.495278
1249.000000	37.529263
1250.000000	37.562663
1251.000000	37.595658
1252.000000	37.629330
1253.000000	37.663785
1254.000000	37.697343
1255.000000	37.729980
1256.000000	37.762602
1257.000000	37.795043
1258.000000	37.826302
1259.000000	37.855203
1260.000000	37.882780
1261.000000	37.909845
1262.000000	37.936055
1263.000000	37.961362
1264.000000	37.985368
1265.000000	38.008590
1266.000000	38.031510
1267.000000	38.054338
1268.000000	38.076703
1269.000000	38.098635
1270.000000	38.120468
1271.000000	38.141352
1272.000000	38.161023
1273.000000	38.180417
1274.000000	38.201245
1275.000000	38.223005
1276.000000	38.243885
1277.000000	38.264300
1278.000000	38.284430
1279.000000	38.305487
1280.000000	38.328330
1281.000000	38.351515
1282.000000	38.374740
1283.000000	38.398543
1284.000000	38.422290
1285.000000	38.446537
1286.000000	38.471495
1287.000000	38.496403
1288.000000	38.522315
1289.000000	38.548170
1290.000000	38.571630
1291.000000	38.594860
1292.000000	38.618930
1293.000000	38.643028
1294.000000	38.666402
1295.000000	38.688460
1296.000000	38.709878
1297.000000	38.731183
1298.000000	38.750867
1299.000000	38.769303
1300.000000	38.788218
1301.000000	38.806450
1302.000000	38.823910
1303.000000	38.839983
1304.000000	38.853803
1305.000000	38.866680
1306.000000	38.878235
1307.000000	38.887893
1308.000000	38.897565
1309.000000	38.906220
1310.000000	38.912858
1311.000000	38.918647
1312.000000	38.922203
1313.000000	38.924307
1314.000000	38.926300
1315.000000	38.926390
1316.000000	38.924725
1317.000000	38.921190
1318.000000	38.915195
1319.000000	38.908035
1320.000000	38.900565
1321.000000	38.890965
1322.000000	38.879330
1323.000000	38.865495
1324.000000	38.849968
1325.000000	38.832730
1326.000000	38.813360
1327.000000	38.792442
1328.000000	38.770108
1329.000000	38.745470
1330.000000	38.717677
1331.000000	38.687825
1332.000000	38.656235
1333.000000	38.622593
1334.000000	38.586292
1335.000000	38.547117
1336.000000	38.505095
1337.000000	38.461055
1338.000000	38.414100
1339.000000	38.364427
1340.000000	38.312485
1341.000000	38.257868
1342.000000	38.200522
1343.000000	38.141332
1344.000000	38.078515
1345.000000	38.012662
1346.000000	37.945340
1347.000000	37.876922
1348.000000	37.806085
1349.000000	37.731475
1350.000000	37.654557
1351.000000	37.576302
1352.000000	37.495648
1353.000000	37.414750
1354.000000	37.339042
1355.000000	37.267675
1356.000000	37.196095
1357.000000	37.123452
1358.000000	37.052580
1359.000000	36.984510
1360.000000	36.923125
1361.000000	36.870830
1362.000000	36.820665
1363.000000	36.767605
1364.000000	36.713813
1365.000000	36.655532
1366.000000	36.594580
1367.000000	36.535030
1368.000000	36.472732
1369.000000	36.403650
1370.000000	36.324100
1371.000000	36.230985
1372.000000	36.126058
1373.000000	36.009300
1374.000000	35.874380
1375.000000	35.727170
1376.000000	35.566235
1377.000000	35.389933
1378.000000	35.200192
1379.000000	35.002252
1380.000000	34.803240
1381.000000	34.607917
1382.000000	34.420713
1383.000000	34.246188
1384.000000	34.078518
1385.000000	33.920027
1386.000000	33.776685
1387.000000	33.650353
1388.000000	33.537350
1389.000000	33.434748
1390.000000	33.334668
1391.000000	33.237772
1392.000000	33.144638
1393.000000	33.050937
1394.000000	32.963637
1395.000000	32.884098
1396.000000	32.802672
1397.000000	32.707255
1398.000000	32.605275
1399.000000	32.506238
1400.000000	32.414513
1401.000000	32.309697
1402.000000	32.188290
1403.000000	32.056638
1404.000000	31.919970
1405.000000	31.769538
1406.000000	31.610825
1407.000000	31.452553
1408.000000	31.292453
1409.000000	31.121985
1410.000000	30.934850
1411.000000	30.743167
1412.000000	30.557167
1413.000000	30.375135
1414.000000	30.192150
1415.000000	30.007730
1416.000000	29.821205
1417.000000	29.637602
1418.000000	29.458512
1419.000000	29.284643
1420.000000	29.113075
1421.000000	28.949455
1422.000000	28.790947
1423.000000	28.636718
1424.000000	28.484623
1425.000000	28.337510
1426.000000	28.198428
1427.000000	28.064055
1428.000000	27.932752
1429.000000	27.802717
1430.000000	27.680318
1431.000000	27.564875
1432.000000	27.453045
1433.000000	27.344358
1434.000000	27.239085
1435.000000	27.138268
1436.000000	27.042860
1437.000000	26.951373
1438.000000	26.863988
1439.000000	26.780552
1440.000000	26.700435
1441.000000	26.621920
1442.000000	26.545230
1443.000000	26.469353
1444.000000	26.396703
1445.000000	26.329455
1446.000000	26.263145
1447.000000	26.194988
1448.000000	26.124502
1449.000000	26.057842
1450.000000	25.994515
1451.000000	25.933653
1452.000000	25.872120
1453.000000	25.810540
1454.000000	25.750273
1455.000000	25.688302
1456.000000	25.626403
1457.000000	25.566137
1458.000000	25.508100
1459.000000	25.449407
1460.000000	25.388963
1461.000000	25.326530
1462.000000	25.265418
1463.000000	25.206640
1464.000000	25.145900
1465.000000	25.086460
1466.000000	25.027505
1467.000000	24.969372
1468.000000	24.910303
1469.000000	24.852310
1470.000000	24.794902
1471.000000	24.739035
1472.000000	24.684832
1473.000000	24.629410
1474.000000	24.575360
1475.000000	24.522470
1476.000000	24.472215
1477.000000	24.424793
1478.000000	24.380667
1479.000000	24.337190
1480.000000	24.296723
1481.000000	24.258815
1482.000000	24.222508
1483.000000	24.189980
1484.000000	24.160972
1485.000000	24.134645
1486.000000	24.110290
1487.000000	24.086863
1488.000000	24.065608
1489.000000	24.046930
1490.000000	24.028950
1491.000000	24.012397
1492.000000	23.999927
1493.000000	23.989830
1494.000000	23.981040
1495.000000	23.974367
1496.000000	23.970405
1497.000000	23.969420
1498.000000	23.971777
1499.000000	23.977632
1500.000000	23.988055
1501.000000	24.002825
1502.000000	24.020913
1503.000000	24.043030
1504.000000	24.069793
1505.000000	24.099440
1506.000000	24.133432
1507.000000	24.171453
1508.000000	24.212590
1509.000000	24.256495
1510.000000	24.301970
1511.000000	24.349115
1512.000000	24.398250
1513.000000	24.449542
1514.000000	24.502198
1515.000000	24.556537
1516.000000	24.610200
1517.000000	24.664107
1518.000000	24.718732
1519.000000	24.772640
1520.000000	24.826002
1521.000000	24.879850
1522.000000	24.932515
1523.000000	24.983590
1524.000000	25.034483
1525.000000	25.084083
1526.000000	25.133798
1527.000000	25.183913
1528.000000	25.232147
1529.000000	25.279263
1530.000000	25.327055
1531.000000	25.374035
1532.000000	25.420043
1533.000000	25.465578
1534.000000	25.509200
1535.000000	25.552465
1536.000000	25.594528
1537.000000	25.633698
1538.000000	25.672062
1539.000000	25.710132
1540.000000	25.746190
1541.000000	25.780500
1542.000000	25.814957
1543.000000	25.849003
1544.000000	25.882890
1545.000000	25.917405
1546.000000	25.952630
1547.000000	25.989645
1548.000000	26.028635
1549.000000	26.068487
1550.000000	26.108855
1551.000000	26.151357
1552.000000	26.194750
1553.000000	26.238330
1554.000000	26.281580
1555.000000	26.323102
1556.000000	26.363175
1557.000000	26.401375
1558.000000	26.437085
1559.000000	26.470410
1560.000000	26.500635
1561.000000	26.525945
1562.000000	26.547182
1563.000000	26.564888
1564.000000	26.578868
1565.000000	26.589468
1566.000000	26.596758
1567.000000	26.600957
1568.000000	26.602260
1569.000000	26.601425
1570.000000	26.599072
1571.000000	26.596053
1572.000000	26.592372
1573.000000	26.588722
1574.000000	26.586480
1575.000000	26.584692
1576.000000	26.583990
1577.000000	26.585638
1578.000000	26.590150
1579.000000	26.596320
1580.000000	26.604982
1581.000000	26.615555
1582.000000	26.628270
1583.000000	26.644175
1584.000000	26.662595
1585.000000	26.684630
1586.000000	26.708915
1587.000000	26.733535
1588.000000	26.758740
1589.000000	26.786100
1590.000000	26.815648
1591.000000	26.847010
1592.000000	26.880005
1593.000000	26.914350
1594.000000	26.948925
1595.000000	26.984490
1596.000000	27.020260
1597.000000	27.058245
1598.000000	27.097947
1599.000000	27.138982
1600.000000	27.180277
1601.000000	27.224450
1602.000000	27.268930
1603.000000	27.314098
1604.000000	27.361487
1605.000000	27.408930
1606.000000	27.457105
1607.000000	27.505280
1608.000000	27.553765
1609.000000	27.601590
1610.000000	27.649235
1611.000000	27.694075
1612.000000	27.738890
1613.000000	27.780345
1614.000000	27.819833
1615.000000	27.858103
1616.000000	27.895052
1617.000000	27.929748
1618.000000	27.963020
1619.000000	27.994275
1620.000000	28.023940
1621.000000	28.052455
1622.000000	28.079298
1623.000000	28.107588
1624.000000	28.134185
1625.000000	28.159447
1626.000000	28.184705
1627.000000	28.211137
1628.000000	28.236978
1629.000000	28.264735
1630.000000	28.292470
1631.000000	28.319295
1632.000000	28.345567
1633.000000	28.371552
1634.000000	28.397692
1635.000000	28.423950
1636.000000	28.449740
1637.000000	28.473392
1638.000000	28.494180
1639.000000	28.512265
1640.000000	28.529998
1641.000000	28.547638
1642.000000	28.564175
1643.000000	28.578277
1644.000000	28.590600
1645.000000	28.601993
1646.000000	28.612387
1647.000000	28.622132
1648.000000	28.630603
1649.000000	28.637655
1650.000000	28.641917
1651.000000	28.643150
1652.000000	28.642193
1653.000000	28.638598
1654.000000	28.631095
1655.000000	28.618993
1656.000000	28.601970
1657.000000	28.579650
1658.000000	28.553260
1659.000000	28.520970
1660.000000	28.483547
1661.000000	28.440625
1662.000000	28.390703
1663.000000	28.334607
1664.000000	28.273242
1665.000000	28.205115
1666.000000	28.131093
1667.000000	28.052688
1668.000000	27.964995
1669.000000	27.873040
1670.000000	27.774797
1671.000000	27.673122
1672.000000	27.567885
1673.000000	27.460050
1674.000000	27.348945
1675.000000	27.236672
1676.000000	27.121417
1677.000000	27.005900
1678.000000	26.890290
1679.000000	26.771933
1680.000000	26.652583
1681.000000	26.529245
1682.000000	26.405950
1683.000000	26.281650
1684.000000	26.158187
1685.000000	26.036707
1686.000000	25.921143
1687.000000	25.809137
1688.000000	25.709592
1689.000000	25.622407
1690.000000	25.550503
1691.000000	25.494342
1692.000000	25.454420
1693.000000	25.429220
1694.000000	25.417503
1695.000000	25.417385
1696.000000	25.423143
1697.000000	25.435790
1698.000000	25.451297
1699.000000	25.467760
1700.000000	25.480248
1701.000000	25.490305
1702.000000	25.493590
1703.000000	25.491760
1704.000000	25.487215
1705.000000	25.473055
1706.000000	25.452787
1707.000000	25.425910
1708.000000	25.389968
1709.000000	25.345675
1710.000000	25.295295
1711.000000	25.235600
1712.000000	25.167747
1713.000000	25.090487
1714.000000	25.001143
1715.000000	24.906525
1716.000000	24.806455
1717.000000	24.697737
1718.000000	24.584643
1719.000000	24.468443
1720.000000	24.351598
1721.000000	24.236683
1722.000000	24.126735
1723.000000	24.025070
1724.000000	23.934338
1725.000000	23.856128
1726.000000	23.791277
1727.000000	23.742705
1728.000000	23.709820
1729.000000	23.690910
1730.000000	23.683760
1731.000000	23.688855
1732.000000	23.703297
1733.000000	23.724027
1734.000000	23.751292
1735.000000	23.783008
1736.000000	23.818920
1737.000000	23.858362
1738.000000	23.900737
1739.000000	23.944498
1740.000000	23.991892
1741.000000	24.042392
1742.000000	24.095180
1743.000000	24.150517
1744.000000	24.205182
1745.000000	24.260123
1746.000000	24.316808
1747.000000	24.372560
1748.000000	24.425500
1749.000000	24.476505
1750.000000	24.523755
1751.000000	24.567188
1752.000000	24.605965
1753.000000	24.640258
1754.000000	24.671722
1755.000000	24.699578
1756.000000	24.722460
1757.000000	24.741200
1758.000000	24.757435
1759.000000	24.773612
1760.000000	24.787800
1761.000000	24.800512
1762.000000	24.811595
1763.000000	24.823290
1764.000000	24.835442
1765.000000	24.849125
1766.000000	24.863192
1767.000000	24.878940
1768.000000	24.896983
1769.000000	24.914810
1770.000000	24.934352
1771.000000	24.955312
1772.000000	24.979730
1773.000000	25.005520
1774.000000	25.033098
1775.000000	25.061185
1776.000000	25.089140
1777.000000	25.117115
1778.000000	25.144507
1779.000000	25.172243
1780.000000	25.199100
1781.000000	25.224250
1782.000000	25.247107
1783.000000	25.267850
1784.000000	25.285450
1785.000000	25.300503
1786.000000	25.314135
1787.000000	25.325765
1788.000000	25.335242
1789.000000	25.343290
1790.000000	25.350515
1791.000000	25.357868
1792.000000	25.366132
1793.000000	25.374402
1794.000000	25.384415
1795.000000	25.395917
1796.000000	25.407990
1797.000000	25.420472
1798.000000	25.432325
1799.000000	25.444847
1800.000000	25.460270
1801.000000	25.478135
1802.000000	25.494885
1803.000000	25.509305
1804.000000	25.523310
1805.000000	25.539572
1806.000000	25.556728
1807.000000	25.573908
1808.000000	25.591760
1809.000000	25.609597
1810.000000	25.626230
1811.000000	25.642570
1812.000000	25.660382
1813.000000	25.679458
1814.000000	25.698033
1815.000000	25.713915
1816.000000	25.726200
1817.000000	25.735643
1818.000000	25.743565
1819.000000	25.752778
1820.000000	25.765877
1821.000000	25.779883
1822.000000	25.790173
1823.000000	25.795450
1824.000000	25.796253
1825.000000	25.797695
1826.000000	25.802900
1827.000000	25.812822
1828.000000	25.826612
1829.000000	25.839940
1830.000000	25.850592
1831.000000	25.858787
1832.000000	25.866935
1833.000000	25.878643
1834.000000	25.894380
1835.000000	25.912212
1836.000000	25.932997
1837.000000	25.955670
1838.000000	25.978420
1839.000000	26.001345
1840.000000	26.025320
1841.000000	26.053200
1842.000000	26.084380
1843.000000	26.110782
1844.000000	26.129045
1845.000000	26.136885
1846.000000	26.144443
1847.000000	26.158292
1848.000000	26.178928
1849.000000	26.193840
1850.000000	26.194687
1851.000000	26.183677
1852.000000	26.168890
1853.000000	26.161560
1854.000000	26.162400
1855.000000	26.168442
1856.000000	26.163735
1857.000000	26.145140
1858.000000	26.117213
1859.000000	26.093462
1860.000000	26.076828
1861.000000	26.062268
1862.000000	26.042413
1863.000000	26.009760
1864.000000	25.966240
1865.000000	25.915405
1866.000000	25.859192
1867.000000	25.796852
1868.000000	25.722627
1869.000000	25.640125
1870.000000	25.553320
1871.000000	25.459865
1872.000000	25.363653
1873.000000	25.263592
1874.000000	25.158732
1875.000000	25.045535
1876.000000	24.922548
1877.000000	24.790440
1878.000000	24.648145
1879.000000	24.490465
1880.000000	24.313860
1881.000000	24.121862
1882.000000	23.917912
1883.000000	23.705537
1884.000000	23.482825
1885.000000	23.251390
1886.000000	23.010040
1887.000000	22.756175
1888.000000	22.492947
1889.000000	22.222425
1890.000000	21.946472
1891.000000	21.664658
1892.000000	21.374322
1893.000000	21.073258
1894.000000	20.759023
1895.000000	20.433865
1896.000000	20.101572
1897.000000	19.764063
1898.000000	19.423998
1899.000000	19.081430
1900.000000	18.734040
1901.000000	18.384123
1902.000000	18.031643
1903.000000	17.682455
1904.000000	17.345208
1905.000000	17.016365
1906.000000	16.696895
1907.000000	16.384425
1908.000000	16.077370
1909.000000	15.780850
1910.000000	15.494650
1911.000000	15.221420
1912.000000	14.963100
1913.000000	14.720288
1914.000000	14.484617
1915.000000	14.258675
1916.000000	14.043035
1917.000000	13.841645
1918.000000	13.652815
1919.000000	13.475795
1920.000000	13.310605
1921.000000	13.160972
1922.000000	13.019430
1923.000000	12.883783
1924.000000	12.755847
1925.000000	12.636017
1926.000000	12.528617
1927.000000	12.431325
1928.000000	12.342670
1929.000000	12.260440
1930.000000	12.192470
1931.000000	12.126513
1932.000000	12.066192
1933.000000	12.011883
1934.000000	11.969870
1935.000000	11.933507
1936.000000	11.904645
1937.000000	11.878648
1938.000000	11.866750
1939.000000	11.859658
1940.000000	11.855765
1941.000000	11.855240
1942.000000	11.861372
1943.000000	11.869813
1944.000000	11.883805
1945.000000	11.906402
1946.000000	11.930820
1947.000000	11.961120
1948.000000	11.990462
1949.000000	12.022600
1950.000000	12.053655
1951.000000	12.093210
1952.000000	12.136857
1953.000000	12.187725
1954.000000	12.236498
1955.000000	12.287495
1956.000000	12.340645
1957.000000	12.392788
1958.000000	12.447525
1959.000000	12.504055
1960.000000	12.562360
1961.000000	12.620017
1962.000000	12.675820
1963.000000	12.729385
1964.000000	12.787025
1965.000000	12.842820
1966.000000	12.899720
1967.000000	12.959925
1968.000000	13.019580
1969.000000	13.075320
1970.000000	13.131608
1971.000000	13.187510
1972.000000	13.243508
1973.000000	13.304170
1974.000000	13.360823
1975.000000	13.418810
1976.000000	13.476480
1977.000000	13.533780
1978.000000	13.589193
1979.000000	13.650905
1980.000000	13.711968
1981.000000	13.772605
1982.000000	13.835872
1983.000000	13.893023
1984.000000	13.952780
1985.000000	14.013540
1986.000000	14.073937
1987.000000	14.135875
1988.000000	14.195340
1989.000000	14.252512
1990.000000	14.310365
1991.000000	14.370247
1992.000000	14.427930
1993.000000	14.487190
1994.000000	14.543183
1995.000000	14.597765
1996.000000	14.654348
1997.000000	14.707388
1998.000000	14.757960
1999.000000	14.808280
2000.000000	14.859132
2001.000000	14.902313
2002.000000	14.943688
2003.000000	14.982645
2004.000000	15.019215
2005.000000	15.053412
2006.000000	15.082795
2007.000000	15.109100
2008.000000	15.136397
2009.000000	15.160253
2010.000000	15.178098
2011.000000	15.194985
2012.000000	15.208967
2013.000000	15.219012
2014.000000	15.228095
2015.000000	15.228903
2016.000000	15.225905
2017.000000	15.221317
2018.000000	15.209363
2019.000000	15.193492
2020.000000	15.172895
2021.000000	15.145807
2022.000000	15.116222
2023.000000	15.083778
2024.000000	15.046592
2025.000000	15.011542
2026.000000	14.968597
2027.000000	14.918078
2028.000000	14.865415
2029.000000	14.811068
2030.000000	14.751597
2031.000000	14.692558
2032.000000	14.625385
2033.000000	14.556432
2034.000000	14.485640
2035.000000	14.410360
2036.000000	14.333913
2037.000000	14.252885
2038.000000	14.169053
2039.000000	14.080405
2040.000000	13.992563
2041.000000	13.902188
2042.000000	13.813108
2043.000000	13.723743
2044.000000	13.632223
2045.000000	13.538127
2046.000000	13.447233
2047.000000	13.363145
2048.000000	13.281072
2049.000000	13.201545
2050.000000	13.129035
2051.000000	13.060747
2052.000000	12.997117
2053.000000	12.941115
2054.000000	12.893263
2055.000000	12.855895
2056.000000	12.827932
2057.000000	12.810667
2058.000000	12.804240
2059.000000	12.807320
2060.000000	12.819140
2061.000000	12.842740
2062.000000	12.875250
2063.000000	12.914162
2064.000000	12.961600
2065.000000	13.011653
2066.000000	13.064038
2067.000000	13.120860
2068.000000	13.182575
2069.000000	13.246245
2070.000000	13.312152
2071.000000	13.375350
2072.000000	13.440255
2073.000000	13.506797
2074.000000	13.570778
2075.000000	13.638462
2076.000000	13.704282
2077.000000	13.763728
2078.000000	13.821535
2079.000000	13.875520
2080.000000	13.923728
2081.000000	13.970443
2082.000000	14.014837
2083.000000	14.057263
2084.000000	14.095797
2085.000000	14.123395
2086.000000	14.147440
2087.000000	14.173095
2088.000000	14.191230
2089.000000	14.204548
2090.000000	14.215535
2091.000000	14.223092
2092.000000	14.227835
2093.000000	14.225640
2094.000000	14.220842
2095.000000	14.218295
2096.000000	14.212550
2097.000000	14.203448
2098.000000	14.197950
2099.000000	14.199673
2100.000000	14.199238
2101.000000	14.198390
2102.000000	14.195630
2103.000000	14.189810
2104.000000	14.185035
2105.000000	14.188425
2106.000000	14.198335
2107.000000	14.203292
2108.000000	14.209925
2109.000000	14.213483
2110.000000	14.216313
2111.000000	14.218420
2112.000000	14.224803
2113.000000	14.231350
2114.000000	14.240455
2115.000000	14.244945
2116.000000	14.241248
2117.000000	14.240617
2118.000000	14.236535
2119.000000	14.226907
2120.000000	14.216585
2121.000000	14.204213
2122.000000	14.191937
2123.000000	14.182895
2124.000000	14.171258
2125.000000	14.150668
2126.000000	14.130752
2127.000000	14.109185
2128.000000	14.079355
2129.000000	14.059060
2130.000000	14.035425
2131.000000	14.008045
2132.000000	13.972500
2133.000000	13.938110
2134.000000	13.898138
2135.000000	13.866897
2136.000000	13.830982
2137.000000	13.781445
2138.000000	13.726583
2139.000000	13.660200
2140.000000	13.595510
2141.000000	13.535945
2142.000000	13.473110
2143.000000	13.403467
2144.000000	13.323425
2145.000000	13.238397
2146.000000	13.156293
2147.000000	13.089887
2148.000000	13.023687
2149.000000	12.952412
2150.000000	12.881248
2151.000000	12.807410
2152.000000	12.732407
2153.000000	12.655227
2154.000000	12.588050
2155.000000	12.510870
2156.000000	12.432892
2157.000000	12.358483
2158.000000	12.295505
2159.000000	12.221832
2160.000000	12.154072
2161.000000	12.095555
2162.000000	12.041618
2163.000000	11.994355
2164.000000	11.944913
2165.000000	11.905783
2166.000000	11.863817
2167.000000	11.808450
2168.000000	11.760203
2169.000000	11.741198
2170.000000	11.706895
2171.000000	11.669052
2172.000000	11.640147
2173.000000	11.602697
2174.000000	11.573070
2175.000000	11.544952
2176.000000	11.527410
2177.000000	11.517650
2178.000000	11.500075
2179.000000	11.467155
2180.000000	11.455110
2181.000000	11.441598
2182.000000	11.420335
2183.000000	11.399897
2184.000000	11.382510
2185.000000	11.365005
2186.000000	11.342467
2187.000000	11.317730
2188.000000	11.296062
2189.000000	11.274320
2190.000000	11.249365
2191.000000	11.208500
2192.000000	11.180693
2193.000000	11.152170
2194.000000	11.107675
2195.000000	11.063543
2196.000000	11.021157
2197.000000	10.976688
2198.000000	10.923850
2199.000000	10.874002
2200.000000	10.829812
2201.000000	10.788977
2202.000000	10.734663
2203.000000	10.685890
2204.000000	10.657102
2205.000000	10.622477
2206.000000	10.592153
2207.000000	10.566123
2208.000000	10.551317
2209.000000	10.550790
2210.000000	10.536443
2211.000000	10.528068
2212.000000	10.535535
2213.000000	10.552395
2214.000000	10.557173
2215.000000	10.576058
2216.000000	10.601195
2217.000000	10.645855
2218.000000	10.699243
2219.000000	10.735817
2220.000000	10.783822
2221.000000	10.842285
2222.000000	10.897725
2223.000000	10.953180
2224.000000	11.027975
2225.000000	11.102115
2226.000000	11.173863
2227.000000	11.233292
2228.000000	11.278467
2229.000000	11.330842
2230.000000	11.387330
2231.000000	11.434843
2232.000000	11.474267
2233.000000	11.503927
2234.000000	11.526520
2235.000000	11.544565
2236.000000	11.561395
2237.000000	11.557500
2238.000000	11.555110
2239.000000	11.554550
2240.000000	11.541577
2241.000000	11.530705
2242.000000	11.514368
2243.000000	11.498183
2244.000000	11.479128
2245.000000	11.456417
2246.000000	11.422740
2247.000000	11.394300
2248.000000	11.351968
2249.000000	11.314830
2250.000000	11.271260
2251.000000	11.221642
2252.000000	11.159080
2253.000000	11.099163
2254.000000	11.027165
2255.000000	10.951892
2256.000000	10.874017
2257.000000	10.799495
2258.000000	10.738482
2259.000000	10.668802
2260.000000	10.603077
2261.000000	10.541942
2262.000000	10.491602
2263.000000	10.438880
2264.000000	10.388008
2265.000000	10.337675
2266.000000	10.290233
2267.000000	10.253508
2268.000000	10.226358
2269.000000	10.196663
2270.000000	10.170568
2271.000000	10.151978
2272.000000	10.135835
2273.000000	10.123345
2274.000000	10.109958
2275.000000	10.094157
2276.000000	10.098200
2277.000000	10.106667
2278.000000	10.100202
2279.000000	10.090107
2280.000000	10.089638
2281.000000	10.089190
2282.000000	10.091430
2283.000000	10.094033
2284.000000	10.091055
2285.000000	10.092578
2286.000000	10.087790
2287.000000	10.077135
2288.000000	10.083868
2289.000000	10.093235
2290.000000	10.087340
2291.000000	10.072073
2292.000000	10.059140
2293.000000	10.055962
2294.000000	10.071145
2295.000000	10.089950
2296.000000	10.105752
2297.000000	10.121358
2298.000000	10.132475
2299.000000	10.149663
2300.000000	10.167185
2301.000000	10.193965
2302.000000	10.227705
2303.000000	10.251257
2304.000000	10.272963
2305.000000	10.295388
2306.000000	10.321228
2307.000000	10.354448
2308.000000	10.380995
2309.000000	10.401085
2310.000000	10.431220
2311.000000	10.464848
2312.000000	10.490372
2313.000000	10.532370
2314.000000	10.574488
2315.000000	10.612545
2316.000000	10.647810
2317.000000	10.677072
2318.000000	10.713425
2319.000000	10.751232
2320.000000	10.780540
2321.000000	10.807580
2322.000000	10.823638
2323.000000	10.824632
2324.000000	10.837175
2325.000000	10.853258
2326.000000	10.863272
2327.000000	10.868627
2328.000000	10.866687
2329.000000	10.862547
2330.000000	10.858495
2331.000000	10.850080
2332.000000	10.856167
2333.000000	10.865578
2334.000000	10.858515
2335.000000	10.851350
2336.000000	10.846032
2337.000000	10.847975
2338.000000	10.853000
2339.000000	10.871700
2340.000000	10.896900
2341.000000	10.918458
2342.000000	10.941087
2343.000000	10.960760
2344.000000	10.987015
2345.000000	11.019758
2346.000000	11.053575
2347.000000	11.082847
2348.000000	11.103200
2349.000000	11.115720
2350.000000	11.139532
2351.000000	11.173550
2352.000000	11.196705
2353.000000	11.213375
2354.000000	11.215857
2355.000000	11.216238
2356.000000	11.223495
2357.000000	11.245028
2358.000000	11.288137
2359.000000	11.336735
2360.000000	11.357077
2361.000000	11.375117
2362.000000	11.396472
2363.000000	11.423070
2364.000000	11.454063
2365.000000	11.481185
2366.000000	11.510855
2367.000000	11.534075
2368.000000	11.532495
2369.000000	11.521625
2370.000000	11.533207
2371.000000	11.530558
2372.000000	11.544505
2373.000000	11.564355
2374.000000	11.586305
2375.000000	11.610337
2376.000000	11.628258
2377.000000	11.634255
2378.000000	11.668525
2379.000000	11.695082
2380.000000	11.702515
2381.000000	11.728695
2382.000000	11.745212
2383.000000	11.759835
2384.000000	11.775137
2385.000000	11.789560
2386.000000	11.798493
2387.000000	11.801227
2388.000000	11.788667
2389.000000	11.802975
2390.000000	11.840965
2391.000000	11.860668
2392.000000	11.875070
2393.000000	11.882603
2394.000000	11.879722
2395.000000	11.871910
2396.000000	11.875692
2397.000000	11.889382
2398.000000	11.903713
2399.000000	11.904735
2400.000000	11.887560
2401.000000	11.871680
2402.000000	11.861603
2403.000000	11.853175
2404.000000	11.857930
2405.000000	11.878945
2406.000000	11.875210
2407.000000	11.870640
2408.000000	11.841720
2409.000000	11.800538
2410.000000	11.768272
2411.000000	11.756390
2412.000000	11.745712
2413.000000	11.735280
2414.000000	11.708138
2415.000000	11.687745
2416.000000	11.684498
2417.000000	11.656570
2418.000000	11.639895
2419.000000	11.639805
2420.000000	11.611960
2421.000000	11.564230
2422.000000	11.514233
2423.000000	11.485905
2424.000000	11.449215
2425.000000	11.401015
2426.000000	11.334357
2427.000000	11.280787
2428.000000	11.239453
2429.000000	11.216883
2430.000000	11.189870
2431.000000	11.188775
2432.000000	11.175525
2433.000000	11.124417
2434.000000	11.115295
2435.000000	11.049865
2436.000000	11.007720
2437.000000	10.985038
2438.000000	10.966080
2439.000000	10.881567
2440.000000	10.836243
2441.000000	10.776435
2442.000000	10.732003
2443.000000	10.719103
2444.000000	10.685053
2445.000000	10.700878
2446.000000	10.693502
2447.000000	10.635862
2448.000000	10.566627
2449.000000	10.529360
2450.000000	10.487900
2451.000000	10.456883
2452.000000	10.448157
2453.000000	10.411577
2454.000000	10.364210
2455.000000	10.307235
2456.000000	10.296373
2457.000000	10.329142
2458.000000	10.323275
2459.000000	10.379825
2460.000000	10.422657
2461.000000	10.454080
2462.000000	10.420805
2463.000000	10.413405
2464.000000	10.472843
2465.000000	10.533380
2466.000000	10.529255
2467.000000	10.569492
2468.000000	10.671128
2469.000000	10.742337
2470.000000	10.825485
2471.000000	10.937185
2472.000000	11.022795
2473.000000	11.149945
2474.000000	11.204420
2475.000000	11.268578
2476.000000	11.419280
2477.000000	11.521318
2478.000000	11.597320
2479.000000	11.689983
2480.000000	11.721120
2481.000000	11.788568
2482.000000	11.911532
2483.000000	12.035438
2484.000000	12.164645
2485.000000	12.300037
2486.000000	12.442760
2487.000000	12.579823
2488.000000	12.737362
2489.000000	12.916320
2490.000000	13.137177
2491.000000	13.268222
2492.000000	13.455138
2493.000000	13.601480
2494.000000	13.754805
2495.000000	13.875670
2496.000000	13.977675
2497.000000	14.141385
2498.000000	14.309678
2499.000000	14.405300
2500.000000	14.546580
2501.000000	18.401030
2502.000000	22.198280
2503.000000	25.855050
2504.000000	29.434470
2505.000000	33.292383
2506.000000	37.202695
2507.000000	41.109043
2508.000000	44.940278
2509.000000	49.253068
2510.000000	53.524040
2511.000000	54.179480
2512.000000	54.862500
2513.000000	55.932480
2514.000000	56.982460
2515.000000	58.256770
2516.000000	59.702410
2517.000000	60.973680
2518.000000	62.076500
2519.000000	62.714190
2520.000000	63.639040
2521.000000	64.879090
2522.000000	66.512590
2523.000000	67.507440
2524.000000	68.866850
2525.000000	69.968110
2526.000000	70.658220
2527.000000	71.062690
2528.000000	71.722000
2529.000000	72.876060
2530.000000	74.208300
2531.000000	74.815990
2532.000000	74.829070
2533.000000	75.395280
2534.000000	76.015860
2535.000000	76.372830
2536.000000	76.980400
2537.000000	77.883930
2538.000000	79.062120
2539.000000	79.829280
2540.000000	80.185910
2541.000000	80.861120
2542.000000	81.512150
2543.000000	82.447030
2544.000000	83.351280
2545.000000	84.352740
2546.000000	84.573570
2547.000000	85.055230
2548.000000	86.138740
2549.000000	86.994080
2550.000000	87.412350
2551.000000	87.596020
2552.000000	87.958660
2553.000000	88.789650
2554.000000	89.107250
2555.000000	89.328210
2556.000000	90.137730
2557.000000	90.968720
2558.000000	91.038930
2559.000000	91.882080
2560.000000	92.460240
2561.000000	93.020630
2562.000000	94.114080
2563.000000	94.356030
2564.000000	94.143130
2565.000000	94.083780
2566.000000	94.196100
2567.000000	94.654630
2568.000000	94.986940
2569.000000	94.141490
2570.000000	94.080810
2571.000000	94.996570
2572.000000	95.674880
2573.000000	96.080920
2574.000000	96.274790
2575.000000	96.614710
2576.000000	97.673500
2577.000000	98.218090
2578.000000	98.502000
2579.000000	98.785510
2580.000000	98.978830
2581.000000	98.916630
2582.000000	98.360940
2583.000000	97.991200
2584.000000	98.659140
2585.000000	98.812880
2586.000000	98.964250
2587.000000	99.488380
2588.000000	99.275210
2589.000000	99.674920
2590.000000	99.829540
2591.000000	99.311920
2592.000000	99.267850
2593.000000	98.643810
2594.000000	98.666360
2595.000000	99.722690
2596.000000	99.399440
2597.000000	97.893800
2598.000000	97.127740
2599.000000	97.042310
2600.000000	97.617220
2601.000000	98.441310
2602.000000	98.653070
2603.000000	99.000980
2604.000000	98.852080
2605.000000	98.076500
2606.000000	97.668700
2607.000000	98.365540
2608.000000	99.878650
2609.000000	100.846780
2610.000000	101.223510
2611.000000	101.110590
2612.000000	100.819700
2613.000000	101.898220
2614.000000	102.763330
2615.000000	102.848970
2616.000000	102.888320
2617.000000	102.329740
2618.000000	101.674810
2619.000000	101.095410
2620.000000	100.182450
2621.000000	99.344780
2622.000000	99.394510
2623.000000	98.914150
2624.000000	98.244370
2625.000000	97.898580
2626.000000	98.631880
2627.000000	99.548490
2628.000000	99.744210
2629.000000	99.387890
2630.000000	99.228200
2631.000000	99.531470
2632.000000	99.979680
2633.000000	100.059220
2634.000000	100.354600
2635.000000	100.592730
2636.000000	100.131370
2637.000000	100.045850
2638.000000	100.199970
2639.000000	100.153510
2640.000000	100.026000
2641.000000	100.526720
2642.000000	100.970680
2643.000000	101.544760
2644.000000	101.451120
2645.000000	101.490630
2646.000000	101.262630
2647.000000	100.773670
2648.000000	100.148140
2649.000000	100.293760
2650.000000	101.566450
2651.000000	102.042570
2652.000000	101.898330
2653.000000	100.768850
2654.000000	100.583370
2655.000000	101.663310
2656.000000	102.594760
2657.000000	102.651010
2658.000000	103.396950
2659.000000	103.839760
2660.000000	103.409570
2661.000000	102.966770
2662.000000	102.350280
2663.000000	102.662410
2664.000000	102.570720
2665.000000	100.650670
2666.000000	99.800740
2667.000000	99.802930
2668.000000	100.297870
2669.000000	100.576850
2670.000000	100.518710
2671.000000	99.813380
2672.000000	99.445210
2673.000000	99.735980
2674.000000	100.034630
2675.000000	100.955440
2676.000000	101.069970
2677.000000	101.436840
2678.000000	100.290450
2679.000000	99.425550
2680.000000	99.275430
2681.000000	99.816900
2682.000000	99.887250
2683.000000	99.215520
2684.000000	99.058000
2685.000000	99.757310
2686.000000	101.061430
2687.000000	100.335180
2688.000000	99.457060
2689.000000	99.841990
2690.000000	100.355290
2691.000000	101.071410
2692.000000	101.093270
2693.000000	101.563550
2694.000000	101.907300
2695.000000	101.242690
2696.000000	99.813010
2697.000000	100.413790
2698.000000	101.426020
2699.000000	101.892890
2700.000000	101.276900
2701.000000	100.261070
2702.000000	100.813890
2703.000000	101.125140
2704.000000	101.360410
2705.000000	101.837050
2706.000000	102.251360
2707.000000	103.778660
2708.000000	104.772990
2709.000000	103.489080
2710.000000	102.879090
2711.000000	102.977820
2712.000000	102.999360
2713.000000	102.827810
2714.000000	102.651950
2715.000000	102.295430
2716.000000	102.598590
2717.000000	101.932560
2718.000000	100.982300
2719.000000	101.327070
2720.000000	102.768510
2721.000000	103.789500
2722.000000	103.260350
2723.000000	102.549630
2724.000000	101.792050
2725.000000	102.008620
2726.000000	101.728520
2727.000000	101.560540
2728.000000	101.798820
2729.000000	102.783610
2730.000000	102.389460
2731.000000	101.546460
2732.000000	102.083150
2733.000000	101.859680
2734.000000	102.687720
2735.000000	102.786780
2736.000000	102.333590
2737.000000	101.255380
2738.000000	101.228140
2739.000000	101.269690
2740.000000	100.533450
2741.000000	100.682320
2742.000000	100.543100
2743.000000	101.357330
2744.000000	101.889980
2745.000000	101.578790
2746.000000	102.227730
2747.000000	102.323530
2748.000000	101.225760
2749.000000	100.102490
2750.000000	99.277180
2751.000000	99.629590
2752.000000	101.007140
2753.000000	101.207930
2754.000000	99.668420
2755.000000	98.501690
2756.000000	98.218260
2757.000000	97.774530
2758.000000	98.825550
2759.000000	98.907710
2760.000000	100.794090
2761.000000	100.924310
2762.000000	99.025500
2763.000000	98.017560
2764.000000	99.066940
2765.000000	100.978020
2766.000000	100.395980
2767.000000	100.460520
2768.000000	100.468980
2769.000000	100.722380
2770.000000	100.687960
2771.000000	100.641700
2772.000000	101.605090
2773.000000	103.560460
2774.000000	103.694440
2775.000000	102.990220
2776.000000	103.230570
2777.000000	103.853270
2778.000000	103.358860
2779.000000	103.474780
2780.000000	102.753180
2781.000000	103.222380
2782.000000	102.903280
2783.000000	101.814340
2784.000000	101.424520
2785.000000	100.741510
2786.000000	101.187440
2787.000000	101.502970
2788.000000	101.893850
2789.000000	102.180760
2790.000000	101.824340
2791.000000	101.183600
2792.000000	101.590080
2793.000000	100.997360
2794.000000	101.311000
2795.000000	102.067990
2796.000000	101.565020
2797.000000	101.311630
2798.000000	101.555690
2799.000000	102.017300
2800.000000	102.493700
2801.000000	102.111620
2802.000000	101.772210
2803.000000	102.461460
2804.000000	102.018990
2805.000000	102.427280
2806.000000	102.400640
2807.000000	102.559840
2808.000000	103.229200
2809.000000	102.982820
2810.000000	103.060230
2811.000000	102.651270
2812.000000	102.538730
2813.000000	103.284300
2814.000000	103.993460
2815.000000	103.621900
2816.000000	103.583420
2817.000000	103.960260
2818.000000	103.113620
2819.000000	102.020750
2820.000000	101.471610
2821.000000	102.232080
2822.000000	102.520980
2823.000000	101.473950
2824.000000	101.092150
2825.000000	101.793630
2826.000000	102.214470
2827.000000	101.738660
2828.000000	101.479150
2829.000000	101.931190
2830.000000	102.945620
2831.000000	102.862580
2832.000000	102.751060
2833.000000	103.022310
2834.000000	102.805350
2835.000000	102.482750
2836.000000	102.706670
2837.000000	101.954240
2838.000000	101.969260
2839.000000	102.195680
2840.000000	101.864290
2841.000000	101.472950
2842.000000	100.953430
2843.000000	101.004890
2844.000000	100.828200
2845.000000	99.425560
2846.000000	98.581960
2847.000000	99.697990
2848.000000	100.575130
2849.000000	101.026120
2850.000000	100.693470
2851.000000	100.551170
2852.000000	101.238160
2853.000000	100.697540
2854.000000	100.223350
2855.000000	101.358810
2856.000000	102.916770
2857.000000	102.688600
2858.000000	101.889210
2859.000000	101.351530
2860.000000	101.510050
2861.000000	101.836720
2862.000000	101.187380
2863.000000	101.578080
2864.000000	102.333100
2865.000000	102.101650
2866.000000	100.701940
2867.000000	100.030120
2868.000000	100.128000
2869.000000	100.184810
2870.000000	100.029440
2871.000000	99.547300
2872.000000	99.702350
2873.000000	99.873840
2874.000000	99.095270
2875.000000	98.307320
2876.000000	98.689350
2877.000000	99.044860
2878.000000	98.783770
2879.000000	98.074700
2880.000000	97.816610
2881.000000	99.427430
2882.000000	100.244240
2883.000000	99.722640
2884.000000	99.982540
2885.000000	100.225130
2886.000000	99.419190
2887.000000	98.772730
2888.000000	99.129920
2889.000000	99.854520
2890.000000	100.591290
2891.000000	99.570460
2892.000000	98.527720
2893.000000	98.607550
2894.000000	98.346740
2895.000000	98.358500
2896.000000	99.002490
2897.000000	100.011570
2898.000000	100.551580
2899.000000	100.572460
2900.000000	100.306930
2901.000000	100.257440
2902.000000	100.555240
2903.000000	100.766420
2904.000000	101.261320
2905.000000	101.541450
2906.000000	101.271240
2907.000000	100.954750
2908.000000	100.005060
2909.000000	99.690830
2910.000000	99.531180
2911.000000	98.850580
2912.000000	98.807200
2913.000000	99.125370
2914.000000	99.454410
2915.000000	100.003030
2916.000000	100.622140
2917.000000	100.835390
2918.000000	102.001340
2919.000000	102.280340
2920.000000	102.451890
2921.000000	102.566890
2922.000000	102.475740
2923.000000	102.510330
2924.000000	102.416440
2925.000000	101.794140
2926.000000	101.538360
2927.000000	101.872660
2928.000000	101.580200
2929.000000	101.361850
2930.000000	101.065340
2931.000000	101.473100
2932.000000	101.841700
2933.000000	101.465300
2934.000000	101.440800
2935.000000	102.482520
2936.000000	102.141240
2937.000000	101.572970
2938.000000	101.078870
2939.000000	101.509150
2940.000000	102.382020
2941.000000	102.702210
2942.000000	101.905810
2943.000000	101.888790
2944.000000	101.835920
2945.000000	101.180880
2946.000000	101.214000
2947.000000	101.107300
2948.000000	101.286780
2949.000000	101.343880
2950.000000	100.407600
2951.000000	100.390110
2952.000000	101.373720
2953.000000	101.840770
2954.000000	101.658280
2955.000000	101.378800
2956.000000	101.654070
2957.000000	101.279740
2958.000000	100.942560
2959.000000	100.897580
2960.000000	101.355660
2961.000000	102.172450
2962.000000	102.188440
2963.000000	101.121870
2964.000000	100.253550
2965.000000	100.717600
2966.000000	100.457370
2967.000000	100.482500
2968.000000	100.144180
2969.000000	100.096500
2970.000000	100.319710
2971.000000	99.140650
2972.000000	97.612230
2973.000000	98.815970
2974.000000	99.430100
2975.000000	98.515490
2976.000000	99.245230
2977.000000	100.329550
2978.000000	101.082740
2979.000000	100.665940
2980.000000	98.566800
2981.000000	97.980990
2982.000000	99.162250
2983.000000	98.739680
2984.000000	97.932010
2985.000000	98.467400
2986.000000	98.469870
2987.000000	98.159250
2988.000000	97.853660
2989.000000	97.953620
2990.000000	100.500620
2991.000000	101.588530
2992.000000	100.785540
2993.000000	100.096530
2994.000000	100.924040
2995.000000	101.443570
2996.000000	100.859150
2997.000000	100.519420
2998.000000	100.771720
2999.000000	100.774980
3000.000000	100.245380
