PE UV       SUBTECH     SPECTRUM    ASCII       PEDS        4.00        
   -1
INBUCR0213-4.Sample.ASC
24/02/08
09:11:44.00
24/02/08
09:11:44.00
Vinicio Soto Monge
Chrysina optima Det: A. Solís. INBIOCRI002037918
250,000000
1
Lambda 1050
1050L1511233
PerkinElmer UV WinLab 6.3.2.0749 / 2.02.05 Lambda 900 UV/VIS/NIR, Aug  7 2015 09:38:08

0
0
3350/servo 860,8/2
0
0
UV/VIS
1
1
1
DoubleDePol,CommonBeamDepol,RBeamAtt,SBeamAtt,60mm sphere, WB InGaAs Detector
0
0
0
0
Program
Program
3350/servo 860,8/2
3350/0,2 860,8/0,2
3350/0,2 860,8/0,2
0
15.00
 
 
 
0
 
860,8
319,2
860,8
Front
100
on
S:100 R:100
0
0
0
0
 
0
 
 
 
0
 
 
0
0
0
0
0
 
 
 
 
0
0


0
0
#HDR
-1
-1
#GR
nm
%R
1.0
0.0
2500,000000
-1,000000
2251
8
15,057700
1,409800
#DATA

250.000000	nan
251.000000	nan
252.000000	nan
253.000000	nan
254.000000	nan
255.000000	nan
256.000000	nan
257.000000	nan
258.000000	nan
259.000000	3.873163
260.000000	3.865573
261.000000	3.856110
262.000000	3.843859
263.000000	3.833996
264.000000	3.824221
265.000000	3.809815
266.000000	3.796092
267.000000	3.784984
268.000000	3.769380
269.000000	3.756756
270.000000	3.742446
271.000000	3.729329
272.000000	3.719590
273.000000	3.707160
274.000000	3.695141
275.000000	3.687773
276.000000	3.681356
277.000000	3.672729
278.000000	3.667991
279.000000	3.661170
280.000000	3.656132
281.000000	3.653116
282.000000	3.650191
283.000000	3.646702
284.000000	3.645140
285.000000	3.641369
286.000000	3.639481
287.000000	3.637292
288.000000	3.633973
289.000000	3.634354
290.000000	3.633024
291.000000	3.631760
292.000000	3.629032
293.000000	3.628797
294.000000	3.627347
295.000000	3.624956
296.000000	3.621710
297.000000	3.619655
298.000000	3.618855
299.000000	3.617399
300.000000	3.612930
301.000000	3.609848
302.000000	3.607047
303.000000	3.602659
304.000000	3.597419
305.000000	3.595334
306.000000	3.591948
307.000000	3.590337
308.000000	3.587134
309.000000	3.582382
310.000000	3.583268
311.000000	3.580923
312.000000	3.580495
313.000000	3.582284
314.000000	3.584279
315.000000	3.585603
316.000000	3.589584
317.000000	3.611688
318.000000	3.640128
319.000000	3.668733
320.000000	3.685697
321.000000	3.697386
322.000000	3.719458
323.000000	3.739341
324.000000	3.761169
325.000000	3.782936
326.000000	3.795154
327.000000	3.790288
328.000000	3.784593
329.000000	3.778057
330.000000	3.783887
331.000000	3.797851
332.000000	3.805119
333.000000	3.811803
334.000000	3.819737
335.000000	3.823957
336.000000	3.841845
337.000000	3.859193
338.000000	3.878312
339.000000	3.900890
340.000000	3.929187
341.000000	3.958817
342.000000	3.992546
343.000000	4.037752
344.000000	4.086374
345.000000	4.145357
346.000000	4.213819
347.000000	4.291188
348.000000	4.375635
349.000000	4.477775
350.000000	4.590779
351.000000	4.719710
352.000000	4.860032
353.000000	5.015103
354.000000	5.190418
355.000000	5.387389
356.000000	5.598603
357.000000	5.831368
358.000000	6.084507
359.000000	6.353215
360.000000	6.639836
361.000000	6.945347
362.000000	7.270127
363.000000	7.611410
364.000000	7.967646
365.000000	8.338935
366.000000	8.726352
367.000000	9.122005
368.000000	9.526893
369.000000	9.940541
370.000000	10.355605
371.000000	10.771603
372.000000	11.189585
373.000000	11.607955
374.000000	12.020506
375.000000	12.421498
376.000000	12.808131
377.000000	13.185301
378.000000	13.551120
379.000000	13.904406
380.000000	14.248477
381.000000	14.578671
382.000000	14.893159
383.000000	15.190357
384.000000	15.474053
385.000000	15.746930
386.000000	16.006882
387.000000	16.253996
388.000000	16.487026
389.000000	16.703189
390.000000	16.904833
391.000000	17.094789
392.000000	17.269882
393.000000	17.431628
394.000000	17.580235
395.000000	17.714019
396.000000	17.836161
397.000000	17.943776
398.000000	18.037121
399.000000	18.118539
400.000000	18.185798
401.000000	18.237604
402.000000	18.276034
403.000000	18.299830
404.000000	18.311933
405.000000	18.312899
406.000000	18.301994
407.000000	18.281728
408.000000	18.254170
409.000000	18.220110
410.000000	18.183584
411.000000	18.146498
412.000000	18.109848
413.000000	18.077116
414.000000	18.047476
415.000000	18.022891
416.000000	18.005826
417.000000	17.995571
418.000000	17.991756
419.000000	17.995017
420.000000	18.003905
421.000000	18.019221
422.000000	18.039450
423.000000	18.064067
424.000000	18.094149
425.000000	18.127496
426.000000	18.165325
427.000000	18.207798
428.000000	18.253584
429.000000	18.302423
430.000000	18.354465
431.000000	18.408005
432.000000	18.463704
433.000000	18.520315
434.000000	18.576614
435.000000	18.632409
436.000000	18.685617
437.000000	18.735686
438.000000	18.781575
439.000000	18.822560
440.000000	18.858897
441.000000	18.889750
442.000000	18.914709
443.000000	18.932845
444.000000	18.943866
445.000000	18.949642
446.000000	18.949824
447.000000	18.944149
448.000000	18.933543
449.000000	18.918326
450.000000	18.899534
451.000000	18.877796
452.000000	18.854194
453.000000	18.830263
454.000000	18.807664
455.000000	18.786978
456.000000	18.767968
457.000000	18.751156
458.000000	18.737105
459.000000	18.726232
460.000000	18.717627
461.000000	18.711753
462.000000	18.707458
463.000000	18.704457
464.000000	18.701756
465.000000	18.698069
466.000000	18.693944
467.000000	18.689432
468.000000	18.685063
469.000000	18.679725
470.000000	18.672850
471.000000	18.665732
472.000000	18.659739
473.000000	18.654990
474.000000	18.652391
475.000000	18.651214
476.000000	18.651761
477.000000	18.654462
478.000000	18.659790
479.000000	18.668470
480.000000	18.679665
481.000000	18.691212
482.000000	18.701339
483.000000	18.711029
484.000000	18.721161
485.000000	18.732351
486.000000	18.744958
487.000000	18.757489
488.000000	18.769944
489.000000	18.782275
490.000000	18.795368
491.000000	18.811270
492.000000	18.831344
493.000000	18.853764
494.000000	18.877402
495.000000	18.902129
496.000000	18.926312
497.000000	18.953134
498.000000	18.981841
499.000000	19.012462
500.000000	19.045686
501.000000	19.080598
502.000000	19.116578
503.000000	19.155150
504.000000	19.196596
505.000000	19.241386
506.000000	19.289651
507.000000	19.341740
508.000000	19.397428
509.000000	19.457170
510.000000	19.522038
511.000000	19.593509
512.000000	19.672375
513.000000	19.758769
514.000000	19.854279
515.000000	19.959845
516.000000	20.076134
517.000000	20.201495
518.000000	20.336276
519.000000	20.480488
520.000000	20.633081
521.000000	20.792432
522.000000	20.957927
523.000000	21.129323
524.000000	21.304014
525.000000	21.480527
526.000000	21.658470
527.000000	21.838510
528.000000	22.021516
529.000000	22.206776
530.000000	22.395400
531.000000	22.588125
532.000000	22.786589
533.000000	22.988612
534.000000	23.194518
535.000000	23.404087
536.000000	23.617583
537.000000	23.832598
538.000000	24.047986
539.000000	24.262076
540.000000	24.472844
541.000000	24.679290
542.000000	24.878164
543.000000	25.069615
544.000000	25.253341
545.000000	25.428205
546.000000	25.592450
547.000000	25.746169
548.000000	25.889411
549.000000	26.022212
550.000000	26.143221
551.000000	26.253029
552.000000	26.351951
553.000000	26.441826
554.000000	26.521295
555.000000	26.591618
556.000000	26.654164
557.000000	26.709684
558.000000	26.758209
559.000000	26.800457
560.000000	26.827572
561.000000	26.847278
562.000000	26.864741
563.000000	26.878484
564.000000	26.889075
565.000000	26.898198
566.000000	26.906229
567.000000	26.913914
568.000000	26.920931
569.000000	26.926695
570.000000	26.943491
571.000000	26.963674
572.000000	26.982598
573.000000	27.000164
574.000000	27.017204
575.000000	27.032906
576.000000	27.045569
577.000000	27.055174
578.000000	27.060347
579.000000	27.064186
580.000000	27.063817
581.000000	27.057791
582.000000	27.046062
583.000000	27.029791
584.000000	27.006565
585.000000	26.976735
586.000000	26.941691
587.000000	26.900647
588.000000	26.855838
589.000000	26.805408
590.000000	26.749355
591.000000	26.688840
592.000000	26.626309
593.000000	26.561888
594.000000	26.496720
595.000000	26.429619
596.000000	26.362433
597.000000	26.293250
598.000000	26.220592
599.000000	26.145065
600.000000	26.067556
601.000000	25.987098
602.000000	25.900679
603.000000	25.806379
604.000000	25.707651
605.000000	25.605336
606.000000	25.496398
607.000000	25.383603
608.000000	25.270881
609.000000	25.156743
610.000000	25.042463
611.000000	24.928698
612.000000	24.816960
613.000000	24.707566
614.000000	24.597157
615.000000	24.485153
616.000000	24.374040
617.000000	24.262355
618.000000	24.148298
619.000000	24.032806
620.000000	23.914866
621.000000	23.795547
622.000000	23.677406
623.000000	23.561174
624.000000	23.449850
625.000000	23.344725
626.000000	23.246743
627.000000	23.156846
628.000000	23.076054
629.000000	23.005182
630.000000	22.944492
631.000000	22.895398
632.000000	22.855691
633.000000	22.824626
634.000000	22.800297
635.000000	22.783824
636.000000	22.773255
637.000000	22.769529
638.000000	22.769915
639.000000	22.775077
640.000000	22.784813
641.000000	22.797374
642.000000	22.813521
643.000000	22.836012
644.000000	22.864019
645.000000	22.896547
646.000000	22.934834
647.000000	22.977841
648.000000	23.027259
649.000000	23.082280
650.000000	23.143740
651.000000	23.209687
652.000000	23.283412
653.000000	23.361937
654.000000	23.446423
655.000000	23.535447
656.000000	23.629091
657.000000	23.727947
658.000000	23.832596
659.000000	23.943111
660.000000	24.058999
661.000000	24.182601
662.000000	24.309390
663.000000	24.441635
664.000000	24.578496
665.000000	24.721400
666.000000	24.869091
667.000000	25.020873
668.000000	25.172750
669.000000	25.325596
670.000000	25.479894
671.000000	25.633880
672.000000	25.788487
673.000000	25.942464
674.000000	26.097383
675.000000	26.251163
676.000000	26.403931
677.000000	26.556669
678.000000	26.712365
679.000000	26.868437
680.000000	27.025926
681.000000	27.186599
682.000000	27.347539
683.000000	27.509385
684.000000	27.670457
685.000000	27.830830
686.000000	27.990242
687.000000	28.146699
688.000000	28.301271
689.000000	28.453716
690.000000	28.602303
691.000000	28.746247
692.000000	28.888655
693.000000	29.029148
694.000000	29.167689
695.000000	29.305123
696.000000	29.441050
697.000000	29.576520
698.000000	29.707771
699.000000	29.837175
700.000000	29.965459
701.000000	30.092584
702.000000	30.215191
703.000000	30.331664
704.000000	30.443981
705.000000	30.552606
706.000000	30.657937
707.000000	30.759202
708.000000	30.859907
709.000000	30.959014
710.000000	31.053921
711.000000	31.144878
712.000000	31.235099
713.000000	31.326067
714.000000	31.415485
715.000000	31.504151
716.000000	31.591648
717.000000	31.675619
718.000000	31.756259
719.000000	31.833783
720.000000	31.908719
721.000000	31.983500
722.000000	32.055015
723.000000	32.123193
724.000000	32.191573
725.000000	32.257898
726.000000	32.323279
727.000000	32.390523
728.000000	32.459491
729.000000	32.528760
730.000000	32.598426
731.000000	32.667004
732.000000	32.736857
733.000000	32.806875
734.000000	32.872944
735.000000	32.937930
736.000000	33.003834
737.000000	33.068476
738.000000	33.129754
739.000000	33.190595
740.000000	33.251674
741.000000	33.311074
742.000000	33.370601
743.000000	33.431119
744.000000	33.492924
745.000000	33.555749
746.000000	33.616610
747.000000	33.675759
748.000000	33.735593
749.000000	33.796651
750.000000	33.858188
751.000000	33.920375
752.000000	33.981721
753.000000	34.041136
754.000000	34.098697
755.000000	34.154748
756.000000	34.209191
757.000000	34.265744
758.000000	34.323575
759.000000	34.379318
760.000000	34.435984
761.000000	34.494788
762.000000	34.552871
763.000000	34.610816
764.000000	34.674196
765.000000	34.736652
766.000000	34.799549
767.000000	34.862476
768.000000	34.922246
769.000000	34.982176
770.000000	35.040371
771.000000	35.097307
772.000000	35.152823
773.000000	35.209003
774.000000	35.260614
775.000000	35.312673
776.000000	35.368973
777.000000	35.426821
778.000000	35.487497
779.000000	35.546535
780.000000	35.607392
781.000000	35.667247
782.000000	35.732052
783.000000	35.797230
784.000000	35.863688
785.000000	35.933906
786.000000	35.998628
787.000000	36.060837
788.000000	36.123944
789.000000	36.190737
790.000000	36.256615
791.000000	36.321164
792.000000	36.383115
793.000000	36.449500
794.000000	36.519188
795.000000	36.583577
796.000000	36.649674
797.000000	36.718543
798.000000	36.786271
799.000000	36.852827
800.000000	36.922048
801.000000	36.992295
802.000000	37.063114
803.000000	37.129014
804.000000	37.194460
805.000000	37.266236
806.000000	37.341470
807.000000	37.409804
808.000000	37.482362
809.000000	37.554668
810.000000	37.626333
811.000000	37.695523
812.000000	37.765874
813.000000	37.836412
814.000000	37.903953
815.000000	37.970911
816.000000	38.038416
817.000000	38.113042
818.000000	38.182659
819.000000	38.249591
820.000000	38.311997
821.000000	38.383182
822.000000	38.447551
823.000000	38.516119
824.000000	38.584798
825.000000	38.659151
826.000000	38.725748
827.000000	38.788948
828.000000	38.857599
829.000000	38.925238
830.000000	38.992839
831.000000	39.057715
832.000000	39.127769
833.000000	39.191264
834.000000	39.248662
835.000000	39.293226
836.000000	39.342669
837.000000	39.398768
838.000000	39.454324
839.000000	39.504953
840.000000	39.553271
841.000000	39.602594
842.000000	39.646757
843.000000	39.696817
844.000000	39.752163
845.000000	39.811650
846.000000	39.871115
847.000000	39.917338
848.000000	39.952535
849.000000	39.996648
850.000000	40.049101
851.000000	40.100003
852.000000	40.141459
853.000000	40.178847
854.000000	40.230289
855.000000	40.267169
856.000000	40.301681
857.000000	40.337868
858.000000	40.458503
859.000000	40.554097
860.000000	40.666104
861.000000	40.757822
862.000000	40.874367
863.000000	40.992903
864.000000	41.091008
865.000000	41.187751
866.000000	41.291826
867.000000	41.386450
868.000000	41.413317
869.000000	41.455400
870.000000	41.459502
871.000000	41.483398
872.000000	41.497375
873.000000	41.505277
874.000000	41.508570
875.000000	41.525490
876.000000	41.541078
877.000000	41.559767
878.000000	41.566192
879.000000	41.556808
880.000000	41.568937
881.000000	41.569020
882.000000	41.566030
883.000000	41.568662
884.000000	41.574213
885.000000	41.585605
886.000000	41.582867
887.000000	41.583815
888.000000	41.575465
889.000000	41.574790
890.000000	41.560878
891.000000	41.553557
892.000000	41.541202
893.000000	41.526600
894.000000	41.512595
895.000000	41.491765
896.000000	41.475185
897.000000	41.452715
898.000000	41.434303
899.000000	41.419945
900.000000	41.412343
901.000000	41.403047
902.000000	41.393120
903.000000	41.376363
904.000000	41.349800
905.000000	41.324072
906.000000	41.298948
907.000000	41.278395
908.000000	41.255630
909.000000	41.244630
910.000000	41.225968
911.000000	41.198683
912.000000	41.170460
913.000000	41.145415
914.000000	41.138687
915.000000	41.128260
916.000000	41.113613
917.000000	41.097333
918.000000	41.082138
919.000000	41.059585
920.000000	41.039162
921.000000	41.024375
922.000000	41.011198
923.000000	40.996403
924.000000	40.972998
925.000000	40.945740
926.000000	40.919210
927.000000	40.892403
928.000000	40.866118
929.000000	40.842897
930.000000	40.821497
931.000000	40.798670
932.000000	40.769775
933.000000	40.739045
934.000000	40.705777
935.000000	40.676300
936.000000	40.644970
937.000000	40.617082
938.000000	40.585325
939.000000	40.549372
940.000000	40.509160
941.000000	40.466542
942.000000	40.429353
943.000000	40.392865
944.000000	40.356950
945.000000	40.318972
946.000000	40.281645
947.000000	40.240820
948.000000	40.203482
949.000000	40.167930
950.000000	40.132855
951.000000	40.099535
952.000000	40.066745
953.000000	40.031233
954.000000	39.996250
955.000000	39.960523
956.000000	39.924730
957.000000	39.891390
958.000000	39.858345
959.000000	39.822040
960.000000	39.785845
961.000000	39.751408
962.000000	39.713035
963.000000	39.675715
964.000000	39.639628
965.000000	39.604945
966.000000	39.571787
967.000000	39.539585
968.000000	39.506217
969.000000	39.473867
970.000000	39.442307
971.000000	39.408455
972.000000	39.376970
973.000000	39.347000
974.000000	39.318812
975.000000	39.288562
976.000000	39.258720
977.000000	39.229268
978.000000	39.200380
979.000000	39.174230
980.000000	39.147622
981.000000	39.123135
982.000000	39.100527
983.000000	39.077645
984.000000	39.054785
985.000000	39.033110
986.000000	39.011375
987.000000	38.990695
988.000000	38.970232
989.000000	38.949707
990.000000	38.930818
991.000000	38.913885
992.000000	38.896882
993.000000	38.880373
994.000000	38.864128
995.000000	38.848680
996.000000	38.833825
997.000000	38.819038
998.000000	38.806188
999.000000	38.795420
1000.000000	38.785275
1001.000000	38.775130
1002.000000	38.765305
1003.000000	38.754975
1004.000000	38.745068
1005.000000	38.736623
1006.000000	38.728490
1007.000000	38.720745
1008.000000	38.713307
1009.000000	38.704420
1010.000000	38.696530
1011.000000	38.689120
1012.000000	38.683020
1013.000000	38.680392
1014.000000	38.677975
1015.000000	38.675675
1016.000000	38.674655
1017.000000	38.674195
1018.000000	38.674805
1019.000000	38.677315
1020.000000	38.680695
1021.000000	38.685407
1022.000000	38.690888
1023.000000	38.696125
1024.000000	38.702770
1025.000000	38.711008
1026.000000	38.720357
1027.000000	38.730537
1028.000000	38.740965
1029.000000	38.752192
1030.000000	38.763662
1031.000000	38.774532
1032.000000	38.785472
1033.000000	38.797607
1034.000000	38.810385
1035.000000	38.823855
1036.000000	38.836670
1037.000000	38.850310
1038.000000	38.864865
1039.000000	38.878878
1040.000000	38.892835
1041.000000	38.906883
1042.000000	38.921093
1043.000000	38.934637
1044.000000	38.948512
1045.000000	38.961285
1046.000000	38.974603
1047.000000	38.988540
1048.000000	39.001658
1049.000000	39.014780
1050.000000	39.028062
1051.000000	39.042293
1052.000000	39.057632
1053.000000	39.072907
1054.000000	39.088413
1055.000000	39.104628
1056.000000	39.120648
1057.000000	39.136580
1058.000000	39.152938
1059.000000	39.169165
1060.000000	39.186063
1061.000000	39.203198
1062.000000	39.219130
1063.000000	39.236525
1064.000000	39.253560
1065.000000	39.270202
1066.000000	39.287748
1067.000000	39.303950
1068.000000	39.320687
1069.000000	39.338735
1070.000000	39.357292
1071.000000	39.376025
1072.000000	39.394672
1073.000000	39.413823
1074.000000	39.433298
1075.000000	39.453255
1076.000000	39.472665
1077.000000	39.493118
1078.000000	39.513430
1079.000000	39.533135
1080.000000	39.553355
1081.000000	39.571778
1082.000000	39.589843
1083.000000	39.608432
1084.000000	39.626295
1085.000000	39.642787
1086.000000	39.658305
1087.000000	39.675753
1088.000000	39.692750
1089.000000	39.709173
1090.000000	39.724955
1091.000000	39.740943
1092.000000	39.757525
1093.000000	39.771432
1094.000000	39.785103
1095.000000	39.798495
1096.000000	39.812693
1097.000000	39.825527
1098.000000	39.836820
1099.000000	39.847825
1100.000000	39.856318
1101.000000	39.864245
1102.000000	39.872980
1103.000000	39.881435
1104.000000	39.889580
1105.000000	39.898278
1106.000000	39.905780
1107.000000	39.910785
1108.000000	39.915715
1109.000000	39.919740
1110.000000	39.924620
1111.000000	39.929392
1112.000000	39.931597
1113.000000	39.931947
1114.000000	39.930380
1115.000000	39.927977
1116.000000	39.925963
1117.000000	39.924315
1118.000000	39.921748
1119.000000	39.917980
1120.000000	39.912390
1121.000000	39.905820
1122.000000	39.898015
1123.000000	39.890115
1124.000000	39.881302
1125.000000	39.869645
1126.000000	39.853870
1127.000000	39.835098
1128.000000	39.815752
1129.000000	39.792365
1130.000000	39.764460
1131.000000	39.731938
1132.000000	39.693443
1133.000000	39.653410
1134.000000	39.612968
1135.000000	39.571535
1136.000000	39.527187
1137.000000	39.479505
1138.000000	39.428458
1139.000000	39.376535
1140.000000	39.327703
1141.000000	39.278868
1142.000000	39.233423
1143.000000	39.187695
1144.000000	39.141295
1145.000000	39.096128
1146.000000	39.054680
1147.000000	39.014150
1148.000000	38.974807
1149.000000	38.938397
1150.000000	38.901365
1151.000000	38.865473
1152.000000	38.829217
1153.000000	38.790022
1154.000000	38.747343
1155.000000	38.701685
1156.000000	38.651333
1157.000000	38.598907
1158.000000	38.542555
1159.000000	38.481933
1160.000000	38.416623
1161.000000	38.346080
1162.000000	38.273130
1163.000000	38.197428
1164.000000	38.120233
1165.000000	38.040035
1166.000000	37.960462
1167.000000	37.879967
1168.000000	37.799875
1169.000000	37.720460
1170.000000	37.642628
1171.000000	37.570330
1172.000000	37.500920
1173.000000	37.435200
1174.000000	37.374500
1175.000000	37.318838
1176.000000	37.266440
1177.000000	37.219040
1178.000000	37.175872
1179.000000	37.136075
1180.000000	37.099542
1181.000000	37.066142
1182.000000	37.035058
1183.000000	37.007710
1184.000000	36.983700
1185.000000	36.962667
1186.000000	36.945528
1187.000000	36.933710
1188.000000	36.924447
1189.000000	36.921260
1190.000000	36.925233
1191.000000	36.933560
1192.000000	36.948215
1193.000000	36.967718
1194.000000	36.992148
1195.000000	37.020508
1196.000000	37.053220
1197.000000	37.087772
1198.000000	37.125148
1199.000000	37.163575
1200.000000	37.202267
1201.000000	37.241348
1202.000000	37.279595
1203.000000	37.317495
1204.000000	37.352802
1205.000000	37.388433
1206.000000	37.422520
1207.000000	37.456268
1208.000000	37.490603
1209.000000	37.523828
1210.000000	37.555855
1211.000000	37.586458
1212.000000	37.614798
1213.000000	37.641715
1214.000000	37.668618
1215.000000	37.693455
1216.000000	37.716155
1217.000000	37.737065
1218.000000	37.756590
1219.000000	37.774520
1220.000000	37.790673
1221.000000	37.805087
1222.000000	37.819012
1223.000000	37.832972
1224.000000	37.846318
1225.000000	37.859382
1226.000000	37.873495
1227.000000	37.887355
1228.000000	37.901200
1229.000000	37.915985
1230.000000	37.931372
1231.000000	37.947922
1232.000000	37.965090
1233.000000	37.982570
1234.000000	38.000370
1235.000000	38.018550
1236.000000	38.036410
1237.000000	38.055415
1238.000000	38.074793
1239.000000	38.094415
1240.000000	38.114722
1241.000000	38.136440
1242.000000	38.158993
1243.000000	38.182320
1244.000000	38.206940
1245.000000	38.233550
1246.000000	38.261940
1247.000000	38.290845
1248.000000	38.320258
1249.000000	38.350898
1250.000000	38.380990
1251.000000	38.410485
1252.000000	38.439442
1253.000000	38.466950
1254.000000	38.492440
1255.000000	38.514617
1256.000000	38.534627
1257.000000	38.551497
1258.000000	38.566095
1259.000000	38.577840
1260.000000	38.588972
1261.000000	38.598485
1262.000000	38.606188
1263.000000	38.612862
1264.000000	38.618082
1265.000000	38.622258
1266.000000	38.625163
1267.000000	38.628487
1268.000000	38.631957
1269.000000	38.634960
1270.000000	38.637197
1271.000000	38.639040
1272.000000	38.640722
1273.000000	38.642933
1274.000000	38.645553
1275.000000	38.649203
1276.000000	38.654230
1277.000000	38.660333
1278.000000	38.667030
1279.000000	38.674862
1280.000000	38.683903
1281.000000	38.694342
1282.000000	38.705993
1283.000000	38.718742
1284.000000	38.733643
1285.000000	38.749948
1286.000000	38.766270
1287.000000	38.783205
1288.000000	38.800808
1289.000000	38.819385
1290.000000	38.837663
1291.000000	38.855108
1292.000000	38.872887
1293.000000	38.889658
1294.000000	38.904312
1295.000000	38.918167
1296.000000	38.931238
1297.000000	38.942705
1298.000000	38.952430
1299.000000	38.960325
1300.000000	38.966970
1301.000000	38.972560
1302.000000	38.976268
1303.000000	38.978345
1304.000000	38.978783
1305.000000	38.976010
1306.000000	38.971030
1307.000000	38.964915
1308.000000	38.957867
1309.000000	38.948543
1310.000000	38.936818
1311.000000	38.922713
1312.000000	38.905873
1313.000000	38.887165
1314.000000	38.867930
1315.000000	38.848285
1316.000000	38.826495
1317.000000	38.802965
1318.000000	38.777372
1319.000000	38.749385
1320.000000	38.720555
1321.000000	38.691682
1322.000000	38.662867
1323.000000	38.633140
1324.000000	38.600482
1325.000000	38.564887
1326.000000	38.528550
1327.000000	38.490468
1328.000000	38.450933
1329.000000	38.410868
1330.000000	38.368020
1331.000000	38.321703
1332.000000	38.271303
1333.000000	38.217968
1334.000000	38.161695
1335.000000	38.104110
1336.000000	38.042623
1337.000000	37.976602
1338.000000	37.905858
1339.000000	37.829725
1340.000000	37.749820
1341.000000	37.665920
1342.000000	37.578292
1343.000000	37.485872
1344.000000	37.389135
1345.000000	37.286560
1346.000000	37.179842
1347.000000	37.070073
1348.000000	36.956400
1349.000000	36.839540
1350.000000	36.719840
1351.000000	36.597668
1352.000000	36.474240
1353.000000	36.352245
1354.000000	36.235035
1355.000000	36.123870
1356.000000	36.018485
1357.000000	35.918413
1358.000000	35.824952
1359.000000	35.737040
1360.000000	35.659000
1361.000000	35.596277
1362.000000	35.539245
1363.000000	35.482562
1364.000000	35.427903
1365.000000	35.371218
1366.000000	35.310447
1367.000000	35.249228
1368.000000	35.184310
1369.000000	35.112935
1370.000000	35.029512
1371.000000	34.927430
1372.000000	34.810198
1373.000000	34.677625
1374.000000	34.524577
1375.000000	34.354382
1376.000000	34.168315
1377.000000	33.963197
1378.000000	33.742720
1379.000000	33.513260
1380.000000	33.282915
1381.000000	33.057803
1382.000000	32.842765
1383.000000	32.641733
1384.000000	32.452143
1385.000000	32.276380
1386.000000	32.115910
1387.000000	31.976708
1388.000000	31.854017
1389.000000	31.741342
1390.000000	31.631127
1391.000000	31.525500
1392.000000	31.420750
1393.000000	31.315615
1394.000000	31.213600
1395.000000	31.116825
1396.000000	31.017712
1397.000000	30.903607
1398.000000	30.780923
1399.000000	30.660135
1400.000000	30.544533
1401.000000	30.414283
1402.000000	30.270585
1403.000000	30.115035
1404.000000	29.954990
1405.000000	29.781375
1406.000000	29.601510
1407.000000	29.419792
1408.000000	29.236185
1409.000000	29.043347
1410.000000	28.835232
1411.000000	28.623895
1412.000000	28.416998
1413.000000	28.215420
1414.000000	28.012912
1415.000000	27.810222
1416.000000	27.606257
1417.000000	27.407415
1418.000000	27.213760
1419.000000	27.026213
1420.000000	26.845560
1421.000000	26.671387
1422.000000	26.503618
1423.000000	26.340295
1424.000000	26.181315
1425.000000	26.027870
1426.000000	25.882245
1427.000000	25.743762
1428.000000	25.607937
1429.000000	25.474777
1430.000000	25.348290
1431.000000	25.231368
1432.000000	25.118145
1433.000000	25.009517
1434.000000	24.903660
1435.000000	24.803865
1436.000000	24.709510
1437.000000	24.618510
1438.000000	24.532232
1439.000000	24.450042
1440.000000	24.369775
1441.000000	24.290515
1442.000000	24.214458
1443.000000	24.140307
1444.000000	24.069612
1445.000000	24.004008
1446.000000	23.939485
1447.000000	23.873900
1448.000000	23.806995
1449.000000	23.744053
1450.000000	23.684148
1451.000000	23.624662
1452.000000	23.564217
1453.000000	23.503018
1454.000000	23.442107
1455.000000	23.379213
1456.000000	23.316655
1457.000000	23.253580
1458.000000	23.192052
1459.000000	23.127542
1460.000000	23.061460
1461.000000	22.996348
1462.000000	22.931473
1463.000000	22.866937
1464.000000	22.802325
1465.000000	22.738198
1466.000000	22.673058
1467.000000	22.609670
1468.000000	22.547268
1469.000000	22.486813
1470.000000	22.427687
1471.000000	22.369402
1472.000000	22.312867
1473.000000	22.258782
1474.000000	22.205680
1475.000000	22.153433
1476.000000	22.105117
1477.000000	22.059465
1478.000000	22.016838
1479.000000	21.977140
1480.000000	21.938770
1481.000000	21.903543
1482.000000	21.870828
1483.000000	21.840490
1484.000000	21.813150
1485.000000	21.788622
1486.000000	21.766893
1487.000000	21.747115
1488.000000	21.729727
1489.000000	21.712455
1490.000000	21.697355
1491.000000	21.684065
1492.000000	21.673452
1493.000000	21.665303
1494.000000	21.659490
1495.000000	21.657000
1496.000000	21.656145
1497.000000	21.658248
1498.000000	21.662678
1499.000000	21.671765
1500.000000	21.685315
1501.000000	21.702155
1502.000000	21.722918
1503.000000	21.748753
1504.000000	21.778012
1505.000000	21.810482
1506.000000	21.846360
1507.000000	21.886357
1508.000000	21.929707
1509.000000	21.975785
1510.000000	22.024230
1511.000000	22.074410
1512.000000	22.125495
1513.000000	22.177827
1514.000000	22.232170
1515.000000	22.286120
1516.000000	22.340543
1517.000000	22.394533
1518.000000	22.448422
1519.000000	22.502100
1520.000000	22.555045
1521.000000	22.607087
1522.000000	22.658885
1523.000000	22.709093
1524.000000	22.758328
1525.000000	22.808287
1526.000000	22.858530
1527.000000	22.907598
1528.000000	22.955452
1529.000000	23.001223
1530.000000	23.046615
1531.000000	23.092087
1532.000000	23.136122
1533.000000	23.178913
1534.000000	23.220218
1535.000000	23.259310
1536.000000	23.296380
1537.000000	23.332630
1538.000000	23.368310
1539.000000	23.402955
1540.000000	23.436130
1541.000000	23.467537
1542.000000	23.498745
1543.000000	23.530175
1544.000000	23.561210
1545.000000	23.592958
1546.000000	23.626025
1547.000000	23.660410
1548.000000	23.696190
1549.000000	23.734430
1550.000000	23.774315
1551.000000	23.815783
1552.000000	23.857745
1553.000000	23.899697
1554.000000	23.942145
1555.000000	23.983657
1556.000000	24.022265
1557.000000	24.057225
1558.000000	24.090422
1559.000000	24.120770
1560.000000	24.147040
1561.000000	24.169310
1562.000000	24.188032
1563.000000	24.202485
1564.000000	24.212050
1565.000000	24.218130
1566.000000	24.222015
1567.000000	24.224235
1568.000000	24.223295
1569.000000	24.218773
1570.000000	24.213070
1571.000000	24.206832
1572.000000	24.199822
1573.000000	24.193397
1574.000000	24.188430
1575.000000	24.184438
1576.000000	24.181955
1577.000000	24.181083
1578.000000	24.181435
1579.000000	24.184443
1580.000000	24.190188
1581.000000	24.198195
1582.000000	24.209708
1583.000000	24.224043
1584.000000	24.240540
1585.000000	24.260127
1586.000000	24.282108
1587.000000	24.305385
1588.000000	24.330542
1589.000000	24.357960
1590.000000	24.386267
1591.000000	24.415900
1592.000000	24.446177
1593.000000	24.476965
1594.000000	24.509890
1595.000000	24.543750
1596.000000	24.577632
1597.000000	24.613523
1598.000000	24.650520
1599.000000	24.688647
1600.000000	24.729005
1601.000000	24.770357
1602.000000	24.812895
1603.000000	24.857118
1604.000000	24.901635
1605.000000	24.947095
1606.000000	24.994302
1607.000000	25.042070
1608.000000	25.088367
1609.000000	25.134132
1610.000000	25.178735
1611.000000	25.223197
1612.000000	25.267068
1613.000000	25.309063
1614.000000	25.348405
1615.000000	25.385578
1616.000000	25.419595
1617.000000	25.451995
1618.000000	25.484260
1619.000000	25.515240
1620.000000	25.544470
1621.000000	25.571775
1622.000000	25.598095
1623.000000	25.623555
1624.000000	25.649205
1625.000000	25.674493
1626.000000	25.700295
1627.000000	25.725092
1628.000000	25.750267
1629.000000	25.775673
1630.000000	25.799672
1631.000000	25.823505
1632.000000	25.846245
1633.000000	25.868215
1634.000000	25.889153
1635.000000	25.908805
1636.000000	25.927432
1637.000000	25.943965
1638.000000	25.958550
1639.000000	25.969600
1640.000000	25.980555
1641.000000	25.989690
1642.000000	25.996420
1643.000000	26.001535
1644.000000	26.005170
1645.000000	26.007205
1646.000000	26.006563
1647.000000	26.004935
1648.000000	26.000042
1649.000000	25.994702
1650.000000	25.986460
1651.000000	25.973915
1652.000000	25.959413
1653.000000	25.940978
1654.000000	25.915563
1655.000000	25.885495
1656.000000	25.849782
1657.000000	25.807610
1658.000000	25.760698
1659.000000	25.705698
1660.000000	25.642975
1661.000000	25.576597
1662.000000	25.503968
1663.000000	25.423607
1664.000000	25.340917
1665.000000	25.251435
1666.000000	25.158628
1667.000000	25.062832
1668.000000	24.958682
1669.000000	24.850735
1670.000000	24.742278
1671.000000	24.629107
1672.000000	24.513100
1673.000000	24.399710
1674.000000	24.285083
1675.000000	24.172175
1676.000000	24.059320
1677.000000	23.946532
1678.000000	23.837860
1679.000000	23.730628
1680.000000	23.622010
1681.000000	23.514812
1682.000000	23.407563
1683.000000	23.296810
1684.000000	23.187510
1685.000000	23.079840
1686.000000	22.977747
1687.000000	22.883992
1688.000000	22.803995
1689.000000	22.737635
1690.000000	22.688115
1691.000000	22.655397
1692.000000	22.639490
1693.000000	22.641685
1694.000000	22.657272
1695.000000	22.683602
1696.000000	22.717918
1697.000000	22.754483
1698.000000	22.788670
1699.000000	22.820647
1700.000000	22.844965
1701.000000	22.863252
1702.000000	22.873033
1703.000000	22.874267
1704.000000	22.867525
1705.000000	22.853355
1706.000000	22.828647
1707.000000	22.796568
1708.000000	22.755205
1709.000000	22.704912
1710.000000	22.646910
1711.000000	22.579273
1712.000000	22.502942
1713.000000	22.416518
1714.000000	22.320510
1715.000000	22.216147
1716.000000	22.105330
1717.000000	21.986683
1718.000000	21.863112
1719.000000	21.737212
1720.000000	21.613447
1721.000000	21.490758
1722.000000	21.374227
1723.000000	21.267862
1724.000000	21.173813
1725.000000	21.093365
1726.000000	21.029028
1727.000000	20.982318
1728.000000	20.952495
1729.000000	20.937613
1730.000000	20.935077
1731.000000	20.945130
1732.000000	20.965607
1733.000000	20.994658
1734.000000	21.030805
1735.000000	21.070820
1736.000000	21.113170
1737.000000	21.159132
1738.000000	21.208750
1739.000000	21.261218
1740.000000	21.315463
1741.000000	21.372415
1742.000000	21.431908
1743.000000	21.492205
1744.000000	21.551458
1745.000000	21.611375
1746.000000	21.673060
1747.000000	21.732345
1748.000000	21.788320
1749.000000	21.840138
1750.000000	21.888540
1751.000000	21.931390
1752.000000	21.968400
1753.000000	21.999178
1754.000000	22.026350
1755.000000	22.048830
1756.000000	22.064902
1757.000000	22.077887
1758.000000	22.088532
1759.000000	22.096843
1760.000000	22.103132
1761.000000	22.109678
1762.000000	22.116132
1763.000000	22.122818
1764.000000	22.129867
1765.000000	22.138790
1766.000000	22.150107
1767.000000	22.162080
1768.000000	22.175973
1769.000000	22.193043
1770.000000	22.213013
1771.000000	22.234705
1772.000000	22.258122
1773.000000	22.284287
1774.000000	22.311642
1775.000000	22.339760
1776.000000	22.368035
1777.000000	22.397420
1778.000000	22.426650
1779.000000	22.455143
1780.000000	22.482970
1781.000000	22.510258
1782.000000	22.535677
1783.000000	22.558315
1784.000000	22.579875
1785.000000	22.600132
1786.000000	22.617750
1787.000000	22.632218
1788.000000	22.644242
1789.000000	22.654203
1790.000000	22.662813
1791.000000	22.670462
1792.000000	22.677205
1793.000000	22.684742
1794.000000	22.692145
1795.000000	22.699343
1796.000000	22.707503
1797.000000	22.716972
1798.000000	22.726805
1799.000000	22.737630
1800.000000	22.749382
1801.000000	22.762335
1802.000000	22.775568
1803.000000	22.787268
1804.000000	22.798730
1805.000000	22.812518
1806.000000	22.827918
1807.000000	22.843020
1808.000000	22.856935
1809.000000	22.869573
1810.000000	22.882015
1811.000000	22.894348
1812.000000	22.907968
1813.000000	22.921655
1814.000000	22.934635
1815.000000	22.944555
1816.000000	22.950235
1817.000000	22.952362
1818.000000	22.953650
1819.000000	22.958055
1820.000000	22.966700
1821.000000	22.976978
1822.000000	22.983465
1823.000000	22.983680
1824.000000	22.980350
1825.000000	22.977690
1826.000000	22.979118
1827.000000	22.984815
1828.000000	22.994347
1829.000000	23.002560
1830.000000	23.008460
1831.000000	23.013132
1832.000000	23.018228
1833.000000	23.026900
1834.000000	23.039952
1835.000000	23.057470
1836.000000	23.079085
1837.000000	23.104120
1838.000000	23.126750
1839.000000	23.151325
1840.000000	23.177912
1841.000000	23.208985
1842.000000	23.244655
1843.000000	23.280558
1844.000000	23.309380
1845.000000	23.328345
1846.000000	23.342582
1847.000000	23.362125
1848.000000	23.389783
1849.000000	23.413092
1850.000000	23.426323
1851.000000	23.425822
1852.000000	23.420462
1853.000000	23.415525
1854.000000	23.415022
1855.000000	23.416860
1856.000000	23.411478
1857.000000	23.391870
1858.000000	23.362007
1859.000000	23.330838
1860.000000	23.301430
1861.000000	23.272945
1862.000000	23.238040
1863.000000	23.194275
1864.000000	23.140920
1865.000000	23.078698
1866.000000	23.011140
1867.000000	22.939653
1868.000000	22.860845
1869.000000	22.776955
1870.000000	22.690150
1871.000000	22.600617
1872.000000	22.510895
1873.000000	22.421357
1874.000000	22.329747
1875.000000	22.234262
1876.000000	22.131818
1877.000000	22.019665
1878.000000	21.896697
1879.000000	21.758928
1880.000000	21.600492
1881.000000	21.425918
1882.000000	21.237295
1883.000000	21.032575
1884.000000	20.813028
1885.000000	20.579470
1886.000000	20.333307
1887.000000	20.071660
1888.000000	19.796125
1889.000000	19.512015
1890.000000	19.223595
1891.000000	18.927653
1892.000000	18.619498
1893.000000	18.303555
1894.000000	17.980305
1895.000000	17.650645
1896.000000	17.314955
1897.000000	16.978305
1898.000000	16.642650
1899.000000	16.308430
1900.000000	15.972467
1901.000000	15.636815
1902.000000	15.305625
1903.000000	14.983010
1904.000000	14.666970
1905.000000	14.359435
1906.000000	14.063495
1907.000000	13.779670
1908.000000	13.509758
1909.000000	13.247602
1910.000000	12.997395
1911.000000	12.758002
1912.000000	12.531145
1913.000000	12.318460
1914.000000	12.119698
1915.000000	11.933708
1916.000000	11.760808
1917.000000	11.594008
1918.000000	11.436668
1919.000000	11.288980
1920.000000	11.155805
1921.000000	11.032810
1922.000000	10.923490
1923.000000	10.818240
1924.000000	10.718867
1925.000000	10.625710
1926.000000	10.539425
1927.000000	10.468623
1928.000000	10.403830
1929.000000	10.347983
1930.000000	10.296615
1931.000000	10.251833
1932.000000	10.212067
1933.000000	10.177918
1934.000000	10.150530
1935.000000	10.135628
1936.000000	10.121568
1937.000000	10.109298
1938.000000	10.104285
1939.000000	10.106997
1940.000000	10.110795
1941.000000	10.120450
1942.000000	10.135462
1943.000000	10.152632
1944.000000	10.174318
1945.000000	10.194245
1946.000000	10.221488
1947.000000	10.251740
1948.000000	10.283497
1949.000000	10.315508
1950.000000	10.350123
1951.000000	10.388420
1952.000000	10.425220
1953.000000	10.466807
1954.000000	10.513032
1955.000000	10.559460
1956.000000	10.606158
1957.000000	10.656543
1958.000000	10.706988
1959.000000	10.757625
1960.000000	10.810745
1961.000000	10.864385
1962.000000	10.919395
1963.000000	10.973240
1964.000000	11.025390
1965.000000	11.077943
1966.000000	11.131005
1967.000000	11.179735
1968.000000	11.227235
1969.000000	11.275448
1970.000000	11.325467
1971.000000	11.375430
1972.000000	11.423745
1973.000000	11.474752
1974.000000	11.527810
1975.000000	11.581305
1976.000000	11.635878
1977.000000	11.691762
1978.000000	11.749917
1979.000000	11.808708
1980.000000	11.868250
1981.000000	11.925683
1982.000000	11.981515
1983.000000	12.037130
1984.000000	12.089930
1985.000000	12.146345
1986.000000	12.201215
1987.000000	12.256400
1988.000000	12.309400
1989.000000	12.362735
1990.000000	12.413332
1991.000000	12.465962
1992.000000	12.521632
1993.000000	12.576195
1994.000000	12.628533
1995.000000	12.677663
1996.000000	12.727358
1997.000000	12.776732
1998.000000	12.824235
1999.000000	12.865445
2000.000000	12.906772
2001.000000	12.940865
2002.000000	12.974908
2003.000000	13.005975
2004.000000	13.037938
2005.000000	13.064552
2006.000000	13.087180
2007.000000	13.104370
2008.000000	13.122858
2009.000000	13.145563
2010.000000	13.159512
2011.000000	13.171462
2012.000000	13.175295
2013.000000	13.175665
2014.000000	13.172180
2015.000000	13.166898
2016.000000	13.160480
2017.000000	13.152738
2018.000000	13.134515
2019.000000	13.109085
2020.000000	13.086800
2021.000000	13.060085
2022.000000	13.029653
2023.000000	12.997960
2024.000000	12.964243
2025.000000	12.925528
2026.000000	12.881602
2027.000000	12.835090
2028.000000	12.789910
2029.000000	12.741008
2030.000000	12.684385
2031.000000	12.628695
2032.000000	12.572633
2033.000000	12.511062
2034.000000	12.440188
2035.000000	12.366390
2036.000000	12.290225
2037.000000	12.210785
2038.000000	12.130390
2039.000000	12.046117
2040.000000	11.962318
2041.000000	11.872868
2042.000000	11.780467
2043.000000	11.688670
2044.000000	11.599488
2045.000000	11.514340
2046.000000	11.432208
2047.000000	11.351253
2048.000000	11.270502
2049.000000	11.194928
2050.000000	11.120883
2051.000000	11.059350
2052.000000	11.004428
2053.000000	10.952855
2054.000000	10.911480
2055.000000	10.880492
2056.000000	10.858102
2057.000000	10.847618
2058.000000	10.845365
2059.000000	10.849222
2060.000000	10.867760
2061.000000	10.891412
2062.000000	10.922698
2063.000000	10.971307
2064.000000	11.027185
2065.000000	11.080755
2066.000000	11.136330
2067.000000	11.195953
2068.000000	11.258157
2069.000000	11.323575
2070.000000	11.391315
2071.000000	11.459775
2072.000000	11.527375
2073.000000	11.588812
2074.000000	11.645845
2075.000000	11.704960
2076.000000	11.768548
2077.000000	11.827335
2078.000000	11.879237
2079.000000	11.926108
2080.000000	11.967660
2081.000000	12.009407
2082.000000	12.046515
2083.000000	12.075380
2084.000000	12.099308
2085.000000	12.119215
2086.000000	12.130842
2087.000000	12.140620
2088.000000	12.156560
2089.000000	12.169392
2090.000000	12.177410
2091.000000	12.178090
2092.000000	12.177543
2093.000000	12.176140
2094.000000	12.170158
2095.000000	12.166240
2096.000000	12.159640
2097.000000	12.150633
2098.000000	12.140710
2099.000000	12.133855
2100.000000	12.125450
2101.000000	12.118220
2102.000000	12.110480
2103.000000	12.105515
2104.000000	12.104670
2105.000000	12.104005
2106.000000	12.101845
2107.000000	12.108415
2108.000000	12.115148
2109.000000	12.119760
2110.000000	12.123005
2111.000000	12.125723
2112.000000	12.133952
2113.000000	12.140705
2114.000000	12.147735
2115.000000	12.147787
2116.000000	12.149490
2117.000000	12.143465
2118.000000	12.139410
2119.000000	12.136247
2120.000000	12.124375
2121.000000	12.115208
2122.000000	12.098040
2123.000000	12.082197
2124.000000	12.066923
2125.000000	12.053633
2126.000000	12.036400
2127.000000	12.015745
2128.000000	11.981013
2129.000000	11.946795
2130.000000	11.927002
2131.000000	11.904455
2132.000000	11.882195
2133.000000	11.855633
2134.000000	11.822883
2135.000000	11.789935
2136.000000	11.747990
2137.000000	11.708417
2138.000000	11.665960
2139.000000	11.615055
2140.000000	11.558363
2141.000000	11.498138
2142.000000	11.441133
2143.000000	11.382637
2144.000000	11.319310
2145.000000	11.245963
2146.000000	11.179025
2147.000000	11.115840
2148.000000	11.063348
2149.000000	11.001610
2150.000000	10.932490
2151.000000	10.862160
2152.000000	10.795592
2153.000000	10.723293
2154.000000	10.653887
2155.000000	10.592077
2156.000000	10.532017
2157.000000	10.470595
2158.000000	10.411767
2159.000000	10.363717
2160.000000	10.311735
2161.000000	10.270475
2162.000000	10.220590
2163.000000	10.181397
2164.000000	10.150662
2165.000000	10.123568
2166.000000	10.093888
2167.000000	10.065952
2168.000000	10.030650
2169.000000	9.997967
2170.000000	9.977475
2171.000000	9.953358
2172.000000	9.930595
2173.000000	9.911415
2174.000000	9.880480
2175.000000	9.858937
2176.000000	9.845557
2177.000000	9.831527
2178.000000	9.816480
2179.000000	9.804765
2180.000000	9.795010
2181.000000	9.781980
2182.000000	9.767262
2183.000000	9.754822
2184.000000	9.753502
2185.000000	9.734225
2186.000000	9.716655
2187.000000	9.691942
2188.000000	9.675630
2189.000000	9.655930
2190.000000	9.628213
2191.000000	9.592380
2192.000000	9.568420
2193.000000	9.529153
2194.000000	9.489957
2195.000000	9.457272
2196.000000	9.419823
2197.000000	9.377287
2198.000000	9.322858
2199.000000	9.284157
2200.000000	9.236622
2201.000000	9.201512
2202.000000	9.162128
2203.000000	9.123133
2204.000000	9.088932
2205.000000	9.064478
2206.000000	9.031580
2207.000000	9.016497
2208.000000	9.016447
2209.000000	8.992935
2210.000000	8.999123
2211.000000	9.001452
2212.000000	9.009007
2213.000000	9.025095
2214.000000	9.041023
2215.000000	9.060745
2216.000000	9.095327
2217.000000	9.127803
2218.000000	9.155233
2219.000000	9.202538
2220.000000	9.240448
2221.000000	9.278168
2222.000000	9.334532
2223.000000	9.391915
2224.000000	9.449060
2225.000000	9.492160
2226.000000	9.548577
2227.000000	9.598200
2228.000000	9.652665
2229.000000	9.711197
2230.000000	9.744632
2231.000000	9.787883
2232.000000	9.811317
2233.000000	9.831820
2234.000000	9.846742
2235.000000	9.866285
2236.000000	9.872628
2237.000000	9.880823
2238.000000	9.884702
2239.000000	9.876257
2240.000000	9.872545
2241.000000	9.852580
2242.000000	9.829117
2243.000000	9.803605
2244.000000	9.775797
2245.000000	9.747350
2246.000000	9.708803
2247.000000	9.663828
2248.000000	9.615650
2249.000000	9.558722
2250.000000	9.521110
2251.000000	9.479398
2252.000000	9.431287
2253.000000	9.386485
2254.000000	9.339045
2255.000000	9.289380
2256.000000	9.234962
2257.000000	9.183450
2258.000000	9.127918
2259.000000	9.084260
2260.000000	9.026397
2261.000000	8.974050
2262.000000	8.924173
2263.000000	8.870017
2264.000000	8.818410
2265.000000	8.769680
2266.000000	8.736100
2267.000000	8.703267
2268.000000	8.672680
2269.000000	8.649477
2270.000000	8.632582
2271.000000	8.619578
2272.000000	8.606610
2273.000000	8.607893
2274.000000	8.611562
2275.000000	8.611812
2276.000000	8.604340
2277.000000	8.608732
2278.000000	8.618827
2279.000000	8.620295
2280.000000	8.624385
2281.000000	8.630232
2282.000000	8.642250
2283.000000	8.647920
2284.000000	8.649728
2285.000000	8.646500
2286.000000	8.651485
2287.000000	8.651725
2288.000000	8.652233
2289.000000	8.645650
2290.000000	8.645218
2291.000000	8.647110
2292.000000	8.638435
2293.000000	8.631153
2294.000000	8.634068
2295.000000	8.647755
2296.000000	8.658920
2297.000000	8.670283
2298.000000	8.678632
2299.000000	8.695635
2300.000000	8.710683
2301.000000	8.721170
2302.000000	8.746390
2303.000000	8.766018
2304.000000	8.775723
2305.000000	8.786025
2306.000000	8.803207
2307.000000	8.816548
2308.000000	8.832290
2309.000000	8.848470
2310.000000	8.870580
2311.000000	8.901993
2312.000000	8.925850
2313.000000	8.952430
2314.000000	8.984107
2315.000000	9.019175
2316.000000	9.049322
2317.000000	9.075867
2318.000000	9.101805
2319.000000	9.129192
2320.000000	9.155205
2321.000000	9.172003
2322.000000	9.181043
2323.000000	9.189533
2324.000000	9.206885
2325.000000	9.218075
2326.000000	9.219030
2327.000000	9.223695
2328.000000	9.243835
2329.000000	9.254828
2330.000000	9.254518
2331.000000	9.261022
2332.000000	9.280197
2333.000000	9.310310
2334.000000	9.334222
2335.000000	9.358167
2336.000000	9.393940
2337.000000	9.418902
2338.000000	9.415567
2339.000000	9.423998
2340.000000	9.452902
2341.000000	9.479942
2342.000000	9.503590
2343.000000	9.519658
2344.000000	9.521370
2345.000000	9.511895
2346.000000	9.495550
2347.000000	9.476355
2348.000000	9.485540
2349.000000	9.505907
2350.000000	9.515812
2351.000000	9.521252
2352.000000	9.520668
2353.000000	9.518372
2354.000000	9.538062
2355.000000	9.581195
2356.000000	9.632115
2357.000000	9.685265
2358.000000	9.729012
2359.000000	9.753073
2360.000000	9.766907
2361.000000	9.804723
2362.000000	9.854762
2363.000000	9.887445
2364.000000	9.898297
2365.000000	9.909648
2366.000000	9.918328
2367.000000	9.925732
2368.000000	9.928690
2369.000000	9.946290
2370.000000	9.986792
2371.000000	10.013345
2372.000000	10.014402
2373.000000	10.024430
2374.000000	10.053455
2375.000000	10.084397
2376.000000	10.097283
2377.000000	10.113740
2378.000000	10.129515
2379.000000	10.136985
2380.000000	10.135447
2381.000000	10.120677
2382.000000	10.132702
2383.000000	10.160847
2384.000000	10.161352
2385.000000	10.136250
2386.000000	10.135795
2387.000000	10.146630
2388.000000	10.166940
2389.000000	10.172970
2390.000000	10.177750
2391.000000	10.180620
2392.000000	10.178940
2393.000000	10.170078
2394.000000	10.186837
2395.000000	10.225940
2396.000000	10.253365
2397.000000	10.278450
2398.000000	10.279792
2399.000000	10.289307
2400.000000	10.310550
2401.000000	10.336500
2402.000000	10.359132
2403.000000	10.371218
2404.000000	10.363677
2405.000000	10.348910
2406.000000	10.335280
2407.000000	10.314142
2408.000000	10.295913
2409.000000	10.286143
2410.000000	10.253610
2411.000000	10.215355
2412.000000	10.167075
2413.000000	10.121557
2414.000000	10.101015
2415.000000	10.090905
2416.000000	10.050838
2417.000000	10.010328
2418.000000	9.986370
2419.000000	9.961763
2420.000000	9.942203
2421.000000	9.943623
2422.000000	9.960128
2423.000000	9.976012
2424.000000	9.975518
2425.000000	9.949367
2426.000000	9.942245
2427.000000	9.942942
2428.000000	9.942847
2429.000000	9.941065
2430.000000	9.935647
2431.000000	9.910590
2432.000000	9.890385
2433.000000	9.857255
2434.000000	9.833370
2435.000000	9.804613
2436.000000	9.747835
2437.000000	9.694022
2438.000000	9.647683
2439.000000	9.580362
2440.000000	9.551225
2441.000000	9.501310
2442.000000	9.432907
2443.000000	9.376510
2444.000000	9.307803
2445.000000	9.263675
2446.000000	9.254687
2447.000000	9.250958
2448.000000	9.258242
2449.000000	9.289263
2450.000000	9.252612
2451.000000	9.253272
2452.000000	9.223488
2453.000000	9.218745
2454.000000	9.251537
2455.000000	9.284870
2456.000000	9.316663
2457.000000	9.350360
2458.000000	9.307052
2459.000000	9.278847
2460.000000	9.246062
2461.000000	9.270050
2462.000000	9.321130
2463.000000	9.391977
2464.000000	9.363310
2465.000000	9.412173
2466.000000	9.463147
2467.000000	9.392547
2468.000000	9.416583
2469.000000	9.476245
2470.000000	9.580068
2471.000000	9.611750
2472.000000	9.655420
2473.000000	9.731600
2474.000000	9.857865
2475.000000	9.860975
2476.000000	9.985167
2477.000000	10.202235
2478.000000	10.403990
2479.000000	10.572655
2480.000000	10.764238
2481.000000	10.976292
2482.000000	11.115160
2483.000000	11.244617
2484.000000	11.322785
2485.000000	11.506630
2486.000000	11.576110
2487.000000	11.637385
2488.000000	11.710567
2489.000000	11.802925
2490.000000	11.868490
2491.000000	11.893033
2492.000000	11.973472
2493.000000	12.117685
2494.000000	12.347182
2495.000000	12.525983
2496.000000	12.691358
2497.000000	12.868993
2498.000000	13.123332
2499.000000	13.391010
2500.000000	13.650768
2501.000000	17.353345
2502.000000	21.053235
2503.000000	24.907227
2504.000000	28.896100
2505.000000	32.992780
2506.000000	36.958412
2507.000000	41.152062
2508.000000	45.163545
2509.000000	49.112147
2510.000000	53.109410
2511.000000	54.182210
2512.000000	55.489920
2513.000000	56.073250
2514.000000	56.581820
2515.000000	56.928990
2516.000000	57.765830
2517.000000	58.132540
2518.000000	58.436770
2519.000000	59.370100
2520.000000	60.299720
2521.000000	61.063920
2522.000000	61.329860
2523.000000	62.545030
2524.000000	63.711350
2525.000000	65.074010
2526.000000	66.561230
2527.000000	68.267350
2528.000000	69.958610
2529.000000	71.300000
2530.000000	72.458650
2531.000000	73.317670
2532.000000	74.263850
2533.000000	75.169150
2534.000000	76.031490
2535.000000	76.795800
2536.000000	77.324540
2537.000000	77.494280
2538.000000	78.016610
2539.000000	78.123490
2540.000000	78.124180
2541.000000	78.373950
2542.000000	79.273960
2543.000000	79.425820
2544.000000	79.285670
2545.000000	79.661330
2546.000000	80.574860
2547.000000	81.849010
2548.000000	82.847430
2549.000000	84.028400
2550.000000	85.338320
2551.000000	86.805390
2552.000000	88.351700
2553.000000	89.995560
2554.000000	92.053550
2555.000000	93.305430
2556.000000	93.621400
2557.000000	93.792660
2558.000000	94.172920
2559.000000	94.889340
2560.000000	95.005780
2561.000000	94.236730
2562.000000	92.950510
2563.000000	91.938570
2564.000000	90.846850
2565.000000	90.132090
2566.000000	89.647770
2567.000000	89.615800
2568.000000	89.523110
2569.000000	89.703900
2570.000000	90.355760
2571.000000	91.646040
2572.000000	92.972100
2573.000000	94.180700
2574.000000	95.539750
2575.000000	96.990450
2576.000000	97.985400
2577.000000	99.005690
2578.000000	100.218730
2579.000000	100.432080
2580.000000	100.532000
2581.000000	100.794000
2582.000000	101.157330
2583.000000	101.021380
2584.000000	100.769590
2585.000000	100.529050
2586.000000	100.084960
2587.000000	98.973300
2588.000000	98.154130
2589.000000	97.926260
2590.000000	97.625640
2591.000000	97.272090
2592.000000	96.708060
2593.000000	96.799940
2594.000000	97.688000
2595.000000	98.452580
2596.000000	99.218530
2597.000000	100.572720
2598.000000	101.529540
2599.000000	101.643450
2600.000000	102.338290
2601.000000	102.771510
2602.000000	102.796270
2603.000000	102.609040
2604.000000	101.881940
2605.000000	101.013780
2606.000000	100.145180
2607.000000	98.584650
2608.000000	97.273760
2609.000000	96.927490
2610.000000	95.880070
2611.000000	95.459370
2612.000000	95.829570
2613.000000	96.210400
2614.000000	96.375660
2615.000000	96.644050
2616.000000	97.898970
2617.000000	99.721680
2618.000000	101.158190
2619.000000	101.839370
2620.000000	102.876500
2621.000000	103.133130
2622.000000	103.497550
2623.000000	103.759130
2624.000000	103.560670
2625.000000	103.337530
2626.000000	102.542930
2627.000000	101.619610
2628.000000	100.544520
2629.000000	99.920450
2630.000000	99.254260
2631.000000	99.109870
2632.000000	99.302340
2633.000000	99.619490
2634.000000	100.314970
2635.000000	100.998040
2636.000000	102.010520
2637.000000	103.283270
2638.000000	104.124670
2639.000000	104.539440
2640.000000	105.413720
2641.000000	105.693400
2642.000000	105.028240
2643.000000	104.521370
2644.000000	103.309300
2645.000000	101.926430
2646.000000	100.449710
2647.000000	99.059160
2648.000000	98.038630
2649.000000	97.274500
2650.000000	97.030700
2651.000000	97.000550
2652.000000	96.700990
2653.000000	96.778250
2654.000000	97.942110
2655.000000	99.347130
2656.000000	100.650060
2657.000000	101.264120
2658.000000	102.231420
2659.000000	103.119800
2660.000000	102.798490
2661.000000	103.310590
2662.000000	103.446170
2663.000000	103.452150
2664.000000	103.107080
2665.000000	102.104570
2666.000000	100.769040
2667.000000	100.289150
2668.000000	99.828210
2669.000000	99.674610
2670.000000	100.024480
2671.000000	99.294940
2672.000000	99.544060
2673.000000	100.183320
2674.000000	101.285540
2675.000000	102.491350
2676.000000	102.991140
2677.000000	103.422200
2678.000000	102.749280
2679.000000	101.524590
2680.000000	100.145660
2681.000000	100.099870
2682.000000	99.936560
2683.000000	98.622920
2684.000000	97.674020
2685.000000	96.555840
2686.000000	97.920100
2687.000000	98.828300
2688.000000	99.987740
2689.000000	101.651610
2690.000000	103.713800
2691.000000	104.762390
2692.000000	106.766140
2693.000000	107.185340
2694.000000	107.120330
2695.000000	106.818120
2696.000000	105.524710
2697.000000	104.239550
2698.000000	103.855800
2699.000000	102.931290
2700.000000	102.520870
2701.000000	100.926010
2702.000000	98.772370
2703.000000	98.823380
2704.000000	98.907790
2705.000000	101.115070
2706.000000	102.031520
2707.000000	102.495810
2708.000000	102.545090
2709.000000	103.843920
2710.000000	103.374010
2711.000000	103.762600
2712.000000	103.293820
2713.000000	102.826550
2714.000000	101.603850
2715.000000	99.292740
2716.000000	97.637900
2717.000000	96.262830
2718.000000	95.912940
2719.000000	95.115880
2720.000000	95.031770
2721.000000	94.768130
2722.000000	96.157910
2723.000000	96.803650
2724.000000	97.897900
2725.000000	99.125820
2726.000000	100.261680
2727.000000	102.356320
2728.000000	102.441450
2729.000000	103.700250
2730.000000	103.990180
2731.000000	104.263900
2732.000000	103.150120
2733.000000	102.724150
2734.000000	103.076080
2735.000000	102.300140
2736.000000	102.168430
2737.000000	100.959030
2738.000000	101.221060
2739.000000	99.585040
2740.000000	100.291510
2741.000000	101.250570
2742.000000	102.629260
2743.000000	103.335660
2744.000000	103.919110
2745.000000	103.711160
2746.000000	103.377290
2747.000000	103.242800
2748.000000	103.577120
2749.000000	103.942970
2750.000000	102.529440
2751.000000	101.810600
2752.000000	100.367640
2753.000000	99.158530
2754.000000	98.130300
2755.000000	99.114090
2756.000000	99.841290
2757.000000	100.445290
2758.000000	99.303510
2759.000000	100.468240
2760.000000	101.775190
2761.000000	102.043410
2762.000000	103.344620
2763.000000	104.677200
2764.000000	105.169200
2765.000000	103.892470
2766.000000	101.387580
2767.000000	100.255070
2768.000000	99.953490
2769.000000	98.333920
2770.000000	97.066410
2771.000000	96.772750
2772.000000	96.482910
2773.000000	96.698560
2774.000000	97.401990
2775.000000	99.484180
2776.000000	101.475260
2777.000000	102.547870
2778.000000	103.531580
2779.000000	104.064360
2780.000000	105.136420
2781.000000	105.914020
2782.000000	104.407180
2783.000000	102.534430
2784.000000	100.355860
2785.000000	98.380490
2786.000000	97.709800
2787.000000	97.193300
2788.000000	97.386040
2789.000000	98.293950
2790.000000	98.718000
2791.000000	98.465790
2792.000000	100.547970
2793.000000	102.556260
2794.000000	103.907280
2795.000000	104.693500
2796.000000	105.064190
2797.000000	104.741620
2798.000000	104.088060
2799.000000	102.875480
2800.000000	101.279210
2801.000000	99.899880
2802.000000	98.669080
2803.000000	97.667680
2804.000000	96.942960
2805.000000	97.156760
2806.000000	98.162660
2807.000000	99.242010
2808.000000	100.294390
2809.000000	101.429070
2810.000000	103.231990
2811.000000	104.658060
2812.000000	104.626120
2813.000000	104.969370
2814.000000	104.694530
2815.000000	103.699800
2816.000000	102.532900
2817.000000	101.286500
2818.000000	100.571010
2819.000000	99.409460
2820.000000	98.023920
2821.000000	97.865120
2822.000000	98.689030
2823.000000	99.385200
2824.000000	100.793870
2825.000000	102.169800
2826.000000	102.874520
2827.000000	104.262910
2828.000000	105.285090
2829.000000	106.214020
2830.000000	106.245560
2831.000000	105.546180
2832.000000	104.684340
2833.000000	103.201180
2834.000000	101.700680
2835.000000	101.020530
2836.000000	100.660760
2837.000000	99.488940
2838.000000	98.500830
2839.000000	98.388430
2840.000000	98.919000
2841.000000	99.690000
2842.000000	100.255830
2843.000000	101.295000
2844.000000	102.267250
2845.000000	102.518910
2846.000000	102.714440
2847.000000	102.574580
2848.000000	101.721040
2849.000000	100.084110
2850.000000	98.693070
2851.000000	97.867030
2852.000000	97.404840
2853.000000	96.523000
2854.000000	96.065740
2855.000000	96.528860
2856.000000	97.610840
2857.000000	98.890170
2858.000000	100.193370
2859.000000	101.541790
2860.000000	102.733120
2861.000000	102.744900
2862.000000	102.013210
2863.000000	101.796650
2864.000000	101.341860
2865.000000	99.782870
2866.000000	97.725810
2867.000000	96.573050
2868.000000	97.066470
2869.000000	98.096680
2870.000000	98.556650
2871.000000	99.428570
2872.000000	101.507400
2873.000000	103.397760
2874.000000	104.353160
2875.000000	104.968420
2876.000000	105.307440
2877.000000	105.539100
2878.000000	104.742970
2879.000000	102.474780
2880.000000	100.617790
2881.000000	99.312980
2882.000000	97.319300
2883.000000	95.447190
2884.000000	95.337980
2885.000000	96.589020
2886.000000	98.028620
2887.000000	98.474450
2888.000000	98.974150
2889.000000	100.966900
2890.000000	102.731020
2891.000000	103.445410
2892.000000	104.327690
2893.000000	104.900960
2894.000000	104.414130
2895.000000	102.687400
2896.000000	101.112760
2897.000000	100.197220
2898.000000	99.585640
2899.000000	99.299330
2900.000000	99.697950
2901.000000	100.713440
2902.000000	101.758080
2903.000000	102.624740
2904.000000	103.369640
2905.000000	104.265130
2906.000000	104.467980
2907.000000	105.190170
2908.000000	105.236610
2909.000000	103.911200
2910.000000	102.144070
2911.000000	99.874250
2912.000000	97.671680
2913.000000	96.145780
2914.000000	95.123710
2915.000000	94.696300
2916.000000	95.443310
2917.000000	95.873080
2918.000000	96.580110
2919.000000	98.416140
2920.000000	100.599670
2921.000000	102.750270
2922.000000	104.530340
2923.000000	105.790600
2924.000000	105.670850
2925.000000	104.739030
2926.000000	103.736100
2927.000000	103.220700
2928.000000	102.853280
2929.000000	101.503480
2930.000000	100.456850
2931.000000	100.089710
2932.000000	100.067200
2933.000000	100.254420
2934.000000	101.553060
2935.000000	103.400460
2936.000000	103.979470
2937.000000	104.687150
2938.000000	104.112780
2939.000000	104.334920
2940.000000	103.199790
2941.000000	102.272350
2942.000000	101.226840
2943.000000	99.486620
2944.000000	98.811940
2945.000000	97.482330
2946.000000	97.560820
2947.000000	97.922440
2948.000000	98.489580
2949.000000	98.538690
2950.000000	99.808940
2951.000000	101.220010
2952.000000	102.416820
2953.000000	104.033690
2954.000000	103.574980
2955.000000	103.852070
2956.000000	102.960270
2957.000000	101.643310
2958.000000	100.730100
2959.000000	100.460430
2960.000000	99.507710
2961.000000	99.071350
2962.000000	98.906820
2963.000000	98.982820
2964.000000	100.491180
2965.000000	100.495000
2966.000000	101.882600
2967.000000	102.664700
2968.000000	103.274000
2969.000000	103.246050
2970.000000	103.889720
2971.000000	103.431780
2972.000000	101.898640
2973.000000	100.369410
2974.000000	99.128970
2975.000000	99.510250
2976.000000	100.060090
2977.000000	99.260010
2978.000000	99.305550
2979.000000	99.908330
2980.000000	99.969700
2981.000000	100.482940
2982.000000	101.331930
2983.000000	101.545240
2984.000000	101.866940
2985.000000	101.731540
2986.000000	100.602750
2987.000000	101.017170
2988.000000	100.927510
2989.000000	100.032200
2990.000000	99.823540
2991.000000	100.018530
2992.000000	100.300820
2993.000000	101.495770
2994.000000	102.287490
2995.000000	103.068430
2996.000000	103.919960
2997.000000	104.238760
2998.000000	104.089690
2999.000000	103.642920
3000.000000	103.379100
