PE UV       SUBTECH     SPECTRUM    ASCII       PEDS        4.00        
   -1
INBUCR0321-4.Sample.ASC
24/02/08
17:14:49.00
24/02/08
17:14:49.00
Vinicio Soto Monge
COSTA RICA, Prov. Guanacaste. Sector Santa María, 25 km al NE. de Liberia. 790 m. 9-27 OCT 1996. D. Briceño. Foso L_N_304700_393450 #44748. INBIOCRI002492827. Sin cabeza. (Aparentemente Phanaeus pyrois)
250,000000
1
Lambda 1050
1050L1511233
PerkinElmer UV WinLab 6.3.2.0749 / 2.02.05 Lambda 900 UV/VIS/NIR, Aug  7 2015 09:38:08

0
0
3350/servo 860,8/2
0
0
UV/VIS
1
1
1
DoubleDePol,CommonBeamDepol,RBeamAtt,SBeamAtt,60mm sphere, WB InGaAs Detector
0
0
0
0
Program
Program
3350/servo 860,8/2
3350/0,2 860,8/0,2
3350/0,2 860,8/0,2
0
15.00
 
 
 
0
 
860,8
319,2
860,8
Front
100
on
S:100 R:100
0
0
0
0
 
0
 
 
 
0
 
 
0
0
0
0
0
 
 
 
 
0
0


0
0
#HDR
-1
-1
#GR
nm
%R
1.0
0.0
2500,000000
-1,000000
2251
8
6,205400
0,362100
#DATA

250.000000	nan
251.000000	nan
252.000000	nan
253.000000	nan
254.000000	nan
255.000000	nan
256.000000	nan
257.000000	nan
258.000000	nan
259.000000	3.588918
260.000000	3.585672
261.000000	3.585125
262.000000	3.584732
263.000000	3.583589
264.000000	3.581586
265.000000	3.577919
266.000000	3.574238
267.000000	3.570763
268.000000	3.569047
269.000000	3.564752
270.000000	3.561622
271.000000	3.558918
272.000000	3.557166
273.000000	3.554861
274.000000	3.555291
275.000000	3.555460
276.000000	3.557657
277.000000	3.559175
278.000000	3.561042
279.000000	3.565560
280.000000	3.573797
281.000000	3.580326
282.000000	3.587071
283.000000	3.597343
284.000000	3.603395
285.000000	3.613179
286.000000	3.622018
287.000000	3.632027
288.000000	3.644524
289.000000	3.657169
290.000000	3.666426
291.000000	3.678280
292.000000	3.690787
293.000000	3.703590
294.000000	3.719012
295.000000	3.737040
296.000000	3.754700
297.000000	3.774060
298.000000	3.792239
299.000000	3.810100
300.000000	3.830659
301.000000	3.849791
302.000000	3.870434
303.000000	3.888775
304.000000	3.911444
305.000000	3.930125
306.000000	3.954446
307.000000	3.979205
308.000000	4.005753
309.000000	4.038787
310.000000	4.073229
311.000000	4.112197
312.000000	4.151387
313.000000	4.198447
314.000000	4.243599
315.000000	4.291850
316.000000	4.337548
317.000000	4.397491
318.000000	4.445433
319.000000	4.489965
320.000000	4.542991
321.000000	4.600530
322.000000	4.656071
323.000000	4.688591
324.000000	4.727111
325.000000	4.770167
326.000000	4.809077
327.000000	4.827632
328.000000	4.858080
329.000000	4.885853
330.000000	4.908259
331.000000	4.921125
332.000000	4.931685
333.000000	4.960341
334.000000	4.986099
335.000000	5.003320
336.000000	5.027445
337.000000	5.052210
338.000000	5.072384
339.000000	5.095752
340.000000	5.117190
341.000000	5.142521
342.000000	5.165767
343.000000	5.193345
344.000000	5.214421
345.000000	5.237452
346.000000	5.256925
347.000000	5.283509
348.000000	5.314708
349.000000	5.340173
350.000000	5.362124
351.000000	5.383973
352.000000	5.408007
353.000000	5.427139
354.000000	5.450548
355.000000	5.471571
356.000000	5.495582
357.000000	5.517685
358.000000	5.538866
359.000000	5.560590
360.000000	5.582092
361.000000	5.601871
362.000000	5.624599
363.000000	5.649110
364.000000	5.671630
365.000000	5.693769
366.000000	5.710791
367.000000	5.727741
368.000000	5.745852
369.000000	5.762418
370.000000	5.779196
371.000000	5.794631
372.000000	5.811362
373.000000	5.822861
374.000000	5.828952
375.000000	5.843602
376.000000	5.885313
377.000000	5.945425
378.000000	6.002855
379.000000	6.064142
380.000000	6.125874
381.000000	6.188156
382.000000	6.247870
383.000000	6.310719
384.000000	6.378204
385.000000	6.440542
386.000000	6.477190
387.000000	6.493896
388.000000	6.510656
389.000000	6.527682
390.000000	6.544543
391.000000	6.560109
392.000000	6.575360
393.000000	6.590168
394.000000	6.605659
395.000000	6.620735
396.000000	6.635823
397.000000	6.651237
398.000000	6.666792
399.000000	6.682314
400.000000	6.697334
401.000000	6.712558
402.000000	6.728157
403.000000	6.744030
404.000000	6.759026
405.000000	6.773552
406.000000	6.788234
407.000000	6.803519
408.000000	6.818244
409.000000	6.831932
410.000000	6.845210
411.000000	6.858560
412.000000	6.871708
413.000000	6.885036
414.000000	6.898347
415.000000	6.912060
416.000000	6.925482
417.000000	6.937408
418.000000	6.949367
419.000000	6.962210
420.000000	6.975169
421.000000	6.987602
422.000000	6.999158
423.000000	7.009999
424.000000	7.020504
425.000000	7.029527
426.000000	7.038106
427.000000	7.047071
428.000000	7.055271
429.000000	7.062250
430.000000	7.068622
431.000000	7.074931
432.000000	7.081755
433.000000	7.088206
434.000000	7.094351
435.000000	7.101412
436.000000	7.108654
437.000000	7.116646
438.000000	7.124719
439.000000	7.133308
440.000000	7.143398
441.000000	7.154411
442.000000	7.165673
443.000000	7.176922
444.000000	7.188897
445.000000	7.200815
446.000000	7.212333
447.000000	7.222990
448.000000	7.233364
449.000000	7.243618
450.000000	7.252158
451.000000	7.259584
452.000000	7.266305
453.000000	7.272317
454.000000	7.277422
455.000000	7.281572
456.000000	7.285263
457.000000	7.288598
458.000000	7.292115
459.000000	7.295153
460.000000	7.298628
461.000000	7.303540
462.000000	7.309799
463.000000	7.317343
464.000000	7.326643
465.000000	7.337812
466.000000	7.351651
467.000000	7.367644
468.000000	7.385666
469.000000	7.406110
470.000000	7.429109
471.000000	7.453445
472.000000	7.479112
473.000000	7.506576
474.000000	7.535171
475.000000	7.565055
476.000000	7.595034
477.000000	7.625343
478.000000	7.655978
479.000000	7.687299
480.000000	7.718125
481.000000	7.747979
482.000000	7.776428
483.000000	7.803006
484.000000	7.827132
485.000000	7.848716
486.000000	7.867671
487.000000	7.883662
488.000000	7.897049
489.000000	7.907168
490.000000	7.914692
491.000000	7.920549
492.000000	7.924406
493.000000	7.927180
494.000000	7.929919
495.000000	7.932179
496.000000	7.934824
497.000000	7.937753
498.000000	7.941325
499.000000	7.945300
500.000000	7.950024
501.000000	7.954776
502.000000	7.960380
503.000000	7.967100
504.000000	7.973663
505.000000	7.980435
506.000000	7.987493
507.000000	7.995258
508.000000	8.003567
509.000000	8.012871
510.000000	8.022644
511.000000	8.033728
512.000000	8.045544
513.000000	8.058022
514.000000	8.071864
515.000000	8.087192
516.000000	8.103334
517.000000	8.120719
518.000000	8.138737
519.000000	8.157015
520.000000	8.175942
521.000000	8.195241
522.000000	8.214739
523.000000	8.233778
524.000000	8.251846
525.000000	8.269102
526.000000	8.285681
527.000000	8.300842
528.000000	8.315403
529.000000	8.328733
530.000000	8.340785
531.000000	8.351150
532.000000	8.360160
533.000000	8.367982
534.000000	8.375400
535.000000	8.381629
536.000000	8.387168
537.000000	8.391988
538.000000	8.395599
539.000000	8.399244
540.000000	8.402062
541.000000	8.404920
542.000000	8.407421
543.000000	8.409957
544.000000	8.411976
545.000000	8.414211
546.000000	8.416820
547.000000	8.419144
548.000000	8.421622
549.000000	8.423604
550.000000	8.425861
551.000000	8.428121
552.000000	8.430292
553.000000	8.432293
554.000000	8.434974
555.000000	8.437563
556.000000	8.439579
557.000000	8.442350
558.000000	8.444655
559.000000	8.446898
560.000000	8.465144
561.000000	8.484120
562.000000	8.503773
563.000000	8.523284
564.000000	8.542935
565.000000	8.562486
566.000000	8.582219
567.000000	8.601722
568.000000	8.622008
569.000000	8.642343
570.000000	8.647286
571.000000	8.651546
572.000000	8.655605
573.000000	8.660042
574.000000	8.664340
575.000000	8.668474
576.000000	8.673114
577.000000	8.677647
578.000000	8.682285
579.000000	8.687135
580.000000	8.691659
581.000000	8.695989
582.000000	8.701217
583.000000	8.706563
584.000000	8.711497
585.000000	8.717276
586.000000	8.721804
587.000000	8.727253
588.000000	8.731794
589.000000	8.736619
590.000000	8.742407
591.000000	8.747935
592.000000	8.752479
593.000000	8.757186
594.000000	8.762675
595.000000	8.767552
596.000000	8.773079
597.000000	8.777855
598.000000	8.783402
599.000000	8.788703
600.000000	8.793814
601.000000	8.798800
602.000000	8.804133
603.000000	8.809015
604.000000	8.813705
605.000000	8.818407
606.000000	8.823415
607.000000	8.828596
608.000000	8.833341
609.000000	8.838146
610.000000	8.842189
611.000000	8.847921
612.000000	8.853067
613.000000	8.858113
614.000000	8.863063
615.000000	8.868322
616.000000	8.873178
617.000000	8.878544
618.000000	8.883680
619.000000	8.889534
620.000000	8.895086
621.000000	8.898969
622.000000	8.903227
623.000000	8.908062
624.000000	8.912540
625.000000	8.918304
626.000000	8.924018
627.000000	8.928878
628.000000	8.934226
629.000000	8.938946
630.000000	8.944698
631.000000	8.950865
632.000000	8.957328
633.000000	8.963170
634.000000	8.970010
635.000000	8.975307
636.000000	8.981578
637.000000	8.988790
638.000000	8.996209
639.000000	9.004018
640.000000	9.011149
641.000000	9.019112
642.000000	9.026916
643.000000	9.035584
644.000000	9.043761
645.000000	9.053642
646.000000	9.064163
647.000000	9.074612
648.000000	9.084933
649.000000	9.095633
650.000000	9.107502
651.000000	9.118992
652.000000	9.130985
653.000000	9.143056
654.000000	9.154888
655.000000	9.166364
656.000000	9.176303
657.000000	9.185675
658.000000	9.195867
659.000000	9.206219
660.000000	9.216773
661.000000	9.228026
662.000000	9.238990
663.000000	9.250064
664.000000	9.260954
665.000000	9.271151
666.000000	9.281217
667.000000	9.291660
668.000000	9.302386
669.000000	9.312163
670.000000	9.321371
671.000000	9.330655
672.000000	9.341264
673.000000	9.351233
674.000000	9.361878
675.000000	9.373087
676.000000	9.385605
677.000000	9.398496
678.000000	9.409906
679.000000	9.422004
680.000000	9.434168
681.000000	9.445949
682.000000	9.455701
683.000000	9.465746
684.000000	9.476467
685.000000	9.487052
686.000000	9.497643
687.000000	9.508458
688.000000	9.519891
689.000000	9.531411
690.000000	9.542972
691.000000	9.554584
692.000000	9.567563
693.000000	9.580620
694.000000	9.593148
695.000000	9.605472
696.000000	9.618005
697.000000	9.630966
698.000000	9.645054
699.000000	9.658677
700.000000	9.672856
701.000000	9.688068
702.000000	9.703052
703.000000	9.718469
704.000000	9.734349
705.000000	9.751099
706.000000	9.766957
707.000000	9.782129
708.000000	9.796836
709.000000	9.812872
710.000000	9.829030
711.000000	9.844498
712.000000	9.861223
713.000000	9.877851
714.000000	9.893595
715.000000	9.909496
716.000000	9.927000
717.000000	9.944992
718.000000	9.962618
719.000000	9.978978
720.000000	9.995999
721.000000	10.014425
722.000000	10.032265
723.000000	10.049680
724.000000	10.068459
725.000000	10.087770
726.000000	10.107090
727.000000	10.126818
728.000000	10.146819
729.000000	10.167589
730.000000	10.187559
731.000000	10.207434
732.000000	10.227566
733.000000	10.248960
734.000000	10.269787
735.000000	10.290989
736.000000	10.312290
737.000000	10.333168
738.000000	10.354913
739.000000	10.377631
740.000000	10.401564
741.000000	10.425671
742.000000	10.449041
743.000000	10.472528
744.000000	10.497636
745.000000	10.523049
746.000000	10.548055
747.000000	10.573752
748.000000	10.600169
749.000000	10.625945
750.000000	10.651694
751.000000	10.677413
752.000000	10.705149
753.000000	10.732486
754.000000	10.758435
755.000000	10.783277
756.000000	10.810363
757.000000	10.838234
758.000000	10.865826
759.000000	10.894741
760.000000	10.923314
761.000000	10.951217
762.000000	10.979107
763.000000	11.007561
764.000000	11.038134
765.000000	11.070381
766.000000	11.100122
767.000000	11.131310
768.000000	11.161914
769.000000	11.191996
770.000000	11.222251
771.000000	11.254996
772.000000	11.287390
773.000000	11.318605
774.000000	11.349847
775.000000	11.381602
776.000000	11.416260
777.000000	11.448726
778.000000	11.482774
779.000000	11.518062
780.000000	11.554389
781.000000	11.588498
782.000000	11.621077
783.000000	11.658362
784.000000	11.696458
785.000000	11.734288
786.000000	11.771134
787.000000	11.807979
788.000000	11.845328
789.000000	11.881330
790.000000	11.917508
791.000000	11.956782
792.000000	11.997260
793.000000	12.035226
794.000000	12.071585
795.000000	12.107346
796.000000	12.144387
797.000000	12.183646
798.000000	12.219739
799.000000	12.258996
800.000000	12.298090
801.000000	12.335477
802.000000	12.375867
803.000000	12.416356
804.000000	12.455944
805.000000	12.496712
806.000000	12.535030
807.000000	12.573037
808.000000	12.616468
809.000000	12.655925
810.000000	12.697707
811.000000	12.739694
812.000000	12.777826
813.000000	12.816551
814.000000	12.859048
815.000000	12.901330
816.000000	12.945198
817.000000	12.988715
818.000000	13.029006
819.000000	13.073599
820.000000	13.115446
821.000000	13.156355
822.000000	13.199238
823.000000	13.242726
824.000000	13.281256
825.000000	13.322611
826.000000	13.363531
827.000000	13.406303
828.000000	13.447217
829.000000	13.485645
830.000000	13.526862
831.000000	13.568328
832.000000	13.608705
833.000000	13.649390
834.000000	13.690721
835.000000	13.727239
836.000000	13.763235
837.000000	13.797593
838.000000	13.837501
839.000000	13.873672
840.000000	13.910583
841.000000	13.947871
842.000000	13.980376
843.000000	14.012645
844.000000	14.048326
845.000000	14.079316
846.000000	14.112840
847.000000	14.149211
848.000000	14.177742
849.000000	14.201586
850.000000	14.226291
851.000000	14.247355
852.000000	14.269749
853.000000	14.302963
854.000000	14.328500
855.000000	14.346627
856.000000	14.359179
857.000000	14.403138
858.000000	14.583961
859.000000	14.670882
860.000000	14.741120
861.000000	14.804685
862.000000	14.856036
863.000000	14.904777
864.000000	14.962218
865.000000	15.024886
866.000000	15.075052
867.000000	15.084922
868.000000	14.946690
869.000000	14.913375
870.000000	14.891000
871.000000	14.871565
872.000000	14.861950
873.000000	14.850645
874.000000	14.821790
875.000000	14.809840
876.000000	14.808488
877.000000	14.793735
878.000000	14.823960
879.000000	14.826650
880.000000	14.820830
881.000000	14.813533
882.000000	14.815378
883.000000	14.810675
884.000000	14.816033
885.000000	14.812130
886.000000	14.806257
887.000000	14.823628
888.000000	14.798370
889.000000	14.810337
890.000000	14.819460
891.000000	14.839805
892.000000	14.853515
893.000000	14.864120
894.000000	14.864335
895.000000	14.870040
896.000000	14.885290
897.000000	14.888205
898.000000	14.914853
899.000000	14.925890
900.000000	14.951748
901.000000	14.967183
902.000000	14.978733
903.000000	14.996020
904.000000	15.027122
905.000000	15.047815
906.000000	15.057153
907.000000	15.082843
908.000000	15.099622
909.000000	15.119175
910.000000	15.139707
911.000000	15.161128
912.000000	15.188565
913.000000	15.214960
914.000000	15.242558
915.000000	15.276818
916.000000	15.317513
917.000000	15.345692
918.000000	15.374148
919.000000	15.399090
920.000000	15.413958
921.000000	15.441567
922.000000	15.474630
923.000000	15.501820
924.000000	15.524897
925.000000	15.548325
926.000000	15.573067
927.000000	15.598445
928.000000	15.621957
929.000000	15.651193
930.000000	15.687275
931.000000	15.714872
932.000000	15.743377
933.000000	15.769005
934.000000	15.799295
935.000000	15.829422
936.000000	15.858552
937.000000	15.893702
938.000000	15.929712
939.000000	15.961290
940.000000	15.992253
941.000000	16.022223
942.000000	16.047620
943.000000	16.079638
944.000000	16.114430
945.000000	16.146635
946.000000	16.181980
947.000000	16.214548
948.000000	16.243983
949.000000	16.274828
950.000000	16.309052
951.000000	16.344978
952.000000	16.379490
953.000000	16.414805
954.000000	16.446823
955.000000	16.478410
956.000000	16.511418
957.000000	16.545670
958.000000	16.580845
959.000000	16.614680
960.000000	16.647218
961.000000	16.678897
962.000000	16.712810
963.000000	16.747243
964.000000	16.779287
965.000000	16.814718
966.000000	16.849848
967.000000	16.882082
968.000000	16.914150
969.000000	16.952157
970.000000	16.989135
971.000000	17.026913
972.000000	17.063973
973.000000	17.098807
974.000000	17.136008
975.000000	17.171595
976.000000	17.205390
977.000000	17.240483
978.000000	17.277548
979.000000	17.310623
980.000000	17.343792
981.000000	17.379198
982.000000	17.413720
983.000000	17.448880
984.000000	17.485402
985.000000	17.523177
986.000000	17.559690
987.000000	17.594600
988.000000	17.629875
989.000000	17.665625
990.000000	17.700508
991.000000	17.736493
992.000000	17.774528
993.000000	17.812015
994.000000	17.847258
995.000000	17.879838
996.000000	17.913693
997.000000	17.949680
998.000000	17.985238
999.000000	18.021790
1000.000000	18.059372
1001.000000	18.094760
1002.000000	18.128795
1003.000000	18.163200
1004.000000	18.197913
1005.000000	18.234080
1006.000000	18.270167
1007.000000	18.305743
1008.000000	18.342675
1009.000000	18.378120
1010.000000	18.412278
1011.000000	18.448218
1012.000000	18.485032
1013.000000	18.521062
1014.000000	18.557240
1015.000000	18.593480
1016.000000	18.630083
1017.000000	18.667282
1018.000000	18.703992
1019.000000	18.740482
1020.000000	18.776103
1021.000000	18.811785
1022.000000	18.848075
1023.000000	18.884528
1024.000000	18.921780
1025.000000	18.957305
1026.000000	18.992978
1027.000000	19.030450
1028.000000	19.066978
1029.000000	19.102935
1030.000000	19.140678
1031.000000	19.177640
1032.000000	19.213113
1033.000000	19.248690
1034.000000	19.283603
1035.000000	19.320412
1036.000000	19.357482
1037.000000	19.392947
1038.000000	19.427892
1039.000000	19.464355
1040.000000	19.500467
1041.000000	19.536645
1042.000000	19.572990
1043.000000	19.609633
1044.000000	19.647825
1045.000000	19.686073
1046.000000	19.724190
1047.000000	19.761805
1048.000000	19.798648
1049.000000	19.834730
1050.000000	19.870520
1051.000000	19.906713
1052.000000	19.943272
1053.000000	19.979132
1054.000000	20.015010
1055.000000	20.050642
1056.000000	20.084835
1057.000000	20.119755
1058.000000	20.155900
1059.000000	20.193575
1060.000000	20.232367
1061.000000	20.270205
1062.000000	20.307060
1063.000000	20.343710
1064.000000	20.380515
1065.000000	20.417797
1066.000000	20.455960
1067.000000	20.493295
1068.000000	20.530850
1069.000000	20.567847
1070.000000	20.603300
1071.000000	20.637770
1072.000000	20.673568
1073.000000	20.710575
1074.000000	20.746240
1075.000000	20.781100
1076.000000	20.815485
1077.000000	20.850047
1078.000000	20.884200
1079.000000	20.918130
1080.000000	20.953685
1081.000000	20.989358
1082.000000	21.024865
1083.000000	21.059108
1084.000000	21.092440
1085.000000	21.125385
1086.000000	21.158395
1087.000000	21.192645
1088.000000	21.228223
1089.000000	21.263475
1090.000000	21.297178
1091.000000	21.330357
1092.000000	21.362932
1093.000000	21.396510
1094.000000	21.430780
1095.000000	21.464570
1096.000000	21.497937
1097.000000	21.530553
1098.000000	21.562182
1099.000000	21.593953
1100.000000	21.626725
1101.000000	21.660808
1102.000000	21.695625
1103.000000	21.729598
1104.000000	21.764455
1105.000000	21.798742
1106.000000	21.832755
1107.000000	21.865977
1108.000000	21.899543
1109.000000	21.933135
1110.000000	21.966987
1111.000000	22.000595
1112.000000	22.032485
1113.000000	22.063680
1114.000000	22.094023
1115.000000	22.124913
1116.000000	22.156053
1117.000000	22.186795
1118.000000	22.216227
1119.000000	22.245995
1120.000000	22.272880
1121.000000	22.299330
1122.000000	22.327225
1123.000000	22.355863
1124.000000	22.383255
1125.000000	22.408662
1126.000000	22.432763
1127.000000	22.456255
1128.000000	22.481155
1129.000000	22.503485
1130.000000	22.523917
1131.000000	22.542943
1132.000000	22.561237
1133.000000	22.579270
1134.000000	22.598553
1135.000000	22.617737
1136.000000	22.637503
1137.000000	22.656997
1138.000000	22.673170
1139.000000	22.690350
1140.000000	22.710552
1141.000000	22.731180
1142.000000	22.750605
1143.000000	22.770145
1144.000000	22.787817
1145.000000	22.807935
1146.000000	22.828910
1147.000000	22.849263
1148.000000	22.869900
1149.000000	22.890230
1150.000000	22.910450
1151.000000	22.931132
1152.000000	22.950392
1153.000000	22.968602
1154.000000	22.986645
1155.000000	23.003465
1156.000000	23.017070
1157.000000	23.030420
1158.000000	23.044050
1159.000000	23.055930
1160.000000	23.067138
1161.000000	23.074343
1162.000000	23.082918
1163.000000	23.089185
1164.000000	23.095273
1165.000000	23.101315
1166.000000	23.109523
1167.000000	23.115698
1168.000000	23.122010
1169.000000	23.127680
1170.000000	23.133392
1171.000000	23.142140
1172.000000	23.149800
1173.000000	23.159310
1174.000000	23.169920
1175.000000	23.179005
1176.000000	23.186975
1177.000000	23.198225
1178.000000	23.208717
1179.000000	23.220735
1180.000000	23.233952
1181.000000	23.247380
1182.000000	23.261302
1183.000000	23.275282
1184.000000	23.289065
1185.000000	23.303607
1186.000000	23.319845
1187.000000	23.335585
1188.000000	23.353950
1189.000000	23.373827
1190.000000	23.393415
1191.000000	23.414053
1192.000000	23.435668
1193.000000	23.458908
1194.000000	23.482850
1195.000000	23.509075
1196.000000	23.535045
1197.000000	23.561935
1198.000000	23.587590
1199.000000	23.613755
1200.000000	23.639202
1201.000000	23.664120
1202.000000	23.689563
1203.000000	23.714882
1204.000000	23.740032
1205.000000	23.763270
1206.000000	23.787542
1207.000000	23.811685
1208.000000	23.836427
1209.000000	23.860832
1210.000000	23.887188
1211.000000	23.914562
1212.000000	23.942242
1213.000000	23.970370
1214.000000	23.998793
1215.000000	24.029148
1216.000000	24.059767
1217.000000	24.090745
1218.000000	24.121627
1219.000000	24.153590
1220.000000	24.184703
1221.000000	24.216323
1222.000000	24.248085
1223.000000	24.279665
1224.000000	24.311397
1225.000000	24.343247
1226.000000	24.373980
1227.000000	24.404570
1228.000000	24.434508
1229.000000	24.463090
1230.000000	24.492295
1231.000000	24.519795
1232.000000	24.545867
1233.000000	24.571698
1234.000000	24.596430
1235.000000	24.619210
1236.000000	24.640898
1237.000000	24.661130
1238.000000	24.681695
1239.000000	24.702165
1240.000000	24.721865
1241.000000	24.741672
1242.000000	24.760867
1243.000000	24.779587
1244.000000	24.799240
1245.000000	24.819167
1246.000000	24.839610
1247.000000	24.862530
1248.000000	24.886265
1249.000000	24.909528
1250.000000	24.932895
1251.000000	24.957500
1252.000000	24.983268
1253.000000	25.010697
1254.000000	25.038295
1255.000000	25.066502
1256.000000	25.095675
1257.000000	25.123293
1258.000000	25.151280
1259.000000	25.179980
1260.000000	25.208433
1261.000000	25.236705
1262.000000	25.264533
1263.000000	25.291265
1264.000000	25.317610
1265.000000	25.344085
1266.000000	25.370280
1267.000000	25.397037
1268.000000	25.421950
1269.000000	25.445900
1270.000000	25.468802
1271.000000	25.490938
1272.000000	25.513192
1273.000000	25.534545
1274.000000	25.555225
1275.000000	25.575570
1276.000000	25.594667
1277.000000	25.611420
1278.000000	25.628213
1279.000000	25.645738
1280.000000	25.663610
1281.000000	25.681488
1282.000000	25.699777
1283.000000	25.718023
1284.000000	25.736755
1285.000000	25.755167
1286.000000	25.774200
1287.000000	25.794940
1288.000000	25.815135
1289.000000	25.834988
1290.000000	25.855628
1291.000000	25.876268
1292.000000	25.896540
1293.000000	25.917280
1294.000000	25.937143
1295.000000	25.957060
1296.000000	25.977562
1297.000000	25.997673
1298.000000	26.017980
1299.000000	26.039103
1300.000000	26.060475
1301.000000	26.081495
1302.000000	26.102087
1303.000000	26.121845
1304.000000	26.141990
1305.000000	26.162313
1306.000000	26.181510
1307.000000	26.200003
1308.000000	26.218105
1309.000000	26.234875
1310.000000	26.250045
1311.000000	26.264698
1312.000000	26.278413
1313.000000	26.291525
1314.000000	26.303562
1315.000000	26.313980
1316.000000	26.324130
1317.000000	26.333535
1318.000000	26.340953
1319.000000	26.346270
1320.000000	26.350993
1321.000000	26.354598
1322.000000	26.357700
1323.000000	26.359523
1324.000000	26.360100
1325.000000	26.360195
1326.000000	26.358295
1327.000000	26.355715
1328.000000	26.353325
1329.000000	26.350610
1330.000000	26.346740
1331.000000	26.342045
1332.000000	26.336427
1333.000000	26.329930
1334.000000	26.322985
1335.000000	26.314630
1336.000000	26.305947
1337.000000	26.296030
1338.000000	26.285520
1339.000000	26.275735
1340.000000	26.265393
1341.000000	26.253960
1342.000000	26.242470
1343.000000	26.229780
1344.000000	26.216855
1345.000000	26.203100
1346.000000	26.190193
1347.000000	26.177772
1348.000000	26.162923
1349.000000	26.144912
1350.000000	26.125950
1351.000000	26.105090
1352.000000	26.081948
1353.000000	26.059762
1354.000000	26.038170
1355.000000	26.016175
1356.000000	25.990723
1357.000000	25.961947
1358.000000	25.932938
1359.000000	25.903750
1360.000000	25.877303
1361.000000	25.855917
1362.000000	25.831945
1363.000000	25.805110
1364.000000	25.777368
1365.000000	25.747167
1366.000000	25.715615
1367.000000	25.685953
1368.000000	25.654573
1369.000000	25.619620
1370.000000	25.576680
1371.000000	25.524988
1372.000000	25.466627
1373.000000	25.396455
1374.000000	25.312222
1375.000000	25.219675
1376.000000	25.115995
1377.000000	24.999558
1378.000000	24.874050
1379.000000	24.742708
1380.000000	24.612102
1381.000000	24.486015
1382.000000	24.367090
1383.000000	24.261352
1384.000000	24.163988
1385.000000	24.075945
1386.000000	24.002465
1387.000000	23.945943
1388.000000	23.903140
1389.000000	23.867490
1390.000000	23.837710
1391.000000	23.812058
1392.000000	23.790897
1393.000000	23.770495
1394.000000	23.759930
1395.000000	23.756842
1396.000000	23.750545
1397.000000	23.733305
1398.000000	23.712375
1399.000000	23.699750
1400.000000	23.689403
1401.000000	23.667645
1402.000000	23.636962
1403.000000	23.601257
1404.000000	23.559440
1405.000000	23.507103
1406.000000	23.450610
1407.000000	23.396793
1408.000000	23.340050
1409.000000	23.272733
1410.000000	23.193757
1411.000000	23.114305
1412.000000	23.035927
1413.000000	22.959910
1414.000000	22.881030
1415.000000	22.797557
1416.000000	22.714205
1417.000000	22.631020
1418.000000	22.551630
1419.000000	22.474095
1420.000000	22.397315
1421.000000	22.323712
1422.000000	22.253333
1423.000000	22.181910
1424.000000	22.109710
1425.000000	22.042368
1426.000000	21.979043
1427.000000	21.917533
1428.000000	21.853525
1429.000000	21.790083
1430.000000	21.731948
1431.000000	21.677785
1432.000000	21.624435
1433.000000	21.571698
1434.000000	21.521718
1435.000000	21.474015
1436.000000	21.427785
1437.000000	21.383098
1438.000000	21.340678
1439.000000	21.300738
1440.000000	21.262097
1441.000000	21.224088
1442.000000	21.187890
1443.000000	21.152655
1444.000000	21.119252
1445.000000	21.089700
1446.000000	21.058970
1447.000000	21.025258
1448.000000	20.993672
1449.000000	20.963622
1450.000000	20.934950
1451.000000	20.906985
1452.000000	20.877258
1453.000000	20.849125
1454.000000	20.820828
1455.000000	20.790790
1456.000000	20.762970
1457.000000	20.738582
1458.000000	20.713428
1459.000000	20.686915
1460.000000	20.658832
1461.000000	20.629835
1462.000000	20.604030
1463.000000	20.578302
1464.000000	20.551227
1465.000000	20.525120
1466.000000	20.498935
1467.000000	20.471630
1468.000000	20.443695
1469.000000	20.417717
1470.000000	20.393190
1471.000000	20.368932
1472.000000	20.342575
1473.000000	20.314545
1474.000000	20.288275
1475.000000	20.261033
1476.000000	20.234338
1477.000000	20.210073
1478.000000	20.187078
1479.000000	20.164670
1480.000000	20.142412
1481.000000	20.122550
1482.000000	20.104995
1483.000000	20.089343
1484.000000	20.074753
1485.000000	20.063555
1486.000000	20.053635
1487.000000	20.044100
1488.000000	20.035342
1489.000000	20.026765
1490.000000	20.018962
1491.000000	20.010348
1492.000000	20.003235
1493.000000	19.998577
1494.000000	19.995662
1495.000000	19.992642
1496.000000	19.990445
1497.000000	19.990852
1498.000000	19.994085
1499.000000	19.999318
1500.000000	20.007413
1501.000000	20.018548
1502.000000	20.031552
1503.000000	20.047158
1504.000000	20.064637
1505.000000	20.084103
1506.000000	20.106035
1507.000000	20.129335
1508.000000	20.154553
1509.000000	20.180465
1510.000000	20.207935
1511.000000	20.237088
1512.000000	20.266732
1513.000000	20.296463
1514.000000	20.327832
1515.000000	20.360225
1516.000000	20.392680
1517.000000	20.424465
1518.000000	20.455707
1519.000000	20.489432
1520.000000	20.521875
1521.000000	20.553097
1522.000000	20.584895
1523.000000	20.616875
1524.000000	20.647600
1525.000000	20.677510
1526.000000	20.707593
1527.000000	20.737670
1528.000000	20.766880
1529.000000	20.792985
1530.000000	20.818920
1531.000000	20.845040
1532.000000	20.870468
1533.000000	20.895937
1534.000000	20.921107
1535.000000	20.944863
1536.000000	20.967972
1537.000000	20.990028
1538.000000	21.011910
1539.000000	21.034430
1540.000000	21.056203
1541.000000	21.077400
1542.000000	21.097365
1543.000000	21.115918
1544.000000	21.134135
1545.000000	21.153080
1546.000000	21.172657
1547.000000	21.193478
1548.000000	21.214617
1549.000000	21.235970
1550.000000	21.258378
1551.000000	21.281205
1552.000000	21.304960
1553.000000	21.329890
1554.000000	21.354510
1555.000000	21.378222
1556.000000	21.400935
1557.000000	21.422475
1558.000000	21.443095
1559.000000	21.462295
1560.000000	21.479590
1561.000000	21.494960
1562.000000	21.507940
1563.000000	21.518285
1564.000000	21.527300
1565.000000	21.534985
1566.000000	21.540635
1567.000000	21.544757
1568.000000	21.547655
1569.000000	21.549573
1570.000000	21.551313
1571.000000	21.553172
1572.000000	21.555302
1573.000000	21.557567
1574.000000	21.559970
1575.000000	21.562690
1576.000000	21.565740
1577.000000	21.570168
1578.000000	21.576028
1579.000000	21.583085
1580.000000	21.591268
1581.000000	21.600638
1582.000000	21.610730
1583.000000	21.623053
1584.000000	21.636833
1585.000000	21.652023
1586.000000	21.668768
1587.000000	21.686790
1588.000000	21.705603
1589.000000	21.725585
1590.000000	21.745700
1591.000000	21.766515
1592.000000	21.788405
1593.000000	21.810280
1594.000000	21.833035
1595.000000	21.856730
1596.000000	21.880807
1597.000000	21.905617
1598.000000	21.931432
1599.000000	21.957722
1600.000000	21.985050
1601.000000	22.013130
1602.000000	22.043125
1603.000000	22.073828
1604.000000	22.104707
1605.000000	22.135762
1606.000000	22.167133
1607.000000	22.198340
1608.000000	22.228565
1609.000000	22.257870
1610.000000	22.286623
1611.000000	22.314187
1612.000000	22.340438
1613.000000	22.365547
1614.000000	22.389250
1615.000000	22.412303
1616.000000	22.435803
1617.000000	22.458163
1618.000000	22.479365
1619.000000	22.500240
1620.000000	22.520733
1621.000000	22.540183
1622.000000	22.559795
1623.000000	22.578868
1624.000000	22.598225
1625.000000	22.616587
1626.000000	22.633542
1627.000000	22.650230
1628.000000	22.667792
1629.000000	22.685012
1630.000000	22.702212
1631.000000	22.718870
1632.000000	22.734533
1633.000000	22.749672
1634.000000	22.762830
1635.000000	22.775815
1636.000000	22.789130
1637.000000	22.801600
1638.000000	22.811042
1639.000000	22.818675
1640.000000	22.824050
1641.000000	22.829465
1642.000000	22.832910
1643.000000	22.835468
1644.000000	22.837255
1645.000000	22.837477
1646.000000	22.835065
1647.000000	22.831470
1648.000000	22.827258
1649.000000	22.820988
1650.000000	22.813945
1651.000000	22.803390
1652.000000	22.791820
1653.000000	22.776817
1654.000000	22.760278
1655.000000	22.739648
1656.000000	22.717227
1657.000000	22.689840
1658.000000	22.660225
1659.000000	22.628808
1660.000000	22.594385
1661.000000	22.558780
1662.000000	22.520117
1663.000000	22.479948
1664.000000	22.438150
1665.000000	22.395435
1666.000000	22.352138
1667.000000	22.310643
1668.000000	22.264415
1669.000000	22.218225
1670.000000	22.169505
1671.000000	22.119793
1672.000000	22.070020
1673.000000	22.020585
1674.000000	21.969902
1675.000000	21.919895
1676.000000	21.869235
1677.000000	21.816365
1678.000000	21.767740
1679.000000	21.717518
1680.000000	21.669430
1681.000000	21.619390
1682.000000	21.567350
1683.000000	21.513660
1684.000000	21.460258
1685.000000	21.409782
1686.000000	21.361235
1687.000000	21.317105
1688.000000	21.276447
1689.000000	21.241530
1690.000000	21.213275
1691.000000	21.194490
1692.000000	21.185060
1693.000000	21.183765
1694.000000	21.187248
1695.000000	21.194493
1696.000000	21.203247
1697.000000	21.212435
1698.000000	21.222142
1699.000000	21.231892
1700.000000	21.236655
1701.000000	21.236920
1702.000000	21.232932
1703.000000	21.223605
1704.000000	21.211958
1705.000000	21.194273
1706.000000	21.175705
1707.000000	21.152660
1708.000000	21.126430
1709.000000	21.095290
1710.000000	21.061720
1711.000000	21.024743
1712.000000	20.983138
1713.000000	20.938470
1714.000000	20.888977
1715.000000	20.836145
1716.000000	20.776685
1717.000000	20.715193
1718.000000	20.650780
1719.000000	20.584523
1720.000000	20.517930
1721.000000	20.451957
1722.000000	20.387692
1723.000000	20.327850
1724.000000	20.273592
1725.000000	20.226803
1726.000000	20.187143
1727.000000	20.153830
1728.000000	20.127788
1729.000000	20.108763
1730.000000	20.096443
1731.000000	20.091680
1732.000000	20.096590
1733.000000	20.106568
1734.000000	20.122177
1735.000000	20.141675
1736.000000	20.165485
1737.000000	20.195040
1738.000000	20.227847
1739.000000	20.263872
1740.000000	20.303667
1741.000000	20.345210
1742.000000	20.384242
1743.000000	20.424077
1744.000000	20.463490
1745.000000	20.502000
1746.000000	20.541120
1747.000000	20.579605
1748.000000	20.614525
1749.000000	20.646560
1750.000000	20.675410
1751.000000	20.701407
1752.000000	20.724263
1753.000000	20.743098
1754.000000	20.757113
1755.000000	20.769550
1756.000000	20.779078
1757.000000	20.785003
1758.000000	20.790615
1759.000000	20.796295
1760.000000	20.800365
1761.000000	20.802817
1762.000000	20.804693
1763.000000	20.807210
1764.000000	20.813387
1765.000000	20.819775
1766.000000	20.827445
1767.000000	20.837305
1768.000000	20.849035
1769.000000	20.862973
1770.000000	20.879287
1771.000000	20.896913
1772.000000	20.916905
1773.000000	20.938022
1774.000000	20.958495
1775.000000	20.979698
1776.000000	21.000493
1777.000000	21.021490
1778.000000	21.042760
1779.000000	21.062365
1780.000000	21.080872
1781.000000	21.098818
1782.000000	21.116435
1783.000000	21.134140
1784.000000	21.150585
1785.000000	21.165960
1786.000000	21.179818
1787.000000	21.190617
1788.000000	21.198632
1789.000000	21.205295
1790.000000	21.211200
1791.000000	21.217532
1792.000000	21.222978
1793.000000	21.227430
1794.000000	21.233490
1795.000000	21.239750
1796.000000	21.245580
1797.000000	21.251038
1798.000000	21.257798
1799.000000	21.265865
1800.000000	21.275697
1801.000000	21.287102
1802.000000	21.298670
1803.000000	21.309358
1804.000000	21.319420
1805.000000	21.330515
1806.000000	21.344095
1807.000000	21.359220
1808.000000	21.372090
1809.000000	21.384358
1810.000000	21.396648
1811.000000	21.407070
1812.000000	21.417578
1813.000000	21.429392
1814.000000	21.440528
1815.000000	21.448800
1816.000000	21.453097
1817.000000	21.452738
1818.000000	21.452290
1819.000000	21.456925
1820.000000	21.466537
1821.000000	21.479463
1822.000000	21.488238
1823.000000	21.489845
1824.000000	21.489580
1825.000000	21.491818
1826.000000	21.497695
1827.000000	21.509697
1828.000000	21.523865
1829.000000	21.534365
1830.000000	21.541808
1831.000000	21.544395
1832.000000	21.546003
1833.000000	21.552362
1834.000000	21.561535
1835.000000	21.573203
1836.000000	21.587135
1837.000000	21.600405
1838.000000	21.613745
1839.000000	21.628202
1840.000000	21.642537
1841.000000	21.662970
1842.000000	21.686912
1843.000000	21.704507
1844.000000	21.712148
1845.000000	21.713477
1846.000000	21.719362
1847.000000	21.734245
1848.000000	21.753997
1849.000000	21.765477
1850.000000	21.763925
1851.000000	21.754632
1852.000000	21.747560
1853.000000	21.750417
1854.000000	21.761608
1855.000000	21.773672
1856.000000	21.775150
1857.000000	21.766540
1858.000000	21.754715
1859.000000	21.749572
1860.000000	21.750273
1861.000000	21.753773
1862.000000	21.748285
1863.000000	21.731695
1864.000000	21.708577
1865.000000	21.678207
1866.000000	21.645293
1867.000000	21.605103
1868.000000	21.557968
1869.000000	21.505970
1870.000000	21.455678
1871.000000	21.398390
1872.000000	21.342670
1873.000000	21.288762
1874.000000	21.231893
1875.000000	21.173193
1876.000000	21.107778
1877.000000	21.036017
1878.000000	20.953925
1879.000000	20.862885
1880.000000	20.758195
1881.000000	20.645105
1882.000000	20.526393
1883.000000	20.401578
1884.000000	20.272705
1885.000000	20.136207
1886.000000	19.993243
1887.000000	19.841395
1888.000000	19.683598
1889.000000	19.520038
1890.000000	19.352452
1891.000000	19.178377
1892.000000	18.996092
1893.000000	18.802757
1894.000000	18.596595
1895.000000	18.380640
1896.000000	18.157505
1897.000000	17.931338
1898.000000	17.707562
1899.000000	17.478757
1900.000000	17.242197
1901.000000	17.004390
1902.000000	16.765007
1903.000000	16.525005
1904.000000	16.294117
1905.000000	16.071568
1906.000000	15.852200
1907.000000	15.638370
1908.000000	15.425293
1909.000000	15.215110
1910.000000	15.015017
1911.000000	14.826022
1912.000000	14.646522
1913.000000	14.483152
1914.000000	14.323827
1915.000000	14.168500
1916.000000	14.022490
1917.000000	13.884120
1918.000000	13.752125
1919.000000	13.636250
1920.000000	13.532260
1921.000000	13.431537
1922.000000	13.340037
1923.000000	13.247585
1924.000000	13.161828
1925.000000	13.084805
1926.000000	13.016512
1927.000000	12.956333
1928.000000	12.909173
1929.000000	12.862703
1930.000000	12.821335
1931.000000	12.782608
1932.000000	12.747027
1933.000000	12.719630
1934.000000	12.697605
1935.000000	12.685825
1936.000000	12.679340
1937.000000	12.673742
1938.000000	12.669575
1939.000000	12.671445
1940.000000	12.673335
1941.000000	12.683657
1942.000000	12.696752
1943.000000	12.716755
1944.000000	12.740748
1945.000000	12.762045
1946.000000	12.787403
1947.000000	12.816993
1948.000000	12.846415
1949.000000	12.879585
1950.000000	12.915095
1951.000000	12.950638
1952.000000	12.990017
1953.000000	13.027480
1954.000000	13.070715
1955.000000	13.114385
1956.000000	13.154105
1957.000000	13.198535
1958.000000	13.245648
1959.000000	13.290913
1960.000000	13.338435
1961.000000	13.389400
1962.000000	13.436507
1963.000000	13.483990
1964.000000	13.527560
1965.000000	13.573827
1966.000000	13.621340
1967.000000	13.669455
1968.000000	13.714478
1969.000000	13.761600
1970.000000	13.806603
1971.000000	13.848045
1972.000000	13.893470
1973.000000	13.941153
1974.000000	13.986128
1975.000000	14.032868
1976.000000	14.081060
1977.000000	14.124240
1978.000000	14.169608
1979.000000	14.213965
1980.000000	14.259570
1981.000000	14.308250
1982.000000	14.355828
1983.000000	14.402383
1984.000000	14.449590
1985.000000	14.495657
1986.000000	14.543057
1987.000000	14.594080
1988.000000	14.643445
1989.000000	14.692192
1990.000000	14.741665
1991.000000	14.790948
1992.000000	14.837082
1993.000000	14.879428
1994.000000	14.923167
1995.000000	14.966700
1996.000000	15.007962
1997.000000	15.044087
1998.000000	15.081428
1999.000000	15.116590
2000.000000	15.149142
2001.000000	15.178852
2002.000000	15.208950
2003.000000	15.239657
2004.000000	15.268345
2005.000000	15.293785
2006.000000	15.314892
2007.000000	15.337380
2008.000000	15.356185
2009.000000	15.371678
2010.000000	15.382192
2011.000000	15.391567
2012.000000	15.397438
2013.000000	15.401580
2014.000000	15.403330
2015.000000	15.399605
2016.000000	15.393100
2017.000000	15.386995
2018.000000	15.377815
2019.000000	15.362987
2020.000000	15.347575
2021.000000	15.326705
2022.000000	15.302198
2023.000000	15.276680
2024.000000	15.246235
2025.000000	15.217415
2026.000000	15.188790
2027.000000	15.152087
2028.000000	15.114917
2029.000000	15.076192
2030.000000	15.034377
2031.000000	14.989217
2032.000000	14.939327
2033.000000	14.883880
2034.000000	14.829210
2035.000000	14.772910
2036.000000	14.711520
2037.000000	14.646383
2038.000000	14.576497
2039.000000	14.506385
2040.000000	14.434158
2041.000000	14.363923
2042.000000	14.298087
2043.000000	14.233085
2044.000000	14.163618
2045.000000	14.090215
2046.000000	14.019160
2047.000000	13.953440
2048.000000	13.889600
2049.000000	13.827230
2050.000000	13.766575
2051.000000	13.708673
2052.000000	13.653913
2053.000000	13.601112
2054.000000	13.553418
2055.000000	13.514292
2056.000000	13.485273
2057.000000	13.461842
2058.000000	13.445818
2059.000000	13.439680
2060.000000	13.440930
2061.000000	13.445075
2062.000000	13.454303
2063.000000	13.472593
2064.000000	13.496995
2065.000000	13.524475
2066.000000	13.552630
2067.000000	13.581690
2068.000000	13.614030
2069.000000	13.645208
2070.000000	13.676805
2071.000000	13.712965
2072.000000	13.748933
2073.000000	13.779985
2074.000000	13.809790
2075.000000	13.842548
2076.000000	13.872172
2077.000000	13.900733
2078.000000	13.926575
2079.000000	13.951520
2080.000000	13.973538
2081.000000	13.991875
2082.000000	14.007167
2083.000000	14.021855
2084.000000	14.035040
2085.000000	14.037102
2086.000000	14.035255
2087.000000	14.035312
2088.000000	14.034840
2089.000000	14.034070
2090.000000	14.034435
2091.000000	14.036618
2092.000000	14.036342
2093.000000	14.032068
2094.000000	14.025515
2095.000000	14.019833
2096.000000	14.017615
2097.000000	14.013800
2098.000000	14.012525
2099.000000	14.007378
2100.000000	13.997510
2101.000000	13.986163
2102.000000	13.977232
2103.000000	13.978980
2104.000000	13.983935
2105.000000	13.989410
2106.000000	13.990795
2107.000000	13.983810
2108.000000	13.974822
2109.000000	13.974510
2110.000000	13.978442
2111.000000	13.981660
2112.000000	13.978825
2113.000000	13.969760
2114.000000	13.959635
2115.000000	13.946887
2116.000000	13.939583
2117.000000	13.932410
2118.000000	13.923478
2119.000000	13.908243
2120.000000	13.896195
2121.000000	13.886280
2122.000000	13.875923
2123.000000	13.859958
2124.000000	13.848415
2125.000000	13.837053
2126.000000	13.816695
2127.000000	13.802125
2128.000000	13.790730
2129.000000	13.773345
2130.000000	13.758160
2131.000000	13.736718
2132.000000	13.714423
2133.000000	13.686455
2134.000000	13.660920
2135.000000	13.626935
2136.000000	13.600238
2137.000000	13.573153
2138.000000	13.546017
2139.000000	13.519855
2140.000000	13.482418
2141.000000	13.447965
2142.000000	13.413365
2143.000000	13.383218
2144.000000	13.339703
2145.000000	13.310980
2146.000000	13.272810
2147.000000	13.233782
2148.000000	13.181795
2149.000000	13.130830
2150.000000	13.076865
2151.000000	13.026447
2152.000000	12.968782
2153.000000	12.924110
2154.000000	12.884375
2155.000000	12.842955
2156.000000	12.805867
2157.000000	12.767703
2158.000000	12.726775
2159.000000	12.686447
2160.000000	12.651255
2161.000000	12.617358
2162.000000	12.591755
2163.000000	12.562390
2164.000000	12.536225
2165.000000	12.496082
2166.000000	12.467455
2167.000000	12.445187
2168.000000	12.426530
2169.000000	12.413055
2170.000000	12.406375
2171.000000	12.393450
2172.000000	12.379217
2173.000000	12.364853
2174.000000	12.349998
2175.000000	12.348457
2176.000000	12.339372
2177.000000	12.331265
2178.000000	12.326860
2179.000000	12.327022
2180.000000	12.317410
2181.000000	12.305140
2182.000000	12.298678
2183.000000	12.280312
2184.000000	12.267993
2185.000000	12.248938
2186.000000	12.233017
2187.000000	12.218580
2188.000000	12.194558
2189.000000	12.163620
2190.000000	12.125792
2191.000000	12.095322
2192.000000	12.054552
2193.000000	12.017802
2194.000000	11.969162
2195.000000	11.925915
2196.000000	11.878132
2197.000000	11.815778
2198.000000	11.761135
2199.000000	11.706930
2200.000000	11.658405
2201.000000	11.596887
2202.000000	11.543487
2203.000000	11.486835
2204.000000	11.437707
2205.000000	11.385630
2206.000000	11.333465
2207.000000	11.293265
2208.000000	11.259483
2209.000000	11.234713
2210.000000	11.217160
2211.000000	11.210790
2212.000000	11.207015
2213.000000	11.201925
2214.000000	11.208690
2215.000000	11.220680
2216.000000	11.240865
2217.000000	11.272997
2218.000000	11.295765
2219.000000	11.323785
2220.000000	11.355715
2221.000000	11.395408
2222.000000	11.438023
2223.000000	11.491083
2224.000000	11.531047
2225.000000	11.573175
2226.000000	11.609015
2227.000000	11.645433
2228.000000	11.688873
2229.000000	11.708132
2230.000000	11.735233
2231.000000	11.746260
2232.000000	11.755895
2233.000000	11.765832
2234.000000	11.784232
2235.000000	11.803862
2236.000000	11.805625
2237.000000	11.799190
2238.000000	11.787117
2239.000000	11.783558
2240.000000	11.766310
2241.000000	11.757165
2242.000000	11.736057
2243.000000	11.711617
2244.000000	11.672615
2245.000000	11.622298
2246.000000	11.583780
2247.000000	11.530802
2248.000000	11.490450
2249.000000	11.442652
2250.000000	11.392655
2251.000000	11.330527
2252.000000	11.286008
2253.000000	11.230867
2254.000000	11.179022
2255.000000	11.125947
2256.000000	11.074840
2257.000000	11.028480
2258.000000	10.974123
2259.000000	10.916030
2260.000000	10.864138
2261.000000	10.822222
2262.000000	10.774515
2263.000000	10.734143
2264.000000	10.691678
2265.000000	10.656972
2266.000000	10.633680
2267.000000	10.617115
2268.000000	10.595985
2269.000000	10.590415
2270.000000	10.580185
2271.000000	10.581292
2272.000000	10.586890
2273.000000	10.590878
2274.000000	10.594997
2275.000000	10.608878
2276.000000	10.613685
2277.000000	10.603542
2278.000000	10.615880
2279.000000	10.630770
2280.000000	10.651260
2281.000000	10.656573
2282.000000	10.653525
2283.000000	10.667162
2284.000000	10.686038
2285.000000	10.693940
2286.000000	10.697660
2287.000000	10.718913
2288.000000	10.726975
2289.000000	10.726105
2290.000000	10.723677
2291.000000	10.732857
2292.000000	10.738180
2293.000000	10.729640
2294.000000	10.732505
2295.000000	10.749028
2296.000000	10.757972
2297.000000	10.757082
2298.000000	10.755655
2299.000000	10.761975
2300.000000	10.772205
2301.000000	10.772068
2302.000000	10.774845
2303.000000	10.787027
2304.000000	10.795072
2305.000000	10.784120
2306.000000	10.786407
2307.000000	10.790347
2308.000000	10.793735
2309.000000	10.793917
2310.000000	10.804457
2311.000000	10.821867
2312.000000	10.847580
2313.000000	10.870262
2314.000000	10.881087
2315.000000	10.890620
2316.000000	10.906930
2317.000000	10.930305
2318.000000	10.957865
2319.000000	10.990503
2320.000000	10.996087
2321.000000	11.000985
2322.000000	11.010665
2323.000000	11.016542
2324.000000	11.026295
2325.000000	11.050740
2326.000000	11.065383
2327.000000	11.079580
2328.000000	11.093340
2329.000000	11.105813
2330.000000	11.128220
2331.000000	11.141900
2332.000000	11.143108
2333.000000	11.140287
2334.000000	11.147143
2335.000000	11.153790
2336.000000	11.159813
2337.000000	11.157048
2338.000000	11.150735
2339.000000	11.146307
2340.000000	11.150938
2341.000000	11.161008
2342.000000	11.176552
2343.000000	11.199632
2344.000000	11.201737
2345.000000	11.210413
2346.000000	11.226350
2347.000000	11.244115
2348.000000	11.260333
2349.000000	11.275483
2350.000000	11.284675
2351.000000	11.295897
2352.000000	11.306667
2353.000000	11.319250
2354.000000	11.344613
2355.000000	11.353302
2356.000000	11.372803
2357.000000	11.400102
2358.000000	11.435422
2359.000000	11.458118
2360.000000	11.479317
2361.000000	11.511325
2362.000000	11.545157
2363.000000	11.577372
2364.000000	11.601142
2365.000000	11.622345
2366.000000	11.635972
2367.000000	11.645870
2368.000000	11.640378
2369.000000	11.659213
2370.000000	11.678772
2371.000000	11.690738
2372.000000	11.707230
2373.000000	11.724132
2374.000000	11.743787
2375.000000	11.765928
2376.000000	11.790167
2377.000000	11.809995
2378.000000	11.832282
2379.000000	11.841193
2380.000000	11.841568
2381.000000	11.844923
2382.000000	11.841632
2383.000000	11.835892
2384.000000	11.832382
2385.000000	11.834960
2386.000000	11.832220
2387.000000	11.817815
2388.000000	11.822107
2389.000000	11.839400
2390.000000	11.855940
2391.000000	11.860252
2392.000000	11.863227
2393.000000	11.873163
2394.000000	11.883647
2395.000000	11.882077
2396.000000	11.869998
2397.000000	11.869955
2398.000000	11.867583
2399.000000	11.864862
2400.000000	11.882870
2401.000000	11.885108
2402.000000	11.883475
2403.000000	11.879528
2404.000000	11.878545
2405.000000	11.893852
2406.000000	11.914520
2407.000000	11.925543
2408.000000	11.932815
2409.000000	11.906268
2410.000000	11.899468
2411.000000	11.901180
2412.000000	11.912353
2413.000000	11.881407
2414.000000	11.864370
2415.000000	11.849195
2416.000000	11.822213
2417.000000	11.824953
2418.000000	11.824732
2419.000000	11.826833
2420.000000	11.815415
2421.000000	11.793902
2422.000000	11.737035
2423.000000	11.729210
2424.000000	11.714700
2425.000000	11.704007
2426.000000	11.682145
2427.000000	11.647795
2428.000000	11.573887
2429.000000	11.537108
2430.000000	11.490730
2431.000000	11.468035
2432.000000	11.458618
2433.000000	11.425037
2434.000000	11.387150
2435.000000	11.344553
2436.000000	11.321207
2437.000000	11.274452
2438.000000	11.248325
2439.000000	11.206037
2440.000000	11.168355
2441.000000	11.138840
2442.000000	11.118582
2443.000000	11.128127
2444.000000	11.087557
2445.000000	11.085095
2446.000000	11.079740
2447.000000	11.099120
2448.000000	11.091243
2449.000000	11.059905
2450.000000	11.012742
2451.000000	10.996853
2452.000000	10.977563
2453.000000	10.950593
2454.000000	10.923175
2455.000000	10.877080
2456.000000	10.815610
2457.000000	10.746545
2458.000000	10.703345
2459.000000	10.688047
2460.000000	10.709095
2461.000000	10.657365
2462.000000	10.659330
2463.000000	10.646500
2464.000000	10.718267
2465.000000	10.765170
2466.000000	10.855580
2467.000000	10.923082
2468.000000	11.043212
2469.000000	11.174425
2470.000000	11.217453
2471.000000	11.320317
2472.000000	11.368315
2473.000000	11.450980
2474.000000	11.512715
2475.000000	11.583505
2476.000000	11.646598
2477.000000	11.752828
2478.000000	11.827990
2479.000000	11.853605
2480.000000	12.003812
2481.000000	12.150948
2482.000000	12.314350
2483.000000	12.427590
2484.000000	12.521128
2485.000000	12.726090
2486.000000	12.901325
2487.000000	13.021495
2488.000000	13.113677
2489.000000	13.258947
2490.000000	13.422208
2491.000000	13.524065
2492.000000	13.704298
2493.000000	13.846298
2494.000000	14.070738
2495.000000	14.161088
2496.000000	14.346152
2497.000000	14.583705
2498.000000	14.800220
2499.000000	15.059680
2500.000000	15.221695
2501.000000	18.632237
2502.000000	22.270022
2503.000000	26.094500
2504.000000	29.748950
2505.000000	33.559758
2506.000000	37.248295
2507.000000	41.325140
2508.000000	45.069992
2509.000000	49.012582
2510.000000	53.238220
2511.000000	54.245890
2512.000000	54.967890
2513.000000	55.716420
2514.000000	56.798020
2515.000000	58.034400
2516.000000	58.831090
2517.000000	59.727490
2518.000000	61.046210
2519.000000	62.091890
2520.000000	63.260890
2521.000000	64.441650
2522.000000	65.329570
2523.000000	65.939380
2524.000000	66.265260
2525.000000	66.146640
2526.000000	66.897530
2527.000000	67.373820
2528.000000	68.038920
2529.000000	69.321400
2530.000000	70.093940
2531.000000	70.632560
2532.000000	71.629380
2533.000000	72.665560
2534.000000	74.104100
2535.000000	76.298050
2536.000000	77.336560
2537.000000	78.118780
2538.000000	78.602730
2539.000000	78.676710
2540.000000	79.189600
2541.000000	80.071800
2542.000000	80.435570
2543.000000	81.314230
2544.000000	81.699260
2545.000000	81.305550
2546.000000	81.656350
2547.000000	82.332560
2548.000000	83.598880
2549.000000	84.494420
2550.000000	84.833290
2551.000000	84.998850
2552.000000	85.617890
2553.000000	86.203720
2554.000000	86.967900
2555.000000	87.760790
2556.000000	88.668970
2557.000000	88.816360
2558.000000	88.552610
2559.000000	88.585450
2560.000000	89.310760
2561.000000	89.972210
2562.000000	90.546180
2563.000000	90.940340
2564.000000	91.283510
2565.000000	91.904990
2566.000000	92.591340
2567.000000	93.373960
2568.000000	93.907340
2569.000000	94.347210
2570.000000	94.957220
2571.000000	95.848150
2572.000000	96.474360
2573.000000	96.836220
2574.000000	96.885050
2575.000000	97.094770
2576.000000	97.274910
2577.000000	97.062480
2578.000000	97.172770
2579.000000	97.500240
2580.000000	97.378980
2581.000000	96.616030
2582.000000	96.139090
2583.000000	96.394080
2584.000000	96.686730
2585.000000	96.605120
2586.000000	96.451690
2587.000000	96.773060
2588.000000	96.242690
2589.000000	95.371410
2590.000000	94.419400
2591.000000	94.265670
2592.000000	94.563250
2593.000000	94.209800
2594.000000	93.795880
2595.000000	93.385780
2596.000000	92.998500
2597.000000	93.205600
2598.000000	94.251500
2599.000000	95.474370
2600.000000	97.073110
2601.000000	98.152200
2602.000000	98.092570
2603.000000	98.094830
2604.000000	98.951300
2605.000000	100.086090
2606.000000	100.594760
2607.000000	101.038980
2608.000000	101.517990
2609.000000	101.427150
2610.000000	100.959550
2611.000000	100.396770
2612.000000	100.431670
2613.000000	100.751040
2614.000000	100.541200
2615.000000	99.946430
2616.000000	99.823350
2617.000000	99.288700
2618.000000	98.581560
2619.000000	98.151550
2620.000000	97.708000
2621.000000	97.719030
2622.000000	97.784770
2623.000000	98.035730
2624.000000	98.671740
2625.000000	98.891090
2626.000000	98.950110
2627.000000	99.207430
2628.000000	99.855820
2629.000000	100.986440
2630.000000	101.543800
2631.000000	101.341540
2632.000000	100.688050
2633.000000	99.852860
2634.000000	98.954850
2635.000000	98.764900
2636.000000	98.657590
2637.000000	99.014990
2638.000000	99.371000
2639.000000	99.132360
2640.000000	98.378850
2641.000000	97.999330
2642.000000	98.324840
2643.000000	98.879470
2644.000000	99.698830
2645.000000	99.589410
2646.000000	99.257370
2647.000000	98.708330
2648.000000	97.958360
2649.000000	97.369220
2650.000000	97.266630
2651.000000	98.250150
2652.000000	99.381490
2653.000000	99.762830
2654.000000	99.631330
2655.000000	100.758810
2656.000000	101.923600
2657.000000	101.855210
2658.000000	101.065450
2659.000000	101.303800
2660.000000	102.452440
2661.000000	102.024760
2662.000000	100.650390
2663.000000	99.846370
2664.000000	99.535280
2665.000000	99.017430
2666.000000	99.076260
2667.000000	99.108080
2668.000000	100.051270
2669.000000	99.986680
2670.000000	99.526250
2671.000000	100.469220
2672.000000	101.906650
2673.000000	102.698190
2674.000000	102.477730
2675.000000	102.698770
2676.000000	103.115970
2677.000000	103.835430
2678.000000	104.251970
2679.000000	103.388800
2680.000000	103.296380
2681.000000	102.324510
2682.000000	102.101250
2683.000000	101.796300
2684.000000	101.549980
2685.000000	100.397320
2686.000000	99.075540
2687.000000	98.489040
2688.000000	98.089150
2689.000000	100.371800
2690.000000	101.218520
2691.000000	101.282990
2692.000000	101.229930
2693.000000	101.800910
2694.000000	102.191670
2695.000000	102.562440
2696.000000	102.350720
2697.000000	103.322620
2698.000000	103.504180
2699.000000	101.998920
2700.000000	102.150090
2701.000000	102.832490
2702.000000	101.584150
2703.000000	100.923910
2704.000000	101.173110
2705.000000	101.024840
2706.000000	101.806010
2707.000000	101.623260
2708.000000	101.058370
2709.000000	101.149420
2710.000000	99.930610
2711.000000	99.290980
2712.000000	99.601260
2713.000000	99.158280
2714.000000	99.330280
2715.000000	100.148460
2716.000000	100.194260
2717.000000	100.198920
2718.000000	100.508370
2719.000000	100.376680
2720.000000	101.901520
2721.000000	102.334410
2722.000000	101.628330
2723.000000	102.147900
2724.000000	101.803130
2725.000000	100.804160
2726.000000	100.254450
2727.000000	99.113380
2728.000000	99.058970
2729.000000	98.099130
2730.000000	97.089400
2731.000000	97.752520
2732.000000	99.994430
2733.000000	100.087280
2734.000000	100.091340
2735.000000	99.830450
2736.000000	99.818040
2737.000000	100.002480
2738.000000	99.823140
2739.000000	99.709760
2740.000000	100.403220
2741.000000	98.489550
2742.000000	98.152660
2743.000000	98.532640
2744.000000	98.666100
2745.000000	98.262470
2746.000000	98.251540
2747.000000	98.306440
2748.000000	100.057750
2749.000000	101.487900
2750.000000	101.172050
2751.000000	102.540810
2752.000000	101.532050
2753.000000	100.651110
2754.000000	101.184480
2755.000000	102.686460
2756.000000	102.693430
2757.000000	102.833380
2758.000000	102.183330
2759.000000	102.823090
2760.000000	102.482880
2761.000000	102.108070
2762.000000	102.382510
2763.000000	103.438030
2764.000000	102.264910
2765.000000	101.960710
2766.000000	101.251350
2767.000000	101.518860
2768.000000	100.140440
2769.000000	99.754840
2770.000000	98.779710
2771.000000	98.320730
2772.000000	98.562150
2773.000000	97.597660
2774.000000	98.504950
2775.000000	97.918230
2776.000000	99.410980
2777.000000	99.753940
2778.000000	100.135070
2779.000000	100.005770
2780.000000	100.313890
2781.000000	100.305340
2782.000000	100.030780
2783.000000	100.558870
2784.000000	100.594170
2785.000000	100.746220
2786.000000	99.848360
2787.000000	99.392770
2788.000000	99.430450
2789.000000	98.838040
2790.000000	99.038600
2791.000000	99.363470
2792.000000	99.108230
2793.000000	99.792190
2794.000000	99.798740
2795.000000	99.732680
2796.000000	99.761570
2797.000000	100.357630
2798.000000	100.381000
2799.000000	100.116010
2800.000000	100.918220
2801.000000	102.300530
2802.000000	102.839370
2803.000000	101.687220
2804.000000	101.619100
2805.000000	102.089660
2806.000000	103.285530
2807.000000	102.423600
2808.000000	101.832460
2809.000000	101.664550
2810.000000	101.494490
2811.000000	100.573660
2812.000000	100.318260
2813.000000	101.201100
2814.000000	101.067690
2815.000000	100.771220
2816.000000	99.309770
2817.000000	98.784900
2818.000000	98.982620
2819.000000	99.557400
2820.000000	98.762690
2821.000000	98.033780
2822.000000	97.781300
2823.000000	96.906700
2824.000000	96.473080
2825.000000	96.662520
2826.000000	96.928230
2827.000000	97.304860
2828.000000	97.802690
2829.000000	98.475070
2830.000000	98.757040
2831.000000	98.889410
2832.000000	98.726060
2833.000000	98.709790
2834.000000	98.071410
2835.000000	97.600630
2836.000000	98.276280
2837.000000	99.280200
2838.000000	99.398750
2839.000000	98.907340
2840.000000	99.269890
2841.000000	99.869580
2842.000000	100.693120
2843.000000	100.147420
2844.000000	100.048230
2845.000000	99.888530
2846.000000	99.310590
2847.000000	98.081550
2848.000000	97.585140
2849.000000	97.733290
2850.000000	97.030310
2851.000000	96.277080
2852.000000	95.885040
2853.000000	96.346620
2854.000000	96.818250
2855.000000	97.247650
2856.000000	97.288230
2857.000000	97.797040
2858.000000	97.832800
2859.000000	97.396370
2860.000000	98.068720
2861.000000	98.329920
2862.000000	97.952280
2863.000000	98.219260
2864.000000	98.663770
2865.000000	99.673080
2866.000000	100.407420
2867.000000	100.147180
2868.000000	99.855430
2869.000000	99.977040
2870.000000	99.544800
2871.000000	99.737760
2872.000000	100.629770
2873.000000	100.556600
2874.000000	99.667410
2875.000000	98.419060
2876.000000	98.253570
2877.000000	98.646050
2878.000000	98.457270
2879.000000	97.376210
2880.000000	96.239260
2881.000000	95.867080
2882.000000	95.434030
2883.000000	95.668140
2884.000000	96.171420
2885.000000	96.959090
2886.000000	96.856180
2887.000000	96.375620
2888.000000	97.040210
2889.000000	96.854630
2890.000000	97.130010
2891.000000	97.136020
2892.000000	97.252540
2893.000000	97.735040
2894.000000	97.735860
2895.000000	96.525220
2896.000000	95.136230
2897.000000	95.366910
2898.000000	95.571320
2899.000000	98.188120
2900.000000	99.338700
2901.000000	98.092920
2902.000000	97.531760
2903.000000	96.655080
2904.000000	95.841210
2905.000000	95.986820
2906.000000	96.368580
2907.000000	95.329410
2908.000000	94.008940
2909.000000	92.815340
2910.000000	92.223850
2911.000000	92.068090
2912.000000	92.176310
2913.000000	93.467320
2914.000000	95.206140
2915.000000	95.899850
2916.000000	95.603480
2917.000000	95.469960
2918.000000	95.020510
2919.000000	93.939160
2920.000000	91.712440
2921.000000	92.358970
2922.000000	92.433720
2923.000000	89.691250
2924.000000	87.448190
2925.000000	86.291900
2926.000000	86.059140
2927.000000	85.704640
2928.000000	85.764980
2929.000000	83.744930
2930.000000	84.865020
2931.000000	85.131270
2932.000000	83.639610
2933.000000	80.827630
2934.000000	77.613270
2935.000000	72.476550
2936.000000	64.377090
2937.000000	64.382200
2938.000000	65.766410
2939.000000	66.351980
2940.000000	65.523580
2941.000000	65.394960
2942.000000	67.034290
2943.000000	67.350710
2944.000000	68.319270
2945.000000	73.243790
2946.000000	80.601540
2947.000000	78.508900
2948.000000	69.860820
2949.000000	63.666940
2950.000000	61.840120
2951.000000	29.715200
2952.000000	19.865110
2953.000000	9.832760
2954.000000	9.222500
2955.000000	15.895710
2956.000000	13.833800
2957.000000	-8.093880
2958.000000	-8.352360
2959.000000	-0.486430
2960.000000	12.211310
2961.000000	56.705540
2962.000000	76.860200
2963.000000	93.918630
2964.000000	98.536160
2965.000000	93.322030
2966.000000	105.946130
2967.000000	136.990380
2968.000000	147.769250
2969.000000	152.233000
2970.000000	150.415200
2971.000000	151.965830
2972.000000	146.297850
2973.000000	148.238590
2974.000000	150.017710
2975.000000	151.607490
2976.000000	141.195560
2977.000000	136.801380
2978.000000	133.723270
2979.000000	133.473520
2980.000000	127.230210
2981.000000	114.660180
2982.000000	110.647470
2983.000000	106.642690
2984.000000	107.518070
2985.000000	108.062030
2986.000000	110.269000
2987.000000	110.099130
2988.000000	110.954170
2989.000000	107.744840
2990.000000	109.977450
2991.000000	110.002640
2992.000000	110.162790
2993.000000	110.216240
2994.000000	108.345120
2995.000000	106.849990
2996.000000	107.229050
2997.000000	107.109140
2998.000000	108.409850
2999.000000	109.511820
3000.000000	109.193520
