PE UV       SUBTECH     SPECTRUM    ASCII       PEDS        4.00        
   -1
INBUCR0141-4.Sample.ASC
24/02/07
14:58:22.00
24/02/07
14:58:22.00
Vinicio Soto Monge
Color café con ambos élitros. Pelidnota laevissima. Det: A. Solís. Finca Cafrosa, Embalce, 800 m NO. de Tigra, Puntarenas, Costa Rica. 1280 m. 10-26 MAR 1996. E. Navarro, de Luz L_S_317800_596200 #7488. INBIOCRI002382849
250,000000
1
Lambda 1050
1050L1511233
PerkinElmer UV WinLab 6.3.2.0749 / 2.02.05 Lambda 900 UV/VIS/NIR, Aug  7 2015 09:38:08

0
0
3350/servo 860,8/2
0
0
UV/VIS
1
1
1
DoubleDePol,CommonBeamDepol,RBeamAtt,SBeamAtt,60mm sphere, WB InGaAs Detector
0
0
0
0
Program
Program
3350/servo 860,8/2
3350/0,2 860,8/0,2
3350/0,2 860,8/0,2
0
15.00
 
 
 
0
 
860,8
319,2
860,8
Front
100
on
S:100 R:100
0
0
0
0
 
0
 
 
 
0
 
 
0
0
0
0
0
 
 
 
 
0
0


0
0
#HDR
-1
-1
#GR
nm
%R
1.0
0.0
2500,000000
-1,000000
2251
8
16,418000
1,175600
#DATA

250.000000	nan
251.000000	nan
252.000000	nan
253.000000	nan
254.000000	nan
255.000000	nan
256.000000	nan
257.000000	nan
258.000000	nan
259.000000	4.266555
260.000000	4.255260
261.000000	4.245375
262.000000	4.232356
263.000000	4.217930
264.000000	4.198985
265.000000	4.180760
266.000000	4.158685
267.000000	4.137775
268.000000	4.116525
269.000000	4.093597
270.000000	4.072773
271.000000	4.049791
272.000000	4.029579
273.000000	4.010496
274.000000	3.994368
275.000000	3.975408
276.000000	3.959758
277.000000	3.945292
278.000000	3.932505
279.000000	3.918451
280.000000	3.903302
281.000000	3.890022
282.000000	3.877679
283.000000	3.866026
284.000000	3.854669
285.000000	3.847529
286.000000	3.838780
287.000000	3.830897
288.000000	3.824906
289.000000	3.822191
290.000000	3.820880
291.000000	3.821143
292.000000	3.821221
293.000000	3.825277
294.000000	3.828010
295.000000	3.829747
296.000000	3.834707
297.000000	3.840085
298.000000	3.845117
299.000000	3.847533
300.000000	3.849558
301.000000	3.851257
302.000000	3.850249
303.000000	3.844368
304.000000	3.842223
305.000000	3.841739
306.000000	3.836526
307.000000	3.832236
308.000000	3.826144
309.000000	3.821218
310.000000	3.819015
311.000000	3.815787
312.000000	3.813726
313.000000	3.813265
314.000000	3.810113
315.000000	3.805281
316.000000	3.805655
317.000000	3.834481
318.000000	3.855110
319.000000	3.871273
320.000000	3.886046
321.000000	3.886777
322.000000	3.898634
323.000000	3.907118
324.000000	3.925877
325.000000	3.936608
326.000000	3.943580
327.000000	3.922108
328.000000	3.910995
329.000000	3.905322
330.000000	3.891022
331.000000	3.893157
332.000000	3.888211
333.000000	3.886967
334.000000	3.874519
335.000000	3.868232
336.000000	3.863294
337.000000	3.858155
338.000000	3.851155
339.000000	3.847204
340.000000	3.848633
341.000000	3.849159
342.000000	3.845091
343.000000	3.843452
344.000000	3.846848
345.000000	3.848411
346.000000	3.849411
347.000000	3.849939
348.000000	3.849658
349.000000	3.845793
350.000000	3.847759
351.000000	3.845456
352.000000	3.846116
353.000000	3.845061
354.000000	3.843565
355.000000	3.846380
356.000000	3.844881
357.000000	3.842471
358.000000	3.841984
359.000000	3.846965
360.000000	3.848103
361.000000	3.852328
362.000000	3.857742
363.000000	3.862371
364.000000	3.865068
365.000000	3.867511
366.000000	3.873107
367.000000	3.879513
368.000000	3.885832
369.000000	3.888556
370.000000	3.889299
371.000000	3.890374
372.000000	3.887491
373.000000	3.886912
374.000000	3.878656
375.000000	3.870073
376.000000	3.872959
377.000000	3.867165
378.000000	3.862492
379.000000	3.857099
380.000000	3.854738
381.000000	3.852266
382.000000	3.851383
383.000000	3.848297
384.000000	3.851839
385.000000	3.856157
386.000000	3.850595
387.000000	3.853209
388.000000	3.855133
389.000000	3.857029
390.000000	3.858773
391.000000	3.860314
392.000000	3.861925
393.000000	3.864252
394.000000	3.865945
395.000000	3.867606
396.000000	3.869621
397.000000	3.871482
398.000000	3.873691
399.000000	3.875717
400.000000	3.877572
401.000000	3.880134
402.000000	3.883111
403.000000	3.885626
404.000000	3.889026
405.000000	3.892892
406.000000	3.897068
407.000000	3.901990
408.000000	3.907725
409.000000	3.914521
410.000000	3.922979
411.000000	3.933238
412.000000	3.945598
413.000000	3.960248
414.000000	3.977527
415.000000	3.997561
416.000000	4.020264
417.000000	4.046277
418.000000	4.075818
419.000000	4.108778
420.000000	4.144920
421.000000	4.184061
422.000000	4.226100
423.000000	4.271519
424.000000	4.319773
425.000000	4.370522
426.000000	4.423953
427.000000	4.479733
428.000000	4.537438
429.000000	4.596888
430.000000	4.658117
431.000000	4.720609
432.000000	4.784289
433.000000	4.848785
434.000000	4.914386
435.000000	4.981101
436.000000	5.048797
437.000000	5.117098
438.000000	5.186231
439.000000	5.256369
440.000000	5.327262
441.000000	5.399361
442.000000	5.472724
443.000000	5.547081
444.000000	5.622420
445.000000	5.698852
446.000000	5.776584
447.000000	5.855814
448.000000	5.935783
449.000000	6.016753
450.000000	6.099292
451.000000	6.182403
452.000000	6.266501
453.000000	6.352124
454.000000	6.438026
455.000000	6.524322
456.000000	6.611166
457.000000	6.698115
458.000000	6.786169
459.000000	6.875105
460.000000	6.963612
461.000000	7.052394
462.000000	7.141746
463.000000	7.230728
464.000000	7.320066
465.000000	7.409929
466.000000	7.499745
467.000000	7.589270
468.000000	7.678613
469.000000	7.767284
470.000000	7.856041
471.000000	7.944862
472.000000	8.033012
473.000000	8.121081
474.000000	8.209362
475.000000	8.297085
476.000000	8.384316
477.000000	8.471431
478.000000	8.558265
479.000000	8.645171
480.000000	8.731776
481.000000	8.817466
482.000000	8.902053
483.000000	8.986712
484.000000	9.071632
485.000000	9.157249
486.000000	9.243496
487.000000	9.330603
488.000000	9.418306
489.000000	9.506518
490.000000	9.595856
491.000000	9.687375
492.000000	9.780899
493.000000	9.875455
494.000000	9.971262
495.000000	10.067651
496.000000	10.164262
497.000000	10.261816
498.000000	10.360599
499.000000	10.460907
500.000000	10.562164
501.000000	10.663147
502.000000	10.764188
503.000000	10.866470
504.000000	10.969599
505.000000	11.073074
506.000000	11.177471
507.000000	11.282316
508.000000	11.387752
509.000000	11.493745
510.000000	11.599664
511.000000	11.707405
512.000000	11.816350
513.000000	11.925581
514.000000	12.034678
515.000000	12.144592
516.000000	12.255627
517.000000	12.367983
518.000000	12.480520
519.000000	12.593106
520.000000	12.707276
521.000000	12.822174
522.000000	12.938631
523.000000	13.055810
524.000000	13.174691
525.000000	13.295357
526.000000	13.417385
527.000000	13.540276
528.000000	13.664607
529.000000	13.790882
530.000000	13.918450
531.000000	14.046794
532.000000	14.176335
533.000000	14.307159
534.000000	14.438961
535.000000	14.571601
536.000000	14.704924
537.000000	14.839397
538.000000	14.974945
539.000000	15.110947
540.000000	15.247871
541.000000	15.385325
542.000000	15.523788
543.000000	15.663727
544.000000	15.803061
545.000000	15.943456
546.000000	16.084125
547.000000	16.225192
548.000000	16.366471
549.000000	16.508086
550.000000	16.650238
551.000000	16.793446
552.000000	16.936417
553.000000	17.079112
554.000000	17.222935
555.000000	17.366409
556.000000	17.510057
557.000000	17.654358
558.000000	17.798817
559.000000	17.943488
560.000000	18.080428
561.000000	18.215980
562.000000	18.351696
563.000000	18.487869
564.000000	18.623378
565.000000	18.759240
566.000000	18.895727
567.000000	19.031522
568.000000	19.168184
569.000000	19.306187
570.000000	19.451525
571.000000	19.598467
572.000000	19.746011
573.000000	19.892988
574.000000	20.041609
575.000000	20.189976
576.000000	20.338989
577.000000	20.488716
578.000000	20.638219
579.000000	20.787602
580.000000	20.936417
581.000000	21.085991
582.000000	21.235726
583.000000	21.386258
584.000000	21.536764
585.000000	21.686348
586.000000	21.836089
587.000000	21.986396
588.000000	22.136917
589.000000	22.287532
590.000000	22.438960
591.000000	22.589275
592.000000	22.740063
593.000000	22.890626
594.000000	23.040842
595.000000	23.192916
596.000000	23.343833
597.000000	23.493162
598.000000	23.642846
599.000000	23.791539
600.000000	23.939821
601.000000	24.088014
602.000000	24.234341
603.000000	24.381701
604.000000	24.527453
605.000000	24.672045
606.000000	24.816569
607.000000	24.962051
608.000000	25.105384
609.000000	25.248786
610.000000	25.392097
611.000000	25.534660
612.000000	25.677688
613.000000	25.819481
614.000000	25.961794
615.000000	26.102187
616.000000	26.242799
617.000000	26.382596
618.000000	26.522901
619.000000	26.660880
620.000000	26.800321
621.000000	26.939507
622.000000	27.077964
623.000000	27.214438
624.000000	27.350803
625.000000	27.488807
626.000000	27.626560
627.000000	27.763043
628.000000	27.901040
629.000000	28.039722
630.000000	28.176038
631.000000	28.314056
632.000000	28.451966
633.000000	28.590479
634.000000	28.729966
635.000000	28.870579
636.000000	29.011640
637.000000	29.153556
638.000000	29.296346
639.000000	29.441417
640.000000	29.588845
641.000000	29.736799
642.000000	29.886614
643.000000	30.037544
644.000000	30.190471
645.000000	30.344355
646.000000	30.499170
647.000000	30.656963
648.000000	30.813476
649.000000	30.969550
650.000000	31.125882
651.000000	31.282184
652.000000	31.438823
653.000000	31.595656
654.000000	31.751250
655.000000	31.906907
656.000000	32.062601
657.000000	32.216441
658.000000	32.368150
659.000000	32.519620
660.000000	32.667932
661.000000	32.815572
662.000000	32.961232
663.000000	33.106151
664.000000	33.248648
665.000000	33.388897
666.000000	33.526546
667.000000	33.661370
668.000000	33.795852
669.000000	33.926936
670.000000	34.058762
671.000000	34.188058
672.000000	34.315110
673.000000	34.440870
674.000000	34.566132
675.000000	34.687971
676.000000	34.808329
677.000000	34.929566
678.000000	35.049673
679.000000	35.167496
680.000000	35.283142
681.000000	35.398514
682.000000	35.513281
683.000000	35.625938
684.000000	35.736460
685.000000	35.846792
686.000000	35.955792
687.000000	36.061606
688.000000	36.166615
689.000000	36.273385
690.000000	36.380032
691.000000	36.481922
692.000000	36.581690
693.000000	36.681875
694.000000	36.781621
695.000000	36.879562
696.000000	36.976120
697.000000	37.074081
698.000000	37.170262
699.000000	37.264796
700.000000	37.356931
701.000000	37.449682
702.000000	37.542526
703.000000	37.634512
704.000000	37.724625
705.000000	37.813116
706.000000	37.900914
707.000000	37.986737
708.000000	38.073262
709.000000	38.157201
710.000000	38.240997
711.000000	38.325430
712.000000	38.408820
713.000000	38.490582
714.000000	38.570865
715.000000	38.652254
716.000000	38.733565
717.000000	38.812580
718.000000	38.892864
719.000000	38.975474
720.000000	39.055459
721.000000	39.135004
722.000000	39.213425
723.000000	39.291118
724.000000	39.369072
725.000000	39.445801
726.000000	39.520937
727.000000	39.596155
728.000000	39.668307
729.000000	39.738531
730.000000	39.810055
731.000000	39.881763
732.000000	39.954682
733.000000	40.027297
734.000000	40.101566
735.000000	40.173015
736.000000	40.244563
737.000000	40.318290
738.000000	40.389898
739.000000	40.459203
740.000000	40.528513
741.000000	40.597868
742.000000	40.667551
743.000000	40.734152
744.000000	40.798556
745.000000	40.866233
746.000000	40.931727
747.000000	40.993840
748.000000	41.058870
749.000000	41.127762
750.000000	41.194309
751.000000	41.258475
752.000000	41.321467
753.000000	41.385434
754.000000	41.446191
755.000000	41.503474
756.000000	41.566171
757.000000	41.632258
758.000000	41.695574
759.000000	41.756761
760.000000	41.819481
761.000000	41.884265
762.000000	41.946086
763.000000	42.005822
764.000000	42.067077
765.000000	42.132757
766.000000	42.195315
767.000000	42.255042
768.000000	42.315392
769.000000	42.374881
770.000000	42.433981
771.000000	42.490496
772.000000	42.546674
773.000000	42.606720
774.000000	42.667346
775.000000	42.725910
776.000000	42.781393
777.000000	42.838091
778.000000	42.895845
779.000000	42.952641
780.000000	43.008557
781.000000	43.066678
782.000000	43.129632
783.000000	43.189743
784.000000	43.248178
785.000000	43.305570
786.000000	43.365013
787.000000	43.420524
788.000000	43.479017
789.000000	43.538839
790.000000	43.594166
791.000000	43.648715
792.000000	43.701070
793.000000	43.754672
794.000000	43.808837
795.000000	43.864029
796.000000	43.918232
797.000000	43.972461
798.000000	44.022226
799.000000	44.068914
800.000000	44.121361
801.000000	44.173146
802.000000	44.222796
803.000000	44.271123
804.000000	44.322899
805.000000	44.372874
806.000000	44.421616
807.000000	44.472629
808.000000	44.521079
809.000000	44.573801
810.000000	44.624104
811.000000	44.671881
812.000000	44.713983
813.000000	44.758724
814.000000	44.801435
815.000000	44.843061
816.000000	44.884321
817.000000	44.922588
818.000000	44.963081
819.000000	44.997862
820.000000	45.035334
821.000000	45.074343
822.000000	45.110980
823.000000	45.144138
824.000000	45.174152
825.000000	45.205541
826.000000	45.244916
827.000000	45.280889
828.000000	45.306220
829.000000	45.331157
830.000000	45.355842
831.000000	45.378582
832.000000	45.406233
833.000000	45.427856
834.000000	45.452740
835.000000	45.475445
836.000000	45.482133
837.000000	45.492882
838.000000	45.509929
839.000000	45.523347
840.000000	45.535786
841.000000	45.548446
842.000000	45.555753
843.000000	45.566296
844.000000	45.563358
845.000000	45.565263
846.000000	45.569087
847.000000	45.573905
848.000000	45.561780
849.000000	45.561326
850.000000	45.549094
851.000000	45.542881
852.000000	45.537068
853.000000	45.532891
854.000000	45.527033
855.000000	45.521165
856.000000	45.512358
857.000000	45.505692
858.000000	45.590322
859.000000	45.704427
860.000000	45.798932
861.000000	45.912650
862.000000	46.008089
863.000000	46.107485
864.000000	46.207145
865.000000	46.296135
866.000000	46.398324
867.000000	46.478813
868.000000	46.502525
869.000000	46.485183
870.000000	46.475310
871.000000	46.449095
872.000000	46.443370
873.000000	46.437777
874.000000	46.440350
875.000000	46.429063
876.000000	46.393100
877.000000	46.391780
878.000000	46.364975
879.000000	46.348132
880.000000	46.328025
881.000000	46.308695
882.000000	46.276730
883.000000	46.237747
884.000000	46.195073
885.000000	46.169262
886.000000	46.167165
887.000000	46.134147
888.000000	46.098750
889.000000	46.059052
890.000000	46.031447
891.000000	46.005113
892.000000	45.988110
893.000000	45.967780
894.000000	45.942000
895.000000	45.909158
896.000000	45.872208
897.000000	45.847338
898.000000	45.821670
899.000000	45.787148
900.000000	45.770103
901.000000	45.738048
902.000000	45.697040
903.000000	45.665772
904.000000	45.637222
905.000000	45.614973
906.000000	45.589775
907.000000	45.561447
908.000000	45.541905
909.000000	45.523995
910.000000	45.494073
911.000000	45.463423
912.000000	45.446100
913.000000	45.423167
914.000000	45.405448
915.000000	45.387537
916.000000	45.364812
917.000000	45.344277
918.000000	45.323415
919.000000	45.309770
920.000000	45.296898
921.000000	45.281042
922.000000	45.266207
923.000000	45.247060
924.000000	45.229670
925.000000	45.209468
926.000000	45.196110
927.000000	45.183275
928.000000	45.165782
929.000000	45.145988
930.000000	45.129912
931.000000	45.116800
932.000000	45.098090
933.000000	45.078625
934.000000	45.060857
935.000000	45.048372
936.000000	45.030095
937.000000	45.005590
938.000000	44.988138
939.000000	44.970885
940.000000	44.951080
941.000000	44.928877
942.000000	44.909285
943.000000	44.891937
944.000000	44.871122
945.000000	44.849533
946.000000	44.832213
947.000000	44.817965
948.000000	44.801227
949.000000	44.783542
950.000000	44.765785
951.000000	44.752405
952.000000	44.740605
953.000000	44.729170
954.000000	44.717317
955.000000	44.705750
956.000000	44.694618
957.000000	44.684677
958.000000	44.673275
959.000000	44.660185
960.000000	44.648025
961.000000	44.634327
962.000000	44.619690
963.000000	44.606247
964.000000	44.595658
965.000000	44.582213
966.000000	44.567780
967.000000	44.556145
968.000000	44.546750
969.000000	44.536077
970.000000	44.524622
971.000000	44.513580
972.000000	44.503008
973.000000	44.492550
974.000000	44.479358
975.000000	44.468225
976.000000	44.458350
977.000000	44.445642
978.000000	44.431695
979.000000	44.418638
980.000000	44.405468
981.000000	44.391945
982.000000	44.378205
983.000000	44.365597
984.000000	44.354282
985.000000	44.341885
986.000000	44.329542
987.000000	44.317308
988.000000	44.305970
989.000000	44.296328
990.000000	44.288235
991.000000	44.278445
992.000000	44.268442
993.000000	44.258857
994.000000	44.250295
995.000000	44.241883
996.000000	44.232780
997.000000	44.224518
998.000000	44.216285
999.000000	44.205920
1000.000000	44.195817
1001.000000	44.187673
1002.000000	44.181150
1003.000000	44.173830
1004.000000	44.165698
1005.000000	44.157755
1006.000000	44.148700
1007.000000	44.138670
1008.000000	44.129045
1009.000000	44.121958
1010.000000	44.114573
1011.000000	44.106592
1012.000000	44.098657
1013.000000	44.090937
1014.000000	44.084142
1015.000000	44.077730
1016.000000	44.071085
1017.000000	44.065578
1018.000000	44.061680
1019.000000	44.058212
1020.000000	44.055410
1021.000000	44.053308
1022.000000	44.051435
1023.000000	44.050300
1024.000000	44.049535
1025.000000	44.049072
1026.000000	44.050978
1027.000000	44.053472
1028.000000	44.055747
1029.000000	44.058628
1030.000000	44.061770
1031.000000	44.064985
1032.000000	44.068153
1033.000000	44.071345
1034.000000	44.075450
1035.000000	44.080040
1036.000000	44.083967
1037.000000	44.088305
1038.000000	44.091950
1039.000000	44.094952
1040.000000	44.097890
1041.000000	44.101028
1042.000000	44.104627
1043.000000	44.107560
1044.000000	44.110055
1045.000000	44.113365
1046.000000	44.116295
1047.000000	44.118535
1048.000000	44.121412
1049.000000	44.124183
1050.000000	44.127570
1051.000000	44.130872
1052.000000	44.134085
1053.000000	44.136685
1054.000000	44.138822
1055.000000	44.141710
1056.000000	44.146405
1057.000000	44.152245
1058.000000	44.157193
1059.000000	44.162790
1060.000000	44.168380
1061.000000	44.174407
1062.000000	44.180565
1063.000000	44.188147
1064.000000	44.196858
1065.000000	44.204020
1066.000000	44.209640
1067.000000	44.215250
1068.000000	44.221693
1069.000000	44.228690
1070.000000	44.236055
1071.000000	44.244370
1072.000000	44.252027
1073.000000	44.259147
1074.000000	44.265138
1075.000000	44.273035
1076.000000	44.281807
1077.000000	44.290217
1078.000000	44.298910
1079.000000	44.306500
1080.000000	44.314347
1081.000000	44.320220
1082.000000	44.326570
1083.000000	44.333180
1084.000000	44.340443
1085.000000	44.347288
1086.000000	44.354503
1087.000000	44.361260
1088.000000	44.368065
1089.000000	44.375343
1090.000000	44.381735
1091.000000	44.388858
1092.000000	44.394877
1093.000000	44.400458
1094.000000	44.405848
1095.000000	44.410967
1096.000000	44.414577
1097.000000	44.418160
1098.000000	44.420602
1099.000000	44.422715
1100.000000	44.425747
1101.000000	44.429122
1102.000000	44.433228
1103.000000	44.437705
1104.000000	44.441335
1105.000000	44.444185
1106.000000	44.447587
1107.000000	44.450328
1108.000000	44.454170
1109.000000	44.457290
1110.000000	44.458145
1111.000000	44.459108
1112.000000	44.460910
1113.000000	44.461722
1114.000000	44.463065
1115.000000	44.463667
1116.000000	44.464568
1117.000000	44.466138
1118.000000	44.465495
1119.000000	44.464500
1120.000000	44.464255
1121.000000	44.463250
1122.000000	44.460310
1123.000000	44.457560
1124.000000	44.451840
1125.000000	44.444275
1126.000000	44.433925
1127.000000	44.420825
1128.000000	44.407423
1129.000000	44.392518
1130.000000	44.372860
1131.000000	44.349698
1132.000000	44.321720
1133.000000	44.292845
1134.000000	44.264505
1135.000000	44.235035
1136.000000	44.201762
1137.000000	44.167915
1138.000000	44.132132
1139.000000	44.093852
1140.000000	44.058838
1141.000000	44.023480
1142.000000	43.990353
1143.000000	43.956085
1144.000000	43.922500
1145.000000	43.890853
1146.000000	43.861677
1147.000000	43.833282
1148.000000	43.805812
1149.000000	43.780533
1150.000000	43.753460
1151.000000	43.727495
1152.000000	43.701248
1153.000000	43.674067
1154.000000	43.644625
1155.000000	43.611445
1156.000000	43.577275
1157.000000	43.539003
1158.000000	43.498563
1159.000000	43.455928
1160.000000	43.410363
1161.000000	43.360957
1162.000000	43.310327
1163.000000	43.255543
1164.000000	43.197860
1165.000000	43.139305
1166.000000	43.079165
1167.000000	43.020542
1168.000000	42.960780
1169.000000	42.900533
1170.000000	42.843445
1171.000000	42.788567
1172.000000	42.734820
1173.000000	42.685730
1174.000000	42.640425
1175.000000	42.598535
1176.000000	42.559680
1177.000000	42.523705
1178.000000	42.491365
1179.000000	42.462605
1180.000000	42.434275
1181.000000	42.409768
1182.000000	42.388275
1183.000000	42.368010
1184.000000	42.350437
1185.000000	42.335738
1186.000000	42.325117
1187.000000	42.318103
1188.000000	42.314462
1189.000000	42.315030
1190.000000	42.319450
1191.000000	42.328478
1192.000000	42.341025
1193.000000	42.359520
1194.000000	42.381453
1195.000000	42.405610
1196.000000	42.431822
1197.000000	42.460487
1198.000000	42.489925
1199.000000	42.519295
1200.000000	42.550148
1201.000000	42.580125
1202.000000	42.610510
1203.000000	42.638705
1204.000000	42.665800
1205.000000	42.691975
1206.000000	42.717935
1207.000000	42.741805
1208.000000	42.766638
1209.000000	42.790698
1210.000000	42.814420
1211.000000	42.837590
1212.000000	42.859662
1213.000000	42.881485
1214.000000	42.902142
1215.000000	42.922027
1216.000000	42.940188
1217.000000	42.958357
1218.000000	42.975440
1219.000000	42.992137
1220.000000	43.007535
1221.000000	43.021047
1222.000000	43.033687
1223.000000	43.045915
1224.000000	43.057778
1225.000000	43.070228
1226.000000	43.082780
1227.000000	43.095212
1228.000000	43.107232
1229.000000	43.118363
1230.000000	43.129070
1231.000000	43.141298
1232.000000	43.153100
1233.000000	43.164532
1234.000000	43.176597
1235.000000	43.187080
1236.000000	43.197910
1237.000000	43.208703
1238.000000	43.218788
1239.000000	43.228907
1240.000000	43.239802
1241.000000	43.250563
1242.000000	43.262900
1243.000000	43.275812
1244.000000	43.289098
1245.000000	43.304552
1246.000000	43.321080
1247.000000	43.337720
1248.000000	43.356653
1249.000000	43.377935
1250.000000	43.399370
1251.000000	43.420982
1252.000000	43.442273
1253.000000	43.463110
1254.000000	43.483695
1255.000000	43.503718
1256.000000	43.522515
1257.000000	43.540930
1258.000000	43.558560
1259.000000	43.573920
1260.000000	43.588710
1261.000000	43.602180
1262.000000	43.615172
1263.000000	43.628102
1264.000000	43.640685
1265.000000	43.652437
1266.000000	43.663763
1267.000000	43.674728
1268.000000	43.684385
1269.000000	43.693912
1270.000000	43.703117
1271.000000	43.712107
1272.000000	43.720917
1273.000000	43.730097
1274.000000	43.738120
1275.000000	43.745395
1276.000000	43.753338
1277.000000	43.761290
1278.000000	43.770018
1279.000000	43.780190
1280.000000	43.790235
1281.000000	43.801335
1282.000000	43.812562
1283.000000	43.823783
1284.000000	43.836575
1285.000000	43.849915
1286.000000	43.862605
1287.000000	43.875770
1288.000000	43.889448
1289.000000	43.902923
1290.000000	43.917550
1291.000000	43.932145
1292.000000	43.946678
1293.000000	43.959895
1294.000000	43.972328
1295.000000	43.985800
1296.000000	43.999517
1297.000000	44.012625
1298.000000	44.025035
1299.000000	44.036700
1300.000000	44.047733
1301.000000	44.057503
1302.000000	44.066038
1303.000000	44.074863
1304.000000	44.082835
1305.000000	44.088375
1306.000000	44.092843
1307.000000	44.095797
1308.000000	44.096985
1309.000000	44.096193
1310.000000	44.093632
1311.000000	44.089427
1312.000000	44.084263
1313.000000	44.077987
1314.000000	44.070855
1315.000000	44.062780
1316.000000	44.052412
1317.000000	44.041165
1318.000000	44.028503
1319.000000	44.014050
1320.000000	43.998465
1321.000000	43.982487
1322.000000	43.965317
1323.000000	43.946235
1324.000000	43.924960
1325.000000	43.902645
1326.000000	43.878475
1327.000000	43.852292
1328.000000	43.824120
1329.000000	43.795262
1330.000000	43.764935
1331.000000	43.731673
1332.000000	43.695645
1333.000000	43.656337
1334.000000	43.614493
1335.000000	43.570238
1336.000000	43.524475
1337.000000	43.476047
1338.000000	43.424985
1339.000000	43.370780
1340.000000	43.314093
1341.000000	43.254373
1342.000000	43.191910
1343.000000	43.127313
1344.000000	43.059655
1345.000000	42.987160
1346.000000	42.913867
1347.000000	42.839105
1348.000000	42.761292
1349.000000	42.679610
1350.000000	42.594005
1351.000000	42.508073
1352.000000	42.421132
1353.000000	42.336108
1354.000000	42.254955
1355.000000	42.177818
1356.000000	42.100280
1357.000000	42.024550
1358.000000	41.951755
1359.000000	41.882728
1360.000000	41.822335
1361.000000	41.770672
1362.000000	41.719405
1363.000000	41.664570
1364.000000	41.610410
1365.000000	41.551818
1366.000000	41.489602
1367.000000	41.427737
1368.000000	41.361615
1369.000000	41.286595
1370.000000	41.199740
1371.000000	41.095588
1372.000000	40.978427
1373.000000	40.845145
1374.000000	40.691752
1375.000000	40.525323
1376.000000	40.342057
1377.000000	40.139650
1378.000000	39.923218
1379.000000	39.702830
1380.000000	39.480380
1381.000000	39.265095
1382.000000	39.061352
1383.000000	38.873923
1384.000000	38.697150
1385.000000	38.533158
1386.000000	38.388242
1387.000000	38.266332
1388.000000	38.161997
1389.000000	38.066568
1390.000000	37.977028
1391.000000	37.894092
1392.000000	37.814945
1393.000000	37.737392
1394.000000	37.669145
1395.000000	37.610110
1396.000000	37.547600
1397.000000	37.469370
1398.000000	37.386135
1399.000000	37.309895
1400.000000	37.235857
1401.000000	37.147233
1402.000000	37.044517
1403.000000	36.933062
1404.000000	36.814410
1405.000000	36.680065
1406.000000	36.539837
1407.000000	36.398525
1408.000000	36.253030
1409.000000	36.094187
1410.000000	35.920325
1411.000000	35.742542
1412.000000	35.568460
1413.000000	35.395715
1414.000000	35.219558
1415.000000	35.041207
1416.000000	34.859538
1417.000000	34.683238
1418.000000	34.512035
1419.000000	34.343085
1420.000000	34.178165
1421.000000	34.018677
1422.000000	33.862893
1423.000000	33.710505
1424.000000	33.559642
1425.000000	33.412855
1426.000000	33.274552
1427.000000	33.139157
1428.000000	33.003928
1429.000000	32.871000
1430.000000	32.746125
1431.000000	32.629377
1432.000000	32.516650
1433.000000	32.405127
1434.000000	32.297498
1435.000000	32.196053
1436.000000	32.097652
1437.000000	32.003628
1438.000000	31.912140
1439.000000	31.824703
1440.000000	31.739638
1441.000000	31.655332
1442.000000	31.573483
1443.000000	31.493082
1444.000000	31.417055
1445.000000	31.345132
1446.000000	31.273502
1447.000000	31.200348
1448.000000	31.129213
1449.000000	31.060820
1450.000000	30.993917
1451.000000	30.927235
1452.000000	30.856890
1453.000000	30.789435
1454.000000	30.720027
1455.000000	30.648208
1456.000000	30.578733
1457.000000	30.509340
1458.000000	30.438972
1459.000000	30.368180
1460.000000	30.295635
1461.000000	30.223172
1462.000000	30.153742
1463.000000	30.083123
1464.000000	30.012670
1465.000000	29.943205
1466.000000	29.873467
1467.000000	29.802643
1468.000000	29.733330
1469.000000	29.665370
1470.000000	29.599757
1471.000000	29.535125
1472.000000	29.471255
1473.000000	29.407030
1474.000000	29.343600
1475.000000	29.282457
1476.000000	29.222708
1477.000000	29.167470
1478.000000	29.113800
1479.000000	29.061743
1480.000000	29.012385
1481.000000	28.966312
1482.000000	28.923170
1483.000000	28.883610
1484.000000	28.847998
1485.000000	28.814315
1486.000000	28.783745
1487.000000	28.755338
1488.000000	28.730088
1489.000000	28.706910
1490.000000	28.684582
1491.000000	28.663828
1492.000000	28.645800
1493.000000	28.631425
1494.000000	28.620012
1495.000000	28.612315
1496.000000	28.608562
1497.000000	28.607855
1498.000000	28.610795
1499.000000	28.618257
1500.000000	28.631520
1501.000000	28.648970
1502.000000	28.671335
1503.000000	28.698770
1504.000000	28.730765
1505.000000	28.766315
1506.000000	28.805605
1507.000000	28.850375
1508.000000	28.899470
1509.000000	28.951383
1510.000000	29.005067
1511.000000	29.061122
1512.000000	29.118590
1513.000000	29.177840
1514.000000	29.238065
1515.000000	29.300115
1516.000000	29.362930
1517.000000	29.425033
1518.000000	29.486445
1519.000000	29.547070
1520.000000	29.608175
1521.000000	29.669452
1522.000000	29.730537
1523.000000	29.789882
1524.000000	29.848622
1525.000000	29.905567
1526.000000	29.960945
1527.000000	30.015708
1528.000000	30.070438
1529.000000	30.125185
1530.000000	30.177808
1531.000000	30.229312
1532.000000	30.279770
1533.000000	30.330212
1534.000000	30.379318
1535.000000	30.427070
1536.000000	30.474550
1537.000000	30.519880
1538.000000	30.563130
1539.000000	30.604550
1540.000000	30.645935
1541.000000	30.685662
1542.000000	30.723857
1543.000000	30.761515
1544.000000	30.798815
1545.000000	30.837140
1546.000000	30.876650
1547.000000	30.918337
1548.000000	30.961620
1549.000000	31.006557
1550.000000	31.053227
1551.000000	31.101678
1552.000000	31.151338
1553.000000	31.200910
1554.000000	31.250053
1555.000000	31.297985
1556.000000	31.343915
1557.000000	31.386788
1558.000000	31.426917
1559.000000	31.462770
1560.000000	31.493493
1561.000000	31.520760
1562.000000	31.544708
1563.000000	31.563735
1564.000000	31.578010
1565.000000	31.588403
1566.000000	31.594753
1567.000000	31.597307
1568.000000	31.596785
1569.000000	31.594778
1570.000000	31.590700
1571.000000	31.584685
1572.000000	31.577997
1573.000000	31.572760
1574.000000	31.569055
1575.000000	31.565910
1576.000000	31.564515
1577.000000	31.565843
1578.000000	31.569265
1579.000000	31.574940
1580.000000	31.584043
1581.000000	31.596335
1582.000000	31.611345
1583.000000	31.628645
1584.000000	31.649223
1585.000000	31.672823
1586.000000	31.698650
1587.000000	31.727230
1588.000000	31.758598
1589.000000	31.791448
1590.000000	31.826570
1591.000000	31.863435
1592.000000	31.901380
1593.000000	31.941083
1594.000000	31.981790
1595.000000	32.024138
1596.000000	32.068780
1597.000000	32.115503
1598.000000	32.163108
1599.000000	32.212230
1600.000000	32.262412
1601.000000	32.314892
1602.000000	32.369840
1603.000000	32.426182
1604.000000	32.483870
1605.000000	32.543390
1606.000000	32.603278
1607.000000	32.661910
1608.000000	32.720168
1609.000000	32.777745
1610.000000	32.835377
1611.000000	32.891368
1612.000000	32.944992
1613.000000	32.996362
1614.000000	33.046453
1615.000000	33.094168
1616.000000	33.138960
1617.000000	33.181638
1618.000000	33.222940
1619.000000	33.263697
1620.000000	33.302250
1621.000000	33.339353
1622.000000	33.375428
1623.000000	33.410825
1624.000000	33.443395
1625.000000	33.475743
1626.000000	33.507905
1627.000000	33.541035
1628.000000	33.573165
1629.000000	33.606115
1630.000000	33.639065
1631.000000	33.671130
1632.000000	33.702993
1633.000000	33.733322
1634.000000	33.764318
1635.000000	33.793050
1636.000000	33.820702
1637.000000	33.844860
1638.000000	33.868310
1639.000000	33.888855
1640.000000	33.907018
1641.000000	33.923632
1642.000000	33.939023
1643.000000	33.953420
1644.000000	33.967053
1645.000000	33.979215
1646.000000	33.988895
1647.000000	33.998778
1648.000000	34.006965
1649.000000	34.013022
1650.000000	34.017107
1651.000000	34.017643
1652.000000	34.015015
1653.000000	34.008760
1654.000000	33.997253
1655.000000	33.980893
1656.000000	33.960135
1657.000000	33.933065
1658.000000	33.897728
1659.000000	33.855940
1660.000000	33.806090
1661.000000	33.749410
1662.000000	33.685525
1663.000000	33.613140
1664.000000	33.533147
1665.000000	33.445505
1666.000000	33.349725
1667.000000	33.247925
1668.000000	33.136235
1669.000000	33.018398
1670.000000	32.895837
1671.000000	32.768920
1672.000000	32.635862
1673.000000	32.500760
1674.000000	32.363070
1675.000000	32.225305
1676.000000	32.087308
1677.000000	31.947343
1678.000000	31.810080
1679.000000	31.668665
1680.000000	31.526105
1681.000000	31.381873
1682.000000	31.235650
1683.000000	31.088788
1684.000000	30.942860
1685.000000	30.799757
1686.000000	30.662650
1687.000000	30.536230
1688.000000	30.424280
1689.000000	30.331923
1690.000000	30.259763
1691.000000	30.208085
1692.000000	30.178855
1693.000000	30.170133
1694.000000	30.178465
1695.000000	30.199475
1696.000000	30.230043
1697.000000	30.267680
1698.000000	30.307215
1699.000000	30.344025
1700.000000	30.375660
1701.000000	30.400665
1702.000000	30.419227
1703.000000	30.427553
1704.000000	30.427970
1705.000000	30.420472
1706.000000	30.402585
1707.000000	30.373150
1708.000000	30.334300
1709.000000	30.286030
1710.000000	30.225532
1711.000000	30.152830
1712.000000	30.067922
1713.000000	29.971957
1714.000000	29.862503
1715.000000	29.741718
1716.000000	29.612120
1717.000000	29.472372
1718.000000	29.325005
1719.000000	29.172857
1720.000000	29.020920
1721.000000	28.873735
1722.000000	28.732798
1723.000000	28.602238
1724.000000	28.488517
1725.000000	28.390985
1726.000000	28.311613
1727.000000	28.252282
1728.000000	28.213473
1729.000000	28.193572
1730.000000	28.189585
1731.000000	28.199605
1732.000000	28.222068
1733.000000	28.256625
1734.000000	28.298165
1735.000000	28.347192
1736.000000	28.403147
1737.000000	28.464630
1738.000000	28.531115
1739.000000	28.601460
1740.000000	28.677835
1741.000000	28.758025
1742.000000	28.841258
1743.000000	28.925455
1744.000000	29.011298
1745.000000	29.096515
1746.000000	29.179633
1747.000000	29.260585
1748.000000	29.337865
1749.000000	29.410568
1750.000000	29.476438
1751.000000	29.534972
1752.000000	29.587465
1753.000000	29.632855
1754.000000	29.671830
1755.000000	29.704860
1756.000000	29.733540
1757.000000	29.756605
1758.000000	29.775440
1759.000000	29.791652
1760.000000	29.805675
1761.000000	29.819243
1762.000000	29.831985
1763.000000	29.845045
1764.000000	29.857765
1765.000000	29.872930
1766.000000	29.890235
1767.000000	29.910860
1768.000000	29.933968
1769.000000	29.960087
1770.000000	29.989348
1771.000000	30.020657
1772.000000	30.053933
1773.000000	30.089225
1774.000000	30.128127
1775.000000	30.167510
1776.000000	30.206067
1777.000000	30.244550
1778.000000	30.283755
1779.000000	30.321725
1780.000000	30.358418
1781.000000	30.394030
1782.000000	30.426870
1783.000000	30.458398
1784.000000	30.485883
1785.000000	30.510980
1786.000000	30.534285
1787.000000	30.554543
1788.000000	30.570225
1789.000000	30.582912
1790.000000	30.594452
1791.000000	30.605252
1792.000000	30.617470
1793.000000	30.629705
1794.000000	30.642245
1795.000000	30.655040
1796.000000	30.668732
1797.000000	30.683328
1798.000000	30.698875
1799.000000	30.716923
1800.000000	30.736215
1801.000000	30.757437
1802.000000	30.777180
1803.000000	30.794655
1804.000000	30.813773
1805.000000	30.834053
1806.000000	30.855802
1807.000000	30.878532
1808.000000	30.899803
1809.000000	30.919482
1810.000000	30.939020
1811.000000	30.958995
1812.000000	30.979905
1813.000000	31.000943
1814.000000	31.020322
1815.000000	31.038145
1816.000000	31.051265
1817.000000	31.059027
1818.000000	31.066760
1819.000000	31.078185
1820.000000	31.093070
1821.000000	31.107153
1822.000000	31.116385
1823.000000	31.119975
1824.000000	31.120265
1825.000000	31.119550
1826.000000	31.124558
1827.000000	31.137685
1828.000000	31.152607
1829.000000	31.165580
1830.000000	31.176005
1831.000000	31.184160
1832.000000	31.195260
1833.000000	31.210640
1834.000000	31.229935
1835.000000	31.254805
1836.000000	31.282792
1837.000000	31.309632
1838.000000	31.336760
1839.000000	31.366032
1840.000000	31.399785
1841.000000	31.439722
1842.000000	31.480287
1843.000000	31.515860
1844.000000	31.540917
1845.000000	31.558450
1846.000000	31.575160
1847.000000	31.600715
1848.000000	31.632843
1849.000000	31.657023
1850.000000	31.664920
1851.000000	31.660360
1852.000000	31.655360
1853.000000	31.658270
1854.000000	31.670772
1855.000000	31.682858
1856.000000	31.682218
1857.000000	31.665540
1858.000000	31.641537
1859.000000	31.620490
1860.000000	31.605445
1861.000000	31.589640
1862.000000	31.564130
1863.000000	31.525630
1864.000000	31.475263
1865.000000	31.415308
1866.000000	31.353213
1867.000000	31.284210
1868.000000	31.205588
1869.000000	31.120412
1870.000000	31.029700
1871.000000	30.932763
1872.000000	30.834920
1873.000000	30.732768
1874.000000	30.623070
1875.000000	30.505172
1876.000000	30.374353
1877.000000	30.230490
1878.000000	30.070455
1879.000000	29.892113
1880.000000	29.693683
1881.000000	29.478030
1882.000000	29.246357
1883.000000	29.002195
1884.000000	28.745032
1885.000000	28.476040
1886.000000	28.191633
1887.000000	27.894528
1888.000000	27.584685
1889.000000	27.264680
1890.000000	26.935163
1891.000000	26.598827
1892.000000	26.250820
1893.000000	25.888410
1894.000000	25.512268
1895.000000	25.123628
1896.000000	24.729778
1897.000000	24.328823
1898.000000	23.924623
1899.000000	23.518385
1900.000000	23.110510
1901.000000	22.700795
1902.000000	22.288985
1903.000000	21.883292
1904.000000	21.490255
1905.000000	21.108675
1906.000000	20.734433
1907.000000	20.370487
1908.000000	20.017570
1909.000000	19.671502
1910.000000	19.340680
1911.000000	19.023373
1912.000000	18.725073
1913.000000	18.442155
1914.000000	18.170958
1915.000000	17.910555
1916.000000	17.663418
1917.000000	17.434418
1918.000000	17.216963
1919.000000	17.018685
1920.000000	16.830967
1921.000000	16.657138
1922.000000	16.491025
1923.000000	16.334320
1924.000000	16.188918
1925.000000	16.054347
1926.000000	15.934330
1927.000000	15.823742
1928.000000	15.724887
1929.000000	15.635085
1930.000000	15.550870
1931.000000	15.478097
1932.000000	15.412055
1933.000000	15.355065
1934.000000	15.305250
1935.000000	15.263780
1936.000000	15.230900
1937.000000	15.206368
1938.000000	15.194292
1939.000000	15.186613
1940.000000	15.187750
1941.000000	15.192895
1942.000000	15.207050
1943.000000	15.228053
1944.000000	15.254058
1945.000000	15.289038
1946.000000	15.327552
1947.000000	15.368350
1948.000000	15.409590
1949.000000	15.454853
1950.000000	15.504370
1951.000000	15.557237
1952.000000	15.615382
1953.000000	15.677123
1954.000000	15.743392
1955.000000	15.810682
1956.000000	15.879183
1957.000000	15.947360
1958.000000	16.015673
1959.000000	16.088855
1960.000000	16.163885
1961.000000	16.239603
1962.000000	16.315487
1963.000000	16.390847
1964.000000	16.464117
1965.000000	16.536382
1966.000000	16.611937
1967.000000	16.686560
1968.000000	16.763025
1969.000000	16.834605
1970.000000	16.908062
1971.000000	16.980112
1972.000000	17.049968
1973.000000	17.121527
1974.000000	17.195048
1975.000000	17.267730
1976.000000	17.338352
1977.000000	17.414845
1978.000000	17.487667
1979.000000	17.563920
1980.000000	17.636265
1981.000000	17.711680
1982.000000	17.790788
1983.000000	17.867308
1984.000000	17.943700
1985.000000	18.024295
1986.000000	18.104313
1987.000000	18.179473
1988.000000	18.257453
1989.000000	18.335973
1990.000000	18.415530
1991.000000	18.491498
1992.000000	18.565265
1993.000000	18.639250
1994.000000	18.711727
1995.000000	18.779788
1996.000000	18.845337
1997.000000	18.913077
1998.000000	18.975970
1999.000000	19.035042
2000.000000	19.090435
2001.000000	19.143200
2002.000000	19.190825
2003.000000	19.235712
2004.000000	19.275983
2005.000000	19.312185
2006.000000	19.345345
2007.000000	19.371343
2008.000000	19.392630
2009.000000	19.411540
2010.000000	19.428447
2011.000000	19.440370
2012.000000	19.446732
2013.000000	19.445835
2014.000000	19.439775
2015.000000	19.427810
2016.000000	19.412470
2017.000000	19.391265
2018.000000	19.366615
2019.000000	19.331075
2020.000000	19.290367
2021.000000	19.242278
2022.000000	19.187812
2023.000000	19.131557
2024.000000	19.074195
2025.000000	19.011343
2026.000000	18.938963
2027.000000	18.860163
2028.000000	18.775045
2029.000000	18.690550
2030.000000	18.603215
2031.000000	18.509775
2032.000000	18.415095
2033.000000	18.312767
2034.000000	18.202433
2035.000000	18.090715
2036.000000	17.976242
2037.000000	17.860512
2038.000000	17.742907
2039.000000	17.618762
2040.000000	17.489395
2041.000000	17.358740
2042.000000	17.226623
2043.000000	17.093052
2044.000000	16.958212
2045.000000	16.821070
2046.000000	16.686467
2047.000000	16.556968
2048.000000	16.431605
2049.000000	16.309930
2050.000000	16.197482
2051.000000	16.094620
2052.000000	15.998330
2053.000000	15.915893
2054.000000	15.848908
2055.000000	15.798640
2056.000000	15.766970
2057.000000	15.747435
2058.000000	15.744323
2059.000000	15.756560
2060.000000	15.777920
2061.000000	15.813535
2062.000000	15.868248
2063.000000	15.933317
2064.000000	16.004862
2065.000000	16.082835
2066.000000	16.168080
2067.000000	16.260348
2068.000000	16.352485
2069.000000	16.449445
2070.000000	16.551583
2071.000000	16.656180
2072.000000	16.756312
2073.000000	16.852298
2074.000000	16.946800
2075.000000	17.040703
2076.000000	17.127130
2077.000000	17.208030
2078.000000	17.284450
2079.000000	17.353945
2080.000000	17.419630
2081.000000	17.479810
2082.000000	17.531755
2083.000000	17.581957
2084.000000	17.633247
2085.000000	17.675260
2086.000000	17.709165
2087.000000	17.739793
2088.000000	17.770265
2089.000000	17.794335
2090.000000	17.806410
2091.000000	17.813560
2092.000000	17.821415
2093.000000	17.827278
2094.000000	17.827525
2095.000000	17.832092
2096.000000	17.836842
2097.000000	17.836672
2098.000000	17.834100
2099.000000	17.835217
2100.000000	17.837372
2101.000000	17.833112
2102.000000	17.829357
2103.000000	17.828300
2104.000000	17.830170
2105.000000	17.831687
2106.000000	17.831610
2107.000000	17.833000
2108.000000	17.832040
2109.000000	17.827920
2110.000000	17.830470
2111.000000	17.841465
2112.000000	17.852673
2113.000000	17.860105
2114.000000	17.863085
2115.000000	17.857498
2116.000000	17.850098
2117.000000	17.845522
2118.000000	17.843702
2119.000000	17.838732
2120.000000	17.832855
2121.000000	17.817255
2122.000000	17.794398
2123.000000	17.767682
2124.000000	17.735055
2125.000000	17.701207
2126.000000	17.669213
2127.000000	17.634998
2128.000000	17.596350
2129.000000	17.556738
2130.000000	17.512055
2131.000000	17.470593
2132.000000	17.421902
2133.000000	17.366100
2134.000000	17.311575
2135.000000	17.254835
2136.000000	17.192710
2137.000000	17.124402
2138.000000	17.048460
2139.000000	16.971005
2140.000000	16.886065
2141.000000	16.791625
2142.000000	16.703435
2143.000000	16.614635
2144.000000	16.531100
2145.000000	16.446627
2146.000000	16.355773
2147.000000	16.258800
2148.000000	16.163087
2149.000000	16.059113
2150.000000	15.956287
2151.000000	15.857625
2152.000000	15.752775
2153.000000	15.657872
2154.000000	15.553575
2155.000000	15.446575
2156.000000	15.337683
2157.000000	15.223500
2158.000000	15.123815
2159.000000	15.022845
2160.000000	14.934248
2161.000000	14.853580
2162.000000	14.786528
2163.000000	14.714265
2164.000000	14.650450
2165.000000	14.580898
2166.000000	14.521290
2167.000000	14.471965
2168.000000	14.415415
2169.000000	14.377433
2170.000000	14.327452
2171.000000	14.270335
2172.000000	14.216670
2173.000000	14.160195
2174.000000	14.115725
2175.000000	14.088205
2176.000000	14.062245
2177.000000	14.039535
2178.000000	14.023940
2179.000000	14.000225
2180.000000	13.980440
2181.000000	13.973230
2182.000000	13.964600
2183.000000	13.960155
2184.000000	13.938277
2185.000000	13.916595
2186.000000	13.902155
2187.000000	13.890463
2188.000000	13.862755
2189.000000	13.836543
2190.000000	13.808283
2191.000000	13.777832
2192.000000	13.728885
2193.000000	13.683147
2194.000000	13.628050
2195.000000	13.573360
2196.000000	13.515038
2197.000000	13.447408
2198.000000	13.388095
2199.000000	13.327555
2200.000000	13.269932
2201.000000	13.208362
2202.000000	13.155883
2203.000000	13.104410
2204.000000	13.053723
2205.000000	13.003105
2206.000000	12.954450
2207.000000	12.924573
2208.000000	12.892923
2209.000000	12.874078
2210.000000	12.867947
2211.000000	12.858578
2212.000000	12.870510
2213.000000	12.881290
2214.000000	12.926728
2215.000000	12.972070
2216.000000	13.027342
2217.000000	13.077040
2218.000000	13.136400
2219.000000	13.207812
2220.000000	13.274490
2221.000000	13.357173
2222.000000	13.431117
2223.000000	13.509317
2224.000000	13.577875
2225.000000	13.658742
2226.000000	13.733760
2227.000000	13.809412
2228.000000	13.874050
2229.000000	13.932453
2230.000000	13.992433
2231.000000	14.043460
2232.000000	14.083445
2233.000000	14.130902
2234.000000	14.159520
2235.000000	14.173030
2236.000000	14.190862
2237.000000	14.195968
2238.000000	14.211472
2239.000000	14.215373
2240.000000	14.202650
2241.000000	14.182802
2242.000000	14.163977
2243.000000	14.130865
2244.000000	14.094105
2245.000000	14.052078
2246.000000	13.993158
2247.000000	13.937980
2248.000000	13.869677
2249.000000	13.787158
2250.000000	13.701475
2251.000000	13.618595
2252.000000	13.534770
2253.000000	13.436260
2254.000000	13.334498
2255.000000	13.234438
2256.000000	13.137940
2257.000000	13.040093
2258.000000	12.938567
2259.000000	12.847548
2260.000000	12.767123
2261.000000	12.686167
2262.000000	12.608560
2263.000000	12.539378
2264.000000	12.482575
2265.000000	12.424775
2266.000000	12.359520
2267.000000	12.307783
2268.000000	12.270270
2269.000000	12.238703
2270.000000	12.217812
2271.000000	12.193545
2272.000000	12.170328
2273.000000	12.158775
2274.000000	12.151635
2275.000000	12.150007
2276.000000	12.166365
2277.000000	12.175495
2278.000000	12.181478
2279.000000	12.181363
2280.000000	12.181315
2281.000000	12.187902
2282.000000	12.194520
2283.000000	12.189835
2284.000000	12.183142
2285.000000	12.181248
2286.000000	12.172828
2287.000000	12.165353
2288.000000	12.157338
2289.000000	12.156598
2290.000000	12.149450
2291.000000	12.134190
2292.000000	12.122587
2293.000000	12.129480
2294.000000	12.133820
2295.000000	12.121188
2296.000000	12.115467
2297.000000	12.116560
2298.000000	12.115123
2299.000000	12.103350
2300.000000	12.101300
2301.000000	12.114707
2302.000000	12.126335
2303.000000	12.138302
2304.000000	12.156063
2305.000000	12.189597
2306.000000	12.217322
2307.000000	12.241375
2308.000000	12.271363
2309.000000	12.311235
2310.000000	12.347278
2311.000000	12.379378
2312.000000	12.417205
2313.000000	12.442773
2314.000000	12.469072
2315.000000	12.504325
2316.000000	12.547673
2317.000000	12.591517
2318.000000	12.635932
2319.000000	12.677547
2320.000000	12.715135
2321.000000	12.749627
2322.000000	12.780652
2323.000000	12.815012
2324.000000	12.843720
2325.000000	12.851288
2326.000000	12.844127
2327.000000	12.840075
2328.000000	12.836622
2329.000000	12.830390
2330.000000	12.826888
2331.000000	12.829372
2332.000000	12.823937
2333.000000	12.810435
2334.000000	12.794735
2335.000000	12.800667
2336.000000	12.820393
2337.000000	12.841198
2338.000000	12.862937
2339.000000	12.875298
2340.000000	12.888438
2341.000000	12.901158
2342.000000	12.903753
2343.000000	12.912612
2344.000000	12.943040
2345.000000	12.976677
2346.000000	13.002902
2347.000000	13.016020
2348.000000	13.041102
2349.000000	13.085730
2350.000000	13.117728
2351.000000	13.139625
2352.000000	13.183658
2353.000000	13.230850
2354.000000	13.251360
2355.000000	13.263608
2356.000000	13.270445
2357.000000	13.281817
2358.000000	13.296952
2359.000000	13.314910
2360.000000	13.346870
2361.000000	13.377480
2362.000000	13.405840
2363.000000	13.437907
2364.000000	13.477840
2365.000000	13.516100
2366.000000	13.559393
2367.000000	13.608728
2368.000000	13.650745
2369.000000	13.681420
2370.000000	13.697960
2371.000000	13.726950
2372.000000	13.756780
2373.000000	13.771005
2374.000000	13.782325
2375.000000	13.799645
2376.000000	13.827135
2377.000000	13.849068
2378.000000	13.854470
2379.000000	13.863985
2380.000000	13.883593
2381.000000	13.913098
2382.000000	13.941038
2383.000000	13.969870
2384.000000	13.990625
2385.000000	13.988285
2386.000000	13.973570
2387.000000	13.968453
2388.000000	13.980023
2389.000000	13.986673
2390.000000	14.000882
2391.000000	13.995120
2392.000000	13.971705
2393.000000	13.976585
2394.000000	13.990047
2395.000000	14.010575
2396.000000	14.033585
2397.000000	14.043383
2398.000000	14.051057
2399.000000	14.072715
2400.000000	14.081625
2401.000000	14.081745
2402.000000	14.078592
2403.000000	14.052660
2404.000000	14.023822
2405.000000	14.002135
2406.000000	13.987158
2407.000000	13.968965
2408.000000	13.959650
2409.000000	13.932370
2410.000000	13.923265
2411.000000	13.909745
2412.000000	13.909450
2413.000000	13.910243
2414.000000	13.913540
2415.000000	13.932150
2416.000000	13.914250
2417.000000	13.920372
2418.000000	13.888053
2419.000000	13.850115
2420.000000	13.812130
2421.000000	13.786098
2422.000000	13.740982
2423.000000	13.680777
2424.000000	13.613350
2425.000000	13.540162
2426.000000	13.491762
2427.000000	13.413230
2428.000000	13.363385
2429.000000	13.307018
2430.000000	13.247477
2431.000000	13.167100
2432.000000	13.128545
2433.000000	13.119942
2434.000000	13.075125
2435.000000	13.030413
2436.000000	12.991995
2437.000000	12.960700
2438.000000	12.899558
2439.000000	12.865740
2440.000000	12.842430
2441.000000	12.808290
2442.000000	12.745045
2443.000000	12.657080
2444.000000	12.610040
2445.000000	12.554777
2446.000000	12.497335
2447.000000	12.435980
2448.000000	12.374665
2449.000000	12.289838
2450.000000	12.223043
2451.000000	12.171613
2452.000000	12.179045
2453.000000	12.162750
2454.000000	12.175723
2455.000000	12.172345
2456.000000	12.132320
2457.000000	12.120197
2458.000000	12.086240
2459.000000	12.135777
2460.000000	12.078912
2461.000000	12.100132
2462.000000	12.037445
2463.000000	12.046175
2464.000000	12.030753
2465.000000	12.012385
2466.000000	12.062312
2467.000000	12.092460
2468.000000	12.197170
2469.000000	12.237200
2470.000000	12.334342
2471.000000	12.390665
2472.000000	12.529035
2473.000000	12.609440
2474.000000	12.676345
2475.000000	12.737047
2476.000000	12.803448
2477.000000	12.908915
2478.000000	13.009215
2479.000000	13.079202
2480.000000	13.188188
2481.000000	13.337778
2482.000000	13.368835
2483.000000	13.504252
2484.000000	13.634115
2485.000000	13.758995
2486.000000	13.833070
2487.000000	13.953473
2488.000000	14.023090
2489.000000	14.192872
2490.000000	14.300063
2491.000000	14.490182
2492.000000	14.619915
2493.000000	14.761450
2494.000000	14.841052
2495.000000	14.982420
2496.000000	15.096177
2497.000000	15.256445
2498.000000	15.439998
2499.000000	15.521305
2500.000000	15.606875
2501.000000	18.899930
2502.000000	22.567340
2503.000000	26.123852
2504.000000	30.015520
2505.000000	33.879967
2506.000000	37.804215
2507.000000	41.502940
2508.000000	45.589905
2509.000000	49.735228
2510.000000	53.688820
2511.000000	54.349310
2512.000000	54.993550
2513.000000	55.903550
2514.000000	56.587610
2515.000000	57.465230
2516.000000	58.397440
2517.000000	59.652630
2518.000000	60.415600
2519.000000	61.394420
2520.000000	62.748340
2521.000000	64.341780
2522.000000	65.776090
2523.000000	67.355070
2524.000000	68.940390
2525.000000	69.996780
2526.000000	71.082710
2527.000000	72.001160
2528.000000	73.734720
2529.000000	75.057060
2530.000000	76.044210
2531.000000	76.631220
2532.000000	77.039360
2533.000000	77.527650
2534.000000	77.905450
2535.000000	79.174350
2536.000000	80.600140
2537.000000	81.916050
2538.000000	81.914530
2539.000000	82.609840
2540.000000	83.430530
2541.000000	84.447770
2542.000000	85.417640
2543.000000	85.552550
2544.000000	85.999590
2545.000000	86.606210
2546.000000	86.452310
2547.000000	86.009740
2548.000000	86.412180
2549.000000	86.842790
2550.000000	87.188840
2551.000000	86.909610
2552.000000	87.143580
2553.000000	87.945090
2554.000000	88.895470
2555.000000	89.216440
2556.000000	89.999240
2557.000000	90.350320
2558.000000	90.319850
2559.000000	89.886390
2560.000000	90.161320
2561.000000	90.754100
2562.000000	91.282510
2563.000000	91.559800
2564.000000	90.757410
2565.000000	89.820390
2566.000000	89.473590
2567.000000	89.715010
2568.000000	89.962820
2569.000000	90.557630
2570.000000	90.365280
2571.000000	90.563530
2572.000000	90.615320
2573.000000	91.503780
2574.000000	93.671880
2575.000000	96.075240
2576.000000	96.960110
2577.000000	97.783780
2578.000000	98.832100
2579.000000	100.086150
2580.000000	102.014440
2581.000000	103.478350
2582.000000	104.625480
2583.000000	104.953190
2584.000000	104.452550
2585.000000	103.191360
2586.000000	103.129350
2587.000000	104.233350
2588.000000	105.851890
2589.000000	106.463880
2590.000000	105.627030
2591.000000	105.263550
2592.000000	105.525710
2593.000000	105.322880
2594.000000	105.111550
2595.000000	105.161200
2596.000000	105.263560
2597.000000	104.467940
2598.000000	102.986450
2599.000000	101.729210
2600.000000	101.599080
2601.000000	100.894990
2602.000000	99.234910
2603.000000	98.269850
2604.000000	97.477290
2605.000000	96.568350
2606.000000	95.238940
2607.000000	93.938590
2608.000000	92.862010
2609.000000	91.946490
2610.000000	91.411630
2611.000000	91.952480
2612.000000	93.255040
2613.000000	93.844170
2614.000000	93.909200
2615.000000	94.736240
2616.000000	96.152780
2617.000000	97.565850
2618.000000	99.080600
2619.000000	100.042080
2620.000000	100.187310
2621.000000	100.069380
2622.000000	99.710930
2623.000000	99.845200
2624.000000	101.195070
2625.000000	101.752820
2626.000000	101.765830
2627.000000	101.951140
2628.000000	102.137900
2629.000000	102.688460
2630.000000	103.428440
2631.000000	103.515770
2632.000000	103.792730
2633.000000	104.331520
2634.000000	103.774820
2635.000000	103.749000
2636.000000	103.947260
2637.000000	103.773500
2638.000000	103.816130
2639.000000	103.155320
2640.000000	102.368590
2641.000000	102.315530
2642.000000	102.210660
2643.000000	101.369260
2644.000000	101.057930
2645.000000	100.627880
2646.000000	99.599840
2647.000000	99.425140
2648.000000	98.510160
2649.000000	98.880650
2650.000000	99.259870
2651.000000	98.751410
2652.000000	98.139070
2653.000000	97.694550
2654.000000	96.770020
2655.000000	96.289800
2656.000000	96.536450
2657.000000	96.379010
2658.000000	96.319620
2659.000000	95.571910
2660.000000	95.217830
2661.000000	95.743650
2662.000000	95.936490
2663.000000	95.982600
2664.000000	97.363700
2665.000000	98.316350
2666.000000	99.089820
2667.000000	99.840520
2668.000000	100.555150
2669.000000	101.800890
2670.000000	102.472150
2671.000000	102.707040
2672.000000	102.944200
2673.000000	103.916580
2674.000000	103.728060
2675.000000	103.953560
2676.000000	104.388030
2677.000000	104.055880
2678.000000	104.330030
2679.000000	104.002050
2680.000000	103.733490
2681.000000	103.603030
2682.000000	103.311570
2683.000000	103.851790
2684.000000	104.213370
2685.000000	104.749950
2686.000000	104.179960
2687.000000	104.775270
2688.000000	104.408620
2689.000000	104.024780
2690.000000	104.106570
2691.000000	104.434440
2692.000000	105.772880
2693.000000	105.058140
2694.000000	105.268370
2695.000000	104.949230
2696.000000	105.457870
2697.000000	104.409800
2698.000000	104.867080
2699.000000	104.968770
2700.000000	104.477940
2701.000000	103.968190
2702.000000	102.221680
2703.000000	101.820810
2704.000000	101.382300
2705.000000	101.570800
2706.000000	100.712940
2707.000000	100.713820
2708.000000	99.546700
2709.000000	98.759270
2710.000000	98.907200
2711.000000	97.921250
2712.000000	98.004910
2713.000000	97.888440
2714.000000	98.032640
2715.000000	97.026230
2716.000000	96.544220
2717.000000	96.139930
2718.000000	95.824580
2719.000000	95.879250
2720.000000	95.651940
2721.000000	96.257740
2722.000000	96.289790
2723.000000	95.733250
2724.000000	94.828660
2725.000000	94.436910
2726.000000	94.727760
2727.000000	96.054980
2728.000000	97.517570
2729.000000	97.859680
2730.000000	98.164310
2731.000000	98.895400
2732.000000	100.349810
2733.000000	101.234420
2734.000000	101.911500
2735.000000	103.038460
2736.000000	104.392440
2737.000000	104.882750
2738.000000	104.436740
2739.000000	105.493980
2740.000000	107.330590
2741.000000	107.751410
2742.000000	108.180130
2743.000000	107.875590
2744.000000	108.623680
2745.000000	109.247230
2746.000000	108.616620
2747.000000	107.240480
2748.000000	107.655550
2749.000000	106.973240
2750.000000	104.846220
2751.000000	104.511780
2752.000000	103.243270
2753.000000	103.513660
2754.000000	102.197630
2755.000000	100.387110
2756.000000	99.694320
2757.000000	99.807500
2758.000000	99.134910
2759.000000	99.512550
2760.000000	98.917500
2761.000000	98.097590
2762.000000	97.588150
2763.000000	97.754570
2764.000000	98.133360
2765.000000	98.418370
2766.000000	98.353370
2767.000000	97.621700
2768.000000	97.147590
2769.000000	96.444300
2770.000000	96.956440
2771.000000	97.136340
2772.000000	97.505980
2773.000000	97.283750
2774.000000	96.682470
2775.000000	96.024330
2776.000000	95.493330
2777.000000	95.729060
2778.000000	96.071270
2779.000000	95.909250
2780.000000	96.596170
2781.000000	97.088790
2782.000000	97.043150
2783.000000	96.969270
2784.000000	97.942920
2785.000000	99.331110
2786.000000	100.650610
2787.000000	101.473210
2788.000000	102.175520
2789.000000	103.922340
2790.000000	105.198410
2791.000000	105.480240
2792.000000	106.379290
2793.000000	107.094180
2794.000000	106.765070
2795.000000	107.474080
2796.000000	108.319810
2797.000000	108.642790
2798.000000	108.448970
2799.000000	107.471560
2800.000000	106.588910
2801.000000	106.427230
2802.000000	106.372820
2803.000000	106.321890
2804.000000	106.562260
2805.000000	105.973590
2806.000000	105.437420
2807.000000	105.437090
2808.000000	105.420550
2809.000000	105.371860
2810.000000	105.777000
2811.000000	105.811510
2812.000000	105.736620
2813.000000	105.269370
2814.000000	105.195320
2815.000000	105.008970
2816.000000	104.632470
2817.000000	103.810980
2818.000000	103.299710
2819.000000	102.282720
2820.000000	100.859910
2821.000000	100.639130
2822.000000	100.240980
2823.000000	99.709410
2824.000000	98.852850
2825.000000	98.293590
2826.000000	97.861890
2827.000000	97.928230
2828.000000	97.401020
2829.000000	97.287200
2830.000000	96.496460
2831.000000	94.909920
2832.000000	93.856580
2833.000000	93.480220
2834.000000	93.854330
2835.000000	93.770460
2836.000000	93.620360
2837.000000	93.479160
2838.000000	93.679600
2839.000000	93.830530
2840.000000	94.600090
2841.000000	95.285310
2842.000000	95.676150
2843.000000	96.511520
2844.000000	96.582580
2845.000000	96.247520
2846.000000	96.148270
2847.000000	95.967230
2848.000000	95.687890
2849.000000	95.644760
2850.000000	95.790500
2851.000000	96.007220
2852.000000	95.697630
2853.000000	94.956000
2854.000000	93.947300
2855.000000	93.473720
2856.000000	93.382190
2857.000000	93.587940
2858.000000	94.133640
2859.000000	94.726910
2860.000000	95.104020
2861.000000	95.428470
2862.000000	95.994490
2863.000000	96.579740
2864.000000	97.458330
2865.000000	98.263990
2866.000000	98.556910
2867.000000	99.066450
2868.000000	99.515760
2869.000000	99.924040
2870.000000	100.175180
2871.000000	100.486030
2872.000000	100.813080
2873.000000	101.403780
2874.000000	102.068900
2875.000000	102.589100
2876.000000	103.025760
2877.000000	102.974140
2878.000000	103.143620
2879.000000	103.274060
2880.000000	103.369180
2881.000000	103.501890
2882.000000	103.546420
2883.000000	103.531240
2884.000000	104.380830
2885.000000	105.135520
2886.000000	105.196160
2887.000000	105.823250
2888.000000	106.164910
2889.000000	105.896890
2890.000000	105.568420
2891.000000	105.822160
2892.000000	106.402740
2893.000000	106.781310
2894.000000	105.670550
2895.000000	104.769800
2896.000000	104.947560
2897.000000	105.446270
2898.000000	105.800130
2899.000000	106.090360
2900.000000	106.527610
2901.000000	106.585810
2902.000000	106.088000
2903.000000	106.326310
2904.000000	107.235720
2905.000000	107.341790
2906.000000	107.293960
2907.000000	106.219930
2908.000000	105.335440
2909.000000	105.301660
2910.000000	104.750210
2911.000000	104.482250
2912.000000	104.918940
2913.000000	104.400120
2914.000000	103.946040
2915.000000	104.015690
2916.000000	103.444110
2917.000000	103.322360
2918.000000	103.811650
2919.000000	104.253230
2920.000000	104.830080
2921.000000	105.574300
2922.000000	105.557850
2923.000000	105.768180
2924.000000	106.337230
2925.000000	107.377460
2926.000000	107.430500
2927.000000	107.211980
2928.000000	106.708850
2929.000000	106.440770
2930.000000	105.892990
2931.000000	104.774490
2932.000000	104.270320
2933.000000	103.439950
2934.000000	102.727600
2935.000000	101.049590
2936.000000	100.772770
2937.000000	100.674090
2938.000000	100.378510
2939.000000	99.398040
2940.000000	99.737070
2941.000000	100.192550
2942.000000	100.011250
2943.000000	99.597890
2944.000000	99.333390
2945.000000	99.621820
2946.000000	99.986280
2947.000000	100.168240
2948.000000	100.438570
2949.000000	101.261190
2950.000000	101.265990
2951.000000	101.541120
2952.000000	101.490570
2953.000000	102.268910
2954.000000	102.118760
2955.000000	102.392100
2956.000000	101.906040
2957.000000	102.160660
2958.000000	101.792690
2959.000000	100.953340
2960.000000	100.427080
2961.000000	99.366410
2962.000000	99.262380
2963.000000	99.565640
2964.000000	99.714050
2965.000000	98.915500
2966.000000	99.492100
2967.000000	99.247620
2968.000000	99.531490
2969.000000	99.541050
2970.000000	99.285670
2971.000000	99.637060
2972.000000	99.698530
2973.000000	99.049460
2974.000000	98.810900
2975.000000	99.759950
2976.000000	99.152050
2977.000000	99.467500
2978.000000	98.845230
2979.000000	99.303400
2980.000000	99.752140
2981.000000	99.386180
2982.000000	98.749840
2983.000000	98.819250
2984.000000	98.825100
2985.000000	97.752010
2986.000000	97.846050
2987.000000	97.043580
2988.000000	97.491360
2989.000000	96.752750
2990.000000	97.769680
2991.000000	97.969590
2992.000000	98.274200
2993.000000	98.002850
2994.000000	98.001870
2995.000000	98.409850
2996.000000	99.470220
2997.000000	100.421520
2998.000000	101.088570
2999.000000	102.599310
3000.000000	101.433260
