PE UV       SUBTECH     SPECTRUM    ASCII       PEDS        4.00        
   -1
INBUCR0433-4.Sample.ASC
24/02/09
15:21:29.00
24/02/09
15:21:29.00
Vinicio Soto Monge
Chrysina cupreomarginata. Det: A. Solís. COSTA RICA. Prov San José. Pérez Zeledón. Estación Santa Elena. 1600 m. 21-29 JUL 1999. J. Rodríguez. de Luz L_S_373000_507500 #57317. INB00031565546 . Falta élitro izquierdo. 
250,000000
1
Lambda 1050
1050L1511233
PerkinElmer UV WinLab 6.3.2.0749 / 2.02.05 Lambda 900 UV/VIS/NIR, Aug  7 2015 09:38:08

0
0
3350/servo 860,8/2
0
0
UV/VIS
1
1
1
DoubleDePol,CommonBeamDepol,RBeamAtt,SBeamAtt,60mm sphere, WB InGaAs Detector
0
0
0
0
Program
Program
3350/servo 860,8/2
3350/0,2 860,8/0,2
3350/0,2 860,8/0,2
0
15.00
 
 
 
0
 
860,8
319,2
860,8
Front
100
on
S:100 R:100
0
0
0
0
 
0
 
 
 
0
 
 
0
0
0
0
0
 
 
 
 
0
0


0
0
#HDR
-1
-1
#GR
nm
%R
1.0
0.0
2500,000000
-1,000000
2251
8
15,493100
1,521000
#DATA

250.000000	nan
251.000000	nan
252.000000	nan
253.000000	nan
254.000000	nan
255.000000	nan
256.000000	nan
257.000000	nan
258.000000	nan
259.000000	3.762066
260.000000	3.759897
261.000000	3.755702
262.000000	3.752036
263.000000	3.749770
264.000000	3.748139
265.000000	3.747235
266.000000	3.744525
267.000000	3.742320
268.000000	3.740117
269.000000	3.733936
270.000000	3.730060
271.000000	3.728506
272.000000	3.726834
273.000000	3.725817
274.000000	3.722480
275.000000	3.720607
276.000000	3.719433
277.000000	3.718073
278.000000	3.717179
279.000000	3.719991
280.000000	3.720541
281.000000	3.720978
282.000000	3.720469
283.000000	3.719205
284.000000	3.719602
285.000000	3.719276
286.000000	3.720854
287.000000	3.749832
288.000000	3.751742
289.000000	3.778986
290.000000	3.808121
291.000000	3.838699
292.000000	3.841602
293.000000	3.871465
294.000000	3.902904
295.000000	3.932296
296.000000	3.960963
297.000000	3.958712
298.000000	3.987825
299.000000	3.989641
300.000000	3.992782
301.000000	3.994835
302.000000	4.026448
303.000000	4.028684
304.000000	4.030051
305.000000	4.033635
306.000000	4.036429
307.000000	4.043162
308.000000	4.047548
309.000000	4.048920
310.000000	4.048563
311.000000	4.049717
312.000000	4.049179
313.000000	4.052180
314.000000	4.054406
315.000000	4.056889
316.000000	4.059548
317.000000	4.093426
318.000000	4.121247
319.000000	4.145919
320.000000	4.168771
321.000000	4.200559
322.000000	4.235935
323.000000	4.254198
324.000000	4.282251
325.000000	4.300696
326.000000	4.316882
327.000000	4.296448
328.000000	4.282805
329.000000	4.275850
330.000000	4.268570
331.000000	4.254252
332.000000	4.227079
333.000000	4.220572
334.000000	4.203630
335.000000	4.196193
336.000000	4.186349
337.000000	4.191383
338.000000	4.185970
339.000000	4.179652
340.000000	4.176196
341.000000	4.170728
342.000000	4.171257
343.000000	4.164911
344.000000	4.165207
345.000000	4.161503
346.000000	4.168928
347.000000	4.163619
348.000000	4.159696
349.000000	4.164053
350.000000	4.164348
351.000000	4.160127
352.000000	4.162829
353.000000	4.167358
354.000000	4.161874
355.000000	4.161642
356.000000	4.157124
357.000000	4.154012
358.000000	4.157771
359.000000	4.149458
360.000000	4.146778
361.000000	4.148953
362.000000	4.147194
363.000000	4.143179
364.000000	4.143391
365.000000	4.138854
366.000000	4.135413
367.000000	4.131060
368.000000	4.126173
369.000000	4.123321
370.000000	4.117303
371.000000	4.109879
372.000000	4.097684
373.000000	4.088526
374.000000	4.077263
375.000000	4.068237
376.000000	4.067393
377.000000	4.057765
378.000000	4.048211
379.000000	4.041306
380.000000	4.035592
381.000000	4.029881
382.000000	4.029740
383.000000	4.028936
384.000000	4.030962
385.000000	4.033422
386.000000	4.053782
387.000000	4.085008
388.000000	4.116959
389.000000	4.149182
390.000000	4.181878
391.000000	4.214767
392.000000	4.247309
393.000000	4.279557
394.000000	4.312591
395.000000	4.345811
396.000000	4.350228
397.000000	4.355213
398.000000	4.360095
399.000000	4.364573
400.000000	4.369538
401.000000	4.374488
402.000000	4.380446
403.000000	4.386510
404.000000	4.392396
405.000000	4.398792
406.000000	4.405742
407.000000	4.413159
408.000000	4.421106
409.000000	4.429781
410.000000	4.438679
411.000000	4.448881
412.000000	4.459726
413.000000	4.471444
414.000000	4.484461
415.000000	4.527112
416.000000	4.571102
417.000000	4.616354
418.000000	4.662824
419.000000	4.710521
420.000000	4.759690
421.000000	4.809790
422.000000	4.861708
423.000000	4.915445
424.000000	4.970223
425.000000	4.997902
426.000000	5.026681
427.000000	5.056220
428.000000	5.115420
429.000000	5.175774
430.000000	5.237336
431.000000	5.300039
432.000000	5.363442
433.000000	5.427386
434.000000	5.492062
435.000000	5.557389
436.000000	5.623517
437.000000	5.690351
438.000000	5.729103
439.000000	5.767737
440.000000	5.834842
441.000000	5.901842
442.000000	5.968017
443.000000	6.033920
444.000000	6.099950
445.000000	6.165895
446.000000	6.231475
447.000000	6.296838
448.000000	6.362092
449.000000	6.427179
450.000000	6.463003
451.000000	6.498337
452.000000	6.533728
453.000000	6.597559
454.000000	6.660677
455.000000	6.722685
456.000000	6.783672
457.000000	6.844083
458.000000	6.904046
459.000000	6.963447
460.000000	7.022732
461.000000	7.082024
462.000000	7.140734
463.000000	7.169982
464.000000	7.199137
465.000000	7.228403
466.000000	7.257310
467.000000	7.285471
468.000000	7.313123
469.000000	7.369183
470.000000	7.424714
471.000000	7.479349
472.000000	7.533308
473.000000	7.586345
474.000000	7.638578
475.000000	7.689571
476.000000	7.739392
477.000000	7.788399
478.000000	7.836429
479.000000	7.854621
480.000000	7.870345
481.000000	7.883284
482.000000	7.894144
483.000000	7.904463
484.000000	7.914131
485.000000	7.923618
486.000000	7.933383
487.000000	7.942852
488.000000	7.980773
489.000000	8.019131
490.000000	8.059313
491.000000	8.102293
492.000000	8.147629
493.000000	8.194890
494.000000	8.244607
495.000000	8.326018
496.000000	8.410951
497.000000	8.500389
498.000000	8.566565
499.000000	8.638722
500.000000	8.746080
501.000000	8.860429
502.000000	8.981739
503.000000	9.109830
504.000000	9.243716
505.000000	9.381816
506.000000	9.523913
507.000000	9.668717
508.000000	9.815112
509.000000	9.961421
510.000000	10.077628
511.000000	10.220356
512.000000	10.360101
513.000000	10.495964
514.000000	10.627653
515.000000	10.726434
516.000000	10.849453
517.000000	10.968916
518.000000	11.084769
519.000000	11.197960
520.000000	11.309245
521.000000	11.418281
522.000000	11.526447
523.000000	11.634774
524.000000	11.772265
525.000000	11.911634
526.000000	12.024268
527.000000	12.138481
528.000000	12.283835
529.000000	12.432185
530.000000	12.583780
531.000000	12.739221
532.000000	12.898922
533.000000	13.062190
534.000000	13.229660
535.000000	13.401574
536.000000	13.577908
537.000000	13.758447
538.000000	13.943175
539.000000	14.131746
540.000000	14.323870
541.000000	14.519987
542.000000	14.719587
543.000000	14.922472
544.000000	15.099662
545.000000	15.307901
546.000000	15.517581
547.000000	15.728929
548.000000	15.911430
549.000000	16.092901
550.000000	16.272906
551.000000	16.451173
552.000000	16.625867
553.000000	16.795821
554.000000	16.961086
555.000000	17.091430
556.000000	17.215798
557.000000	17.333422
558.000000	17.445133
559.000000	17.550680
560.000000	17.628802
561.000000	17.695901
562.000000	17.756589
563.000000	17.811185
564.000000	17.859101
565.000000	17.902490
566.000000	17.940972
567.000000	17.974901
568.000000	18.004742
569.000000	18.031125
570.000000	18.075072
571.000000	18.090921
572.000000	18.103790
573.000000	18.114748
574.000000	18.124840
575.000000	18.133067
576.000000	18.140207
577.000000	18.146498
578.000000	18.152878
579.000000	18.157826
580.000000	18.133500
581.000000	18.108918
582.000000	18.083468
583.000000	18.057066
584.000000	18.028099
585.000000	17.997708
586.000000	17.965171
587.000000	17.930782
588.000000	17.892873
589.000000	17.854798
590.000000	17.843660
591.000000	17.831073
592.000000	17.818631
593.000000	17.806309
594.000000	17.795161
595.000000	17.784927
596.000000	17.775637
597.000000	17.767488
598.000000	17.761348
599.000000	17.755841
600.000000	17.751552
601.000000	17.747613
602.000000	17.744434
603.000000	17.741087
604.000000	17.735452
605.000000	17.699284
606.000000	17.661580
607.000000	17.622624
608.000000	17.580685
609.000000	17.536299
610.000000	17.489516
611.000000	17.441580
612.000000	17.391302
613.000000	17.341268
614.000000	17.292108
615.000000	17.271167
616.000000	17.250570
617.000000	17.229989
618.000000	17.180905
619.000000	17.131107
620.000000	17.080914
621.000000	17.027504
622.000000	16.970349
623.000000	16.907926
624.000000	16.840336
625.000000	16.739619
626.000000	16.632945
627.000000	16.519385
628.000000	16.429249
629.000000	16.333784
630.000000	16.232694
631.000000	16.128103
632.000000	16.021067
633.000000	15.912835
634.000000	15.803816
635.000000	15.723566
636.000000	15.646412
637.000000	15.573656
638.000000	15.506716
639.000000	15.446039
640.000000	15.393740
641.000000	15.350745
642.000000	15.316681
643.000000	15.319555
644.000000	15.332351
645.000000	15.354700
646.000000	15.384764
647.000000	15.420393
648.000000	15.461385
649.000000	15.507150
650.000000	15.556150
651.000000	15.607391
652.000000	15.660357
653.000000	15.715499
654.000000	15.771489
655.000000	15.828278
656.000000	15.885880
657.000000	15.945876
658.000000	16.007353
659.000000	16.070736
660.000000	16.136488
661.000000	16.204209
662.000000	16.275373
663.000000	16.347336
664.000000	16.421505
665.000000	16.496157
666.000000	16.572209
667.000000	16.648263
668.000000	16.723416
669.000000	16.797276
670.000000	16.870297
671.000000	16.942198
672.000000	17.011205
673.000000	17.049114
674.000000	17.084949
675.000000	17.118820
676.000000	17.148789
677.000000	17.177114
678.000000	17.203649
679.000000	17.228347
680.000000	17.251239
681.000000	17.271760
682.000000	17.290937
683.000000	17.310999
684.000000	17.330295
685.000000	17.349156
686.000000	17.367815
687.000000	17.385819
688.000000	17.432122
689.000000	17.476976
690.000000	17.519397
691.000000	17.561107
692.000000	17.600647
693.000000	17.638609
694.000000	17.673175
695.000000	17.705595
696.000000	17.737559
697.000000	17.768359
698.000000	17.768637
699.000000	17.768960
700.000000	17.769745
701.000000	17.768861
702.000000	17.768515
703.000000	17.767514
704.000000	17.767487
705.000000	17.769122
706.000000	17.771662
707.000000	17.774286
708.000000	17.778328
709.000000	17.783888
710.000000	17.790770
711.000000	17.800574
712.000000	17.812124
713.000000	17.824385
714.000000	17.838372
715.000000	17.853175
716.000000	17.895407
717.000000	17.938211
718.000000	17.982505
719.000000	18.026282
720.000000	18.070014
721.000000	18.113133
722.000000	18.156457
723.000000	18.201138
724.000000	18.245910
725.000000	18.289123
726.000000	18.304615
727.000000	18.321689
728.000000	18.337941
729.000000	18.355932
730.000000	18.374474
731.000000	18.393366
732.000000	18.412480
733.000000	18.429815
734.000000	18.447583
735.000000	18.466768
736.000000	18.485389
737.000000	18.502896
738.000000	18.518973
739.000000	18.532212
740.000000	18.544100
741.000000	18.554141
742.000000	18.590722
743.000000	18.598401
744.000000	18.632293
745.000000	18.663765
746.000000	18.696258
747.000000	18.728252
748.000000	18.759311
749.000000	18.790607
750.000000	18.821971
751.000000	18.853462
752.000000	18.856699
753.000000	18.889338
754.000000	18.894170
755.000000	18.898453
756.000000	18.899854
757.000000	18.900758
758.000000	18.901424
759.000000	18.901147
760.000000	18.900787
761.000000	18.900417
762.000000	18.899266
763.000000	18.896392
764.000000	18.893131
765.000000	18.891092
766.000000	18.890677
767.000000	18.889244
768.000000	18.888824
769.000000	18.890644
770.000000	18.892847
771.000000	18.894723
772.000000	18.927393
773.000000	18.962778
774.000000	18.999359
775.000000	19.037315
776.000000	19.074632
777.000000	19.112785
778.000000	19.152206
779.000000	19.191949
780.000000	19.230472
781.000000	19.268789
782.000000	19.278216
783.000000	19.287740
784.000000	19.296569
785.000000	19.304297
786.000000	19.314992
787.000000	19.356022
788.000000	19.399075
789.000000	19.442090
790.000000	19.488958
791.000000	19.541122
792.000000	19.592706
793.000000	19.643071
794.000000	19.696229
795.000000	19.750445
796.000000	19.804428
797.000000	19.829478
798.000000	19.851135
799.000000	19.871638
800.000000	19.890435
801.000000	19.936146
802.000000	19.984150
803.000000	20.033712
804.000000	20.081776
805.000000	20.131323
806.000000	20.180464
807.000000	20.229911
808.000000	20.286398
809.000000	20.345107
810.000000	20.404714
811.000000	20.433850
812.000000	20.459701
813.000000	20.484460
814.000000	20.510165
815.000000	20.532235
816.000000	20.553872
817.000000	20.574387
818.000000	20.590641
819.000000	20.634194
820.000000	20.674782
821.000000	20.717457
822.000000	20.760376
823.000000	20.805446
824.000000	20.848747
825.000000	20.895843
826.000000	20.942970
827.000000	20.986718
828.000000	21.029935
829.000000	21.043853
830.000000	21.059563
831.000000	21.072660
832.000000	21.085789
833.000000	21.095044
834.000000	21.102280
835.000000	21.102637
836.000000	21.105054
837.000000	21.113150
838.000000	21.121421
839.000000	21.129514
840.000000	21.134999
841.000000	21.137581
842.000000	21.138824
843.000000	21.140080
844.000000	21.144871
845.000000	21.155109
846.000000	21.163920
847.000000	21.168686
848.000000	21.164001
849.000000	21.158632
850.000000	21.160332
851.000000	21.163702
852.000000	21.158383
853.000000	21.150009
854.000000	21.137001
855.000000	21.127430
856.000000	21.109640
857.000000	21.121169
858.000000	21.396295
859.000000	21.474049
860.000000	21.522663
861.000000	21.601293
862.000000	21.692141
863.000000	21.765873
864.000000	21.844131
865.000000	21.920015
866.000000	22.003207
867.000000	22.058561
868.000000	21.859383
869.000000	21.833465
870.000000	21.830907
871.000000	21.800605
872.000000	21.769558
873.000000	21.758587
874.000000	21.746543
875.000000	21.706895
876.000000	21.692168
877.000000	21.677862
878.000000	21.688030
879.000000	21.697465
880.000000	21.707973
881.000000	21.691805
882.000000	21.674075
883.000000	21.657303
884.000000	21.639945
885.000000	21.647202
886.000000	21.628087
887.000000	21.607740
888.000000	21.535615
889.000000	21.489090
890.000000	21.440565
891.000000	21.417115
892.000000	21.394173
893.000000	21.370580
894.000000	21.345850
895.000000	21.322398
896.000000	21.298210
897.000000	21.274313
898.000000	21.275468
899.000000	21.250842
900.000000	21.250305
901.000000	21.251155
902.000000	21.226312
903.000000	21.200635
904.000000	21.173645
905.000000	21.145440
906.000000	21.116913
907.000000	21.088420
908.000000	21.059735
909.000000	21.054755
910.000000	21.025495
911.000000	20.994420
912.000000	20.963118
913.000000	20.957770
914.000000	20.952838
915.000000	20.923180
916.000000	20.895230
917.000000	20.866577
918.000000	20.836955
919.000000	20.807772
920.000000	20.778710
921.000000	20.749218
922.000000	20.743327
923.000000	20.712473
924.000000	20.681390
925.000000	20.672368
926.000000	20.661227
927.000000	20.649408
928.000000	20.636195
929.000000	20.597563
930.000000	20.558443
931.000000	20.519098
932.000000	20.480285
933.000000	20.441925
934.000000	20.405498
935.000000	20.372328
936.000000	20.339770
937.000000	20.308608
938.000000	20.279573
939.000000	20.275915
940.000000	20.271157
941.000000	20.267290
942.000000	20.264937
943.000000	20.260843
944.000000	20.255005
945.000000	20.247863
946.000000	20.240460
947.000000	20.230725
948.000000	20.221300
949.000000	20.211437
950.000000	20.203678
951.000000	20.195570
952.000000	20.186152
953.000000	20.153062
954.000000	20.144630
955.000000	20.135935
956.000000	20.126933
957.000000	20.094307
958.000000	20.061003
959.000000	20.028592
960.000000	19.995620
961.000000	19.962090
962.000000	19.928680
963.000000	19.918585
964.000000	19.884082
965.000000	19.849207
966.000000	19.814205
967.000000	19.803212
968.000000	19.792243
969.000000	19.780318
970.000000	19.767667
971.000000	19.755142
972.000000	19.742287
973.000000	19.728942
974.000000	19.715195
975.000000	19.702762
976.000000	19.690348
977.000000	19.678483
978.000000	19.667160
979.000000	19.656745
980.000000	19.647047
981.000000	19.637610
982.000000	19.628855
983.000000	19.621092
984.000000	19.614575
985.000000	19.607030
986.000000	19.600245
987.000000	19.594680
988.000000	19.588510
989.000000	19.582430
990.000000	19.576273
991.000000	19.571365
992.000000	19.566965
993.000000	19.562915
994.000000	19.557572
995.000000	19.552700
996.000000	19.549200
997.000000	19.545193
998.000000	19.542278
999.000000	19.538955
1000.000000	19.535522
1001.000000	19.531928
1002.000000	19.528560
1003.000000	19.525540
1004.000000	19.523105
1005.000000	19.521117
1006.000000	19.518397
1007.000000	19.516385
1008.000000	19.514540
1009.000000	19.511983
1010.000000	19.509390
1011.000000	19.506775
1012.000000	19.503508
1013.000000	19.499362
1014.000000	19.495230
1015.000000	19.491962
1016.000000	19.488953
1017.000000	19.484558
1018.000000	19.479570
1019.000000	19.475977
1020.000000	19.471972
1021.000000	19.466732
1022.000000	19.461830
1023.000000	19.458045
1024.000000	19.454403
1025.000000	19.449690
1026.000000	19.444337
1027.000000	19.439595
1028.000000	19.434960
1029.000000	19.430020
1030.000000	19.425468
1031.000000	19.420890
1032.000000	19.416027
1033.000000	19.410965
1034.000000	19.405707
1035.000000	19.400427
1036.000000	19.395317
1037.000000	19.390750
1038.000000	19.386108
1039.000000	19.381222
1040.000000	19.376652
1041.000000	19.372235
1042.000000	19.368282
1043.000000	19.364448
1044.000000	19.361135
1045.000000	19.358515
1046.000000	19.356248
1047.000000	19.353592
1048.000000	19.351415
1049.000000	19.350330
1050.000000	19.350507
1051.000000	19.351815
1052.000000	19.352642
1053.000000	19.354093
1054.000000	19.355850
1055.000000	19.356788
1056.000000	19.358493
1057.000000	19.360873
1058.000000	19.363590
1059.000000	19.366402
1060.000000	19.368923
1061.000000	19.371560
1062.000000	19.374793
1063.000000	19.377353
1064.000000	19.379690
1065.000000	19.383028
1066.000000	19.386235
1067.000000	19.389900
1068.000000	19.394010
1069.000000	19.397652
1070.000000	19.401635
1071.000000	19.405500
1072.000000	19.409538
1073.000000	19.414022
1074.000000	19.419647
1075.000000	19.425545
1076.000000	19.430765
1077.000000	19.435913
1078.000000	19.440150
1079.000000	19.444723
1080.000000	19.449110
1081.000000	19.453052
1082.000000	19.456567
1083.000000	19.458995
1084.000000	19.460377
1085.000000	19.461825
1086.000000	19.464108
1087.000000	19.465270
1088.000000	19.466902
1089.000000	19.468697
1090.000000	19.470012
1091.000000	19.471170
1092.000000	19.471652
1093.000000	19.473527
1094.000000	19.475590
1095.000000	19.477303
1096.000000	19.478312
1097.000000	19.479937
1098.000000	19.480700
1099.000000	19.480770
1100.000000	19.480588
1101.000000	19.480503
1102.000000	19.481685
1103.000000	19.483348
1104.000000	19.484030
1105.000000	19.483873
1106.000000	19.483070
1107.000000	19.482132
1108.000000	19.481680
1109.000000	19.481690
1110.000000	19.480853
1111.000000	19.480485
1112.000000	19.479942
1113.000000	19.477745
1114.000000	19.477107
1115.000000	19.477415
1116.000000	19.478715
1117.000000	19.480085
1118.000000	19.480910
1119.000000	19.480837
1120.000000	19.482387
1121.000000	19.484260
1122.000000	19.486528
1123.000000	19.489093
1124.000000	19.491575
1125.000000	19.494098
1126.000000	19.495685
1127.000000	19.496323
1128.000000	19.497660
1129.000000	19.499310
1130.000000	19.499745
1131.000000	19.498393
1132.000000	19.494103
1133.000000	19.490033
1134.000000	19.488053
1135.000000	19.486460
1136.000000	19.484305
1137.000000	19.481172
1138.000000	19.478255
1139.000000	19.475050
1140.000000	19.471567
1141.000000	19.469215
1142.000000	19.468090
1143.000000	19.467667
1144.000000	19.466017
1145.000000	19.462980
1146.000000	19.460567
1147.000000	19.459915
1148.000000	19.458160
1149.000000	19.457140
1150.000000	19.456420
1151.000000	19.455725
1152.000000	19.456653
1153.000000	19.457232
1154.000000	19.454795
1155.000000	19.452558
1156.000000	19.450420
1157.000000	19.447963
1158.000000	19.444430
1159.000000	19.440545
1160.000000	19.435983
1161.000000	19.429723
1162.000000	19.422548
1163.000000	19.414538
1164.000000	19.406580
1165.000000	19.397208
1166.000000	19.388762
1167.000000	19.379188
1168.000000	19.370617
1169.000000	19.361715
1170.000000	19.354072
1171.000000	19.347483
1172.000000	19.340228
1173.000000	19.332943
1174.000000	19.326890
1175.000000	19.322595
1176.000000	19.317295
1177.000000	19.313488
1178.000000	19.311135
1179.000000	19.308870
1180.000000	19.306100
1181.000000	19.303730
1182.000000	19.301195
1183.000000	19.300042
1184.000000	19.298507
1185.000000	19.297210
1186.000000	19.296565
1187.000000	19.295920
1188.000000	19.292945
1189.000000	19.291068
1190.000000	19.289637
1191.000000	19.288728
1192.000000	19.291113
1193.000000	19.292185
1194.000000	19.294110
1195.000000	19.297285
1196.000000	19.299672
1197.000000	19.302412
1198.000000	19.307490
1199.000000	19.311660
1200.000000	19.316645
1201.000000	19.321838
1202.000000	19.324402
1203.000000	19.328502
1204.000000	19.332325
1205.000000	19.335873
1206.000000	19.340660
1207.000000	19.346518
1208.000000	19.352155
1209.000000	19.358618
1210.000000	19.364088
1211.000000	19.370117
1212.000000	19.376683
1213.000000	19.383080
1214.000000	19.391488
1215.000000	19.399090
1216.000000	19.406100
1217.000000	19.412535
1218.000000	19.418920
1219.000000	19.425200
1220.000000	19.432815
1221.000000	19.465010
1222.000000	19.497592
1223.000000	19.530920
1224.000000	19.562688
1225.000000	19.593330
1226.000000	19.624570
1227.000000	19.656433
1228.000000	19.688202
1229.000000	19.719928
1230.000000	19.750863
1231.000000	19.755415
1232.000000	19.759843
1233.000000	19.762970
1234.000000	19.765335
1235.000000	19.768612
1236.000000	19.771430
1237.000000	19.773103
1238.000000	19.774382
1239.000000	19.775627
1240.000000	19.776400
1241.000000	19.778433
1242.000000	19.780202
1243.000000	19.782135
1244.000000	19.785350
1245.000000	19.789490
1246.000000	19.794130
1247.000000	19.798873
1248.000000	19.804750
1249.000000	19.810820
1250.000000	19.817417
1251.000000	19.824847
1252.000000	19.833640
1253.000000	19.842683
1254.000000	19.851333
1255.000000	19.859085
1256.000000	19.866638
1257.000000	19.874805
1258.000000	19.883517
1259.000000	19.891948
1260.000000	19.899912
1261.000000	19.907130
1262.000000	19.914005
1263.000000	19.920285
1264.000000	19.926205
1265.000000	19.932535
1266.000000	19.939293
1267.000000	19.945745
1268.000000	19.950377
1269.000000	19.953880
1270.000000	19.958000
1271.000000	19.962493
1272.000000	19.965723
1273.000000	19.968815
1274.000000	19.972738
1275.000000	19.977085
1276.000000	19.981010
1277.000000	19.983678
1278.000000	19.986332
1279.000000	19.990198
1280.000000	19.993090
1281.000000	20.020477
1282.000000	20.049475
1283.000000	20.078545
1284.000000	20.106960
1285.000000	20.134982
1286.000000	20.163165
1287.000000	20.192110
1288.000000	20.221422
1289.000000	20.250550
1290.000000	20.280980
1291.000000	20.286448
1292.000000	20.291095
1293.000000	20.295945
1294.000000	20.300285
1295.000000	20.304337
1296.000000	20.307797
1297.000000	20.312565
1298.000000	20.318285
1299.000000	20.323485
1300.000000	20.327847
1301.000000	20.331733
1302.000000	20.334983
1303.000000	20.338842
1304.000000	20.343072
1305.000000	20.347210
1306.000000	20.352228
1307.000000	20.355685
1308.000000	20.357408
1309.000000	20.359475
1310.000000	20.361512
1311.000000	20.362793
1312.000000	20.363195
1313.000000	20.362655
1314.000000	20.362007
1315.000000	20.360345
1316.000000	20.358058
1317.000000	20.356268
1318.000000	20.353830
1319.000000	20.350073
1320.000000	20.346077
1321.000000	20.342537
1322.000000	20.339480
1323.000000	20.336340
1324.000000	20.331903
1325.000000	20.326615
1326.000000	20.320672
1327.000000	20.314477
1328.000000	20.309267
1329.000000	20.304582
1330.000000	20.298805
1331.000000	20.267165
1332.000000	20.235148
1333.000000	20.201722
1334.000000	20.169195
1335.000000	20.137143
1336.000000	20.104190
1337.000000	20.070308
1338.000000	20.036228
1339.000000	20.002060
1340.000000	19.967977
1341.000000	19.957677
1342.000000	19.946215
1343.000000	19.934550
1344.000000	19.921845
1345.000000	19.908152
1346.000000	19.894348
1347.000000	19.881162
1348.000000	19.866405
1349.000000	19.850042
1350.000000	19.831615
1351.000000	19.814525
1352.000000	19.796540
1353.000000	19.778610
1354.000000	19.764373
1355.000000	19.753023
1356.000000	19.741365
1357.000000	19.727390
1358.000000	19.688230
1359.000000	19.647330
1360.000000	19.611452
1361.000000	19.582245
1362.000000	19.554725
1363.000000	19.523992
1364.000000	19.491050
1365.000000	19.453958
1366.000000	19.412840
1367.000000	19.374435
1368.000000	19.335425
1369.000000	19.291885
1370.000000	19.244025
1371.000000	19.187630
1372.000000	19.124680
1373.000000	19.055500
1374.000000	18.950725
1375.000000	18.840782
1376.000000	18.725650
1377.000000	18.600160
1378.000000	18.489395
1379.000000	18.379145
1380.000000	18.241013
1381.000000	18.109015
1382.000000	17.984987
1383.000000	17.873120
1384.000000	17.793257
1385.000000	17.718655
1386.000000	17.652628
1387.000000	17.599032
1388.000000	17.562180
1389.000000	17.530185
1390.000000	17.525057
1391.000000	17.520885
1392.000000	17.518972
1393.000000	17.513885
1394.000000	17.513732
1395.000000	17.527178
1396.000000	17.545685
1397.000000	17.554163
1398.000000	17.551320
1399.000000	17.556365
1400.000000	17.575207
1401.000000	17.587753
1402.000000	17.587800
1403.000000	17.585883
1404.000000	17.584745
1405.000000	17.548265
1406.000000	17.504145
1407.000000	17.465938
1408.000000	17.434942
1409.000000	17.399048
1410.000000	17.347785
1411.000000	17.291123
1412.000000	17.240977
1413.000000	17.195400
1414.000000	17.148365
1415.000000	17.120860
1416.000000	17.091840
1417.000000	17.062225
1418.000000	17.033532
1419.000000	17.004787
1420.000000	16.952202
1421.000000	16.902107
1422.000000	16.853352
1423.000000	16.804645
1424.000000	16.752327
1425.000000	16.701137
1426.000000	16.654843
1427.000000	16.608595
1428.000000	16.561410
1429.000000	16.511350
1430.000000	16.487133
1431.000000	16.468705
1432.000000	16.451052
1433.000000	16.430625
1434.000000	16.411945
1435.000000	16.395353
1436.000000	16.378642
1437.000000	16.363875
1438.000000	16.324552
1439.000000	16.286047
1440.000000	16.250510
1441.000000	16.212475
1442.000000	16.175305
1443.000000	16.137742
1444.000000	16.100243
1445.000000	16.065882
1446.000000	16.033300
1447.000000	15.997160
1448.000000	15.984955
1449.000000	15.975510
1450.000000	15.966420
1451.000000	15.959582
1452.000000	15.950712
1453.000000	15.942558
1454.000000	15.935020
1455.000000	15.925712
1456.000000	15.914510
1457.000000	15.905802
1458.000000	15.896755
1459.000000	15.887165
1460.000000	15.876555
1461.000000	15.863990
1462.000000	15.853277
1463.000000	15.843117
1464.000000	15.832395
1465.000000	15.821778
1466.000000	15.811462
1467.000000	15.800337
1468.000000	15.789420
1469.000000	15.753080
1470.000000	15.718765
1471.000000	15.684975
1472.000000	15.650795
1473.000000	15.616872
1474.000000	15.582390
1475.000000	15.548717
1476.000000	15.515515
1477.000000	15.483543
1478.000000	15.452270
1479.000000	15.445685
1480.000000	15.437500
1481.000000	15.429823
1482.000000	15.422925
1483.000000	15.415878
1484.000000	15.409913
1485.000000	15.403320
1486.000000	15.397260
1487.000000	15.392287
1488.000000	15.385740
1489.000000	15.379940
1490.000000	15.374750
1491.000000	15.369435
1492.000000	15.364070
1493.000000	15.359205
1494.000000	15.354802
1495.000000	15.351173
1496.000000	15.347610
1497.000000	15.344587
1498.000000	15.343880
1499.000000	15.343050
1500.000000	15.342860
1501.000000	15.344078
1502.000000	15.346158
1503.000000	15.350000
1504.000000	15.354422
1505.000000	15.358873
1506.000000	15.364765
1507.000000	15.371075
1508.000000	15.377450
1509.000000	15.385192
1510.000000	15.393818
1511.000000	15.402105
1512.000000	15.411262
1513.000000	15.445295
1514.000000	15.479108
1515.000000	15.513780
1516.000000	15.548583
1517.000000	15.583417
1518.000000	15.619200
1519.000000	15.654723
1520.000000	15.689472
1521.000000	15.724333
1522.000000	15.758210
1523.000000	15.766948
1524.000000	15.775425
1525.000000	15.783742
1526.000000	15.792053
1527.000000	15.800368
1528.000000	15.808425
1529.000000	15.816573
1530.000000	15.824590
1531.000000	15.833082
1532.000000	15.840908
1533.000000	15.848475
1534.000000	15.857295
1535.000000	15.865863
1536.000000	15.873237
1537.000000	15.879755
1538.000000	15.885710
1539.000000	15.891657
1540.000000	15.897730
1541.000000	15.903400
1542.000000	15.909588
1543.000000	15.916147
1544.000000	15.923208
1545.000000	15.930280
1546.000000	15.938065
1547.000000	15.947408
1548.000000	15.958047
1549.000000	15.968287
1550.000000	15.978452
1551.000000	16.014620
1552.000000	16.051380
1553.000000	16.088035
1554.000000	16.124045
1555.000000	16.159885
1556.000000	16.195062
1557.000000	16.228635
1558.000000	16.260303
1559.000000	16.291478
1560.000000	16.321912
1561.000000	16.325340
1562.000000	16.327508
1563.000000	16.329235
1564.000000	16.329857
1565.000000	16.329125
1566.000000	16.327553
1567.000000	16.325915
1568.000000	16.324932
1569.000000	16.323455
1570.000000	16.321217
1571.000000	16.319145
1572.000000	16.317383
1573.000000	16.316117
1574.000000	16.315463
1575.000000	16.315523
1576.000000	16.316470
1577.000000	16.318150
1578.000000	16.319633
1579.000000	16.322218
1580.000000	16.326000
1581.000000	16.330237
1582.000000	16.335393
1583.000000	16.339953
1584.000000	16.344448
1585.000000	16.349755
1586.000000	16.355553
1587.000000	16.360595
1588.000000	16.366060
1589.000000	16.372305
1590.000000	16.379045
1591.000000	16.385700
1592.000000	16.391555
1593.000000	16.397917
1594.000000	16.404545
1595.000000	16.411295
1596.000000	16.418560
1597.000000	16.426185
1598.000000	16.433487
1599.000000	16.439698
1600.000000	16.446587
1601.000000	16.454253
1602.000000	16.462817
1603.000000	16.471100
1604.000000	16.478942
1605.000000	16.487525
1606.000000	16.495550
1607.000000	16.503830
1608.000000	16.513358
1609.000000	16.522853
1610.000000	16.531743
1611.000000	16.565280
1612.000000	16.597770
1613.000000	16.630500
1614.000000	16.662415
1615.000000	16.693503
1616.000000	16.725175
1617.000000	16.756580
1618.000000	16.786297
1619.000000	16.815997
1620.000000	16.845392
1621.000000	16.849725
1622.000000	16.854085
1623.000000	16.858688
1624.000000	16.863630
1625.000000	16.868185
1626.000000	16.872135
1627.000000	16.876060
1628.000000	16.880613
1629.000000	16.885110
1630.000000	16.889680
1631.000000	16.894382
1632.000000	16.898897
1633.000000	16.903005
1634.000000	16.907407
1635.000000	16.911895
1636.000000	16.916160
1637.000000	16.919745
1638.000000	16.923302
1639.000000	16.926330
1640.000000	16.928805
1641.000000	16.930248
1642.000000	16.931898
1643.000000	16.933295
1644.000000	16.934210
1645.000000	16.936165
1646.000000	16.937288
1647.000000	16.938810
1648.000000	16.939225
1649.000000	16.939835
1650.000000	16.939743
1651.000000	16.938920
1652.000000	16.937738
1653.000000	16.935807
1654.000000	16.933402
1655.000000	16.929350
1656.000000	16.924995
1657.000000	16.918915
1658.000000	16.911900
1659.000000	16.904535
1660.000000	16.896328
1661.000000	16.887915
1662.000000	16.877965
1663.000000	16.841413
1664.000000	16.804120
1665.000000	16.765432
1666.000000	16.724577
1667.000000	16.684140
1668.000000	16.638893
1669.000000	16.591743
1670.000000	16.543660
1671.000000	16.494422
1672.000000	16.443858
1673.000000	16.418367
1674.000000	16.391798
1675.000000	16.363792
1676.000000	16.336633
1677.000000	16.307385
1678.000000	16.256365
1679.000000	16.204900
1680.000000	16.152062
1681.000000	16.098733
1682.000000	16.045963
1683.000000	15.992255
1684.000000	15.938917
1685.000000	15.884545
1686.000000	15.831080
1687.000000	15.779968
1688.000000	15.755780
1689.000000	15.734512
1690.000000	15.715875
1691.000000	15.701040
1692.000000	15.688977
1693.000000	15.679888
1694.000000	15.671983
1695.000000	15.669830
1696.000000	15.667480
1697.000000	15.665220
1698.000000	15.663788
1699.000000	15.660325
1700.000000	15.658010
1701.000000	15.652780
1702.000000	15.646953
1703.000000	15.639492
1704.000000	15.630655
1705.000000	15.594460
1706.000000	15.556292
1707.000000	15.518007
1708.000000	15.478103
1709.000000	15.437835
1710.000000	15.394673
1711.000000	15.351422
1712.000000	15.305917
1713.000000	15.259668
1714.000000	15.211603
1715.000000	15.185705
1716.000000	15.160818
1717.000000	15.131398
1718.000000	15.100870
1719.000000	15.069595
1720.000000	15.038320
1721.000000	15.007030
1722.000000	14.977600
1723.000000	14.949322
1724.000000	14.924465
1725.000000	14.877597
1726.000000	14.833677
1727.000000	14.794895
1728.000000	14.759258
1729.000000	14.727467
1730.000000	14.724585
1731.000000	14.700430
1732.000000	14.703160
1733.000000	14.709255
1734.000000	14.718958
1735.000000	14.756330
1736.000000	14.795110
1737.000000	14.836605
1738.000000	14.878785
1739.000000	14.922455
1740.000000	14.941865
1741.000000	14.986235
1742.000000	15.005735
1743.000000	15.024280
1744.000000	15.041695
1745.000000	15.058018
1746.000000	15.074003
1747.000000	15.087247
1748.000000	15.101770
1749.000000	15.112922
1750.000000	15.121505
1751.000000	15.129123
1752.000000	15.134882
1753.000000	15.139500
1754.000000	15.142130
1755.000000	15.143693
1756.000000	15.143495
1757.000000	15.143650
1758.000000	15.141155
1759.000000	15.139510
1760.000000	15.139028
1761.000000	15.138097
1762.000000	15.138102
1763.000000	15.138880
1764.000000	15.139900
1765.000000	15.142350
1766.000000	15.146707
1767.000000	15.152723
1768.000000	15.160478
1769.000000	15.169642
1770.000000	15.179720
1771.000000	15.190543
1772.000000	15.201480
1773.000000	15.212775
1774.000000	15.225325
1775.000000	15.237540
1776.000000	15.249115
1777.000000	15.260485
1778.000000	15.271820
1779.000000	15.282707
1780.000000	15.293415
1781.000000	15.303543
1782.000000	15.313205
1783.000000	15.347658
1784.000000	15.381113
1785.000000	15.413972
1786.000000	15.445512
1787.000000	15.474847
1788.000000	15.502597
1789.000000	15.530132
1790.000000	15.555802
1791.000000	15.581245
1792.000000	15.607162
1793.000000	15.607420
1794.000000	15.607850
1795.000000	15.607418
1796.000000	15.606807
1797.000000	15.606720
1798.000000	15.606563
1799.000000	15.605855
1800.000000	15.607415
1801.000000	15.611570
1802.000000	15.615185
1803.000000	15.616235
1804.000000	15.616050
1805.000000	15.618073
1806.000000	15.622972
1807.000000	15.627360
1808.000000	15.629515
1809.000000	15.630573
1810.000000	15.631732
1811.000000	15.632903
1812.000000	15.634493
1813.000000	15.636123
1814.000000	15.638570
1815.000000	15.641105
1816.000000	15.639820
1817.000000	15.633815
1818.000000	15.627062
1819.000000	15.624695
1820.000000	15.629475
1821.000000	15.638000
1822.000000	15.643655
1823.000000	15.643162
1824.000000	15.637505
1825.000000	15.630120
1826.000000	15.626805
1827.000000	15.631032
1828.000000	15.639022
1829.000000	15.645095
1830.000000	15.645772
1831.000000	15.639762
1832.000000	15.631910
1833.000000	15.626510
1834.000000	15.624192
1835.000000	15.624977
1836.000000	15.629000
1837.000000	15.633497
1838.000000	15.636375
1839.000000	15.638945
1840.000000	15.643373
1841.000000	15.656608
1842.000000	15.675787
1843.000000	15.691458
1844.000000	15.695375
1845.000000	15.687922
1846.000000	15.680627
1847.000000	15.686875
1848.000000	15.705085
1849.000000	15.719505
1850.000000	15.718898
1851.000000	15.702362
1852.000000	15.683290
1853.000000	15.675720
1854.000000	15.684453
1855.000000	15.700588
1856.000000	15.706040
1857.000000	15.692920
1858.000000	15.672892
1859.000000	15.659480
1860.000000	15.656200
1861.000000	15.660103
1862.000000	15.660388
1863.000000	15.650388
1864.000000	15.630615
1865.000000	15.605113
1866.000000	15.579060
1867.000000	15.552765
1868.000000	15.520818
1869.000000	15.488948
1870.000000	15.437185
1871.000000	15.412345
1872.000000	15.369897
1873.000000	15.336000
1874.000000	15.306435
1875.000000	15.282028
1876.000000	15.257157
1877.000000	15.229660
1878.000000	15.198280
1879.000000	15.155062
1880.000000	15.096277
1881.000000	15.003265
1882.000000	14.927428
1883.000000	14.847395
1884.000000	14.741210
1885.000000	14.630602
1886.000000	14.516410
1887.000000	14.395870
1888.000000	14.271873
1889.000000	14.147752
1890.000000	14.027067
1891.000000	13.910450
1892.000000	13.794087
1893.000000	13.672057
1894.000000	13.541035
1895.000000	13.401595
1896.000000	13.259518
1897.000000	13.119313
1898.000000	12.982368
1899.000000	12.824460
1900.000000	12.691735
1901.000000	12.553755
1902.000000	12.410003
1903.000000	12.241740
1904.000000	12.108128
1905.000000	11.987043
1906.000000	11.873237
1907.000000	11.761905
1908.000000	11.648363
1909.000000	11.527870
1910.000000	11.405043
1911.000000	11.285550
1912.000000	11.176655
1913.000000	11.101603
1914.000000	11.000885
1915.000000	10.896355
1916.000000	10.788940
1917.000000	10.681605
1918.000000	10.578768
1919.000000	10.511143
1920.000000	10.451697
1921.000000	10.396235
1922.000000	10.340307
1923.000000	10.255485
1924.000000	10.195227
1925.000000	10.138710
1926.000000	10.088802
1927.000000	10.046122
1928.000000	10.006085
1929.000000	9.967452
1930.000000	9.929678
1931.000000	9.891773
1932.000000	9.852045
1933.000000	9.840048
1934.000000	9.831898
1935.000000	9.824367
1936.000000	9.818305
1937.000000	9.812920
1938.000000	9.810745
1939.000000	9.809755
1940.000000	9.809233
1941.000000	9.809292
1942.000000	9.811767
1943.000000	9.815968
1944.000000	9.822655
1945.000000	9.831135
1946.000000	9.840587
1947.000000	9.851592
1948.000000	9.860055
1949.000000	9.868330
1950.000000	9.876645
1951.000000	9.886247
1952.000000	9.898090
1953.000000	9.911435
1954.000000	9.923705
1955.000000	9.936818
1956.000000	9.949922
1957.000000	9.961790
1958.000000	10.001385
1959.000000	10.039815
1960.000000	10.079150
1961.000000	10.118957
1962.000000	10.158055
1963.000000	10.197390
1964.000000	10.237393
1965.000000	10.276278
1966.000000	10.315310
1967.000000	10.354235
1968.000000	10.366595
1969.000000	10.379955
1970.000000	10.393623
1971.000000	10.407130
1972.000000	10.420185
1973.000000	10.432345
1974.000000	10.445315
1975.000000	10.457962
1976.000000	10.470240
1977.000000	10.483615
1978.000000	10.498080
1979.000000	10.511405
1980.000000	10.549715
1981.000000	10.588897
1982.000000	10.628370
1983.000000	10.667292
1984.000000	10.704987
1985.000000	10.744430
1986.000000	10.783085
1987.000000	10.821522
1988.000000	10.858847
1989.000000	10.897375
1990.000000	10.909590
1991.000000	10.921378
1992.000000	10.933925
1993.000000	10.945615
1994.000000	10.957358
1995.000000	10.968492
1996.000000	10.979798
1997.000000	11.014905
1998.000000	11.050137
1999.000000	11.059130
2000.000000	11.068033
2001.000000	11.075710
2002.000000	11.082028
2003.000000	11.088910
2004.000000	11.095133
2005.000000	11.100033
2006.000000	11.129290
2007.000000	11.131927
2008.000000	11.133755
2009.000000	11.159813
2010.000000	11.185073
2011.000000	11.209667
2012.000000	11.233728
2013.000000	11.256843
2014.000000	11.278675
2015.000000	11.300205
2016.000000	11.295950
2017.000000	11.291170
2018.000000	11.285630
2019.000000	11.280042
2020.000000	11.272918
2021.000000	11.265467
2022.000000	11.256533
2023.000000	11.246177
2024.000000	11.235257
2025.000000	11.197907
2026.000000	11.159072
2027.000000	11.120090
2028.000000	11.080538
2029.000000	11.040088
2030.000000	10.998160
2031.000000	10.955005
2032.000000	10.910898
2033.000000	10.867105
2034.000000	10.821223
2035.000000	10.799328
2036.000000	10.776498
2037.000000	10.752950
2038.000000	10.727638
2039.000000	10.700940
2040.000000	10.674358
2041.000000	10.645955
2042.000000	10.616960
2043.000000	10.586930
2044.000000	10.557335
2045.000000	10.527658
2046.000000	10.499040
2047.000000	10.471070
2048.000000	10.420140
2049.000000	10.370788
2050.000000	10.322907
2051.000000	10.304195
2052.000000	10.288347
2053.000000	10.275232
2054.000000	10.240805
2055.000000	10.210022
2056.000000	10.206527
2057.000000	10.205742
2058.000000	10.233862
2059.000000	10.264843
2060.000000	10.298790
2061.000000	10.308763
2062.000000	10.321073
2063.000000	10.336190
2064.000000	10.377430
2065.000000	10.418923
2066.000000	10.437207
2067.000000	10.456437
2068.000000	10.474087
2069.000000	10.492113
2070.000000	10.509990
2071.000000	10.527497
2072.000000	10.543957
2073.000000	10.558573
2074.000000	10.572360
2075.000000	10.586270
2076.000000	10.623468
2077.000000	10.659593
2078.000000	10.695198
2079.000000	10.729027
2080.000000	10.761680
2081.000000	10.793395
2082.000000	10.823598
2083.000000	10.853005
2084.000000	10.880962
2085.000000	10.907122
2086.000000	10.908250
2087.000000	10.908255
2088.000000	10.906097
2089.000000	10.902430
2090.000000	10.898760
2091.000000	10.895383
2092.000000	10.891507
2093.000000	10.886600
2094.000000	10.881420
2095.000000	10.875675
2096.000000	10.869263
2097.000000	10.862530
2098.000000	10.856470
2099.000000	10.851770
2100.000000	10.846393
2101.000000	10.839705
2102.000000	10.833150
2103.000000	10.826890
2104.000000	10.821040
2105.000000	10.815997
2106.000000	10.810535
2107.000000	10.804898
2108.000000	10.799025
2109.000000	10.791950
2110.000000	10.784940
2111.000000	10.778690
2112.000000	10.771522
2113.000000	10.764167
2114.000000	10.756263
2115.000000	10.747533
2116.000000	10.739230
2117.000000	10.731065
2118.000000	10.721822
2119.000000	10.712568
2120.000000	10.703373
2121.000000	10.692967
2122.000000	10.682700
2123.000000	10.672752
2124.000000	10.662450
2125.000000	10.651750
2126.000000	10.640418
2127.000000	10.627902
2128.000000	10.616170
2129.000000	10.604530
2130.000000	10.592173
2131.000000	10.578952
2132.000000	10.565040
2133.000000	10.550400
2134.000000	10.535843
2135.000000	10.520948
2136.000000	10.504085
2137.000000	10.487475
2138.000000	10.470358
2139.000000	10.452300
2140.000000	10.433942
2141.000000	10.415975
2142.000000	10.397970
2143.000000	10.379542
2144.000000	10.335385
2145.000000	10.315875
2146.000000	10.297325
2147.000000	10.277967
2148.000000	10.233450
2149.000000	10.189440
2150.000000	10.144940
2151.000000	10.099965
2152.000000	10.054778
2153.000000	9.984942
2154.000000	9.966050
2155.000000	9.922548
2156.000000	9.879058
2157.000000	9.836032
2158.000000	9.818955
2159.000000	9.778060
2160.000000	9.737827
2161.000000	9.698997
2162.000000	9.660833
2163.000000	9.647873
2164.000000	9.610140
2165.000000	9.573718
2166.000000	9.538050
2167.000000	9.502892
2168.000000	9.467895
2169.000000	9.457245
2170.000000	9.446293
2171.000000	9.435570
2172.000000	9.425667
2173.000000	9.416645
2174.000000	9.382588
2175.000000	9.372598
2176.000000	9.362272
2177.000000	9.327808
2178.000000	9.294540
2179.000000	9.235925
2180.000000	9.202580
2181.000000	9.168207
2182.000000	9.132840
2183.000000	9.097080
2184.000000	9.084697
2185.000000	9.046302
2186.000000	8.981832
2187.000000	8.940997
2188.000000	8.896513
2189.000000	8.874985
2190.000000	8.825910
2191.000000	8.775737
2192.000000	8.697048
2193.000000	8.614470
2194.000000	8.529402
2195.000000	8.442080
2196.000000	8.352453
2197.000000	8.285653
2198.000000	8.217263
2199.000000	8.147452
2200.000000	8.052538
2201.000000	7.957212
2202.000000	7.889272
2203.000000	7.822007
2204.000000	7.756603
2205.000000	7.668848
2206.000000	7.634430
2207.000000	7.553460
2208.000000	7.477255
2209.000000	7.406975
2210.000000	7.364780
2211.000000	7.328225
2212.000000	7.295010
2213.000000	7.292975
2214.000000	7.295500
2215.000000	7.327065
2216.000000	7.338555
2217.000000	7.378248
2218.000000	7.394465
2219.000000	7.411395
2220.000000	7.431878
2221.000000	7.477345
2222.000000	7.523777
2223.000000	7.545822
2224.000000	7.568192
2225.000000	7.590768
2226.000000	7.610625
2227.000000	7.630530
2228.000000	7.699658
2229.000000	7.741513
2230.000000	7.806535
2231.000000	7.845803
2232.000000	7.883220
2233.000000	7.919015
2234.000000	7.926737
2235.000000	7.956408
2236.000000	7.985213
2237.000000	8.011650
2238.000000	8.011902
2239.000000	8.036478
2240.000000	8.035370
2241.000000	8.031697
2242.000000	8.026042
2243.000000	8.018558
2244.000000	8.036595
2245.000000	8.028842
2246.000000	8.020228
2247.000000	8.010207
2248.000000	7.973615
2249.000000	7.962343
2250.000000	7.923905
2251.000000	7.910040
2252.000000	7.897660
2253.000000	7.884413
2254.000000	7.870465
2255.000000	7.856540
2256.000000	7.818478
2257.000000	7.806168
2258.000000	7.819805
2259.000000	7.808358
2260.000000	7.822678
2261.000000	7.814450
2262.000000	7.807322
2263.000000	7.800743
2264.000000	7.795135
2265.000000	7.791442
2266.000000	7.813360
2267.000000	7.811087
2268.000000	7.809735
2269.000000	7.809120
2270.000000	7.809772
2271.000000	7.834788
2272.000000	7.836603
2273.000000	7.862760
2274.000000	7.865222
2275.000000	7.893045
2276.000000	7.920112
2277.000000	7.946395
2278.000000	7.973337
2279.000000	7.975487
2280.000000	8.002912
2281.000000	8.004485
2282.000000	8.029737
2283.000000	8.031820
2284.000000	8.055822
2285.000000	8.055330
2286.000000	8.055418
2287.000000	8.056045
2288.000000	8.056397
2289.000000	8.107040
2290.000000	8.107750
2291.000000	8.133912
2292.000000	8.159025
2293.000000	8.158175
2294.000000	8.185055
2295.000000	8.210855
2296.000000	8.236833
2297.000000	8.262930
2298.000000	8.289837
2299.000000	8.290260
2300.000000	8.316200
2301.000000	8.318812
2302.000000	8.322192
2303.000000	8.352090
2304.000000	8.356673
2305.000000	8.361210
2306.000000	8.366120
2307.000000	8.372915
2308.000000	8.379620
2309.000000	8.387937
2310.000000	8.421625
2311.000000	8.454370
2312.000000	8.487452
2313.000000	8.520290
2314.000000	8.554080
2315.000000	8.588618
2316.000000	8.623250
2317.000000	8.656545
2318.000000	8.688565
2319.000000	8.720248
2320.000000	8.726625
2321.000000	8.732195
2322.000000	8.736973
2323.000000	8.766302
2324.000000	8.793477
2325.000000	8.818817
2326.000000	8.842925
2327.000000	8.866880
2328.000000	8.865565
2329.000000	8.863983
2330.000000	8.861612
2331.000000	8.883770
2332.000000	8.905528
2333.000000	8.902000
2334.000000	8.899427
2335.000000	8.897485
2336.000000	8.895613
2337.000000	8.892943
2338.000000	8.916175
2339.000000	8.939902
2340.000000	8.963513
2341.000000	8.962965
2342.000000	8.963033
2343.000000	8.962570
2344.000000	8.987497
2345.000000	9.013195
2346.000000	9.039345
2347.000000	9.065413
2348.000000	9.091980
2349.000000	9.119190
2350.000000	9.146123
2351.000000	9.148085
2352.000000	9.175408
2353.000000	9.203392
2354.000000	9.181605
2355.000000	9.159705
2356.000000	9.162527
2357.000000	9.165330
2358.000000	9.142542
2359.000000	9.119245
2360.000000	9.121833
2361.000000	9.149190
2362.000000	9.150902
2363.000000	9.152398
2364.000000	9.177808
2365.000000	9.228172
2366.000000	9.229050
2367.000000	9.230272
2368.000000	9.281547
2369.000000	9.332830
2370.000000	9.358648
2371.000000	9.384310
2372.000000	9.384958
2373.000000	9.385555
2374.000000	9.386507
2375.000000	9.387230
2376.000000	9.412447
2377.000000	9.412742
2378.000000	9.387752
2379.000000	9.361570
2380.000000	9.335175
2381.000000	9.334345
2382.000000	9.358358
2383.000000	9.357105
2384.000000	9.380845
2385.000000	9.379260
2386.000000	9.402625
2387.000000	9.425297
2388.000000	9.472557
2389.000000	9.495335
2390.000000	9.516988
2391.000000	9.487832
2392.000000	9.484182
2393.000000	9.530295
2394.000000	9.550432
2395.000000	9.544915
2396.000000	9.513630
2397.000000	9.507582
2398.000000	9.451783
2399.000000	9.420345
2400.000000	9.413940
2401.000000	9.407502
2402.000000	9.399775
2403.000000	9.391228
2404.000000	9.383802
2405.000000	9.376347
2406.000000	9.343812
2407.000000	9.310173
2408.000000	9.325475
2409.000000	9.340352
2410.000000	9.330187
2411.000000	9.369153
2412.000000	9.382775
2413.000000	9.347390
2414.000000	9.335497
2415.000000	9.322712
2416.000000	9.359295
2417.000000	9.395310
2418.000000	9.381535
2419.000000	9.367435
2420.000000	9.352735
2421.000000	9.312777
2422.000000	9.297110
2423.000000	9.279227
2424.000000	9.261430
2425.000000	9.294008
2426.000000	9.276315
2427.000000	9.208388
2428.000000	9.190117
2429.000000	9.195830
2430.000000	9.201493
2431.000000	9.182047
2432.000000	9.137873
2433.000000	9.120138
2434.000000	9.076370
2435.000000	9.033185
2436.000000	9.014720
2437.000000	9.072510
2438.000000	9.079540
2439.000000	9.037855
2440.000000	9.020970
2441.000000	9.028132
2442.000000	9.035312
2443.000000	9.041478
2444.000000	9.024337
2445.000000	9.006200
2446.000000	9.013545
2447.000000	8.994645
2448.000000	8.976705
2449.000000	8.982648
2450.000000	9.014872
2451.000000	9.022890
2452.000000	9.030920
2453.000000	9.015375
2454.000000	9.074060
2455.000000	9.083082
2456.000000	9.068592
2457.000000	9.079990
2458.000000	9.141360
2459.000000	9.228013
2460.000000	9.212415
2461.000000	9.223630
2462.000000	9.235345
2463.000000	9.272025
2464.000000	9.259557
2465.000000	9.322827
2466.000000	9.359983
2467.000000	9.424987
2468.000000	9.488890
2469.000000	9.528958
2470.000000	9.620120
2471.000000	9.712613
2472.000000	9.831973
2473.000000	9.950347
2474.000000	10.017790
2475.000000	10.111910
2476.000000	10.231160
2477.000000	10.299408
2478.000000	10.393725
2479.000000	10.439085
2480.000000	10.535222
2481.000000	10.606135
2482.000000	10.701617
2483.000000	10.822028
2484.000000	11.017087
2485.000000	11.141115
2486.000000	11.266662
2487.000000	11.441793
2488.000000	11.543350
2489.000000	11.765510
2490.000000	11.918052
2491.000000	12.069722
2492.000000	12.173675
2493.000000	12.328862
2494.000000	12.458335
2495.000000	12.534192
2496.000000	12.713135
2497.000000	12.843470
2498.000000	13.097080
2499.000000	13.281313
2500.000000	13.363190

