PE UV       SUBTECH     SPECTRUM    ASCII       PEDS        4.00        
   -1
CICIMAUCR0252-1.Sample.ASC
24/06/24
16:27:38.00
24/06/24
16:27:38.00
Vinicio Soto Monge
C. resplendens. Sex F.Dorsal. 
250,000000
1
Lambda 1050
1050L1511233
PerkinElmer UV WinLab 6.3.2.0749 / 2.02.05 Lambda 900 UV/VIS/NIR, Aug  7 2015 09:38:08

0
0
3350/servo 860,8/2
0
0
UV/VIS
1
1
1
DoubleDePol,CommonBeamDepol,RBeamAtt,SBeamAtt,60mm sphere, WB InGaAs Detector
0
0
0
0
Program
Program
3350/servo 860,8/2
3350/0,2 860,8/0,2
3350/0,2 860,8/0,2
0
15.00
 
 
 
0
 
860,8
319,2
860,8
Front
100
on
S:100 R:100
0
0
0
0
 
0
 
 
 
0
 
 
0
0
0
0
0
 
 
 
 
0
0


0
0
#HDR
-1
-1
#GR
nm
%R
1.0
0.0
2500,000000
-1,000000
2251
8
89,699100
5,514600
#DATA
2482.000000	8.029201
2481.000000	8.080698
2480.000000	8.097197
2479.000000	8.082799
2478.000000	7.988109
2477.000000	8.102557
2476.000000	8.094570
2475.000000	8.039711
2474.000000	8.115274
2473.000000	8.043915
2472.000000	8.121264
2471.000000	8.148588
2470.000000	8.102978
2469.000000	8.089000
2468.000000	8.160884
2467.000000	8.142808
2466.000000	8.152057
2465.000000	8.207231
2464.000000	8.213011
2463.000000	8.218581
2462.000000	8.258307
2461.000000	8.308332
2460.000000	8.350895
2459.000000	8.398397
2458.000000	8.416158
2457.000000	8.471228
2456.000000	8.514211
2455.000000	8.559402
2454.000000	8.579265
2453.000000	8.638853
2452.000000	8.674060
2451.000000	8.758030
2450.000000	8.810052
2449.000000	8.864385
2448.000000	8.923448
2447.000000	8.958760
2446.000000	9.026441
2445.000000	9.090758
2444.000000	9.165901
2443.000000	9.189757
2442.000000	9.268158
2441.000000	9.338991
2440.000000	9.398474
2439.000000	9.466365
2438.000000	9.506616
2437.000000	9.557587
2436.000000	9.612867
2435.000000	9.679707
2434.000000	9.725318
2433.000000	9.779441
2432.000000	9.848068
2431.000000	9.880332
2430.000000	9.906815
2429.000000	9.972815
2428.000000	10.052161
2427.000000	10.092832
2426.000000	10.114797
2425.000000	10.171127
2424.000000	10.218945
2423.000000	10.248372
2422.000000	10.301654
2421.000000	10.347581
2420.000000	10.371332
2419.000000	10.412003
2418.000000	10.471487
2417.000000	10.499757
2416.000000	10.534648
2415.000000	10.563234
2414.000000	10.607479
2413.000000	10.636590
2412.000000	10.661497
2411.000000	10.694812
2410.000000	10.729808
2409.000000	10.748305
2408.000000	10.760286
2407.000000	10.798961
2406.000000	10.828702
2405.000000	10.849931
2404.000000	10.874944
2403.000000	10.902373
2402.000000	10.930118
2401.000000	10.960911
2400.000000	11.002633
2399.000000	11.052868
2398.000000	11.112772
2397.000000	11.153233
2396.000000	11.174567
2395.000000	11.203994
2394.000000	11.240777
2393.000000	11.264423
2392.000000	11.281238
2391.000000	11.297948
2390.000000	11.331999
2389.000000	11.360164
2388.000000	11.366680
2387.000000	11.394950
2386.000000	11.413342
2385.000000	11.424061
2384.000000	11.440876
2383.000000	11.449284
2382.000000	11.462210
2381.000000	11.472405
2380.000000	11.485226
2379.000000	11.487958
2378.000000	11.499204
2377.000000	11.508767
2376.000000	11.500360
2375.000000	11.504353
2374.000000	11.504774
2373.000000	11.499519
2372.000000	11.503618
2371.000000	11.484385
2370.000000	11.467465
2369.000000	11.482914
2368.000000	11.470198
2367.000000	11.456115
2366.000000	11.453277
2365.000000	11.453172
2364.000000	11.442873
2363.000000	11.417545
2362.000000	11.387278
2361.000000	11.358167
2360.000000	11.346186
2359.000000	11.338094
2358.000000	11.328530
2357.000000	11.312241
2356.000000	11.286493
2355.000000	11.278821
2354.000000	11.273146
2353.000000	11.258538
2352.000000	11.262426
2351.000000	11.269993
2350.000000	11.261270
2349.000000	11.258748
2348.000000	11.288700
2347.000000	11.316129
2346.000000	11.330422
2345.000000	11.357326
2344.000000	11.389800
2343.000000	11.395476
2342.000000	11.423431
2341.000000	11.481127
2340.000000	11.506350
2339.000000	11.535881
2338.000000	11.562575
2337.000000	11.598307
2336.000000	11.638033
2335.000000	11.664937
2334.000000	11.677549
2333.000000	11.673975
2332.000000	11.674711
2331.000000	11.688583
2330.000000	11.690895
2329.000000	11.697096
2328.000000	11.700354
2327.000000	11.675447
2326.000000	11.661784
2325.000000	11.640345
2324.000000	11.617540
2323.000000	11.601355
2322.000000	11.579075
2321.000000	11.540401
2320.000000	11.507611
2319.000000	11.436357
2318.000000	11.386332
2317.000000	11.328110
2316.000000	11.262006
2315.000000	11.211561
2314.000000	11.148084
2313.000000	11.078827
2312.000000	11.025334
2311.000000	10.961962
2310.000000	10.888711
2309.000000	10.851087
2308.000000	10.828492
2307.000000	10.783512
2306.000000	10.752614
2305.000000	10.748620
2304.000000	10.738636
2303.000000	10.768063
2302.000000	10.802008
2301.000000	10.827021
2300.000000	10.873157
2299.000000	10.938210
2298.000000	10.983086
2297.000000	11.032795
2296.000000	11.107833
2295.000000	11.170784
2294.000000	11.237834
2293.000000	11.301101
2292.000000	11.352597
2291.000000	11.418386
2290.000000	11.452121
2289.000000	11.524216
2288.000000	11.555534
2287.000000	11.584750
2286.000000	11.615858
2285.000000	11.617540
2284.000000	11.611339
2283.000000	11.637087
2282.000000	11.615017
2281.000000	11.600725
2280.000000	11.597151
2279.000000	11.578024
2278.000000	11.564887
2277.000000	11.528525
2276.000000	11.489745
2275.000000	11.492478
2274.000000	11.477029
2273.000000	11.450545
2272.000000	11.444660
2271.000000	11.426899
2270.000000	11.456430
2269.000000	11.478395
2268.000000	11.503723
2267.000000	11.539350
2266.000000	11.606295
2265.000000	11.687217
2264.000000	11.756474
2263.000000	11.845489
2262.000000	11.975596
2261.000000	12.121362
2260.000000	12.265341
2259.000000	12.395447
2258.000000	12.563703
2257.000000	12.775363
2256.000000	12.923126
2255.000000	13.113977
2254.000000	13.288643
2253.000000	13.462785
2252.000000	13.660572
2251.000000	13.838392
2250.000000	14.004125
2249.000000	14.162397
2248.000000	14.335277
2247.000000	14.473686
2246.000000	14.600115
2245.000000	14.715613
2244.000000	14.833844
2243.000000	14.945980
2242.000000	15.044138
2241.000000	15.126217
2240.000000	15.217438
2239.000000	15.318854
2238.000000	15.383487
2237.000000	15.435614
2236.000000	15.477547
2235.000000	15.526521
2234.000000	15.578227
2233.000000	15.616586
2232.000000	15.643280
2231.000000	15.676805
2230.000000	15.689101
2229.000000	15.686369
2228.000000	15.709385
2227.000000	15.716426
2226.000000	15.716846
2225.000000	15.687525
2224.000000	15.666296
2223.000000	15.664930
2222.000000	15.616166
2221.000000	15.587265
2220.000000	15.558364
2219.000000	15.506658
2218.000000	15.486900
2217.000000	15.455372
2216.000000	15.388217
2215.000000	15.377812
2214.000000	15.345548
2213.000000	15.319485
2212.000000	15.248336
2211.000000	15.219120
2210.000000	15.183283
2209.000000	15.148181
2208.000000	15.109507
2207.000000	15.099523
2206.000000	15.047186
2205.000000	15.048657
2204.000000	14.999053
2203.000000	14.987282
2202.000000	14.975511
2201.000000	14.931162
2200.000000	14.923595
2199.000000	14.897952
2198.000000	14.876828
2197.000000	14.844459
2196.000000	14.841621
2195.000000	14.843093
2194.000000	14.800424
2193.000000	14.800004
2192.000000	14.776148
2191.000000	14.757441
2190.000000	14.754813
2189.000000	14.740310
2188.000000	14.724546
2187.000000	14.721814
2186.000000	14.693333
2185.000000	14.660544
2184.000000	14.654238
2183.000000	14.613987
2182.000000	14.609994
2181.000000	14.588870
2180.000000	14.562281
2179.000000	14.528020
2178.000000	14.508683
2177.000000	14.497543
2176.000000	14.496177
2175.000000	14.501431
2174.000000	14.474002
2173.000000	14.453718
2172.000000	14.437219
2171.000000	14.431018
2170.000000	14.450040
2169.000000	14.450145
2168.000000	14.449515
2167.000000	14.447308
2166.000000	14.466014
2165.000000	14.483250
2164.000000	14.492708
2163.000000	14.489766
2162.000000	14.508788
2161.000000	14.537899
2160.000000	14.543364
2159.000000	14.600955
2158.000000	14.621554
2157.000000	14.639630
2156.000000	14.675047
2155.000000	14.713091
2154.000000	14.737368
2153.000000	14.785291
2152.000000	14.836997
2151.000000	14.865162
2150.000000	14.932633
2149.000000	14.977088
2148.000000	15.013976
2147.000000	15.054122
2146.000000	15.095739
2145.000000	15.151860
2144.000000	15.197050
2143.000000	15.233938
2142.000000	15.282176
2141.000000	15.317278
2140.000000	15.370771
2139.000000	15.408815
2138.000000	15.433302
2137.000000	15.480279
2136.000000	15.517483
2135.000000	15.540288
2134.000000	15.569294
2133.000000	15.604606
2132.000000	15.647379
2131.000000	15.669134
2130.000000	15.703499
2129.000000	15.734607
2128.000000	15.744171
2127.000000	15.761406
2126.000000	15.758884
2125.000000	15.779167
2124.000000	15.802603
2123.000000	15.825619
2122.000000	15.817316
2121.000000	15.819944
2120.000000	15.821100
2119.000000	15.834447
2118.000000	15.844326
2117.000000	15.835077
2116.000000	15.826460
2115.000000	15.834972
2114.000000	15.830138
2113.000000	15.817527
2112.000000	15.803234
2111.000000	15.782740
2110.000000	15.780954
2109.000000	15.763613
2108.000000	15.770339
2107.000000	15.756887
2106.000000	15.744381
2105.000000	15.733661
2104.000000	15.721050
2103.000000	15.701187
2102.000000	15.685949
2101.000000	15.665140
2100.000000	15.636029
2099.000000	15.629513
2098.000000	15.628672
2097.000000	15.605026
2096.000000	15.586950
2095.000000	15.568138
2094.000000	15.549221
2093.000000	15.547855
2092.000000	15.543546
2091.000000	15.528202
2090.000000	15.509916
2089.000000	15.500562
2088.000000	15.488792
2087.000000	15.467878
2086.000000	15.454111
2085.000000	15.447280
2084.000000	15.425315
2083.000000	15.396204
2082.000000	15.368879
2081.000000	15.346704
2080.000000	15.312549
2079.000000	15.280915
2078.000000	15.244763
2077.000000	15.210923
2076.000000	15.175085
2075.000000	15.123905
2074.000000	15.080185
2073.000000	15.029110
2072.000000	14.977718
2071.000000	14.929585
2070.000000	14.877774
2069.000000	14.820813
2068.000000	14.762275
2067.000000	14.712566
2066.000000	14.660229
2065.000000	14.601796
2064.000000	14.552087
2063.000000	14.500590
2062.000000	14.430493
2061.000000	14.382149
2060.000000	14.338850
2059.000000	14.297759
2058.000000	14.267912
2057.000000	14.236699
2056.000000	14.213368
2055.000000	14.191508
2054.000000	14.184467
2053.000000	14.187515
2052.000000	14.201597
2051.000000	14.229132
2050.000000	14.252463
2049.000000	14.289666
2048.000000	14.323612
2047.000000	14.365439
2046.000000	14.430072
2045.000000	14.474422
2044.000000	14.536112
2043.000000	14.597487
2042.000000	14.649614
2041.000000	14.731483
2040.000000	14.789495
2039.000000	14.829115
2038.000000	14.882503
2037.000000	14.929690
2036.000000	14.975196
2035.000000	15.032367
2034.000000	15.069361
2033.000000	15.094058
2032.000000	15.118965
2031.000000	15.156484
2030.000000	15.201044
2029.000000	15.209031
2028.000000	15.214916
2027.000000	15.226477
2026.000000	15.244343
2025.000000	15.251594
2024.000000	15.258425
2023.000000	15.266202
2022.000000	15.253381
2021.000000	15.253696
2020.000000	15.256954
2019.000000	15.255693
2018.000000	15.243502
2017.000000	15.234043
2016.000000	15.212184
2015.000000	15.198837
2014.000000	15.177608
2013.000000	15.163630
2012.000000	15.125061
2011.000000	15.105198
2010.000000	15.065052
2009.000000	15.042036
2008.000000	14.993272
2007.000000	14.958696
2006.000000	14.926538
2005.000000	14.886812
2004.000000	14.825227
2003.000000	14.759543
2002.000000	14.710043
2001.000000	14.657601
2000.000000	14.606841
1999.000000	14.540842
1998.000000	14.477890
1997.000000	14.405165
1996.000000	14.337169
1995.000000	14.282835
1994.000000	14.212947
1993.000000	14.148840
1992.000000	14.055306
1991.000000	13.979638
1990.000000	13.925410
1989.000000	13.843962
1988.000000	13.749692
1987.000000	13.679069
1986.000000	13.594153
1985.000000	13.525841
1984.000000	13.430836
1983.000000	13.356114
1982.000000	13.256064
1981.000000	13.187438
1980.000000	13.104308
1979.000000	13.019602
1978.000000	12.938364
1977.000000	12.872575
1976.000000	12.769793
1975.000000	12.700956
1974.000000	12.625499
1973.000000	12.534592
1972.000000	12.466806
1971.000000	12.397444
1970.000000	12.296974
1969.000000	12.232972
1968.000000	12.168864
1967.000000	12.092145
1966.000000	12.000083
1965.000000	11.957835
1964.000000	11.875231
1963.000000	11.782958
1962.000000	11.726628
1961.000000	11.652851
1960.000000	11.571824
1959.000000	11.527789
1958.000000	11.439720
1957.000000	11.387699
1956.000000	11.326218
1955.000000	11.250445
1954.000000	11.200631
1953.000000	11.134842
1952.000000	11.057492
1951.000000	11.014719
1950.000000	10.949981
1949.000000	10.902583
1948.000000	10.874523
1947.000000	10.813884
1946.000000	10.767958
1945.000000	10.724238
1944.000000	10.700487
1943.000000	10.672637
1942.000000	10.637746
1941.000000	10.641004
1940.000000	10.612839
1939.000000	10.565021
1938.000000	10.577842
1937.000000	10.586250
1936.000000	10.561447
1935.000000	10.610527
1934.000000	10.619144
1933.000000	10.632491
1932.000000	10.664230
1931.000000	10.693551
1930.000000	10.749146
1929.000000	10.784983
1928.000000	10.867167
1927.000000	10.914774
1926.000000	10.999901
1925.000000	11.076304
1924.000000	11.157647
1923.000000	11.249500
1922.000000	11.357116
1921.000000	11.474927
1920.000000	11.620272
1919.000000	11.780015
1918.000000	11.892887
1917.000000	12.038442
1916.000000	12.196714
1915.000000	12.325770
1914.000000	12.505481
1913.000000	12.685613
1912.000000	12.903683
1911.000000	13.107146
1910.000000	13.290850
1909.000000	13.508501
1908.000000	13.687686
1907.000000	13.909540
1906.000000	14.195187
1905.000000	14.481674
1904.000000	14.749349
1903.000000	15.054332
1902.000000	15.332727
1901.000000	15.642229
1900.000000	15.964659
1899.000000	16.342472
1898.000000	16.714506
1897.000000	17.072352
1896.000000	17.408128
1895.000000	17.761876
1894.000000	18.100699
1893.000000	18.475571
1892.000000	18.887120
1891.000000	19.356996
1890.000000	19.811003
1889.000000	20.230750
1888.000000	20.690432
1887.000000	21.113962
1886.000000	21.553151
1885.000000	21.954506
1884.000000	22.434156
1883.000000	22.936507
1882.000000	23.390829
1881.000000	23.836429
1880.000000	24.277720
1879.000000	24.654588
1878.000000	25.054997
1877.000000	25.445107
1876.000000	25.829226
1875.000000	26.201785
1874.000000	26.550593
1873.000000	26.898981
1872.000000	27.263237
1871.000000	27.574632
1870.000000	27.902210
1869.000000	28.167363
1868.000000	28.432621
1867.000000	28.626100
1866.000000	28.801712
1865.000000	28.953678
1864.000000	29.117941
1863.000000	29.251621
1862.000000	29.381832
1861.000000	29.543362
1860.000000	29.690284
1859.000000	29.825856
1858.000000	29.940303
1857.000000	30.049076
1856.000000	30.115916
1855.000000	30.164154
1854.000000	30.260000
1853.000000	30.316751
1852.000000	30.351432
1851.000000	30.365199
1850.000000	30.423316
1849.000000	30.477965
1848.000000	30.513592
1847.000000	30.543754
1846.000000	30.520949
1845.000000	30.473131
1844.000000	30.500140
1843.000000	30.487739
1842.000000	30.530618
1841.000000	30.577700
1840.000000	30.557732
1839.000000	30.551006
1838.000000	30.535872
1837.000000	30.522841
1836.000000	30.510335
1835.000000	30.487424
1834.000000	30.442128
1833.000000	30.383170
1832.000000	30.344601
1831.000000	30.324423
1830.000000	30.307818
1829.000000	30.269458
1828.000000	30.230994
1827.000000	30.196208
1826.000000	30.151227
1825.000000	30.112237
1824.000000	30.079133
1823.000000	30.066521
1822.000000	30.062423
1821.000000	30.071146
1820.000000	30.045608
1819.000000	30.011452
1818.000000	29.983392
1817.000000	29.954806
1816.000000	29.930529
1815.000000	29.923909
1814.000000	29.906988
1813.000000	29.894903
1812.000000	29.887020
1811.000000	29.861062
1810.000000	29.826486
1809.000000	29.796534
1808.000000	29.782031
1807.000000	29.758490
1806.000000	29.732532
1805.000000	29.696274
1804.000000	29.659386
1803.000000	29.641520
1802.000000	29.614931
1801.000000	29.586451
1800.000000	29.560598
1799.000000	29.520557
1798.000000	29.489134
1797.000000	29.459707
1796.000000	29.428179
1795.000000	29.404953
1794.000000	29.373530
1793.000000	29.337693
1792.000000	29.307741
1791.000000	29.281572
1790.000000	29.265703
1789.000000	29.242793
1788.000000	29.213156
1787.000000	29.192032
1786.000000	29.161660
1785.000000	29.136542
1784.000000	29.109008
1783.000000	29.073486
1782.000000	29.045846
1781.000000	29.018311
1780.000000	28.985312
1779.000000	28.961771
1778.000000	28.937494
1777.000000	28.900711
1776.000000	28.853734
1775.000000	28.813903
1774.000000	28.774703
1773.000000	28.736659
1772.000000	28.689051
1771.000000	28.640077
1770.000000	28.579122
1769.000000	28.537925
1768.000000	28.505662
1767.000000	28.453430
1766.000000	28.406137
1765.000000	28.369670
1764.000000	28.342765
1763.000000	28.338562
1762.000000	28.344447
1761.000000	28.345603
1760.000000	28.364310
1759.000000	28.388061
1758.000000	28.438716
1757.000000	28.487901
1756.000000	28.532250
1755.000000	28.567982
1754.000000	28.611807
1753.000000	28.651217
1752.000000	28.680749
1751.000000	28.701347
1750.000000	28.712802
1749.000000	28.711856
1748.000000	28.707127
1747.000000	28.690312
1746.000000	28.668873
1745.000000	28.633036
1744.000000	28.584482
1743.000000	28.524684
1742.000000	28.449751
1741.000000	28.375134
1740.000000	28.288747
1739.000000	28.192060
1738.000000	28.082657
1737.000000	27.981767
1736.000000	27.896745
1735.000000	27.824441
1734.000000	27.767374
1733.000000	27.732483
1732.000000	27.717665
1731.000000	27.706210
1730.000000	27.708101
1729.000000	27.733954
1728.000000	27.770948
1727.000000	27.831167
1726.000000	27.887182
1725.000000	27.933844
1724.000000	27.964111
1723.000000	27.993222
1722.000000	28.060377
1721.000000	28.101154
1720.000000	28.171041
1719.000000	28.228633
1718.000000	28.282546
1717.000000	28.371982
1716.000000	28.441764
1715.000000	28.535193
1714.000000	28.622211
1713.000000	28.717006
1712.000000	28.776805
1711.000000	28.822941
1710.000000	28.878956
1709.000000	28.938335
1708.000000	28.961140
1707.000000	28.987203
1706.000000	28.998028
1705.000000	28.972700
1704.000000	28.959248
1703.000000	28.941908
1702.000000	28.909118
1701.000000	28.841017
1700.000000	28.781534
1699.000000	28.713853
1698.000000	28.631249
1697.000000	28.583747
1696.000000	28.509550
1695.000000	28.473818
1694.000000	28.444181
1693.000000	28.439767
1692.000000	28.490633
1691.000000	28.533196
1690.000000	28.594571
1689.000000	28.666351
1688.000000	28.732980
1687.000000	28.775964
1686.000000	28.812327
1685.000000	28.886733
1684.000000	28.971755
1683.000000	29.074011
1682.000000	29.196551
1681.000000	29.378049
1680.000000	29.580776
1679.000000	29.824174
1678.000000	30.084808
1677.000000	30.364043
1676.000000	30.624677
1675.000000	30.862926
1674.000000	31.096760
1673.000000	31.290029
1672.000000	31.459966
1671.000000	31.621076
1670.000000	31.781660
1669.000000	31.923012
1668.000000	32.032204
1667.000000	32.118172
1666.000000	32.202772
1665.000000	32.278335
1664.000000	32.352006
1663.000000	32.407391
1662.000000	32.468766
1661.000000	32.530036
1660.000000	32.567134
1659.000000	32.623255
1658.000000	32.646691
1657.000000	32.659722
1656.000000	32.679480
1655.000000	32.695770
1654.000000	32.732658
1653.000000	32.726352
1652.000000	32.731502
1651.000000	32.714161
1650.000000	32.701655
1649.000000	32.707015
1648.000000	32.669181
1647.000000	32.644484
1646.000000	32.611904
1645.000000	32.601815
1644.000000	32.581112
1643.000000	32.546641
1642.000000	32.513851
1641.000000	32.462776
1640.000000	32.439129
1639.000000	32.391942
1638.000000	32.360939
1637.000000	32.342968
1636.000000	32.289790
1635.000000	32.240186
1634.000000	32.209288
1633.000000	32.175133
1632.000000	32.116700
1631.000000	32.071300
1630.000000	32.024112
1629.000000	31.954330
1628.000000	31.895372
1627.000000	31.857643
1626.000000	31.809194
1625.000000	31.756542
1624.000000	31.719129
1623.000000	31.661537
1622.000000	31.596168
1621.000000	31.533637
1620.000000	31.515351
1619.000000	31.470055
1618.000000	31.422342
1617.000000	31.372002
1616.000000	31.309261
1615.000000	31.261128
1614.000000	31.207320
1613.000000	31.172218
1612.000000	31.140375
1611.000000	31.079000
1610.000000	31.032968
1609.000000	30.983784
1608.000000	30.962345
1607.000000	30.900024
1606.000000	30.850209
1605.000000	30.801446
1604.000000	30.744590
1603.000000	30.682689
1602.000000	30.639916
1601.000000	30.580958
1600.000000	30.533140
1599.000000	30.479962
1598.000000	30.429307
1597.000000	30.374237
1596.000000	30.329257
1595.000000	30.263363
1594.000000	30.221851
1593.000000	30.191689
1592.000000	30.140508
1591.000000	30.094792
1590.000000	30.054331
1589.000000	29.988436
1588.000000	29.950182
1587.000000	29.906148
1586.000000	29.874514
1585.000000	29.822072
1584.000000	29.776041
1583.000000	29.739258
1582.000000	29.698692
1581.000000	29.646460
1580.000000	29.626387
1579.000000	29.580040
1578.000000	29.545464
1577.000000	29.496175
1576.000000	29.464647
1575.000000	29.443628
1574.000000	29.428599
1573.000000	29.403482
1572.000000	29.360393
1571.000000	29.340635
1570.000000	29.321508
1569.000000	29.309002
1568.000000	29.295655
1567.000000	29.286091
1566.000000	29.274741
1565.000000	29.255299
1564.000000	29.226818
1563.000000	29.211264
1562.000000	29.196026
1561.000000	29.161029
1560.000000	29.147052
1559.000000	29.126348
1558.000000	29.101231
1557.000000	29.056355
1556.000000	29.015894
1555.000000	28.978796
1554.000000	28.949264
1553.000000	28.908278
1552.000000	28.862246
1551.000000	28.824728
1550.000000	28.772181
1549.000000	28.722996
1548.000000	28.678016
1547.000000	28.626205
1546.000000	28.585533
1545.000000	28.531725
1544.000000	28.497885
1543.000000	28.473398
1542.000000	28.423373
1541.000000	28.376185
1540.000000	28.329839
1539.000000	28.290534
1538.000000	28.255222
1537.000000	28.228213
1536.000000	28.200783
1535.000000	28.154226
1534.000000	28.111453
1533.000000	28.077508
1532.000000	28.039989
1531.000000	27.992802
1530.000000	27.942672
1529.000000	27.907255
1528.000000	27.857230
1527.000000	27.790495
1526.000000	27.743938
1525.000000	27.703792
1524.000000	27.646411
1523.000000	27.602902
1522.000000	27.550355
1521.000000	27.495075
1520.000000	27.452407
1519.000000	27.396917
1518.000000	27.344055
1517.000000	27.294871
1516.000000	27.225088
1515.000000	27.149946
1514.000000	27.091093
1513.000000	27.031925
1512.000000	26.972126
1511.000000	26.917582
1510.000000	26.842650
1509.000000	26.775285
1508.000000	26.729148
1507.000000	26.667668
1506.000000	26.602930
1505.000000	26.534724
1504.000000	26.467569
1503.000000	26.405037
1502.000000	26.346605
1501.000000	26.287227
1500.000000	26.233208
1499.000000	26.180346
1498.000000	26.126433
1497.000000	26.081452
1496.000000	26.032899
1495.000000	25.969107
1494.000000	25.918241
1493.000000	25.872735
1492.000000	25.820293
1491.000000	25.780778
1490.000000	25.759549
1489.000000	25.719192
1488.000000	25.671795
1487.000000	25.632700
1486.000000	25.595076
1485.000000	25.572481
1484.000000	25.530128
1483.000000	25.488195
1482.000000	25.457192
1481.000000	25.426715
1480.000000	25.413999
1479.000000	25.388671
1478.000000	25.374378
1477.000000	25.360926
1476.000000	25.321095
1475.000000	25.297659
1474.000000	25.289882
1473.000000	25.283156
1472.000000	25.291669
1471.000000	25.289672
1470.000000	25.271070
1469.000000	25.265606
1468.000000	25.255832
1467.000000	25.268969
1466.000000	25.287465
1465.000000	25.300917
1464.000000	25.307223
1463.000000	25.315630
1462.000000	25.336334
1461.000000	25.360401
1460.000000	25.382365
1459.000000	25.414314
1458.000000	25.444581
1457.000000	25.484832
1456.000000	25.527606
1455.000000	25.584146
1454.000000	25.625343
1453.000000	25.654664
1452.000000	25.719928
1451.000000	25.778571
1450.000000	25.841627
1449.000000	25.869477
1448.000000	25.927910
1447.000000	26.004103
1446.000000	26.082188
1445.000000	26.161639
1444.000000	26.230686
1443.000000	26.284284
1442.000000	26.355118
1441.000000	26.428368
1440.000000	26.497836
1439.000000	26.594733
1438.000000	26.677442
1437.000000	26.763619
1436.000000	26.866191
1435.000000	26.960356
1434.000000	27.071650
1433.000000	27.159930
1432.000000	27.293189
1431.000000	27.396392
1430.000000	27.507792
1429.000000	27.632013
1428.000000	27.760753
1427.000000	27.884765
1426.000000	28.030741
1425.000000	28.213815
1424.000000	28.405927
1423.000000	28.581119
1422.000000	28.753579
1421.000000	28.909223
1420.000000	29.108797
1419.000000	29.315833
1418.000000	29.506684
1417.000000	29.740309
1416.000000	29.921807
1415.000000	30.163944
1414.000000	30.428886
1413.000000	30.685947
1412.000000	30.912425
1411.000000	31.147311
1410.000000	31.441995
1409.000000	31.777246
1408.000000	32.062261
1407.000000	32.389735
1406.000000	32.700709
1405.000000	33.021141
1404.000000	33.333797
1403.000000	33.699840
1402.000000	34.005139
1401.000000	34.371918
1400.000000	34.773378
1399.000000	35.114094
1398.000000	35.385657
1397.000000	35.661319
1396.000000	36.013280
1395.000000	36.419469
1394.000000	36.763233
1393.000000	37.032169
1392.000000	37.348713
1391.000000	37.695839
1390.000000	38.044857
1389.000000	38.373172
1388.000000	38.791762
1387.000000	39.202365
1386.000000	39.620746
1385.000000	40.002763
1384.000000	40.461079
1383.000000	40.883453
1382.000000	41.286595
1381.000000	41.667036
1380.000000	41.947322
1379.000000	42.188303
1378.000000	42.414782
1377.000000	42.596595
1376.000000	42.784818
1375.000000	42.953915
1374.000000	43.125114
1373.000000	43.325213
1372.000000	43.564303
1371.000000	43.818841
1370.000000	44.022093
1369.000000	44.222403
1368.000000	44.490708
1367.000000	44.685553
1366.000000	44.848134
1365.000000	44.988330
1364.000000	45.191372
1363.000000	45.305714
1362.000000	45.431302
1361.000000	45.587157
1360.000000	45.680901
1359.000000	45.705178
1358.000000	45.827087
1357.000000	45.920095
1356.000000	46.029919
1355.000000	46.176000
1354.000000	46.374103
1353.000000	46.584712
1352.000000	46.788279
1351.000000	47.097992
1350.000000	47.398877
1349.000000	47.682947
1348.000000	47.959239
1347.000000	48.220083
1346.000000	48.432374
1345.000000	48.670727
1344.000000	48.915912
1343.000000	49.172763
1342.000000	49.401343
1341.000000	49.601652
1340.000000	49.835382
1339.000000	50.064382
1338.000000	50.301685
1337.000000	50.519651
1336.000000	50.758530
1335.000000	50.982065
1334.000000	51.178907
1333.000000	51.396242
1332.000000	51.609478
1331.000000	51.823450
1330.000000	52.021763
1329.000000	52.211143
1328.000000	52.407879
1327.000000	52.604195
1326.000000	52.779598
1325.000000	52.953844
1324.000000	53.135447
1323.000000	53.302021
1322.000000	53.437803
1321.000000	53.605428
1320.000000	53.768219
1319.000000	53.915456
1318.000000	54.048926
1317.000000	54.183342
1316.000000	54.319229
1315.000000	54.453119
1314.000000	54.587639
1313.000000	54.710284
1312.000000	54.816114
1311.000000	54.925097
1310.000000	55.018316
1309.000000	55.126458
1308.000000	55.216208
1307.000000	55.311213
1306.000000	55.394553
1305.000000	55.473058
1304.000000	55.536535
1303.000000	55.600958
1302.000000	55.671056
1301.000000	55.726966
1300.000000	55.779934
1299.000000	55.825545
1298.000000	55.860751
1297.000000	55.899636
1296.000000	55.929167
1295.000000	55.964479
1294.000000	55.997899
1293.000000	56.025434
1292.000000	56.042459
1291.000000	56.060220
1290.000000	56.082710
1289.000000	56.090487
1288.000000	56.082710
1287.000000	56.074933
1286.000000	56.073147
1285.000000	56.064319
1284.000000	56.047714
1283.000000	56.031004
1282.000000	56.023752
1281.000000	55.997689
1280.000000	55.963323
1279.000000	55.941043
1278.000000	55.921075
1277.000000	55.894591
1276.000000	55.870315
1275.000000	55.842149
1274.000000	55.831325
1273.000000	55.809150
1272.000000	55.797274
1271.000000	55.788656
1270.000000	55.780354
1269.000000	55.762908
1268.000000	55.749456
1267.000000	55.729699
1266.000000	55.722237
1265.000000	55.699116
1264.000000	55.671161
1263.000000	55.644888
1262.000000	55.627757
1261.000000	55.601694
1260.000000	55.579729
1259.000000	55.559446
1258.000000	55.553666
1257.000000	55.518459
1256.000000	55.479259
1255.000000	55.446680
1254.000000	55.430811
1253.000000	55.390559
1252.000000	55.340114
1251.000000	55.290930
1250.000000	55.252676
1249.000000	55.215998
1248.000000	55.167760
1247.000000	55.099974
1246.000000	55.036076
1245.000000	54.973230
1244.000000	54.889365
1243.000000	54.814748
1242.000000	54.738134
1241.000000	54.669508
1240.000000	54.579232
1239.000000	54.501882
1238.000000	54.431154
1237.000000	54.336254
1236.000000	54.247764
1235.000000	54.168313
1234.000000	54.084028
1233.000000	53.993331
1232.000000	53.902530
1231.000000	53.792391
1230.000000	53.675316
1229.000000	53.576633
1228.000000	53.475532
1227.000000	53.368651
1226.000000	53.257146
1225.000000	53.146587
1224.000000	53.034977
1223.000000	52.923577
1222.000000	52.810075
1221.000000	52.701618
1220.000000	52.589377
1219.000000	52.470095
1218.000000	52.357224
1217.000000	52.258330
1216.000000	52.152395
1215.000000	52.040470
1214.000000	51.947566
1213.000000	51.861704
1212.000000	51.762075
1211.000000	51.673376
1210.000000	51.589615
1209.000000	51.489881
1208.000000	51.410009
1207.000000	51.330558
1206.000000	51.262037
1205.000000	51.202028
1204.000000	51.147063
1203.000000	51.102188
1202.000000	51.058994
1201.000000	51.020215
1200.000000	50.990473
1199.000000	50.947700
1198.000000	50.899041
1197.000000	50.838612
1196.000000	50.748651
1195.000000	50.648496
1194.000000	50.522068
1193.000000	50.355599
1192.000000	50.164642
1191.000000	49.958868
1190.000000	49.741112
1189.000000	49.519889
1188.000000	49.306968
1187.000000	49.159100
1186.000000	49.066197
1185.000000	49.034564
1184.000000	49.052745
1183.000000	49.149747
1182.000000	49.317583
1181.000000	49.544376
1180.000000	49.820459
1179.000000	50.116614
1178.000000	50.389649
1177.000000	50.654592
1176.000000	50.897359
1175.000000	51.116796
1174.000000	51.318787
1173.000000	51.521619
1172.000000	51.716359
1171.000000	51.911309
1170.000000	52.114982
1169.000000	52.322017
1168.000000	52.557639
1167.000000	52.787585
1166.000000	52.993570
1165.000000	53.217315
1164.000000	53.471328
1163.000000	53.712519
1162.000000	53.972838
1161.000000	54.222437
1160.000000	54.461106
1159.000000	54.732564
1158.000000	54.974596
1157.000000	55.226192
1156.000000	55.468434
1155.000000	55.669795
1154.000000	55.875149
1153.000000	56.061166
1152.000000	56.223957
1151.000000	56.367726
1150.000000	56.468827
1149.000000	56.584956
1148.000000	56.696566
1147.000000	56.831086
1146.000000	56.954047
1145.000000	57.118834
1144.000000	57.308740
1143.000000	57.527231
1142.000000	57.791333
1141.000000	58.059848
1140.000000	58.343708
1139.000000	58.641230
1138.000000	58.951363
1137.000000	59.289872
1136.000000	59.627960
1135.000000	59.992952
1134.000000	60.361518
1133.000000	60.682686
1132.000000	60.981364
1131.000000	61.251561
1130.000000	61.519341
1129.000000	61.767154
1128.000000	61.979129
1127.000000	62.155267
1126.000000	62.295042
1125.000000	62.422521
1124.000000	62.525514
1123.000000	62.608959
1122.000000	62.700075
1121.000000	62.751361
1120.000000	62.805800
1119.000000	62.849309
1118.000000	62.872009
1117.000000	62.908898
1116.000000	62.936537
1115.000000	62.939900
1114.000000	62.958292
1113.000000	62.951251
1112.000000	62.960078
1111.000000	62.965018
1110.000000	62.967855
1109.000000	62.967645
1108.000000	62.969011
1107.000000	62.970693
1106.000000	62.989295
1105.000000	63.003062
1104.000000	62.992448
1103.000000	62.981938
1102.000000	62.998438
1101.000000	62.998438
1100.000000	63.013677
1099.000000	63.018511
1098.000000	62.994234
1097.000000	63.009473
1096.000000	63.019982
1095.000000	62.994970
1094.000000	62.988874
1093.000000	62.976158
1092.000000	62.950725
1091.000000	62.949044
1090.000000	62.928235
1089.000000	62.915939
1088.000000	62.905219
1087.000000	62.894605
1086.000000	62.856771
1085.000000	62.849940
1084.000000	62.804644
1083.000000	62.806010
1082.000000	62.775007
1081.000000	62.771119
1080.000000	62.725928
1079.000000	62.716260
1078.000000	62.684311
1077.000000	62.664448
1076.000000	62.622306
1075.000000	62.617997
1074.000000	62.596557
1073.000000	62.574593
1072.000000	62.540227
1071.000000	62.508488
1070.000000	62.478326
1069.000000	62.478957
1068.000000	62.450476
1067.000000	62.436078
1066.000000	62.401923
1065.000000	62.374283
1064.000000	62.365560
1063.000000	62.360411
1062.000000	62.334032
1061.000000	62.331300
1060.000000	62.303239
1059.000000	62.297669
1058.000000	62.254896
1057.000000	62.251218
1056.000000	62.234718
1055.000000	62.228938
1054.000000	62.196989
1053.000000	62.173028
1052.000000	62.179964
1051.000000	62.167878
1050.000000	62.164410
1049.000000	62.157579
1048.000000	62.152744
1047.000000	62.150327
1046.000000	62.156738
1045.000000	62.175340
1044.000000	62.173133
1043.000000	62.169875
1042.000000	62.159786
1041.000000	62.175129
1040.000000	62.190473
1039.000000	62.208129
1038.000000	62.195938
1037.000000	62.222632
1036.000000	62.232406
1035.000000	62.252899
1034.000000	62.251533
1033.000000	62.273287
1032.000000	62.275179
1031.000000	62.271081
1030.000000	62.305657
1029.000000	62.317532
1028.000000	62.339707
1027.000000	62.341704
1026.000000	62.349796
1025.000000	62.369764
1024.000000	62.385108
1023.000000	62.413168
1022.000000	62.437655
1021.000000	62.462247
1020.000000	62.507332
1019.000000	62.536128
1018.000000	62.574803
1017.000000	62.622936
1016.000000	62.659614
1015.000000	62.705120
1014.000000	62.757562
1013.000000	62.841742
1012.000000	62.880837
1011.000000	62.968066
1010.000000	63.037113
1009.000000	63.125812
1008.000000	63.210938
1007.000000	63.309727
1006.000000	63.407780
1005.000000	63.515712
1004.000000	63.613660
1003.000000	63.711187
1002.000000	63.819014
1001.000000	63.929783
1000.000000	64.034247
999.000000	64.137449
998.000000	64.258833
997.000000	64.379692
996.000000	64.481843
995.000000	64.593874
994.000000	64.736487
993.000000	64.866173
992.000000	64.981987
991.000000	65.103476
990.000000	65.227487
989.000000	65.374094
988.000000	65.524378
987.000000	65.658163
986.000000	65.787009
985.000000	65.937399
984.000000	66.087053
983.000000	66.245430
982.000000	66.390250
981.000000	66.548102
980.000000	66.692186
979.000000	66.840684
978.000000	67.004316
977.000000	67.164059
976.000000	67.323067
975.000000	67.481339
974.000000	67.619117
973.000000	67.768561
972.000000	67.951215
971.000000	68.120312
970.000000	68.256934
969.000000	68.403961
968.000000	68.570325
967.000000	68.727336
966.000000	68.881825
965.000000	69.056176
964.000000	69.223801
963.000000	69.383019
962.000000	69.548438
961.000000	69.727728
960.000000	69.901134
959.000000	70.059406
958.000000	70.229659
957.000000	70.402328
956.000000	70.555976
955.000000	70.716770
954.000000	70.885657
953.000000	71.051075
952.000000	71.217755
951.000000	71.374345
950.000000	71.532932
949.000000	71.692886
948.000000	71.833607
947.000000	71.975589
946.000000	72.139431
945.000000	72.297703
944.000000	72.439265
943.000000	72.580722
942.000000	72.726803
941.000000	72.852076
940.000000	72.971463
939.000000	73.110187
938.000000	73.251749
937.000000	73.383747
936.000000	73.497985
935.000000	73.615690
934.000000	73.738861
933.000000	73.856777
932.000000	73.990772
931.000000	74.092608
930.000000	74.186247
929.000000	74.313516
928.000000	74.412725
927.000000	74.505944
926.000000	74.599268
925.000000	74.693432
924.000000	74.807669
923.000000	74.897105
922.000000	74.982021
921.000000	75.081020
920.000000	75.168878
919.000000	75.251377
918.000000	75.332090
917.000000	75.418582
916.000000	75.495196
915.000000	75.565084
914.000000	75.638019
913.000000	75.735967
912.000000	75.792403
911.000000	75.858822
910.000000	75.937223
909.000000	75.989454
908.000000	76.067434
907.000000	76.136797
906.000000	76.192917
905.000000	76.276782
904.000000	76.352240
903.000000	76.423389
902.000000	76.493381
901.000000	76.566632
900.000000	76.637255
899.000000	76.720280
898.000000	76.805932
897.000000	76.878657
896.000000	76.946127
895.000000	77.011601
894.000000	77.070769
893.000000	77.131619
892.000000	77.200245
891.000000	77.241653
890.000000	77.292939
889.000000	77.346957
888.000000	77.426934
887.000000	77.493563
886.000000	77.547267
885.000000	77.601916
884.000000	77.649839
883.000000	77.691246
882.000000	77.762710
881.000000	77.804958
880.000000	77.860553
879.000000	77.885880
878.000000	77.911208
877.000000	77.939478
876.000000	77.969010
875.000000	77.940740
874.000000	77.891345
873.000000	77.824295
872.000000	77.776792
871.000000	77.804853
870.000000	77.942001
869.000000	78.108260
868.000000	78.260331
867.000000	78.398635
866.000000	78.527901
865.000000	78.668097
864.000000	78.814598
863.000000	78.957106
862.000000	79.098668
861.000000	79.233819
860.000000	79.389779
859.000000	79.533338
858.000000	79.682467
857.000000	79.297600
856.000000	79.711100
855.000000	80.038700
854.000000	79.968300
853.000000	80.339700
852.000000	80.109000
851.000000	80.071600
850.000000	80.466600
849.000000	80.507500
848.000000	81.092300
847.000000	81.261800
846.000000	80.952500
845.000000	81.062200
844.000000	81.432300
843.000000	81.184100
842.000000	81.664600
841.000000	81.877900
840.000000	81.871700
839.000000	81.909500
838.000000	82.085700
837.000000	82.038500
836.000000	82.119500
835.000000	82.248100
834.000000	82.541500
833.000000	82.613900
832.000000	82.743500
831.000000	82.860900
830.000000	83.221900
829.000000	83.141100
828.000000	83.014600
827.000000	83.270600
826.000000	83.529900
825.000000	83.417600
824.000000	83.694700
823.000000	83.758500
822.000000	84.005600
821.000000	83.937400
820.000000	84.165900
819.000000	84.138900
818.000000	84.346400
817.000000	84.797400
816.000000	84.639200
815.000000	84.642700
814.000000	84.775700
813.000000	84.785900
812.000000	84.838700
811.000000	84.981900
810.000000	84.919300
809.000000	85.135600
808.000000	85.216300
807.000000	85.023900
806.000000	85.022300
805.000000	85.231300
804.000000	85.090600
803.000000	85.114100
802.000000	85.225000
801.000000	85.063500
800.000000	85.096300
799.000000	85.202500
798.000000	84.926200
797.000000	84.858600
796.000000	84.972700
795.000000	85.110600
794.000000	85.073200
793.000000	84.900200
792.000000	84.914000
791.000000	85.200500
790.000000	85.128000
789.000000	85.276300
788.000000	85.365400
787.000000	85.394400
786.000000	85.444200
785.000000	85.772700
784.000000	85.731200
783.000000	85.868900
782.000000	86.076000
781.000000	86.024400
780.000000	86.211800
779.000000	86.440400
778.000000	86.541100
777.000000	86.593900
776.000000	86.745000
775.000000	86.639400
774.000000	86.765500
773.000000	86.759600
772.000000	86.830000
771.000000	86.865600
770.000000	87.002400
769.000000	86.950400
768.000000	86.673900
767.000000	86.632200
766.000000	86.724000
765.000000	86.514200
764.000000	86.295000
763.000000	86.273600
762.000000	86.036400
761.000000	85.783000
760.000000	85.680700
759.000000	85.464800
758.000000	85.194700
757.000000	84.778300
756.000000	84.562200
755.000000	84.322200
754.000000	84.090000
753.000000	83.663800
752.000000	83.353200
751.000000	83.069900
750.000000	82.605300
749.000000	82.369800
748.000000	81.913700
747.000000	81.562900
746.000000	81.133600
745.000000	80.756100
744.000000	80.416000
743.000000	80.139700
742.000000	79.731200
741.000000	79.426900
740.000000	79.056200
739.000000	78.670300
738.000000	78.286500
737.000000	77.938200
736.000000	77.610700
735.000000	77.270700
734.000000	76.982100
733.000000	76.600500
732.000000	76.289500
731.000000	75.832300
730.000000	75.517000
729.000000	75.219700
728.000000	74.921600
727.000000	74.567300
726.000000	74.247000
725.000000	73.992600
724.000000	73.756700
723.000000	73.406700
722.000000	73.157500
721.000000	72.962000
720.000000	72.663900
719.000000	72.479600
718.000000	72.348900
717.000000	72.255900
716.000000	72.094400
715.000000	72.003300
714.000000	71.962800
713.000000	71.859200
712.000000	71.850300
711.000000	71.852500
710.000000	71.789100
709.000000	71.750600
708.000000	71.753700
707.000000	71.693100
706.000000	71.672400
705.000000	71.659200
704.000000	71.681700
703.000000	71.671300
702.000000	71.579600
701.000000	71.611900
700.000000	71.566700
699.000000	71.594500
698.000000	71.565400
697.000000	71.570400
696.000000	71.521600
695.000000	71.466700
694.000000	71.440200
693.000000	71.352700
692.000000	71.284100
691.000000	71.132900
690.000000	71.005700
689.000000	70.861700
688.000000	70.653300
687.000000	70.447300
686.000000	70.208100
685.000000	69.942400
684.000000	69.634000
683.000000	69.399600
682.000000	69.092500
681.000000	68.811800
680.000000	68.595500
679.000000	68.313900
678.000000	68.027100
677.000000	67.778800
676.000000	67.525600
675.000000	67.221000
674.000000	66.915100
673.000000	66.578800
672.000000	66.173000
671.000000	65.772100
670.000000	65.312300
669.000000	64.807600
668.000000	64.261100
667.000000	63.688900
666.000000	63.098600
665.000000	62.449000
664.000000	61.800500
663.000000	61.145400
662.000000	60.498300
661.000000	59.922000
660.000000	59.339700
659.000000	58.772700
658.000000	58.248600
657.000000	57.764200
656.000000	57.324400
655.000000	56.875000
654.000000	56.406600
653.000000	55.993900
652.000000	55.573700
651.000000	55.208100
650.000000	54.853100
649.000000	54.481500
648.000000	54.190000
647.000000	53.997800
646.000000	53.881000
645.000000	53.833000
644.000000	53.939300
643.000000	54.159600
642.000000	54.463400
641.000000	54.899600
640.000000	55.467200
639.000000	56.165800
638.000000	56.912000
637.000000	57.732200
636.000000	58.596500
635.000000	59.496100
634.000000	60.453200
633.000000	61.383100
632.000000	62.352100
631.000000	63.330200
630.000000	64.277400
629.000000	65.212300
628.000000	66.164700
627.000000	67.057600
626.000000	67.968000
625.000000	68.918500
624.000000	69.835300
623.000000	70.737100
622.000000	71.689900
621.000000	72.618400
620.000000	73.521800
619.000000	74.420500
618.000000	75.315800
617.000000	76.136000
616.000000	76.913700
615.000000	77.641800
614.000000	78.292900
613.000000	78.937700
612.000000	79.549000
611.000000	80.139100
610.000000	80.691800
609.000000	81.226800
608.000000	81.746500
607.000000	82.216500
606.000000	82.734900
605.000000	83.201600
604.000000	83.684700
603.000000	84.196100
602.000000	84.621400
601.000000	85.037300
600.000000	85.476100
599.000000	85.901100
598.000000	86.259800
597.000000	86.635600
596.000000	86.998000
595.000000	87.359100
594.000000	87.678900
593.000000	87.961200
592.000000	88.198800
591.000000	88.479200
590.000000	88.734000
589.000000	88.933100
588.000000	89.074900
587.000000	89.241500
586.000000	89.376700
585.000000	89.511800
584.000000	89.614600
583.000000	89.632000
582.000000	89.639700
581.000000	89.662900
580.000000	89.699100
579.000000	89.672400
578.000000	89.613800
577.000000	89.588900
576.000000	89.528100
575.000000	89.470500
574.000000	89.431700
573.000000	89.350300
572.000000	89.248700
571.000000	89.178700
570.000000	89.046000
569.000000	88.938400
568.000000	88.817500
567.000000	88.648600
566.000000	88.490600
565.000000	88.342200
564.000000	88.134900
563.000000	87.891600
562.000000	87.640600
561.000000	87.395300
560.000000	87.090900
559.000000	86.802200
558.000000	86.494800
557.000000	86.189100
556.000000	85.825600
555.000000	85.426000
554.000000	85.084100
553.000000	84.722200
552.000000	84.291500
551.000000	83.872600
550.000000	83.415100
549.000000	82.966100
548.000000	82.481900
547.000000	81.971500
546.000000	81.421300
545.000000	80.810500
544.000000	80.227700
543.000000	79.573200
542.000000	78.879200
541.000000	78.146400
540.000000	77.430100
539.000000	76.598600
538.000000	75.781100
537.000000	74.899000
536.000000	73.984600
535.000000	73.011200
534.000000	71.961200
533.000000	70.861300
532.000000	69.686300
531.000000	68.456600
530.000000	67.206900
529.000000	65.891800
528.000000	64.488500
527.000000	63.051000
526.000000	61.593800
525.000000	60.119000
524.000000	58.594000
523.000000	57.057600
522.000000	55.527700
521.000000	53.990600
520.000000	52.505400
519.000000	51.043800
518.000000	49.672000
517.000000	48.371700
516.000000	47.087700
515.000000	45.923300
514.000000	44.818600
513.000000	43.787500
512.000000	42.843500
511.000000	41.916800
510.000000	41.144100
509.000000	40.457500
508.000000	39.799100
507.000000	39.239100
506.000000	38.681400
505.000000	38.183200
504.000000	37.728600
503.000000	37.195800
502.000000	36.719200
501.000000	36.309900
500.000000	35.814600
499.000000	35.318200
498.000000	34.809400
497.000000	34.273700
496.000000	33.684200
495.000000	33.100800
494.000000	32.515400
493.000000	31.891200
492.000000	31.220500
491.000000	30.593800
490.000000	29.924200
489.000000	29.311200
488.000000	28.751000
487.000000	28.242800
486.000000	27.767300
485.000000	27.415400
484.000000	27.110300
483.000000	26.815000
482.000000	26.600000
481.000000	26.464900
480.000000	26.393100
479.000000	26.329400
478.000000	26.320100
477.000000	26.372500
476.000000	26.410100
475.000000	26.472700
474.000000	26.555900
473.000000	26.658700
472.000000	26.740300
471.000000	26.799800
470.000000	26.882100
469.000000	26.920000
468.000000	26.945400
467.000000	26.983000
466.000000	26.998800
465.000000	26.981300
464.000000	26.969800
463.000000	26.949700
462.000000	26.880300
461.000000	26.843200
460.000000	26.801200
459.000000	26.712300
458.000000	26.626400
457.000000	26.535600
456.000000	26.412000
455.000000	26.310700
454.000000	26.163100
453.000000	26.078600
452.000000	25.937500
451.000000	25.783200
450.000000	25.600500
449.000000	25.431600
448.000000	25.229200
447.000000	25.034200
446.000000	24.848200
445.000000	24.597900
444.000000	24.347500
443.000000	24.129400
442.000000	23.838100
441.000000	23.555600
440.000000	23.270000
439.000000	22.942700
438.000000	22.607800
437.000000	22.301000
436.000000	21.964300
435.000000	21.606400
434.000000	21.210500
433.000000	20.831600
432.000000	20.405900
431.000000	19.988500
430.000000	19.536900
429.000000	19.112500
428.000000	18.619900
427.000000	18.162300
426.000000	17.676100
425.000000	17.198900
424.000000	16.685600
423.000000	16.194700
422.000000	15.700200
421.000000	15.182800
420.000000	14.672300
419.000000	14.179100
418.000000	13.707200
417.000000	13.264600
416.000000	12.793700
415.000000	12.362400
414.000000	11.952800
413.000000	11.581800
412.000000	11.192700
411.000000	10.802500
410.000000	10.470800
409.000000	10.168100
408.000000	9.903600
407.000000	9.640700
406.000000	9.377200
405.000000	9.153200
404.000000	8.940200
403.000000	8.733600
402.000000	8.541200
401.000000	8.386600
400.000000	8.224700
399.000000	8.102400
398.000000	7.961000
397.000000	7.850900
396.000000	7.742600
395.000000	7.632500
394.000000	7.538800
393.000000	7.451000
392.000000	7.395500
391.000000	7.303500
390.000000	7.217600
389.000000	7.138800
388.000000	7.091100
387.000000	7.036200
386.000000	6.983300
385.000000	6.934100
384.000000	6.874700
383.000000	6.820300
382.000000	6.778400
381.000000	6.727100
380.000000	6.701100
379.000000	6.642700
378.000000	6.610700
377.000000	6.563000
376.000000	6.571300
375.000000	6.436100
374.000000	6.108400
373.000000	6.163200
372.000000	6.200900
371.000000	6.230800
370.000000	6.121700
369.000000	6.284600
368.000000	6.269900
367.000000	6.256300
366.000000	6.317100
365.000000	6.286300
364.000000	6.355700
363.000000	6.149900
362.000000	6.126600
361.000000	6.136300
360.000000	6.141700
359.000000	6.166700
358.000000	6.148200
357.000000	5.980700
356.000000	5.871300
355.000000	5.956100
354.000000	6.065000
353.000000	5.961200
352.000000	5.881800
351.000000	5.655500
350.000000	5.730000
349.000000	5.900300
348.000000	5.843300
347.000000	5.916500
346.000000	5.802600
345.000000	5.910300
344.000000	5.844400
343.000000	5.794700
342.000000	5.565300
341.000000	5.561700
340.000000	5.774700
339.000000	5.694800
338.000000	5.868300
337.000000	5.860300
336.000000	5.716700
335.000000	5.542400
334.000000	5.779200
333.000000	5.922700
332.000000	5.742500
331.000000	5.709200
330.000000	5.939300
329.000000	6.146900
328.000000	5.813100
327.000000	5.903500
326.000000	5.701000
325.000000	5.523900
324.000000	5.890800
323.000000	5.744200
322.000000	5.832200
321.000000	5.514600
320.000000	5.668000
319.000000	6.200200
318.000000	6.147000
317.000000	6.641300
316.000000	6.256100
315.000000	5.552300
314.000000	5.520400
313.000000	5.560200
312.000000	5.523600
311.000000	5.526000
310.000000	5.528700
309.000000	5.542100
308.000000	5.559100
307.000000	5.571900
306.000000	5.600000
305.000000	5.565800
304.000000	5.536800
303.000000	5.548900
302.000000	5.552700
301.000000	5.572700
300.000000	5.581700
299.000000	5.568800
298.000000	5.585700
297.000000	5.625100
296.000000	5.643000
295.000000	5.611900
294.000000	5.554700
293.000000	5.593900
292.000000	5.635500
291.000000	5.627800
290.000000	5.666800
289.000000	5.692300
288.000000	5.678700
287.000000	5.638500
286.000000	5.617700
285.000000	5.628200
284.000000	5.614600
283.000000	5.641300
282.000000	5.657600
281.000000	5.638900
280.000000	5.676900
279.000000	5.668700
278.000000	5.690000
277.000000	5.687500
276.000000	5.713900
275.000000	5.744400
274.000000	5.748500
273.000000	5.715900
272.000000	5.751700
271.000000	5.784600
270.000000	5.806500
269.000000	5.784700
268.000000	5.778900
267.000000	5.788700
266.000000	5.809500
265.000000	5.836600
264.000000	5.856100
263.000000	5.899300
262.000000	5.947400
261.000000	5.963800
260.000000	5.952400
259.000000	5.968400
258.000000	5.993400
257.000000	6.050200
256.000000	5.996600
255.000000	6.045100
254.000000	6.069400
253.000000	6.033800
252.000000	6.081500
251.000000	6.109400
250.000000	6.127700
