PE UV       SUBTECH     SPECTRUM    ASCII       PEDS        4.00        
   -1
S.GLAB.0620-TX3.ASC
23/11/30
12:29:55.00
23/11/30
12:29:55.00
Vinicio Soto Monge
STRIGIDA GLABRA INBIOCRI0003420620
250,000000
1
Lambda 1050
1050L1511233
PerkinElmer UV WinLab 6.3.2.0749 / 2.02.05 Lambda 900 UV/VIS/NIR, Aug  7 2015 09:38:08

0
0
3350/servo 860,8/2
0
0
UV/VIS
1
1
1
DoubleDePol,CommonBeamDepol,RBeamAtt,SBeamAtt,60mm sphere, WB InGaAs Detector
0
0
0
0
Program
Program
3350/servo 860,8/2
3350/0,4 860,8/0,4
3350/0,4 860,8/0,4
0
20.00
 
 
 
0
 
860,8
319,2
860,8
Front
100
on
S:100 R:100
0
0
0
0
 
0
 
 
 
0
 
 
0
0
0
0
0
 
 
 
 
0
0


0
0
#HDR
-1
-1
#GR
nm
%T
1.0
0.0
2200,000000
-1,000000
1951
8
56,969429
0,360001
#DATA
284.000000	1.382268
285.000000	1.332668
286.000000	1.286315
287.000000	1.242583
288.000000	1.200299
289.000000	1.160754
290.000000	1.123047
291.000000	1.086742
292.000000	1.052739
293.000000	1.020588
294.000000	0.990737
295.000000	0.962646
296.000000	0.935910
297.000000	0.910349
298.000000	0.885712
299.000000	0.863351
300.000000	0.842367
301.000000	0.822626
302.000000	0.803705
303.000000	0.785635
304.000000	0.769113
305.000000	0.753821
306.000000	0.739283
307.000000	0.725405
308.000000	0.712680
309.000000	0.701235
310.000000	0.690018
311.000000	0.680040
312.000000	0.670276
313.000000	0.660866
314.000000	0.651976
315.000000	0.643654
316.000000	0.636291
317.000000	0.630660
318.000000	0.625457
319.000000	0.620943
320.000000	0.618748
321.000000	0.615540
322.000000	0.612603
323.000000	0.610418
324.000000	0.607943
325.000000	0.605443
326.000000	0.603796
327.000000	0.603167
328.000000	0.603023
329.000000	0.602462
330.000000	0.601352
331.000000	0.601401
332.000000	0.601228
333.000000	0.601044
334.000000	0.601537
335.000000	0.602264
336.000000	0.603021
337.000000	0.603870
338.000000	0.605235
339.000000	0.606534
340.000000	0.607873
341.000000	0.609041
342.000000	0.610961
343.000000	0.612517
344.000000	0.614036
345.000000	0.616329
346.000000	0.618245
347.000000	0.620361
348.000000	0.623566
349.000000	0.625926
350.000000	0.628345
351.000000	0.630509
352.000000	0.631868
353.000000	0.634120
354.000000	0.636111
355.000000	0.636131
356.000000	0.637742
357.000000	0.639192
358.000000	0.640545
359.000000	0.642621
360.000000	0.645027
361.000000	0.646821
362.000000	0.647833
363.000000	0.648590
364.000000	0.649305
365.000000	0.651307
366.000000	0.652587
367.000000	0.654523
368.000000	0.656109
369.000000	0.657245
370.000000	0.658858
371.000000	0.660731
372.000000	0.662437
373.000000	0.663847
374.000000	0.665473
375.000000	0.667380
376.000000	0.668705
377.000000	0.668486
378.000000	0.668275
379.000000	0.668387
380.000000	0.667793
381.000000	0.667385
382.000000	0.667249
383.000000	0.666491
384.000000	0.666380
385.000000	0.666326
386.000000	0.666381
387.000000	0.666150
388.000000	0.665271
389.000000	0.664492
390.000000	0.663972
391.000000	0.662880
392.000000	0.661853
393.000000	0.660890
394.000000	0.659910
395.000000	0.658880
396.000000	0.658107
397.000000	0.656869
398.000000	0.655773
399.000000	0.655238
400.000000	0.654171
401.000000	0.653133
402.000000	0.651925
403.000000	0.651219
404.000000	0.650343
405.000000	0.648730
406.000000	0.647113
407.000000	0.645832
408.000000	0.644722
409.000000	0.643493
410.000000	0.641997
411.000000	0.641278
412.000000	0.641674
413.000000	0.642060
414.000000	0.642455
415.000000	0.642897
416.000000	0.643300
417.000000	0.643557
418.000000	0.643688
419.000000	0.643829
420.000000	0.643960
421.000000	0.644079
422.000000	0.644133
423.000000	0.644055
424.000000	0.643969
425.000000	0.643871
426.000000	0.643745
427.000000	0.643676
428.000000	0.643461
429.000000	0.643134
430.000000	0.642852
431.000000	0.642581
432.000000	0.642436
433.000000	0.642286
434.000000	0.642017
435.000000	0.641757
436.000000	0.641394
437.000000	0.641073
438.000000	0.640777
439.000000	0.640391
440.000000	0.640011
441.000000	0.639669
442.000000	0.639369
443.000000	0.638992
444.000000	0.638487
445.000000	0.637941
446.000000	0.637382
447.000000	0.636847
448.000000	0.636298
449.000000	0.635688
450.000000	0.635006
451.000000	0.634305
452.000000	0.633664
453.000000	0.633094
454.000000	0.632439
455.000000	0.631700
456.000000	0.631010
457.000000	0.630334
458.000000	0.629732
459.000000	0.629105
460.000000	0.628501
461.000000	0.627849
462.000000	0.627167
463.000000	0.626479
464.000000	0.625833
465.000000	0.625120
466.000000	0.624343
467.000000	0.623479
468.000000	0.622679
469.000000	0.621982
470.000000	0.621229
471.000000	0.620475
472.000000	0.619649
473.000000	0.618833
474.000000	0.618077
475.000000	0.617343
476.000000	0.616636
477.000000	0.615911
478.000000	0.615211
479.000000	0.614525
480.000000	0.613861
481.000000	0.613278
482.000000	0.612714
483.000000	0.612133
484.000000	0.611611
485.000000	0.611122
486.000000	0.610688
487.000000	0.610285
488.000000	0.609876
489.000000	0.609490
490.000000	0.609137
491.000000	0.608713
492.000000	0.608323
493.000000	0.607933
494.000000	0.607603
495.000000	0.607247
496.000000	0.606895
497.000000	0.606491
498.000000	0.606071
499.000000	0.605591
500.000000	0.605062
501.000000	0.604648
502.000000	0.604121
503.000000	0.603550
504.000000	0.602980
505.000000	0.602457
506.000000	0.601952
507.000000	0.601450
508.000000	0.600920
509.000000	0.600337
510.000000	0.599753
511.000000	0.599148
512.000000	0.598589
513.000000	0.598083
514.000000	0.597642
515.000000	0.597235
516.000000	0.596849
517.000000	0.596489
518.000000	0.596208
519.000000	0.595965
520.000000	0.595793
521.000000	0.595706
522.000000	0.595715
523.000000	0.595860
524.000000	0.596252
525.000000	0.596785
526.000000	0.597470
527.000000	0.598309
528.000000	0.599402
529.000000	0.600774
530.000000	0.602420
531.000000	0.604361
532.000000	0.606570
533.000000	0.609058
534.000000	0.611915
535.000000	0.615121
536.000000	0.618557
537.000000	0.622475
538.000000	0.626765
539.000000	0.631342
540.000000	0.636398
541.000000	0.641894
542.000000	0.647833
543.000000	0.654238
544.000000	0.661213
545.000000	0.668551
546.000000	0.676405
547.000000	0.684747
548.000000	0.693555
549.000000	0.702982
550.000000	0.712979
551.000000	0.723486
552.000000	0.734593
553.000000	0.746267
554.000000	0.758566
555.000000	0.771538
556.000000	0.785170
557.000000	0.799439
558.000000	0.814487
559.000000	0.830166
560.000000	0.846352
561.000000	0.863418
562.000000	0.881309
563.000000	0.900106
564.000000	0.919749
565.000000	0.940274
566.000000	0.961890
567.000000	0.984379
568.000000	1.007926
569.000000	1.032503
570.000000	1.058199
571.000000	1.084917
572.000000	1.112676
573.000000	1.141438
574.000000	1.171484
575.000000	1.202444
576.000000	1.234570
577.000000	1.267698
578.000000	1.301969
579.000000	1.337281
580.000000	1.373849
581.000000	1.411443
582.000000	1.450151
583.000000	1.490057
584.000000	1.530951
585.000000	1.572894
586.000000	1.615987
587.000000	1.660058
588.000000	1.705240
589.000000	1.751390
590.000000	1.798493
591.000000	1.846653
592.000000	1.895749
593.000000	1.945806
594.000000	1.996913
595.000000	2.049163
596.000000	2.102401
597.000000	2.156575
598.000000	2.211614
599.000000	2.267469
600.000000	2.324133
601.000000	2.381567
602.000000	2.439921
603.000000	2.499027
604.000000	2.558879
605.000000	2.619393
606.000000	2.680522
607.000000	2.742394
608.000000	2.804749
609.000000	2.867477
610.000000	2.930920
611.000000	2.994833
612.000000	3.059380
613.000000	3.124370
614.000000	3.189970
615.000000	3.255992
616.000000	3.322542
617.000000	3.389652
618.000000	3.457172
619.000000	3.525101
620.000000	3.593484
621.000000	3.662461
622.000000	3.732043
623.000000	3.802251
624.000000	3.873019
625.000000	3.944325
626.000000	4.016224
627.000000	4.088712
628.000000	4.161660
629.000000	4.235219
630.000000	4.309612
631.000000	4.384488
632.000000	4.460092
633.000000	4.536459
634.000000	4.613820
635.000000	4.691878
636.000000	4.770744
637.000000	4.850587
638.000000	4.931296
639.000000	5.012893
640.000000	5.095624
641.000000	5.179538
642.000000	5.264628
643.000000	5.351365
644.000000	5.439510
645.000000	5.528897
646.000000	5.619719
647.000000	5.711863
648.000000	5.805469
649.000000	5.900463
650.000000	5.997317
651.000000	6.095660
652.000000	6.195544
653.000000	6.296986
654.000000	6.400353
655.000000	6.505294
656.000000	6.611597
657.000000	6.719242
658.000000	6.828214
659.000000	6.938727
660.000000	7.050526
661.000000	7.163535
662.000000	7.277931
663.000000	7.393703
664.000000	7.510575
665.000000	7.628387
666.000000	7.747106
667.000000	7.866626
668.000000	7.987114
669.000000	8.108282
670.000000	8.230215
671.000000	8.352731
672.000000	8.475500
673.000000	8.598768
674.000000	8.722302
675.000000	8.846026
676.000000	8.970044
677.000000	9.093723
678.000000	9.216963
679.000000	9.339968
680.000000	9.462756
681.000000	9.584980
682.000000	9.706899
683.000000	9.828400
684.000000	9.949386
685.000000	10.069370
686.000000	10.188673
687.000000	10.307023
688.000000	10.424827
689.000000	10.541452
690.000000	10.657293
691.000000	10.772181
692.000000	10.886407
693.000000	10.999670
694.000000	11.111646
695.000000	11.222710
696.000000	11.332707
697.000000	11.441617
698.000000	11.549269
699.000000	11.655883
700.000000	11.761494
701.000000	11.866031
702.000000	11.969446
703.000000	12.071065
704.000000	12.171653
705.000000	12.271168
706.000000	12.369272
707.000000	12.466057
708.000000	12.561645
709.000000	12.655913
710.000000	12.748520
711.000000	12.839345
712.000000	12.929105
713.000000	13.018082
714.000000	13.105694
715.000000	13.191941
716.000000	13.277073
717.000000	13.361023
718.000000	13.443380
719.000000	13.524202
720.000000	13.603635
721.000000	13.681601
722.000000	13.758633
723.000000	13.834429
724.000000	13.909246
725.000000	13.982748
726.000000	14.055091
727.000000	14.126393
728.000000	14.196791
729.000000	14.266536
730.000000	14.335646
731.000000	14.404559
732.000000	14.473159
733.000000	14.541628
734.000000	14.610333
735.000000	14.679141
736.000000	14.748789
737.000000	14.819294
738.000000	14.890927
739.000000	14.963579
740.000000	15.038088
741.000000	15.114941
742.000000	15.193880
743.000000	15.274941
744.000000	15.359102
745.000000	15.446547
746.000000	15.537081
747.000000	15.630584
748.000000	15.727528
749.000000	15.828347
750.000000	15.933150
751.000000	16.042107
752.000000	16.155080
753.000000	16.272373
754.000000	16.394036
755.000000	16.520578
756.000000	16.651871
757.000000	16.787139
758.000000	16.926962
759.000000	17.070809
760.000000	17.219596
761.000000	17.373204
762.000000	17.530838
763.000000	17.692348
764.000000	17.858602
765.000000	18.028657
766.000000	18.201291
767.000000	18.376549
768.000000	18.554977
769.000000	18.735484
770.000000	18.918619
771.000000	19.103725
772.000000	19.291062
773.000000	19.480355
774.000000	19.670829
775.000000	19.861116
776.000000	20.051909
777.000000	20.242735
778.000000	20.433341
779.000000	20.622963
780.000000	20.811854
781.000000	21.000392
782.000000	21.187414
783.000000	21.372215
784.000000	21.555724
785.000000	21.736976
786.000000	21.915159
787.000000	22.091770
788.000000	22.265463
789.000000	22.436529
790.000000	22.605150
791.000000	22.771277
792.000000	22.934900
793.000000	23.095259
794.000000	23.252770
795.000000	23.406917
796.000000	23.557497
797.000000	23.705512
798.000000	23.852664
799.000000	23.994217
800.000000	24.133808
801.000000	24.271459
802.000000	24.407558
803.000000	24.540951
804.000000	24.672113
805.000000	24.800512
806.000000	24.927135
807.000000	25.050182
808.000000	25.171554
809.000000	25.291106
810.000000	25.409579
811.000000	25.525741
812.000000	25.641650
813.000000	25.754548
814.000000	25.866336
815.000000	25.978075
816.000000	26.086905
817.000000	26.196350
818.000000	26.305163
819.000000	26.411901
820.000000	26.518265
821.000000	26.623596
822.000000	26.728340
823.000000	26.829945
824.000000	26.931882
825.000000	27.034789
826.000000	27.137424
827.000000	27.238630
828.000000	27.336836
829.000000	27.436179
830.000000	27.533092
831.000000	27.630999
832.000000	27.726166
833.000000	27.822566
834.000000	27.918467
835.000000	28.012728
836.000000	28.105094
837.000000	28.199429
838.000000	28.293822
839.000000	28.386423
840.000000	28.479107
841.000000	28.571276
842.000000	28.665473
843.000000	28.758773
844.000000	28.849210
845.000000	28.937304
846.000000	29.027714
847.000000	29.116328
848.000000	29.206773
849.000000	29.297005
850.000000	29.382664
851.000000	29.468730
852.000000	29.551470
853.000000	29.639351
854.000000	29.727112
855.000000	29.811234
856.000000	29.898705
857.000000	29.981119
858.000000	30.069644
859.000000	30.167947
860.000000	30.263463
861.000000	30.349188
862.000000	30.430498
863.000000	30.525285
864.000000	30.613520
865.000000	30.707562
866.000000	30.782437
867.000000	30.857918
868.000000	30.941830
869.000000	31.015967
870.000000	31.091289
871.000000	31.182376
872.000000	31.267750
873.000000	31.353242
874.000000	31.434040
875.000000	31.523589
876.000000	31.602886
877.000000	31.701327
878.000000	31.775973
879.000000	31.858967
880.000000	31.948195
881.000000	32.018460
882.000000	32.097589
883.000000	32.174318
884.000000	32.243385
885.000000	32.322535
886.000000	32.401238
887.000000	32.482410
888.000000	32.575903
889.000000	32.661535
890.000000	32.724752
891.000000	32.805678
892.000000	32.875327
893.000000	32.940944
894.000000	32.988056
895.000000	33.038226
896.000000	33.092326
897.000000	33.159367
898.000000	33.201865
899.000000	33.261500
900.000000	33.307851
901.000000	33.371923
902.000000	33.439949
903.000000	33.498262
904.000000	33.557078
905.000000	33.632742
906.000000	33.687037
907.000000	33.752900
908.000000	33.801220
909.000000	33.861758
910.000000	33.928189
911.000000	33.997833
912.000000	34.037659
913.000000	34.095662
914.000000	34.146231
915.000000	34.187287
916.000000	34.221530
917.000000	34.260408
918.000000	34.310272
919.000000	34.369549
920.000000	34.421722
921.000000	34.468806
922.000000	34.510311
923.000000	34.534818
924.000000	34.558423
925.000000	34.620012
926.000000	34.669513
927.000000	34.720576
928.000000	34.767375
929.000000	34.826799
930.000000	34.877145
931.000000	34.933494
932.000000	34.988356
933.000000	35.035116
934.000000	35.067951
935.000000	35.118301
936.000000	35.168299
937.000000	35.200905
938.000000	35.235889
939.000000	35.281985
940.000000	35.310232
941.000000	35.350501
942.000000	35.380978
943.000000	35.435294
944.000000	35.462142
945.000000	35.479972
946.000000	35.516321
947.000000	35.555153
948.000000	35.583567
949.000000	35.621620
950.000000	35.655311
951.000000	35.717141
952.000000	35.775529
953.000000	35.820273
954.000000	35.861165
955.000000	35.893612
956.000000	35.930040
957.000000	35.971565
958.000000	36.014220
959.000000	36.063640
960.000000	36.096945
961.000000	36.124542
962.000000	36.153196
963.000000	36.176378
964.000000	36.216873
965.000000	36.268918
966.000000	36.298398
967.000000	36.307807
968.000000	36.350258
969.000000	36.408098
970.000000	36.447966
971.000000	36.475640
972.000000	36.520364
973.000000	36.568952
974.000000	36.609053
975.000000	36.635513
976.000000	36.654603
977.000000	36.684783
978.000000	36.706089
979.000000	36.733235
980.000000	36.754379
981.000000	36.769130
982.000000	36.793485
983.000000	36.837301
984.000000	36.871332
985.000000	36.901679
986.000000	36.917259
987.000000	36.934063
988.000000	36.959588
989.000000	36.986726
990.000000	37.013768
991.000000	37.039187
992.000000	37.064303
993.000000	37.092404
994.000000	37.124040
995.000000	37.155367
996.000000	37.182330
997.000000	37.208171
998.000000	37.237791
999.000000	37.252716
1000.000000	37.259146
1001.000000	37.282984
1002.000000	37.320001
1003.000000	37.343840
1004.000000	37.347321
1005.000000	37.360608
1006.000000	37.390101
1007.000000	37.420927
1008.000000	37.434437
1009.000000	37.453097
1010.000000	37.490021
1011.000000	37.522390
1012.000000	37.548706
1013.000000	37.573029
1014.000000	37.603367
1015.000000	37.627624
1016.000000	37.645174
1017.000000	37.673016
1018.000000	37.693835
1019.000000	37.699266
1020.000000	37.711510
1021.000000	37.742316
1022.000000	37.760670
1023.000000	37.775908
1024.000000	37.786109
1025.000000	37.793680
1026.000000	37.817628
1027.000000	37.853644
1028.000000	37.874190
1029.000000	37.882978
1030.000000	37.894113
1031.000000	37.912809
1032.000000	37.944964
1033.000000	37.988964
1034.000000	38.011744
1035.000000	38.026741
1036.000000	38.044163
1037.000000	38.064797
1038.000000	38.093816
1039.000000	38.129382
1040.000000	38.146919
1041.000000	38.164197
1042.000000	38.172294
1043.000000	38.187770
1044.000000	38.202672
1045.000000	38.217398
1046.000000	38.237731
1047.000000	38.251954
1048.000000	38.257673
1049.000000	38.276163
1050.000000	38.302092
1051.000000	38.319159
1052.000000	38.322285
1053.000000	38.342583
1054.000000	38.375980
1055.000000	38.417155
1056.000000	38.448709
1057.000000	38.466602
1058.000000	38.488862
1059.000000	38.517727
1060.000000	38.551818
1061.000000	38.569566
1062.000000	38.574036
1063.000000	38.603916
1064.000000	38.627743
1065.000000	38.656277
1066.000000	38.676037
1067.000000	38.679711
1068.000000	38.679410
1069.000000	38.696558
1070.000000	38.731473
1071.000000	38.750648
1072.000000	38.755473
1073.000000	38.767610
1074.000000	38.778646
1075.000000	38.813165
1076.000000	38.846810
1077.000000	38.878625
1078.000000	38.898634
1079.000000	38.921609
1080.000000	38.940779
1081.000000	38.973707
1082.000000	39.011683
1083.000000	39.037067
1084.000000	39.075602
1085.000000	39.106550
1086.000000	39.128710
1087.000000	39.158328
1088.000000	39.163371
1089.000000	39.171343
1090.000000	39.190461
1091.000000	39.211246
1092.000000	39.248430
1093.000000	39.281938
1094.000000	39.308499
1095.000000	39.328283
1096.000000	39.360318
1097.000000	39.384578
1098.000000	39.384902
1099.000000	39.400971
1100.000000	39.412602
1101.000000	39.442116
1102.000000	39.470937
1103.000000	39.496847
1104.000000	39.514563
1105.000000	39.521298
1106.000000	39.534573
1107.000000	39.561953
1108.000000	39.583516
1109.000000	39.602852
1110.000000	39.615080
1111.000000	39.613502
1112.000000	39.609278
1113.000000	39.620032
1114.000000	39.644211
1115.000000	39.667929
1116.000000	39.669255
1117.000000	39.660458
1118.000000	39.675112
1119.000000	39.676383
1120.000000	39.684679
1121.000000	39.709200
1122.000000	39.740999
1123.000000	39.757154
1124.000000	39.772779
1125.000000	39.789198
1126.000000	39.788349
1127.000000	39.779562
1128.000000	39.775632
1129.000000	39.768576
1130.000000	39.781810
1131.000000	39.773608
1132.000000	39.781720
1133.000000	39.786221
1134.000000	39.808669
1135.000000	39.811633
1136.000000	39.772920
1137.000000	39.772657
1138.000000	39.776900
1139.000000	39.802040
1140.000000	39.833996
1141.000000	39.836883
1142.000000	39.856684
1143.000000	39.852838
1144.000000	39.852672
1145.000000	39.844903
1146.000000	39.856196
1147.000000	39.869685
1148.000000	39.872945
1149.000000	39.872145
1150.000000	39.846073
1151.000000	39.846039
1152.000000	39.848934
1153.000000	39.845073
1154.000000	39.839247
1155.000000	39.826463
1156.000000	39.819713
1157.000000	39.808414
1158.000000	39.809717
1159.000000	39.811867
1160.000000	39.787630
1161.000000	39.775885
1162.000000	39.778609
1163.000000	39.761850
1164.000000	39.762172
1165.000000	39.750301
1166.000000	39.747660
1167.000000	39.742102
1168.000000	39.743500
1169.000000	39.717886
1170.000000	39.716804
1171.000000	39.734604
1172.000000	39.726699
1173.000000	39.690008
1174.000000	39.645525
1175.000000	39.605634
1176.000000	39.595461
1177.000000	39.566774
1178.000000	39.553016
1179.000000	39.533391
1180.000000	39.532894
1181.000000	39.508541
1182.000000	39.493414
1183.000000	39.484273
1184.000000	39.462325
1185.000000	39.471541
1186.000000	39.447127
1187.000000	39.422970
1188.000000	39.416926
1189.000000	39.408169
1190.000000	39.397159
1191.000000	39.381264
1192.000000	39.364885
1193.000000	39.359341
1194.000000	39.357646
1195.000000	39.352077
1196.000000	39.353894
1197.000000	39.353666
1198.000000	39.368209
1199.000000	39.361948
1200.000000	39.350823
1201.000000	39.362445
1202.000000	39.341473
1203.000000	39.325296
1204.000000	39.328687
1205.000000	39.333960
1206.000000	39.330224
1207.000000	39.333855
1208.000000	39.367511
1209.000000	39.389630
1210.000000	39.403284
1211.000000	39.413628
1212.000000	39.436751
1213.000000	39.453230
1214.000000	39.469094
1215.000000	39.469704
1216.000000	39.494779
1217.000000	39.517592
1218.000000	39.547438
1219.000000	39.571139
1220.000000	39.584596
1221.000000	39.614180
1222.000000	39.637950
1223.000000	39.664952
1224.000000	39.695994
1225.000000	39.719285
1226.000000	39.754882
1227.000000	39.767575
1228.000000	39.784025
1229.000000	39.790996
1230.000000	39.816123
1231.000000	39.835178
1232.000000	39.854365
1233.000000	39.869585
1234.000000	39.889866
1235.000000	39.923608
1236.000000	39.935105
1237.000000	39.963687
1238.000000	39.995063
1239.000000	40.013032
1240.000000	40.025723
1241.000000	40.046136
1242.000000	40.070258
1243.000000	40.085492
1244.000000	40.096400
1245.000000	40.110608
1246.000000	40.138052
1247.000000	40.150369
1248.000000	40.156503
1249.000000	40.182929
1250.000000	40.214298
1251.000000	40.222361
1252.000000	40.236974
1253.000000	40.257834
1254.000000	40.281053
1255.000000	40.304902
1256.000000	40.332832
1257.000000	40.367255
1258.000000	40.381481
1259.000000	40.391940
1260.000000	40.420754
1261.000000	40.437817
1262.000000	40.459365
1263.000000	40.474206
1264.000000	40.489165
1265.000000	40.489840
1266.000000	40.497216
1267.000000	40.509931
1268.000000	40.520982
1269.000000	40.536160
1270.000000	40.535080
1271.000000	40.529934
1272.000000	40.553155
1273.000000	40.574635
1274.000000	40.600212
1275.000000	40.617615
1276.000000	40.632468
1277.000000	40.640743
1278.000000	40.642869
1279.000000	40.656642
1280.000000	40.670700
1281.000000	40.688137
1282.000000	40.703430
1283.000000	40.722642
1284.000000	40.726428
1285.000000	40.735074
1286.000000	40.759368
1287.000000	40.779676
1288.000000	40.781002
1289.000000	40.786064
1290.000000	40.795556
1291.000000	40.807034
1292.000000	40.816089
1293.000000	40.820596
1294.000000	40.831523
1295.000000	40.830869
1296.000000	40.827290
1297.000000	40.835011
1298.000000	40.844781
1299.000000	40.856914
1300.000000	40.881273
1301.000000	40.902370
1302.000000	40.906239
1303.000000	40.908585
1304.000000	40.911178
1305.000000	40.932168
1306.000000	40.957721
1307.000000	40.956021
1308.000000	40.953185
1309.000000	40.956534
1310.000000	40.962341
1311.000000	40.975670
1312.000000	40.995809
1313.000000	41.014355
1314.000000	41.026096
1315.000000	41.039007
1316.000000	41.042080
1317.000000	41.052739
1318.000000	41.059785
1319.000000	41.061426
1320.000000	41.065255
1321.000000	41.071162
1322.000000	41.066007
1323.000000	41.062846
1324.000000	41.058990
1325.000000	41.071041
1326.000000	41.076560
1327.000000	41.067913
1328.000000	41.082720
1329.000000	41.088099
1330.000000	41.097210
1331.000000	41.103337
1332.000000	41.096537
1333.000000	41.093838
1334.000000	41.093269
1335.000000	41.104303
1336.000000	41.109148
1337.000000	41.112847
1338.000000	41.112150
1339.000000	41.127589
1340.000000	41.121113
1341.000000	41.107807
1342.000000	41.118298
1343.000000	41.107299
1344.000000	41.100766
1345.000000	41.078672
1346.000000	41.044873
1347.000000	41.039947
1348.000000	41.037283
1349.000000	41.034669
1350.000000	41.013862
1351.000000	40.980883
1352.000000	40.918096
1353.000000	40.913746
1354.000000	40.935653
1355.000000	40.980478
1356.000000	40.975393
1357.000000	40.943971
1358.000000	40.914509
1359.000000	40.917151
1360.000000	40.917301
1361.000000	40.888028
1362.000000	40.705074
1363.000000	40.610066
1364.000000	40.643244
1365.000000	40.570423
1366.000000	40.541827
1367.000000	40.571569
1368.000000	40.590754
1369.000000	40.578820
1370.000000	40.566446
1371.000000	40.533754
1372.000000	40.473465
1373.000000	40.457016
1374.000000	40.409702
1375.000000	40.356152
1376.000000	40.343787
1377.000000	40.287769
1378.000000	40.320168
1379.000000	40.279753
1380.000000	40.426133
1381.000000	40.402011
1382.000000	40.465811
1383.000000	40.458155
1384.000000	40.456251
1385.000000	40.445034
1386.000000	40.428527
1387.000000	40.505654
1388.000000	40.415011
1389.000000	40.338465
1390.000000	40.230745
1391.000000	40.173275
1392.000000	40.124047
1393.000000	40.070227
1394.000000	40.036021
1395.000000	39.996970
1396.000000	39.992017
1397.000000	40.122285
1398.000000	40.148759
1399.000000	40.068042
1400.000000	40.137723
1401.000000	40.128853
1402.000000	40.030317
1403.000000	39.931076
1404.000000	39.895672
1405.000000	39.783740
1406.000000	39.729570
1407.000000	39.693453
1408.000000	39.610445
1409.000000	39.579349
1410.000000	39.541958
1411.000000	39.448261
1412.000000	39.383090
1413.000000	39.256290
1414.000000	39.183490
1415.000000	38.941347
1416.000000	38.877162
1417.000000	38.685348
1418.000000	38.572205
1419.000000	38.448851
1420.000000	38.366554
1421.000000	38.281923
1422.000000	38.138544
1423.000000	38.109970
1424.000000	38.028944
1425.000000	37.960329
1426.000000	37.865083
1427.000000	37.786367
1428.000000	37.729780
1429.000000	37.610597
1430.000000	37.483470
1431.000000	37.347733
1432.000000	37.255105
1433.000000	37.147429
1434.000000	37.014383
1435.000000	36.842113
1436.000000	36.710269
1437.000000	36.642455
1438.000000	36.570844
1439.000000	36.471807
1440.000000	36.437020
1441.000000	36.372230
1442.000000	36.308871
1443.000000	36.228480
1444.000000	36.128866
1445.000000	36.070592
1446.000000	36.016832
1447.000000	35.957356
1448.000000	35.877594
1449.000000	35.812877
1450.000000	35.738375
1451.000000	35.677977
1452.000000	35.623357
1453.000000	35.560382
1454.000000	35.501185
1455.000000	35.430182
1456.000000	35.384652
1457.000000	35.314983
1458.000000	35.251403
1459.000000	35.204893
1460.000000	35.151626
1461.000000	35.110658
1462.000000	35.086234
1463.000000	35.039762
1464.000000	35.011928
1465.000000	34.978446
1466.000000	34.929346
1467.000000	34.871908
1468.000000	34.834011
1469.000000	34.811032
1470.000000	34.789243
1471.000000	34.757694
1472.000000	34.709749
1473.000000	34.650898
1474.000000	34.596279
1475.000000	34.557820
1476.000000	34.501823
1477.000000	34.454876
1478.000000	34.433355
1479.000000	34.395104
1480.000000	34.342884
1481.000000	34.309463
1482.000000	34.287151
1483.000000	34.280716
1484.000000	34.260208
1485.000000	34.240196
1486.000000	34.217167
1487.000000	34.175517
1488.000000	34.156308
1489.000000	34.134926
1490.000000	34.107939
1491.000000	34.092397
1492.000000	34.081875
1493.000000	34.074196
1494.000000	34.045127
1495.000000	34.004354
1496.000000	33.982444
1497.000000	33.967052
1498.000000	33.962574
1499.000000	33.946998
1500.000000	33.930817
1501.000000	33.945926
1502.000000	33.958674
1503.000000	33.968313
1504.000000	33.977355
1505.000000	33.978593
1506.000000	33.988217
1507.000000	34.007807
1508.000000	34.046618
1509.000000	34.067026
1510.000000	34.081371
1511.000000	34.112326
1512.000000	34.136577
1513.000000	34.160734
1514.000000	34.197309
1515.000000	34.228909
1516.000000	34.257313
1517.000000	34.277967
1518.000000	34.287848
1519.000000	34.313839
1520.000000	34.356471
1521.000000	34.390548
1522.000000	34.444107
1523.000000	34.492639
1524.000000	34.546533
1525.000000	34.584245
1526.000000	34.608521
1527.000000	34.649784
1528.000000	34.682751
1529.000000	34.734640
1530.000000	34.795467
1531.000000	34.852024
1532.000000	34.896211
1533.000000	34.932652
1534.000000	34.971438
1535.000000	35.022925
1536.000000	35.064108
1537.000000	35.101006
1538.000000	35.139948
1539.000000	35.177962
1540.000000	35.220141
1541.000000	35.250402
1542.000000	35.263702
1543.000000	35.286043
1544.000000	35.318241
1545.000000	35.346207
1546.000000	35.373633
1547.000000	35.411248
1548.000000	35.454788
1549.000000	35.494533
1550.000000	35.531841
1551.000000	35.578697
1552.000000	35.627235
1553.000000	35.678004
1554.000000	35.724728
1555.000000	35.768026
1556.000000	35.811959
1557.000000	35.842974
1558.000000	35.870512
1559.000000	35.900128
1560.000000	35.942324
1561.000000	35.982548
1562.000000	36.016976
1563.000000	36.049732
1564.000000	36.086497
1565.000000	36.124695
1566.000000	36.148382
1567.000000	36.160242
1568.000000	36.183581
1569.000000	36.234913
1570.000000	36.261630
1571.000000	36.277967
1572.000000	36.310575
1573.000000	36.343005
1574.000000	36.368272
1575.000000	36.394193
1576.000000	36.422930
1577.000000	36.452444
1578.000000	36.482797
1579.000000	36.516116
1580.000000	36.543561
1581.000000	36.558852
1582.000000	36.581718
1583.000000	36.601187
1584.000000	36.617516
1585.000000	36.640338
1586.000000	36.658143
1587.000000	36.663222
1588.000000	36.680552
1589.000000	36.695769
1590.000000	36.703986
1591.000000	36.722658
1592.000000	36.746154
1593.000000	36.769335
1594.000000	36.782113
1595.000000	36.793336
1596.000000	36.810663
1597.000000	36.827448
1598.000000	36.851574
1599.000000	36.865699
1600.000000	36.869898
1601.000000	36.893603
1602.000000	36.938094
1603.000000	36.955965
1604.000000	36.953911
1605.000000	36.989154
1606.000000	37.029930
1607.000000	37.038832
1608.000000	37.066360
1609.000000	37.093969
1610.000000	37.138686
1611.000000	37.178721
1612.000000	37.232710
1613.000000	37.284937
1614.000000	37.350784
1615.000000	37.388868
1616.000000	37.436646
1617.000000	37.467102
1618.000000	37.495153
1619.000000	37.536616
1620.000000	37.573140
1621.000000	37.592363
1622.000000	37.641050
1623.000000	37.668954
1624.000000	37.716378
1625.000000	37.752019
1626.000000	37.781913
1627.000000	37.807591
1628.000000	37.845879
1629.000000	37.889843
1630.000000	37.922539
1631.000000	37.968791
1632.000000	38.012471
1633.000000	38.061008
1634.000000	38.106826
1635.000000	38.151093
1636.000000	38.185899
1637.000000	38.210113
1638.000000	38.256640
1639.000000	38.294748
1640.000000	38.294719
1641.000000	38.315484
1642.000000	38.362360
1643.000000	38.398887
1644.000000	38.446079
1645.000000	38.458195
1646.000000	38.492549
1647.000000	38.511088
1648.000000	38.518517
1649.000000	38.505391
1650.000000	38.517551
1651.000000	38.540598
1652.000000	38.568630
1653.000000	38.593014
1654.000000	38.598127
1655.000000	38.614918
1656.000000	38.651470
1657.000000	38.660078
1658.000000	38.685650
1659.000000	38.696807
1660.000000	38.711698
1661.000000	38.722909
1662.000000	38.745048
1663.000000	38.750715
1664.000000	38.765906
1665.000000	38.767244
1666.000000	38.758692
1667.000000	38.729940
1668.000000	38.705726
1669.000000	38.694300
1670.000000	38.688820
1671.000000	38.695829
1672.000000	38.684006
1673.000000	38.662185
1674.000000	38.632888
1675.000000	38.639472
1676.000000	38.610785
1677.000000	38.580409
1678.000000	38.523262
1679.000000	38.471701
1680.000000	38.445001
1681.000000	38.394229
1682.000000	38.341150
1683.000000	38.295212
1684.000000	38.244778
1685.000000	38.197419
1686.000000	38.116990
1687.000000	38.062163
1688.000000	37.999998
1689.000000	37.943147
1690.000000	37.885333
1691.000000	37.809868
1692.000000	37.772041
1693.000000	37.700690
1694.000000	37.632169
1695.000000	37.572290
1696.000000	37.531762
1697.000000	37.494664
1698.000000	37.438413
1699.000000	37.367248
1700.000000	37.335435
1701.000000	37.303347
1702.000000	37.297699
1703.000000	37.257493
1704.000000	37.229532
1705.000000	37.198228
1706.000000	37.165744
1707.000000	37.127790
1708.000000	37.097276
1709.000000	37.066920
1710.000000	37.031912
1711.000000	37.002188
1712.000000	36.960126
1713.000000	36.946225
1714.000000	36.902745
1715.000000	36.856446
1716.000000	36.824629
1717.000000	36.786297
1718.000000	36.737859
1719.000000	36.701853
1720.000000	36.657877
1721.000000	36.636408
1722.000000	36.586782
1723.000000	36.569940
1724.000000	36.531017
1725.000000	36.495911
1726.000000	36.478879
1727.000000	36.440647
1728.000000	36.425469
1729.000000	36.401666
1730.000000	36.385312
1731.000000	36.347197
1732.000000	36.308180
1733.000000	36.288997
1734.000000	36.259969
1735.000000	36.234319
1736.000000	36.216625
1737.000000	36.192764
1738.000000	36.182909
1739.000000	36.161076
1740.000000	36.157379
1741.000000	36.135520
1742.000000	36.134735
1743.000000	36.144336
1744.000000	36.166712
1745.000000	36.163330
1746.000000	36.164096
1747.000000	36.185391
1748.000000	36.206445
1749.000000	36.241901
1750.000000	36.269644
1751.000000	36.299951
1752.000000	36.341464
1753.000000	36.386183
1754.000000	36.435530
1755.000000	36.483485
1756.000000	36.525991
1757.000000	36.577269
1758.000000	36.616724
1759.000000	36.667900
1760.000000	36.697263
1761.000000	36.725925
1762.000000	36.766266
1763.000000	36.814575
1764.000000	36.856333
1765.000000	36.885811
1766.000000	36.919830
1767.000000	36.947169
1768.000000	36.979165
1769.000000	37.024899
1770.000000	37.052116
1771.000000	37.073635
1772.000000	37.093691
1773.000000	37.132891
1774.000000	37.161239
1775.000000	37.173922
1776.000000	37.196669
1777.000000	37.210237
1778.000000	37.221377
1779.000000	37.250250
1780.000000	37.293558
1781.000000	37.328932
1782.000000	37.340304
1783.000000	37.349987
1784.000000	37.356841
1785.000000	37.364930
1786.000000	37.373568
1787.000000	37.390273
1788.000000	37.413960
1789.000000	37.426729
1790.000000	37.446354
1791.000000	37.473881
1792.000000	37.514236
1793.000000	37.546190
1794.000000	37.565631
1795.000000	37.594590
1796.000000	37.629116
1797.000000	37.656617
1798.000000	37.679326
1799.000000	37.700924
1800.000000	37.734477
1801.000000	37.771226
1802.000000	37.808192
1803.000000	37.834406
1804.000000	37.867436
1805.000000	37.915824
1806.000000	37.958877
1807.000000	37.998451
1808.000000	38.017919
1809.000000	38.034056
1810.000000	38.062813
1811.000000	38.118583
1812.000000	38.203572
1813.000000	38.263669
1814.000000	38.284158
1815.000000	38.288321
1816.000000	38.325091
1817.000000	38.439440
1818.000000	38.515847
1819.000000	38.579431
1820.000000	38.624090
1821.000000	38.662532
1822.000000	38.691926
1823.000000	38.721134
1824.000000	38.743932
1825.000000	38.818851
1826.000000	38.873231
1827.000000	38.892832
1828.000000	38.907310
1829.000000	38.941020
1830.000000	39.002708
1831.000000	39.043345
1832.000000	39.068410
1833.000000	39.099670
1834.000000	39.141881
1835.000000	39.196028
1836.000000	39.200963
1837.000000	39.201089
1838.000000	39.194907
1839.000000	39.244613
1840.000000	39.252191
1841.000000	39.286500
1842.000000	39.308831
1843.000000	39.329224
1844.000000	39.355833
1845.000000	39.365114
1846.000000	39.372024
1847.000000	39.400562
1848.000000	39.406165
1849.000000	39.433432
1850.000000	39.453677
1851.000000	39.462428
1852.000000	39.425129
1853.000000	39.440076
1854.000000	39.439241
1855.000000	39.445724
1856.000000	39.386776
1857.000000	39.334568
1858.000000	39.311297
1859.000000	39.303792
1860.000000	39.257308
1861.000000	39.229412
1862.000000	39.227648
1863.000000	39.275286
1864.000000	39.324050
1865.000000	39.332821
1866.000000	39.328218
1867.000000	39.291354
1868.000000	39.248628
1869.000000	39.231076
1870.000000	39.305344
1871.000000	39.322681
1872.000000	39.387073
1873.000000	39.393787
1874.000000	39.348388
1875.000000	39.316789
1876.000000	39.324116
1877.000000	39.307400
1878.000000	39.269159
1879.000000	39.243320
1880.000000	39.212164
1881.000000	39.136717
1882.000000	39.021210
1883.000000	38.970613
1884.000000	38.878885
1885.000000	38.789120
1886.000000	38.723872
1887.000000	38.614448
1888.000000	38.460379
1889.000000	38.378883
1890.000000	38.253239
1891.000000	38.214944
1892.000000	38.139207
1893.000000	38.030630
1894.000000	37.904164
1895.000000	37.759319
1896.000000	37.613126
1897.000000	37.467471
1898.000000	37.260490
1899.000000	37.024604
1900.000000	36.789004
1901.000000	36.606203
1902.000000	36.547296
1903.000000	36.361204
1904.000000	36.117594
1905.000000	35.747753
1906.000000	35.506253
1907.000000	35.194232
1908.000000	34.950272
1909.000000	34.691296
1910.000000	34.430972
1911.000000	34.090051
1912.000000	33.783166
1913.000000	33.512962
1914.000000	33.218548
1915.000000	32.958165
1916.000000	32.697878
1917.000000	32.412896
1918.000000	32.105216
1919.000000	31.866543
1920.000000	31.654391
1921.000000	31.352158
1922.000000	31.080285
1923.000000	30.863436
1924.000000	30.555099
1925.000000	30.328712
1926.000000	30.090695
1927.000000	29.840977
1928.000000	29.660141
1929.000000	29.438889
1930.000000	29.237040
1931.000000	29.038404
1932.000000	28.822325
1933.000000	28.649710
1934.000000	28.463774
1935.000000	28.316077
1936.000000	28.131145
1937.000000	27.848888
1938.000000	27.743053
1939.000000	27.640683
1940.000000	27.531504
1941.000000	27.422894
1942.000000	27.355274
1943.000000	27.274557
1944.000000	27.220968
1945.000000	27.168001
1946.000000	27.139170
1947.000000	27.111763
1948.000000	27.076726
1949.000000	27.070346
1950.000000	27.034694
1951.000000	27.039918
1952.000000	27.069972
1953.000000	27.073829
1954.000000	27.057782
1955.000000	27.033692
1956.000000	27.071002
1957.000000	27.103451
1958.000000	27.110295
1959.000000	27.173966
1960.000000	27.219043
1961.000000	27.256501
1962.000000	27.349762
1963.000000	27.380797
1964.000000	27.454605
1965.000000	27.519707
1966.000000	27.594542
1967.000000	27.678433
1968.000000	27.733168
1969.000000	27.834208
1970.000000	27.901766
1971.000000	27.988873
1972.000000	28.092061
1973.000000	28.145218
1974.000000	28.223306
1975.000000	28.341764
1976.000000	28.415440
1977.000000	28.479253
1978.000000	28.563172
1979.000000	28.629599
1980.000000	28.716820
1981.000000	28.804625
1982.000000	28.901409
1983.000000	29.006412
1984.000000	29.102933
1985.000000	29.214790
1986.000000	29.295518
1987.000000	29.372405
1988.000000	29.482767
1989.000000	29.580339
1990.000000	29.676102
1991.000000	29.766598
1992.000000	29.866909
1993.000000	29.957133
1994.000000	30.045297
1995.000000	30.126744
1996.000000	30.219733
1997.000000	30.305183
1998.000000	30.384493
1999.000000	30.465836
2000.000000	30.554491
