PE UV       SUBTECH     SPECTRUM    ASCII       PEDS        4.00        
   -1
S.BELT.1063-TX3.ASC
23/11/29
16:25:54.00
23/11/29
16:25:54.00
Vinicio Soto Monge
STRIGIDA BELTI INBIO0004211063
250,000000
1
Lambda 1050
1050L1511233
PerkinElmer UV WinLab 6.3.2.0749 / 2.02.05 Lambda 900 UV/VIS/NIR, Aug  7 2015 09:38:08

0
0
3350/servo 860,8/2
0
0
UV/VIS
1
1
1
DoubleDePol,CommonBeamDepol,RBeamAtt,SBeamAtt,60mm sphere, WB InGaAs Detector
0
0
0
0
Program
Program
3350/servo 860,8/2
3350/0,4 860,8/0,4
3350/0,4 860,8/0,4
0
20.00
 
 
 
0
 
860,8
319,2
860,8
Front
100
on
S:100 R:100
0
0
0
0
 
0
 
 
 
0
 
 
0
0
0
0
0
 
 
 
 
0
0


0
0
#HDR
-1
-1
#GR
nm
%T
1.0
0.0
2200,000000
-1,000000
1951
8
69,176726
0,292731
#DATA
284.000000	0.624806
285.000000	0.601841
286.000000	0.580518
287.000000	0.561380
288.000000	0.543949
289.000000	0.527655
290.000000	0.513069
291.000000	0.499899
292.000000	0.486883
293.000000	0.475365
294.000000	0.465511
295.000000	0.456867
296.000000	0.448453
297.000000	0.441113
298.000000	0.434272
299.000000	0.428246
300.000000	0.423272
301.000000	0.419679
302.000000	0.415416
303.000000	0.412274
304.000000	0.409620
305.000000	0.407403
306.000000	0.405530
307.000000	0.403402
308.000000	0.402430
309.000000	0.401538
310.000000	0.400916
311.000000	0.400262
312.000000	0.399722
313.000000	0.399664
314.000000	0.399860
315.000000	0.400330
316.000000	0.400903
317.000000	0.401795
318.000000	0.403765
319.000000	0.402758
320.000000	0.403570
321.000000	0.404920
322.000000	0.404970
323.000000	0.407044
324.000000	0.408354
325.000000	0.410081
326.000000	0.412158
327.000000	0.414714
328.000000	0.418516
329.000000	0.420921
330.000000	0.423978
331.000000	0.426965
332.000000	0.428517
333.000000	0.430837
334.000000	0.433335
335.000000	0.435017
336.000000	0.436925
337.000000	0.439251
338.000000	0.442029
339.000000	0.444744
340.000000	0.447810
341.000000	0.450727
342.000000	0.453821
343.000000	0.456602
344.000000	0.459612
345.000000	0.462403
346.000000	0.465410
347.000000	0.468631
348.000000	0.472175
349.000000	0.474675
350.000000	0.477205
351.000000	0.480157
352.000000	0.482545
353.000000	0.484177
354.000000	0.488988
355.000000	0.492492
356.000000	0.495350
357.000000	0.499466
358.000000	0.501431
359.000000	0.504308
360.000000	0.506959
361.000000	0.509196
362.000000	0.511713
363.000000	0.512986
364.000000	0.515834
365.000000	0.518382
366.000000	0.520814
367.000000	0.525061
368.000000	0.528859
369.000000	0.532294
370.000000	0.536167
371.000000	0.539434
372.000000	0.543076
373.000000	0.545659
374.000000	0.548357
375.000000	0.551162
376.000000	0.554292
377.000000	0.556710
378.000000	0.559246
379.000000	0.561321
380.000000	0.563408
381.000000	0.565808
382.000000	0.568104
383.000000	0.569913
384.000000	0.572275
385.000000	0.574460
386.000000	0.576294
387.000000	0.578291
388.000000	0.580325
389.000000	0.582128
390.000000	0.583891
391.000000	0.585787
392.000000	0.587429
393.000000	0.589443
394.000000	0.591402
395.000000	0.592947
396.000000	0.594675
397.000000	0.596022
398.000000	0.597140
399.000000	0.598086
400.000000	0.598815
401.000000	0.599953
402.000000	0.600568
403.000000	0.601018
404.000000	0.601547
405.000000	0.602148
406.000000	0.603021
407.000000	0.603737
408.000000	0.604479
409.000000	0.605252
410.000000	0.605737
411.000000	0.605894
412.000000	0.606796
413.000000	0.607670
414.000000	0.608505
415.000000	0.609214
416.000000	0.609853
417.000000	0.610457
418.000000	0.611087
419.000000	0.611661
420.000000	0.612107
421.000000	0.612552
422.000000	0.612969
423.000000	0.613375
424.000000	0.613699
425.000000	0.613942
426.000000	0.614198
427.000000	0.614479
428.000000	0.614774
429.000000	0.614989
430.000000	0.615126
431.000000	0.615267
432.000000	0.615374
433.000000	0.615499
434.000000	0.615561
435.000000	0.615457
436.000000	0.615329
437.000000	0.615225
438.000000	0.615154
439.000000	0.615079
440.000000	0.615024
441.000000	0.614919
442.000000	0.614829
443.000000	0.614741
444.000000	0.614521
445.000000	0.614351
446.000000	0.614200
447.000000	0.613978
448.000000	0.613683
449.000000	0.613280
450.000000	0.612996
451.000000	0.612739
452.000000	0.612408
453.000000	0.612008
454.000000	0.611511
455.000000	0.610981
456.000000	0.610499
457.000000	0.610016
458.000000	0.609533
459.000000	0.609032
460.000000	0.608528
461.000000	0.608053
462.000000	0.607570
463.000000	0.607010
464.000000	0.606485
465.000000	0.605949
466.000000	0.605398
467.000000	0.604901
468.000000	0.604411
469.000000	0.603845
470.000000	0.603284
471.000000	0.602706
472.000000	0.602090
473.000000	0.601420
474.000000	0.600716
475.000000	0.599984
476.000000	0.599276
477.000000	0.598513
478.000000	0.597795
479.000000	0.597151
480.000000	0.596494
481.000000	0.595910
482.000000	0.595352
483.000000	0.594818
484.000000	0.594346
485.000000	0.593806
486.000000	0.593157
487.000000	0.592544
488.000000	0.591919
489.000000	0.591334
490.000000	0.590765
491.000000	0.590153
492.000000	0.589543
493.000000	0.588943
494.000000	0.588350
495.000000	0.587771
496.000000	0.587219
497.000000	0.586661
498.000000	0.586143
499.000000	0.585579
500.000000	0.585157
501.000000	0.584729
502.000000	0.584323
503.000000	0.583920
504.000000	0.583544
505.000000	0.583193
506.000000	0.582857
507.000000	0.582559
508.000000	0.582390
509.000000	0.582296
510.000000	0.582274
511.000000	0.582334
512.000000	0.582530
513.000000	0.582811
514.000000	0.583254
515.000000	0.583836
516.000000	0.584586
517.000000	0.585565
518.000000	0.586671
519.000000	0.588070
520.000000	0.589695
521.000000	0.591660
522.000000	0.593983
523.000000	0.596570
524.000000	0.599587
525.000000	0.602978
526.000000	0.606806
527.000000	0.611007
528.000000	0.615722
529.000000	0.620989
530.000000	0.626853
531.000000	0.633385
532.000000	0.640626
533.000000	0.648576
534.000000	0.657285
535.000000	0.666838
536.000000	0.677285
537.000000	0.688649
538.000000	0.700997
539.000000	0.714385
540.000000	0.728911
541.000000	0.744675
542.000000	0.761695
543.000000	0.780094
544.000000	0.799859
545.000000	0.821117
546.000000	0.843872
547.000000	0.868344
548.000000	0.894593
549.000000	0.922787
550.000000	0.953051
551.000000	0.985358
552.000000	1.019942
553.000000	1.056949
554.000000	1.096470
555.000000	1.138620
556.000000	1.183538
557.000000	1.231148
558.000000	1.281941
559.000000	1.335680
560.000000	1.392858
561.000000	1.453511
562.000000	1.517737
563.000000	1.585686
564.000000	1.657448
565.000000	1.733355
566.000000	1.813154
567.000000	1.897036
568.000000	1.985106
569.000000	2.077579
570.000000	2.174349
571.000000	2.275536
572.000000	2.381068
573.000000	2.490969
574.000000	2.605379
575.000000	2.723827
576.000000	2.846339
577.000000	2.972880
578.000000	3.103304
579.000000	3.237577
580.000000	3.375470
581.000000	3.517107
582.000000	3.662409
583.000000	3.811387
584.000000	3.963695
585.000000	4.119133
586.000000	4.278131
587.000000	4.440477
588.000000	4.606130
589.000000	4.774782
590.000000	4.946701
591.000000	5.121763
592.000000	5.299960
593.000000	5.481205
594.000000	5.665534
595.000000	5.852921
596.000000	6.043155
597.000000	6.236178
598.000000	6.432179
599.000000	6.630918
600.000000	6.832213
601.000000	7.036068
602.000000	7.242264
603.000000	7.450843
604.000000	7.661519
605.000000	7.874169
606.000000	8.088383
607.000000	8.304213
608.000000	8.521205
609.000000	8.738981
610.000000	8.958022
611.000000	9.177914
612.000000	9.398804
613.000000	9.620317
614.000000	9.842492
615.000000	10.065348
616.000000	10.288509
617.000000	10.511797
618.000000	10.735357
619.000000	10.959604
620.000000	11.184613
621.000000	11.409943
622.000000	11.636141
623.000000	11.862834
624.000000	12.090507
625.000000	12.319006
626.000000	12.548366
627.000000	12.778581
628.000000	13.009486
629.000000	13.241553
630.000000	13.474355
631.000000	13.707977
632.000000	13.942279
633.000000	14.176654
634.000000	14.411734
635.000000	14.647148
636.000000	14.882857
637.000000	15.118553
638.000000	15.353652
639.000000	15.588215
640.000000	15.822641
641.000000	16.056731
642.000000	16.290281
643.000000	16.524007
644.000000	16.758090
645.000000	16.992244
646.000000	17.226122
647.000000	17.459996
648.000000	17.694435
649.000000	17.929532
650.000000	18.165381
651.000000	18.402612
652.000000	18.641266
653.000000	18.881245
654.000000	19.122501
655.000000	19.365187
656.000000	19.609107
657.000000	19.854198
658.000000	20.100450
659.000000	20.347329
660.000000	20.594747
661.000000	20.842665
662.000000	21.090884
663.000000	21.339452
664.000000	21.587517
665.000000	21.834399
666.000000	22.080441
667.000000	22.325604
668.000000	22.569410
669.000000	22.811348
670.000000	23.051973
671.000000	23.290840
672.000000	23.528471
673.000000	23.765159
674.000000	24.001068
675.000000	24.235583
676.000000	24.469550
677.000000	24.703171
678.000000	24.935940
679.000000	25.168500
680.000000	25.400549
681.000000	25.632532
682.000000	25.864705
683.000000	26.096754
684.000000	26.328838
685.000000	26.560698
686.000000	26.791298
687.000000	27.020829
688.000000	27.249447
689.000000	27.477064
690.000000	27.703368
691.000000	27.928384
692.000000	28.151149
693.000000	28.371384
694.000000	28.589813
695.000000	28.806381
696.000000	29.020376
697.000000	29.232157
698.000000	29.441539
699.000000	29.648829
700.000000	29.854621
701.000000	30.057959
702.000000	30.259378
703.000000	30.459957
704.000000	30.659580
705.000000	30.858154
706.000000	31.055808
707.000000	31.252544
708.000000	31.448924
709.000000	31.644520
710.000000	31.839562
711.000000	32.033703
712.000000	32.227383
713.000000	32.420728
714.000000	32.612560
715.000000	32.803189
716.000000	32.993529
717.000000	33.182443
718.000000	33.369902
719.000000	33.555437
720.000000	33.738759
721.000000	33.920817
722.000000	34.101224
723.000000	34.280137
724.000000	34.456954
725.000000	34.631526
726.000000	34.804080
727.000000	34.975036
728.000000	35.145460
729.000000	35.314314
730.000000	35.481964
731.000000	35.649265
732.000000	35.815376
733.000000	35.981636
734.000000	36.148116
735.000000	36.313462
736.000000	36.478509
737.000000	36.643834
738.000000	36.808543
739.000000	36.972267
740.000000	37.135571
741.000000	37.298505
742.000000	37.461979
743.000000	37.624675
744.000000	37.785391
745.000000	37.944834
746.000000	38.103464
747.000000	38.261074
748.000000	38.417232
749.000000	38.571911
750.000000	38.725952
751.000000	38.878697
752.000000	39.030240
753.000000	39.180209
754.000000	39.329624
755.000000	39.477610
756.000000	39.625885
757.000000	39.773415
758.000000	39.920219
759.000000	40.067401
760.000000	40.213966
761.000000	40.359917
762.000000	40.506299
763.000000	40.652606
764.000000	40.798812
765.000000	40.944102
766.000000	41.087609
767.000000	41.231509
768.000000	41.374577
769.000000	41.516871
770.000000	41.658882
771.000000	41.800405
772.000000	41.940070
773.000000	42.078768
774.000000	42.217261
775.000000	42.353889
776.000000	42.490123
777.000000	42.625156
778.000000	42.756856
779.000000	42.889094
780.000000	43.021360
781.000000	43.152706
782.000000	43.283233
783.000000	43.413771
784.000000	43.543256
785.000000	43.670696
786.000000	43.797931
787.000000	43.925184
788.000000	44.051263
789.000000	44.178438
790.000000	44.306804
791.000000	44.432849
792.000000	44.558137
793.000000	44.683781
794.000000	44.807196
795.000000	44.930208
796.000000	45.051718
797.000000	45.173230
798.000000	45.292472
799.000000	45.411294
800.000000	45.528912
801.000000	45.647374
802.000000	45.765052
803.000000	45.880151
804.000000	45.993804
805.000000	46.105970
806.000000	46.218672
807.000000	46.330363
808.000000	46.442162
809.000000	46.552190
810.000000	46.662562
811.000000	46.769517
812.000000	46.876506
813.000000	46.985357
814.000000	47.091826
815.000000	47.197182
816.000000	47.302881
817.000000	47.408222
818.000000	47.512808
819.000000	47.617902
820.000000	47.721390
821.000000	47.823952
822.000000	47.926181
823.000000	48.029983
824.000000	48.127730
825.000000	48.226701
826.000000	48.324693
827.000000	48.420603
828.000000	48.515269
829.000000	48.610098
830.000000	48.703956
831.000000	48.798695
832.000000	48.891462
833.000000	48.984563
834.000000	49.075413
835.000000	49.167684
836.000000	49.261643
837.000000	49.352677
838.000000	49.443534
839.000000	49.534291
840.000000	49.621727
841.000000	49.712051
842.000000	49.805032
843.000000	49.894854
844.000000	49.983846
845.000000	50.072924
846.000000	50.161917
847.000000	50.251983
848.000000	50.335931
849.000000	50.421810
850.000000	50.503863
851.000000	50.584514
852.000000	50.662972
853.000000	50.746147
854.000000	50.825147
855.000000	50.897435
856.000000	50.973342
857.000000	51.056243
858.000000	51.114761
859.000000	51.226589
860.000000	51.335587
861.000000	51.436587
862.000000	51.551047
863.000000	51.657996
864.000000	51.774448
865.000000	51.879228
866.000000	51.965058
867.000000	52.062835
868.000000	52.180132
869.000000	52.281745
870.000000	52.381110
871.000000	52.482786
872.000000	52.579432
873.000000	52.668278
874.000000	52.746908
875.000000	52.839379
876.000000	52.924442
877.000000	53.017455
878.000000	53.107545
879.000000	53.192623
880.000000	53.274257
881.000000	53.369648
882.000000	53.463950
883.000000	53.559487
884.000000	53.631337
885.000000	53.723075
886.000000	53.826387
887.000000	53.927329
888.000000	54.003079
889.000000	54.100579
890.000000	54.205448
891.000000	54.301548
892.000000	54.392241
893.000000	54.505154
894.000000	54.575031
895.000000	54.628819
896.000000	54.691477
897.000000	54.745675
898.000000	54.791277
899.000000	54.831963
900.000000	54.905711
901.000000	54.989267
902.000000	55.057552
903.000000	55.108172
904.000000	55.166677
905.000000	55.220165
906.000000	55.274953
907.000000	55.346881
908.000000	55.412863
909.000000	55.493509
910.000000	55.567985
911.000000	55.628374
912.000000	55.686925
913.000000	55.749078
914.000000	55.805501
915.000000	55.868084
916.000000	55.913536
917.000000	55.960950
918.000000	56.006440
919.000000	56.096567
920.000000	56.151625
921.000000	56.186821
922.000000	56.224760
923.000000	56.288502
924.000000	56.331824
925.000000	56.383695
926.000000	56.445487
927.000000	56.500153
928.000000	56.532166
929.000000	56.563038
930.000000	56.604305
931.000000	56.649553
932.000000	56.682743
933.000000	56.740989
934.000000	56.798804
935.000000	56.844402
936.000000	56.886819
937.000000	56.931944
938.000000	56.965953
939.000000	57.000799
940.000000	57.052448
941.000000	57.086382
942.000000	57.107545
943.000000	57.151008
944.000000	57.184337
945.000000	57.217036
946.000000	57.278659
947.000000	57.314863
948.000000	57.332624
949.000000	57.368836
950.000000	57.400616
951.000000	57.453389
952.000000	57.496826
953.000000	57.545745
954.000000	57.562604
955.000000	57.587695
956.000000	57.634854
957.000000	57.671480
958.000000	57.715707
959.000000	57.762859
960.000000	57.784468
961.000000	57.816656
962.000000	57.831427
963.000000	57.879493
964.000000	57.917017
965.000000	57.956467
966.000000	57.988943
967.000000	58.022973
968.000000	58.049536
969.000000	58.072494
970.000000	58.082644
971.000000	58.106997
972.000000	58.125625
973.000000	58.157014
974.000000	58.196664
975.000000	58.219721
976.000000	58.252730
977.000000	58.290599
978.000000	58.322523
979.000000	58.357687
980.000000	58.383652
981.000000	58.395087
982.000000	58.427093
983.000000	58.475707
984.000000	58.514898
985.000000	58.544941
986.000000	58.553534
987.000000	58.571063
988.000000	58.594049
989.000000	58.629347
990.000000	58.664137
991.000000	58.683505
992.000000	58.722013
993.000000	58.744752
994.000000	58.756620
995.000000	58.780302
996.000000	58.797682
997.000000	58.837188
998.000000	58.859817
999.000000	58.893313
1000.000000	58.932704
1001.000000	58.974650
1002.000000	59.017224
1003.000000	59.051520
1004.000000	59.077245
1005.000000	59.100397
1006.000000	59.114284
1007.000000	59.141760
1008.000000	59.171777
1009.000000	59.195900
1010.000000	59.233178
1011.000000	59.269796
1012.000000	59.292115
1013.000000	59.305606
1014.000000	59.333484
1015.000000	59.363716
1016.000000	59.384206
1017.000000	59.400510
1018.000000	59.416658
1019.000000	59.435682
1020.000000	59.468581
1021.000000	59.503065
1022.000000	59.520451
1023.000000	59.539854
1024.000000	59.566765
1025.000000	59.590529
1026.000000	59.612469
1027.000000	59.632515
1028.000000	59.652494
1029.000000	59.681866
1030.000000	59.718996
1031.000000	59.746015
1032.000000	59.769006
1033.000000	59.792266
1034.000000	59.809533
1035.000000	59.826135
1036.000000	59.838631
1037.000000	59.851943
1038.000000	59.874388
1039.000000	59.894366
1040.000000	59.928418
1041.000000	59.966409
1042.000000	59.992929
1043.000000	60.012496
1044.000000	60.029814
1045.000000	60.041230
1046.000000	60.061419
1047.000000	60.081592
1048.000000	60.101753
1049.000000	60.109144
1050.000000	60.114962
1051.000000	60.131127
1052.000000	60.149032
1053.000000	60.168774
1054.000000	60.196374
1055.000000	60.207117
1056.000000	60.224645
1057.000000	60.252485
1058.000000	60.275536
1059.000000	60.293131
1060.000000	60.315413
1061.000000	60.342435
1062.000000	60.365378
1063.000000	60.386705
1064.000000	60.393505
1065.000000	60.410884
1066.000000	60.426520
1067.000000	60.441529
1068.000000	60.470058
1069.000000	60.494024
1070.000000	60.503830
1071.000000	60.514269
1072.000000	60.524267
1073.000000	60.516680
1074.000000	60.539387
1075.000000	60.545655
1076.000000	60.566589
1077.000000	60.599277
1078.000000	60.608950
1079.000000	60.628457
1080.000000	60.645130
1081.000000	60.661120
1082.000000	60.693010
1083.000000	60.731690
1084.000000	60.737207
1085.000000	60.754819
1086.000000	60.778465
1087.000000	60.784781
1088.000000	60.807351
1089.000000	60.818524
1090.000000	60.845192
1091.000000	60.849942
1092.000000	60.881576
1093.000000	60.894403
1094.000000	60.909949
1095.000000	60.918627
1096.000000	60.930378
1097.000000	60.947588
1098.000000	60.948356
1099.000000	60.975370
1100.000000	60.983346
1101.000000	60.983927
1102.000000	60.996984
1103.000000	61.001456
1104.000000	61.001275
1105.000000	61.010732
1106.000000	61.028667
1107.000000	61.057102
1108.000000	61.101568
1109.000000	61.111406
1110.000000	61.138937
1111.000000	61.158602
1112.000000	61.151964
1113.000000	61.172608
1114.000000	61.188182
1115.000000	61.200801
1116.000000	61.199421
1117.000000	61.199541
1118.000000	61.195860
1119.000000	61.223006
1120.000000	61.242966
1121.000000	61.267060
1122.000000	61.287209
1123.000000	61.324650
1124.000000	61.336089
1125.000000	61.363006
1126.000000	61.388094
1127.000000	61.393735
1128.000000	61.408032
1129.000000	61.416734
1130.000000	61.433789
1131.000000	61.458424
1132.000000	61.468466
1133.000000	61.497776
1134.000000	61.572036
1135.000000	61.579893
1136.000000	61.600765
1137.000000	61.604276
1138.000000	61.621682
1139.000000	61.644828
1140.000000	61.671880
1141.000000	61.670141
1142.000000	61.677756
1143.000000	61.673841
1144.000000	61.680352
1145.000000	61.681294
1146.000000	61.688670
1147.000000	61.696272
1148.000000	61.708333
1149.000000	61.737114
1150.000000	61.734203
1151.000000	61.752882
1152.000000	61.783503
1153.000000	61.786407
1154.000000	61.793042
1155.000000	61.818664
1156.000000	61.818497
1157.000000	61.844633
1158.000000	61.827459
1159.000000	61.832027
1160.000000	61.831980
1161.000000	61.854039
1162.000000	61.853425
1163.000000	61.859145
1164.000000	61.882637
1165.000000	61.893567
1166.000000	61.882777
1167.000000	61.878460
1168.000000	61.872234
1169.000000	61.810596
1170.000000	61.824849
1171.000000	61.815406
1172.000000	61.812795
1173.000000	61.812300
1174.000000	61.808690
1175.000000	61.807210
1176.000000	61.807656
1177.000000	61.803401
1178.000000	61.808188
1179.000000	61.818099
1180.000000	61.818699
1181.000000	61.808948
1182.000000	61.806962
1183.000000	61.814783
1184.000000	61.793756
1185.000000	61.793329
1186.000000	61.791624
1187.000000	61.775427
1188.000000	61.795931
1189.000000	61.818554
1190.000000	61.803211
1191.000000	61.806478
1192.000000	61.793017
1193.000000	61.786658
1194.000000	61.801689
1195.000000	61.791569
1196.000000	61.791810
1197.000000	61.793104
1198.000000	61.799518
1199.000000	61.778816
1200.000000	61.786329
1201.000000	61.809589
1202.000000	61.826991
1203.000000	61.837695
1204.000000	61.849211
1205.000000	61.866376
1206.000000	61.896788
1207.000000	61.919113
1208.000000	61.927404
1209.000000	61.942164
1210.000000	61.937890
1211.000000	61.968584
1212.000000	61.981340
1213.000000	62.006165
1214.000000	62.028251
1215.000000	62.044009
1216.000000	62.054598
1217.000000	62.087277
1218.000000	62.098777
1219.000000	62.121494
1220.000000	62.148573
1221.000000	62.167922
1222.000000	62.179643
1223.000000	62.184842
1224.000000	62.194973
1225.000000	62.216420
1226.000000	62.235949
1227.000000	62.264325
1228.000000	62.289848
1229.000000	62.301962
1230.000000	62.325998
1231.000000	62.324196
1232.000000	62.351433
1233.000000	62.360815
1234.000000	62.372984
1235.000000	62.380964
1236.000000	62.386190
1237.000000	62.400066
1238.000000	62.419320
1239.000000	62.442215
1240.000000	62.450964
1241.000000	62.463285
1242.000000	62.485534
1243.000000	62.503460
1244.000000	62.532680
1245.000000	62.564850
1246.000000	62.571222
1247.000000	62.585963
1248.000000	62.587400
1249.000000	62.596829
1250.000000	62.617307
1251.000000	62.636262
1252.000000	62.640234
1253.000000	62.651167
1254.000000	62.656152
1255.000000	62.665972
1256.000000	62.679565
1257.000000	62.693916
1258.000000	62.711200
1259.000000	62.722695
1260.000000	62.733819
1261.000000	62.755879
1262.000000	62.771886
1263.000000	62.777897
1264.000000	62.785821
1265.000000	62.796221
1266.000000	62.813929
1267.000000	62.813081
1268.000000	62.834084
1269.000000	62.864564
1270.000000	62.888308
1271.000000	62.902546
1272.000000	62.911675
1273.000000	62.926702
1274.000000	62.935216
1275.000000	62.942011
1276.000000	62.950360
1277.000000	62.957172
1278.000000	62.957230
1279.000000	62.955138
1280.000000	62.957309
1281.000000	62.966591
1282.000000	62.990031
1283.000000	63.013904
1284.000000	63.016714
1285.000000	63.010161
1286.000000	63.012894
1287.000000	63.036868
1288.000000	63.055865
1289.000000	63.073005
1290.000000	63.098898
1291.000000	63.111280
1292.000000	63.127980
1293.000000	63.138901
1294.000000	63.142472
1295.000000	63.157947
1296.000000	63.152789
1297.000000	63.140230
1298.000000	63.153574
1299.000000	63.170723
1300.000000	63.189135
1301.000000	63.210952
1302.000000	63.229510
1303.000000	63.237441
1304.000000	63.243745
1305.000000	63.251641
1306.000000	63.268068
1307.000000	63.291005
1308.000000	63.294496
1309.000000	63.292610
1310.000000	63.304535
1311.000000	63.315127
1312.000000	63.317085
1313.000000	63.338531
1314.000000	63.357354
1315.000000	63.365945
1316.000000	63.383044
1317.000000	63.391777
1318.000000	63.396748
1319.000000	63.419702
1320.000000	63.447538
1321.000000	63.466817
1322.000000	63.464181
1323.000000	63.452437
1324.000000	63.471081
1325.000000	63.474423
1326.000000	63.478796
1327.000000	63.481599
1328.000000	63.480272
1329.000000	63.475209
1330.000000	63.473147
1331.000000	63.475829
1332.000000	63.492996
1333.000000	63.497444
1334.000000	63.497113
1335.000000	63.501493
1336.000000	63.500515
1337.000000	63.512991
1338.000000	63.514718
1339.000000	63.522933
1340.000000	63.520149
1341.000000	63.520253
1342.000000	63.519504
1343.000000	63.530250
1344.000000	63.532611
1345.000000	63.528132
1346.000000	63.508347
1347.000000	63.517413
1348.000000	63.513572
1349.000000	63.500751
1350.000000	63.466606
1351.000000	63.423570
1352.000000	63.373527
1353.000000	63.359899
1354.000000	63.454498
1355.000000	63.565402
1356.000000	63.641271
1357.000000	63.628996
1358.000000	63.577580
1359.000000	63.553250
1360.000000	63.643572
1361.000000	63.681402
1362.000000	63.483829
1363.000000	63.436567
1364.000000	63.459586
1365.000000	63.359457
1366.000000	63.385667
1367.000000	63.493779
1368.000000	63.527384
1369.000000	63.562919
1370.000000	63.657776
1371.000000	63.669145
1372.000000	63.619742
1373.000000	63.591464
1374.000000	63.605529
1375.000000	63.609530
1376.000000	63.606689
1377.000000	63.528015
1378.000000	63.578686
1379.000000	63.530656
1380.000000	63.549836
1381.000000	63.503878
1382.000000	63.655189
1383.000000	63.715493
1384.000000	63.806346
1385.000000	63.845431
1386.000000	63.858726
1387.000000	64.007294
1388.000000	63.941981
1389.000000	63.842137
1390.000000	63.726638
1391.000000	63.613105
1392.000000	63.457645
1393.000000	63.497898
1394.000000	63.553050
1395.000000	63.412068
1396.000000	63.290136
1397.000000	63.406260
1398.000000	63.399735
1399.000000	63.426786
1400.000000	63.602235
1401.000000	63.549952
1402.000000	63.417029
1403.000000	63.329760
1404.000000	63.313564
1405.000000	63.117462
1406.000000	63.100742
1407.000000	63.076594
1408.000000	63.064421
1409.000000	63.027780
1410.000000	62.978594
1411.000000	62.903657
1412.000000	62.895273
1413.000000	62.784426
1414.000000	62.798959
1415.000000	62.720581
1416.000000	62.733604
1417.000000	62.552252
1418.000000	62.504510
1419.000000	62.374887
1420.000000	62.317815
1421.000000	62.295641
1422.000000	62.140640
1423.000000	62.184412
1424.000000	62.114653
1425.000000	62.052457
1426.000000	62.009129
1427.000000	62.092371
1428.000000	62.055831
1429.000000	61.952597
1430.000000	61.917959
1431.000000	61.923790
1432.000000	61.937479
1433.000000	61.933788
1434.000000	61.810016
1435.000000	61.665088
1436.000000	61.624439
1437.000000	61.618127
1438.000000	61.597111
1439.000000	61.533344
1440.000000	61.556865
1441.000000	61.495954
1442.000000	61.486017
1443.000000	61.434312
1444.000000	61.367576
1445.000000	61.397625
1446.000000	61.390382
1447.000000	61.387465
1448.000000	61.356411
1449.000000	61.319961
1450.000000	61.329591
1451.000000	61.296918
1452.000000	61.237552
1453.000000	61.142920
1454.000000	61.109062
1455.000000	61.094900
1456.000000	61.059545
1457.000000	61.034431
1458.000000	60.986823
1459.000000	60.972744
1460.000000	60.936267
1461.000000	60.922326
1462.000000	60.912806
1463.000000	60.870034
1464.000000	60.831219
1465.000000	60.809520
1466.000000	60.794183
1467.000000	60.756211
1468.000000	60.730652
1469.000000	60.756933
1470.000000	60.757117
1471.000000	60.718042
1472.000000	60.674371
1473.000000	60.665900
1474.000000	60.612191
1475.000000	60.588448
1476.000000	60.546739
1477.000000	60.526392
1478.000000	60.524821
1479.000000	60.524937
1480.000000	60.457669
1481.000000	60.437384
1482.000000	60.416112
1483.000000	60.409347
1484.000000	60.395815
1485.000000	60.362567
1486.000000	60.350124
1487.000000	60.340645
1488.000000	60.335648
1489.000000	60.320635
1490.000000	60.311794
1491.000000	60.321461
1492.000000	60.296286
1493.000000	60.282664
1494.000000	60.282523
1495.000000	60.294422
1496.000000	60.292429
1497.000000	60.301508
1498.000000	60.323137
1499.000000	60.324149
1500.000000	60.336359
1501.000000	60.334628
1502.000000	60.349953
1503.000000	60.344853
1504.000000	60.314849
1505.000000	60.310607
1506.000000	60.340685
1507.000000	60.332449
1508.000000	60.334406
1509.000000	60.350423
1510.000000	60.365333
1511.000000	60.407418
1512.000000	60.435339
1513.000000	60.464677
1514.000000	60.473651
1515.000000	60.483872
1516.000000	60.518575
1517.000000	60.550068
1518.000000	60.562055
1519.000000	60.573214
1520.000000	60.583102
1521.000000	60.611043
1522.000000	60.641408
1523.000000	60.663830
1524.000000	60.689135
1525.000000	60.716048
1526.000000	60.740984
1527.000000	60.788534
1528.000000	60.822211
1529.000000	60.833523
1530.000000	60.864781
1531.000000	60.905923
1532.000000	60.919727
1533.000000	60.938549
1534.000000	60.989387
1535.000000	61.029909
1536.000000	61.073348
1537.000000	61.108008
1538.000000	61.149241
1539.000000	61.185368
1540.000000	61.198753
1541.000000	61.225504
1542.000000	61.265658
1543.000000	61.311399
1544.000000	61.353863
1545.000000	61.381837
1546.000000	61.392742
1547.000000	61.413304
1548.000000	61.446543
1549.000000	61.481522
1550.000000	61.514805
1551.000000	61.544324
1552.000000	61.575053
1553.000000	61.611106
1554.000000	61.652537
1555.000000	61.689257
1556.000000	61.712117
1557.000000	61.734982
1558.000000	61.769676
1559.000000	61.797130
1560.000000	61.809274
1561.000000	61.824172
1562.000000	61.837440
1563.000000	61.857583
1564.000000	61.887271
1565.000000	61.898609
1566.000000	61.897325
1567.000000	61.915283
1568.000000	61.940724
1569.000000	61.962679
1570.000000	61.977261
1571.000000	61.983306
1572.000000	61.989619
1573.000000	62.001069
1574.000000	62.015879
1575.000000	62.039203
1576.000000	62.069424
1577.000000	62.102015
1578.000000	62.113484
1579.000000	62.113316
1580.000000	62.119330
1581.000000	62.128685
1582.000000	62.139951
1583.000000	62.129628
1584.000000	62.128570
1585.000000	62.139414
1586.000000	62.144805
1587.000000	62.167328
1588.000000	62.186406
1589.000000	62.195445
1590.000000	62.205947
1591.000000	62.234236
1592.000000	62.265928
1593.000000	62.279744
1594.000000	62.290347
1595.000000	62.318171
1596.000000	62.341956
1597.000000	62.353716
1598.000000	62.373786
1599.000000	62.394997
1600.000000	62.422721
1601.000000	62.453396
1602.000000	62.478444
1603.000000	62.477134
1604.000000	62.478238
1605.000000	62.510971
1606.000000	62.546487
1607.000000	62.573771
1608.000000	62.603169
1609.000000	62.638431
1610.000000	62.677110
1611.000000	62.699363
1612.000000	62.708924
1613.000000	62.727041
1614.000000	62.757491
1615.000000	62.797972
1616.000000	62.841078
1617.000000	62.867272
1618.000000	62.912264
1619.000000	62.947343
1620.000000	62.972633
1621.000000	62.986022
1622.000000	63.001225
1623.000000	63.018367
1624.000000	63.038027
1625.000000	63.059207
1626.000000	63.077300
1627.000000	63.063354
1628.000000	63.088877
1629.000000	63.106585
1630.000000	63.125800
1631.000000	63.145736
1632.000000	63.182168
1633.000000	63.216739
1634.000000	63.223171
1635.000000	63.236517
1636.000000	63.259669
1637.000000	63.286500
1638.000000	63.323913
1639.000000	63.339677
1640.000000	63.346561
1641.000000	63.356922
1642.000000	63.380978
1643.000000	63.398054
1644.000000	63.421949
1645.000000	63.430287
1646.000000	63.415991
1647.000000	63.431635
1648.000000	63.454493
1649.000000	63.466045
1650.000000	63.475941
1651.000000	63.457815
1652.000000	63.473776
1653.000000	63.468888
1654.000000	63.477787
1655.000000	63.491607
1656.000000	63.517470
1657.000000	63.522323
1658.000000	63.527105
1659.000000	63.532596
1660.000000	63.545145
1661.000000	63.548748
1662.000000	63.565323
1663.000000	63.564932
1664.000000	63.567453
1665.000000	63.577676
1666.000000	63.570870
1667.000000	63.544080
1668.000000	63.527985
1669.000000	63.558086
1670.000000	63.558745
1671.000000	63.554308
1672.000000	63.560336
1673.000000	63.534922
1674.000000	63.521102
1675.000000	63.510819
1676.000000	63.505090
1677.000000	63.483236
1678.000000	63.457391
1679.000000	63.428205
1680.000000	63.404948
1681.000000	63.405868
1682.000000	63.379149
1683.000000	63.342227
1684.000000	63.320750
1685.000000	63.282104
1686.000000	63.268253
1687.000000	63.243440
1688.000000	63.232328
1689.000000	63.211822
1690.000000	63.182936
1691.000000	63.157398
1692.000000	63.135696
1693.000000	63.132877
1694.000000	63.115248
1695.000000	63.095089
1696.000000	63.103481
1697.000000	63.105211
1698.000000	63.078436
1699.000000	63.082303
1700.000000	63.050731
1701.000000	63.049601
1702.000000	63.060226
1703.000000	63.028641
1704.000000	63.002220
1705.000000	63.000060
1706.000000	62.988696
1707.000000	62.962183
1708.000000	62.968349
1709.000000	62.966338
1710.000000	62.965603
1711.000000	62.941865
1712.000000	62.927302
1713.000000	62.912247
1714.000000	62.883074
1715.000000	62.871776
1716.000000	62.871398
1717.000000	62.849080
1718.000000	62.830361
1719.000000	62.815932
1720.000000	62.814072
1721.000000	62.825991
1722.000000	62.813774
1723.000000	62.795787
1724.000000	62.770611
1725.000000	62.752545
1726.000000	62.738283
1727.000000	62.733982
1728.000000	62.705432
1729.000000	62.700931
1730.000000	62.686491
1731.000000	62.636083
1732.000000	62.612738
1733.000000	62.610351
1734.000000	62.591571
1735.000000	62.583686
1736.000000	62.564441
1737.000000	62.526972
1738.000000	62.528656
1739.000000	62.517799
1740.000000	62.486470
1741.000000	62.495057
1742.000000	62.503177
1743.000000	62.510230
1744.000000	62.521850
1745.000000	62.513282
1746.000000	62.523524
1747.000000	62.541412
1748.000000	62.556805
1749.000000	62.573783
1750.000000	62.589283
1751.000000	62.601018
1752.000000	62.640153
1753.000000	62.671045
1754.000000	62.690131
1755.000000	62.709264
1756.000000	62.718795
1757.000000	62.731828
1758.000000	62.757400
1759.000000	62.787772
1760.000000	62.818119
1761.000000	62.843823
1762.000000	62.862554
1763.000000	62.882820
1764.000000	62.907051
1765.000000	62.929139
1766.000000	62.961686
1767.000000	62.974827
1768.000000	62.979804
1769.000000	62.983841
1770.000000	62.995418
1771.000000	63.014982
1772.000000	63.060473
1773.000000	63.086321
1774.000000	63.096133
1775.000000	63.126246
1776.000000	63.135380
1777.000000	63.155039
1778.000000	63.173512
1779.000000	63.194936
1780.000000	63.223229
1781.000000	63.251280
1782.000000	63.267616
1783.000000	63.288745
1784.000000	63.310973
1785.000000	63.316637
1786.000000	63.314198
1787.000000	63.313916
1788.000000	63.339341
1789.000000	63.368709
1790.000000	63.386698
1791.000000	63.402714
1792.000000	63.429818
1793.000000	63.436946
1794.000000	63.449387
1795.000000	63.479390
1796.000000	63.502801
1797.000000	63.522452
1798.000000	63.551655
1799.000000	63.570562
1800.000000	63.614772
1801.000000	63.650488
1802.000000	63.679765
1803.000000	63.701873
1804.000000	63.728352
1805.000000	63.779981
1806.000000	63.830362
1807.000000	63.857436
1808.000000	63.878106
1809.000000	63.901592
1810.000000	63.926393
1811.000000	63.958811
1812.000000	64.001175
1813.000000	64.040120
1814.000000	64.073002
1815.000000	64.066816
1816.000000	64.064073
1817.000000	64.186831
1818.000000	64.279434
1819.000000	64.394619
1820.000000	64.468871
1821.000000	64.497539
1822.000000	64.516724
1823.000000	64.507301
1824.000000	64.499539
1825.000000	64.647778
1826.000000	64.724169
1827.000000	64.732177
1828.000000	64.754973
1829.000000	64.783959
1830.000000	64.856376
1831.000000	64.896895
1832.000000	64.892933
1833.000000	64.896157
1834.000000	64.939197
1835.000000	65.038096
1836.000000	65.044952
1837.000000	65.020523
1838.000000	64.986616
1839.000000	64.956780
1840.000000	64.888246
1841.000000	64.930842
1842.000000	64.949770
1843.000000	64.959407
1844.000000	64.957443
1845.000000	64.940618
1846.000000	64.992558
1847.000000	65.120421
1848.000000	65.139985
1849.000000	65.133660
1850.000000	65.120911
1851.000000	65.110729
1852.000000	65.035365
1853.000000	65.038657
1854.000000	64.976443
1855.000000	64.939273
1856.000000	64.838034
1857.000000	64.768321
1858.000000	64.765199
1859.000000	64.787421
1860.000000	64.640384
1861.000000	64.577669
1862.000000	64.613466
1863.000000	64.787485
1864.000000	64.889431
1865.000000	64.857433
1866.000000	64.828005
1867.000000	64.812427
1868.000000	64.795548
1869.000000	64.752087
1870.000000	64.819678
1871.000000	64.811755
1872.000000	64.998122
1873.000000	65.072090
1874.000000	65.139197
1875.000000	65.164876
1876.000000	65.192620
1877.000000	65.192911
1878.000000	65.184328
1879.000000	65.193063
1880.000000	65.248805
1881.000000	65.187533
1882.000000	65.025863
1883.000000	65.062446
1884.000000	65.018362
1885.000000	65.005506
1886.000000	65.039898
1887.000000	64.987781
1888.000000	64.868497
1889.000000	64.866997
1890.000000	64.785302
1891.000000	64.888494
1892.000000	64.897645
1893.000000	64.873046
1894.000000	64.814709
1895.000000	64.748772
1896.000000	64.661511
1897.000000	64.564763
1898.000000	64.293396
1899.000000	64.082207
1900.000000	63.924499
1901.000000	63.821958
1902.000000	63.942871
1903.000000	63.841290
1904.000000	63.716442
1905.000000	63.344635
1906.000000	63.236096
1907.000000	62.894997
1908.000000	62.708101
1909.000000	62.501497
1910.000000	62.307297
1911.000000	61.975710
1912.000000	61.696720
1913.000000	61.506059
1914.000000	61.283754
1915.000000	61.076647
1916.000000	60.817620
1917.000000	60.551681
1918.000000	60.209849
1919.000000	60.040268
1920.000000	59.904131
1921.000000	59.632347
1922.000000	59.396139
1923.000000	59.245287
1924.000000	58.912731
1925.000000	58.719585
1926.000000	58.502553
1927.000000	58.294834
1928.000000	58.100830
1929.000000	57.912124
1930.000000	57.732744
1931.000000	57.555059
1932.000000	57.355790
1933.000000	57.222659
1934.000000	57.037029
1935.000000	56.883249
1936.000000	56.720914
1937.000000	56.382372
1938.000000	56.241242
1939.000000	56.108172
1940.000000	56.050906
1941.000000	55.892063
1942.000000	55.823758
1943.000000	55.718689
1944.000000	55.673350
1945.000000	55.642946
1946.000000	55.653006
1947.000000	55.667554
1948.000000	55.615905
1949.000000	55.606333
1950.000000	55.531387
1951.000000	55.561041
1952.000000	55.606042
1953.000000	55.625402
1954.000000	55.594469
1955.000000	55.548829
1956.000000	55.591145
1957.000000	55.625247
1958.000000	55.592217
1959.000000	55.677347
1960.000000	55.741479
1961.000000	55.735207
1962.000000	55.789295
1963.000000	55.822732
1964.000000	55.856310
1965.000000	55.916819
1966.000000	55.975550
1967.000000	56.035479
1968.000000	56.058682
1969.000000	56.145406
1970.000000	56.208102
1971.000000	56.264780
1972.000000	56.306841
1973.000000	56.380260
1974.000000	56.442323
1975.000000	56.495263
1976.000000	56.567905
1977.000000	56.626300
1978.000000	56.709106
1979.000000	56.772795
1980.000000	56.837727
1981.000000	56.873329
1982.000000	56.934710
1983.000000	57.014480
1984.000000	57.089547
1985.000000	57.169293
1986.000000	57.229241
1987.000000	57.285148
1988.000000	57.364452
1989.000000	57.450502
1990.000000	57.514813
1991.000000	57.571641
1992.000000	57.631883
1993.000000	57.714893
1994.000000	57.778901
1995.000000	57.824832
1996.000000	57.881468
1997.000000	57.941515
1998.000000	57.996382
1999.000000	58.045743
2000.000000	58.076325
