PE UV       SUBTECH     SPECTRUM    ASCII       PEDS        4.00        
   -1
C.AURI.INBI-TX3.ASC
23/11/29
13:33:10.00
23/11/29
13:33:10.00
Vinicio Soto Monge
C. AURIGANS INBIO DESCABEZADO
250,000000
1
Lambda 1050
1050L1511233
PerkinElmer UV WinLab 6.3.2.0749 / 2.02.05 Lambda 900 UV/VIS/NIR, Aug  7 2015 09:38:08

0
0
3350/servo 860,8/2
0
0
UV/VIS
1
1
1
DoubleDePol,CommonBeamDepol,RBeamAtt,SBeamAtt,60mm sphere, WB InGaAs Detector
0
0
0
0
Program
Program
3350/servo 860,8/2
3350/0,4 860,8/0,4
3350/0,4 860,8/0,4
0
20.00
 
 
 
0
 
860,8
319,2
860,8
Front
100
on
S:100 R:100
0
0
0
0
 
0
 
 
 
0
 
 
0
0
0
0
0
 
 
 
 
0
0


0
0
#HDR
-1
-1
#GR
nm
%T
1.0
0.0
2200,000000
-1,000000
1951
8
73,936923
0,295565
#DATA
284.000000	0.350303
285.000000	0.349654
286.000000	0.349812
287.000000	0.350930
288.000000	0.351663
289.000000	0.352766
290.000000	0.353704
291.000000	0.355216
292.000000	0.356035
293.000000	0.356346
294.000000	0.357048
295.000000	0.357742
296.000000	0.358513
297.000000	0.359072
298.000000	0.359554
299.000000	0.360110
300.000000	0.360514
301.000000	0.361658
302.000000	0.362107
303.000000	0.363000
304.000000	0.362343
305.000000	0.362897
306.000000	0.364188
307.000000	0.364847
308.000000	0.365374
309.000000	0.366032
310.000000	0.366373
311.000000	0.367656
312.000000	0.368414
313.000000	0.369223
314.000000	0.370269
315.000000	0.371799
316.000000	0.372505
317.000000	0.372995
318.000000	0.376685
319.000000	0.377510
320.000000	0.378808
321.000000	0.381128
322.000000	0.382194
323.000000	0.385909
324.000000	0.386499
325.000000	0.387478
326.000000	0.388446
327.000000	0.391528
328.000000	0.395868
329.000000	0.399042
330.000000	0.401768
331.000000	0.403960
332.000000	0.407921
333.000000	0.410602
334.000000	0.412874
335.000000	0.416541
336.000000	0.420050
337.000000	0.423529
338.000000	0.426034
339.000000	0.430022
340.000000	0.434257
341.000000	0.437291
342.000000	0.440662
343.000000	0.444496
344.000000	0.448688
345.000000	0.452545
346.000000	0.455734
347.000000	0.458913
348.000000	0.463092
349.000000	0.466762
350.000000	0.469742
351.000000	0.474099
352.000000	0.479461
353.000000	0.481078
354.000000	0.484849
355.000000	0.489201
356.000000	0.491996
357.000000	0.496061
358.000000	0.497976
359.000000	0.503368
360.000000	0.507391
361.000000	0.511411
362.000000	0.514001
363.000000	0.515638
364.000000	0.517722
365.000000	0.520955
366.000000	0.525491
367.000000	0.528290
368.000000	0.531839
369.000000	0.535904
370.000000	0.539376
371.000000	0.542664
372.000000	0.546085
373.000000	0.550139
374.000000	0.552674
375.000000	0.555511
376.000000	0.559297
377.000000	0.562455
378.000000	0.565196
379.000000	0.567497
380.000000	0.569978
381.000000	0.573200
382.000000	0.576096
383.000000	0.578731
384.000000	0.581258
385.000000	0.583810
386.000000	0.586017
387.000000	0.587522
388.000000	0.589412
389.000000	0.591705
390.000000	0.593852
391.000000	0.596797
392.000000	0.599052
393.000000	0.600819
394.000000	0.602330
395.000000	0.604354
396.000000	0.606261
397.000000	0.608154
398.000000	0.610039
399.000000	0.612431
400.000000	0.614215
401.000000	0.615564
402.000000	0.616824
403.000000	0.618536
404.000000	0.619770
405.000000	0.620801
406.000000	0.621774
407.000000	0.622607
408.000000	0.623958
409.000000	0.625386
410.000000	0.626110
411.000000	0.626807
412.000000	0.628660
413.000000	0.630337
414.000000	0.632058
415.000000	0.633807
416.000000	0.635562
417.000000	0.637332
418.000000	0.639110
419.000000	0.640865
420.000000	0.642554
421.000000	0.644181
422.000000	0.645863
423.000000	0.647536
424.000000	0.649249
425.000000	0.651013
426.000000	0.652783
427.000000	0.654647
428.000000	0.656645
429.000000	0.658716
430.000000	0.660786
431.000000	0.662887
432.000000	0.665132
433.000000	0.667533
434.000000	0.669945
435.000000	0.672596
436.000000	0.675361
437.000000	0.678080
438.000000	0.680984
439.000000	0.684040
440.000000	0.687151
441.000000	0.690284
442.000000	0.693574
443.000000	0.697144
444.000000	0.700974
445.000000	0.704951
446.000000	0.708931
447.000000	0.713031
448.000000	0.717438
449.000000	0.722187
450.000000	0.727140
451.000000	0.732356
452.000000	0.737763
453.000000	0.743343
454.000000	0.749149
455.000000	0.755226
456.000000	0.761494
457.000000	0.767949
458.000000	0.774703
459.000000	0.781687
460.000000	0.788867
461.000000	0.796437
462.000000	0.804319
463.000000	0.812466
464.000000	0.820839
465.000000	0.829536
466.000000	0.838695
467.000000	0.848171
468.000000	0.857916
469.000000	0.868177
470.000000	0.878856
471.000000	0.889872
472.000000	0.901463
473.000000	0.913331
474.000000	0.925595
475.000000	0.938353
476.000000	0.951606
477.000000	0.965173
478.000000	0.979322
479.000000	0.994099
480.000000	1.009457
481.000000	1.025620
482.000000	1.042469
483.000000	1.059838
484.000000	1.077670
485.000000	1.096174
486.000000	1.115416
487.000000	1.135550
488.000000	1.156460
489.000000	1.178151
490.000000	1.200646
491.000000	1.224113
492.000000	1.248535
493.000000	1.273791
494.000000	1.300058
495.000000	1.327316
496.000000	1.355558
497.000000	1.384875
498.000000	1.415130
499.000000	1.446605
500.000000	1.479441
501.000000	1.513477
502.000000	1.548998
503.000000	1.586034
504.000000	1.624463
505.000000	1.664424
506.000000	1.705787
507.000000	1.748617
508.000000	1.793188
509.000000	1.839485
510.000000	1.887271
511.000000	1.936626
512.000000	1.987634
513.000000	2.039955
514.000000	2.093530
515.000000	2.148096
516.000000	2.203509
517.000000	2.259570
518.000000	2.316214
519.000000	2.373062
520.000000	2.429708
521.000000	2.485759
522.000000	2.540898
523.000000	2.594916
524.000000	2.648097
525.000000	2.700429
526.000000	2.751896
527.000000	2.802883
528.000000	2.853439
529.000000	2.903613
530.000000	2.954019
531.000000	3.004809
532.000000	3.056197
533.000000	3.108607
534.000000	3.161817
535.000000	3.215945
536.000000	3.271025
537.000000	3.326827
538.000000	3.383143
539.000000	3.440145
540.000000	3.497820
541.000000	3.556326
542.000000	3.615564
543.000000	3.675398
544.000000	3.735800
545.000000	3.796612
546.000000	3.858109
547.000000	3.920190
548.000000	3.983066
549.000000	4.046650
550.000000	4.111669
551.000000	4.178014
552.000000	4.245993
553.000000	4.315473
554.000000	4.386934
555.000000	4.460731
556.000000	4.536954
557.000000	4.616082
558.000000	4.698261
559.000000	4.783247
560.000000	4.870817
561.000000	4.961152
562.000000	5.053729
563.000000	5.148865
564.000000	5.246057
565.000000	5.344781
566.000000	5.444887
567.000000	5.546057
568.000000	5.648283
569.000000	5.751738
570.000000	5.856239
571.000000	5.962053
572.000000	6.069220
573.000000	6.177589
574.000000	6.287459
575.000000	6.398326
576.000000	6.510291
577.000000	6.623080
578.000000	6.737314
579.000000	6.852362
580.000000	6.968370
581.000000	7.085365
582.000000	7.203187
583.000000	7.321569
584.000000	7.440401
585.000000	7.559697
586.000000	7.679374
587.000000	7.799823
588.000000	7.921348
589.000000	8.044617
590.000000	8.169827
591.000000	8.297601
592.000000	8.427470
593.000000	8.559568
594.000000	8.693353
595.000000	8.828861
596.000000	8.965095
597.000000	9.102372
598.000000	9.239259
599.000000	9.375971
600.000000	9.512942
601.000000	9.650128
602.000000	9.787924
603.000000	9.926588
604.000000	10.066072
605.000000	10.207566
606.000000	10.350672
607.000000	10.495842
608.000000	10.643041
609.000000	10.792110
610.000000	10.943106
611.000000	11.095688
612.000000	11.249459
613.000000	11.402733
614.000000	11.555376
615.000000	11.706870
616.000000	11.856254
617.000000	12.003822
618.000000	12.150162
619.000000	12.296114
620.000000	12.442825
621.000000	12.591362
622.000000	12.742740
623.000000	12.897549
624.000000	13.054859
625.000000	13.214354
626.000000	13.374917
627.000000	13.536095
628.000000	13.696639
629.000000	13.855983
630.000000	14.012833
631.000000	14.166550
632.000000	14.317186
633.000000	14.465630
634.000000	14.612960
635.000000	14.760150
636.000000	14.908441
637.000000	15.059075
638.000000	15.212325
639.000000	15.368822
640.000000	15.527530
641.000000	15.687920
642.000000	15.848470
643.000000	16.009005
644.000000	16.168627
645.000000	16.325414
646.000000	16.478734
647.000000	16.628540
648.000000	16.775038
649.000000	16.919426
650.000000	17.062101
651.000000	17.204398
652.000000	17.347774
653.000000	17.493084
654.000000	17.640407
655.000000	17.788923
656.000000	17.938893
657.000000	18.089226
658.000000	18.238676
659.000000	18.386867
660.000000	18.533329
661.000000	18.677778
662.000000	18.819330
663.000000	18.956975
664.000000	19.091175
665.000000	19.222152
666.000000	19.351213
667.000000	19.477540
668.000000	19.603133
669.000000	19.729388
670.000000	19.855901
671.000000	19.982332
672.000000	20.108416
673.000000	20.234871
674.000000	20.360523
675.000000	20.484048
676.000000	20.606015
677.000000	20.726271
678.000000	20.843931
679.000000	20.957756
680.000000	21.068841
681.000000	21.176580
682.000000	21.280938
683.000000	21.383227
684.000000	21.483733
685.000000	21.583818
686.000000	21.684515
687.000000	21.785516
688.000000	21.886848
689.000000	21.988650
690.000000	22.090037
691.000000	22.189898
692.000000	22.287660
693.000000	22.383557
694.000000	22.476869
695.000000	22.566945
696.000000	22.653285
697.000000	22.736453
698.000000	22.817961
699.000000	22.897652
700.000000	22.977008
701.000000	23.056524
702.000000	23.137548
703.000000	23.219262
704.000000	23.300596
705.000000	23.381485
706.000000	23.461324
707.000000	23.539066
708.000000	23.613565
709.000000	23.685322
710.000000	23.755268
711.000000	23.823331
712.000000	23.889565
713.000000	23.954036
714.000000	24.017924
715.000000	24.081222
716.000000	24.144803
717.000000	24.209707
718.000000	24.275287
719.000000	24.341195
720.000000	24.406827
721.000000	24.471153
722.000000	24.533528
723.000000	24.593251
724.000000	24.650587
725.000000	24.705640
726.000000	24.758999
727.000000	24.811366
728.000000	24.862302
729.000000	24.913277
730.000000	24.964402
731.000000	25.015926
732.000000	25.068579
733.000000	25.123182
734.000000	25.179184
735.000000	25.235592
736.000000	25.292156
737.000000	25.348814
738.000000	25.404899
739.000000	25.459376
740.000000	25.512158
741.000000	25.562767
742.000000	25.612794
743.000000	25.661895
744.000000	25.709217
745.000000	25.754940
746.000000	25.800134
747.000000	25.845313
748.000000	25.890390
749.000000	25.936301
750.000000	25.983930
751.000000	26.033821
752.000000	26.085467
753.000000	26.139187
754.000000	26.193381
755.000000	26.248319
756.000000	26.302805
757.000000	26.356610
758.000000	26.411042
759.000000	26.463203
760.000000	26.513457
761.000000	26.562000
762.000000	26.608684
763.000000	26.653875
764.000000	26.697551
765.000000	26.740387
766.000000	26.784836
767.000000	26.830081
768.000000	26.875766
769.000000	26.924126
770.000000	26.975253
771.000000	27.028929
772.000000	27.083243
773.000000	27.138584
774.000000	27.194748
775.000000	27.249300
776.000000	27.304437
777.000000	27.356710
778.000000	27.405109
779.000000	27.452876
780.000000	27.499767
781.000000	27.544367
782.000000	27.588235
783.000000	27.632377
784.000000	27.678157
785.000000	27.724566
786.000000	27.772226
787.000000	27.821913
788.000000	27.870871
789.000000	27.922553
790.000000	27.975765
791.000000	28.028271
792.000000	28.081621
793.000000	28.133906
794.000000	28.186428
795.000000	28.239186
796.000000	28.290410
797.000000	28.339713
798.000000	28.388440
799.000000	28.437656
800.000000	28.488194
801.000000	28.538952
802.000000	28.589232
803.000000	28.642240
804.000000	28.696390
805.000000	28.750358
806.000000	28.804576
807.000000	28.861756
808.000000	28.919520
809.000000	28.976485
810.000000	29.033883
811.000000	29.090075
812.000000	29.147824
813.000000	29.206752
814.000000	29.265930
815.000000	29.327107
816.000000	29.390648
817.000000	29.454796
818.000000	29.522504
819.000000	29.590396
820.000000	29.659415
821.000000	29.731813
822.000000	29.804309
823.000000	29.879885
824.000000	29.952080
825.000000	30.024777
826.000000	30.102737
827.000000	30.175746
828.000000	30.249624
829.000000	30.326479
830.000000	30.404977
831.000000	30.482370
832.000000	30.561684
833.000000	30.643867
834.000000	30.726790
835.000000	30.813176
836.000000	30.897698
837.000000	30.989157
838.000000	31.081575
839.000000	31.173282
840.000000	31.267513
841.000000	31.367769
842.000000	31.469246
843.000000	31.575254
844.000000	31.680994
845.000000	31.795556
846.000000	31.910059
847.000000	32.019672
848.000000	32.128337
849.000000	32.240300
850.000000	32.353079
851.000000	32.459738
852.000000	32.569506
853.000000	32.682333
854.000000	32.792388
855.000000	32.907047
856.000000	33.024977
857.000000	33.149092
858.000000	33.335088
859.000000	33.476814
860.000000	33.612625
861.000000	33.764677
862.000000	33.917509
863.000000	34.065224
864.000000	34.220689
865.000000	34.378252
866.000000	34.544930
867.000000	34.735435
868.000000	34.912615
869.000000	35.074451
870.000000	35.233894
871.000000	35.365507
872.000000	35.519076
873.000000	35.698044
874.000000	35.862096
875.000000	36.008886
876.000000	36.145566
877.000000	36.282691
878.000000	36.431252
879.000000	36.590971
880.000000	36.733667
881.000000	36.886855
882.000000	37.064500
883.000000	37.226083
884.000000	37.389228
885.000000	37.546855
886.000000	37.741250
887.000000	37.895532
888.000000	38.058426
889.000000	38.233536
890.000000	38.389170
891.000000	38.538082
892.000000	38.706386
893.000000	38.804446
894.000000	38.953135
895.000000	39.098458
896.000000	39.254317
897.000000	39.406956
898.000000	39.541326
899.000000	39.692329
900.000000	39.831995
901.000000	39.988980
902.000000	40.095363
903.000000	40.224017
904.000000	40.387268
905.000000	40.540057
906.000000	40.714358
907.000000	40.897442
908.000000	41.037267
909.000000	41.178748
910.000000	41.349512
911.000000	41.495425
912.000000	41.647209
913.000000	41.804271
914.000000	41.953988
915.000000	42.111236
916.000000	42.249597
917.000000	42.367745
918.000000	42.502325
919.000000	42.648154
920.000000	42.822914
921.000000	42.944746
922.000000	43.110509
923.000000	43.271164
924.000000	43.444734
925.000000	43.624138
926.000000	43.801810
927.000000	43.947871
928.000000	44.090902
929.000000	44.249724
930.000000	44.396785
931.000000	44.512792
932.000000	44.651716
933.000000	44.825183
934.000000	44.955116
935.000000	45.104795
936.000000	45.217821
937.000000	45.361560
938.000000	45.495847
939.000000	45.635830
940.000000	45.782759
941.000000	45.927462
942.000000	46.035498
943.000000	46.165753
944.000000	46.333475
945.000000	46.467266
946.000000	46.628953
947.000000	46.781259
948.000000	46.902850
949.000000	47.033957
950.000000	47.188752
951.000000	47.334903
952.000000	47.477369
953.000000	47.609759
954.000000	47.742727
955.000000	47.852907
956.000000	47.976977
957.000000	48.092053
958.000000	48.219998
959.000000	48.318220
960.000000	48.425959
961.000000	48.536265
962.000000	48.650394
963.000000	48.790927
964.000000	48.904849
965.000000	49.041136
966.000000	49.198176
967.000000	49.327414
968.000000	49.440274
969.000000	49.569573
970.000000	49.695698
971.000000	49.810640
972.000000	49.911813
973.000000	50.011391
974.000000	50.092708
975.000000	50.196578
976.000000	50.304104
977.000000	50.404148
978.000000	50.519641
979.000000	50.620304
980.000000	50.734731
981.000000	50.841833
982.000000	50.934510
983.000000	51.044171
984.000000	51.156130
985.000000	51.242920
986.000000	51.350681
987.000000	51.466522
988.000000	51.573786
989.000000	51.668869
990.000000	51.786553
991.000000	51.900295
992.000000	52.008558
993.000000	52.112287
994.000000	52.215437
995.000000	52.303959
996.000000	52.387916
997.000000	52.478553
998.000000	52.553007
999.000000	52.627431
1000.000000	52.693013
1001.000000	52.737917
1002.000000	52.808012
1003.000000	52.883669
1004.000000	52.959195
1005.000000	53.030197
1006.000000	53.122927
1007.000000	53.228196
1008.000000	53.327913
1009.000000	53.415981
1010.000000	53.501896
1011.000000	53.591535
1012.000000	53.683701
1013.000000	53.757873
1014.000000	53.811982
1015.000000	53.870028
1016.000000	53.946159
1017.000000	54.025318
1018.000000	54.085337
1019.000000	54.142685
1020.000000	54.215141
1021.000000	54.278149
1022.000000	54.342571
1023.000000	54.429780
1024.000000	54.511183
1025.000000	54.542632
1026.000000	54.582711
1027.000000	54.624686
1028.000000	54.661641
1029.000000	54.711317
1030.000000	54.772936
1031.000000	54.849298
1032.000000	54.927635
1033.000000	54.978752
1034.000000	55.034048
1035.000000	55.098903
1036.000000	55.184613
1037.000000	55.249875
1038.000000	55.297429
1039.000000	55.336426
1040.000000	55.382904
1041.000000	55.441907
1042.000000	55.487681
1043.000000	55.546301
1044.000000	55.618002
1045.000000	55.664339
1046.000000	55.713039
1047.000000	55.752533
1048.000000	55.789427
1049.000000	55.843481
1050.000000	55.884149
1051.000000	55.913370
1052.000000	55.968029
1053.000000	56.046467
1054.000000	56.093055
1055.000000	56.133060
1056.000000	56.167739
1057.000000	56.188063
1058.000000	56.216710
1059.000000	56.240754
1060.000000	56.297855
1061.000000	56.363257
1062.000000	56.426331
1063.000000	56.476400
1064.000000	56.503987
1065.000000	56.546475
1066.000000	56.582495
1067.000000	56.607190
1068.000000	56.653590
1069.000000	56.707073
1070.000000	56.771236
1071.000000	56.797406
1072.000000	56.827510
1073.000000	56.881939
1074.000000	56.952996
1075.000000	56.983051
1076.000000	57.026429
1077.000000	57.057752
1078.000000	57.055619
1079.000000	57.066144
1080.000000	57.097195
1081.000000	57.126965
1082.000000	57.181093
1083.000000	57.216625
1084.000000	57.219162
1085.000000	57.221639
1086.000000	57.243246
1087.000000	57.260991
1088.000000	57.274179
1089.000000	57.314460
1090.000000	57.343750
1091.000000	57.375362
1092.000000	57.411144
1093.000000	57.446492
1094.000000	57.490284
1095.000000	57.501539
1096.000000	57.490483
1097.000000	57.514360
1098.000000	57.528361
1099.000000	57.566409
1100.000000	57.595557
1101.000000	57.626074
1102.000000	57.640539
1103.000000	57.658433
1104.000000	57.648510
1105.000000	57.642576
1106.000000	57.646446
1107.000000	57.687930
1108.000000	57.700862
1109.000000	57.725591
1110.000000	57.761684
1111.000000	57.762212
1112.000000	57.797656
1113.000000	57.854300
1114.000000	57.886385
1115.000000	57.897685
1116.000000	57.891679
1117.000000	57.879850
1118.000000	57.889467
1119.000000	57.913385
1120.000000	57.967935
1121.000000	58.008042
1122.000000	58.039618
1123.000000	58.084228
1124.000000	58.078337
1125.000000	58.102129
1126.000000	58.114347
1127.000000	58.132891
1128.000000	58.155930
1129.000000	58.172243
1130.000000	58.189784
1131.000000	58.238580
1132.000000	58.243210
1133.000000	58.263393
1134.000000	58.346218
1135.000000	58.343084
1136.000000	58.339961
1137.000000	58.383764
1138.000000	58.380073
1139.000000	58.418938
1140.000000	58.448334
1141.000000	58.462694
1142.000000	58.460359
1143.000000	58.456000
1144.000000	58.444248
1145.000000	58.464795
1146.000000	58.518835
1147.000000	58.537461
1148.000000	58.556266
1149.000000	58.585828
1150.000000	58.605182
1151.000000	58.626197
1152.000000	58.692555
1153.000000	58.714831
1154.000000	58.723711
1155.000000	58.739249
1156.000000	58.736255
1157.000000	58.729123
1158.000000	58.701450
1159.000000	58.732244
1160.000000	58.764119
1161.000000	58.775839
1162.000000	58.787137
1163.000000	58.786462
1164.000000	58.788330
1165.000000	58.801068
1166.000000	58.803478
1167.000000	58.817731
1168.000000	58.831610
1169.000000	58.767944
1170.000000	58.777595
1171.000000	58.759316
1172.000000	58.723246
1173.000000	58.719768
1174.000000	58.709411
1175.000000	58.707722
1176.000000	58.721704
1177.000000	58.714353
1178.000000	58.740613
1179.000000	58.755425
1180.000000	58.726292
1181.000000	58.659444
1182.000000	58.631186
1183.000000	58.609880
1184.000000	58.567840
1185.000000	58.543484
1186.000000	58.560016
1187.000000	58.521322
1188.000000	58.516634
1189.000000	58.529603
1190.000000	58.517405
1191.000000	58.536975
1192.000000	58.571716
1193.000000	58.586146
1194.000000	58.595921
1195.000000	58.553806
1196.000000	58.553296
1197.000000	58.543941
1198.000000	58.542679
1199.000000	58.539672
1200.000000	58.548813
1201.000000	58.562541
1202.000000	58.588469
1203.000000	58.609362
1204.000000	58.628227
1205.000000	58.658678
1206.000000	58.668691
1207.000000	58.694427
1208.000000	58.723452
1209.000000	58.758930
1210.000000	58.779258
1211.000000	58.795255
1212.000000	58.811949
1213.000000	58.826379
1214.000000	58.816211
1215.000000	58.832810
1216.000000	58.876553
1217.000000	58.918449
1218.000000	58.963984
1219.000000	59.020950
1220.000000	59.060855
1221.000000	59.070421
1222.000000	59.075082
1223.000000	59.082630
1224.000000	59.092798
1225.000000	59.105210
1226.000000	59.097847
1227.000000	59.090106
1228.000000	59.101155
1229.000000	59.115732
1230.000000	59.150806
1231.000000	59.178550
1232.000000	59.225206
1233.000000	59.247232
1234.000000	59.269747
1235.000000	59.287258
1236.000000	59.298139
1237.000000	59.300904
1238.000000	59.284997
1239.000000	59.276920
1240.000000	59.262673
1241.000000	59.297989
1242.000000	59.320145
1243.000000	59.353571
1244.000000	59.367535
1245.000000	59.364145
1246.000000	59.362143
1247.000000	59.362298
1248.000000	59.362149
1249.000000	59.396118
1250.000000	59.439427
1251.000000	59.458125
1252.000000	59.457923
1253.000000	59.451087
1254.000000	59.439687
1255.000000	59.446084
1256.000000	59.453731
1257.000000	59.476185
1258.000000	59.506055
1259.000000	59.536989
1260.000000	59.560681
1261.000000	59.597058
1262.000000	59.617123
1263.000000	59.631064
1264.000000	59.636372
1265.000000	59.642888
1266.000000	59.658296
1267.000000	59.660630
1268.000000	59.674727
1269.000000	59.685003
1270.000000	59.692246
1271.000000	59.695971
1272.000000	59.695794
1273.000000	59.733702
1274.000000	59.762481
1275.000000	59.781861
1276.000000	59.801032
1277.000000	59.797257
1278.000000	59.787971
1279.000000	59.779199
1280.000000	59.793961
1281.000000	59.821539
1282.000000	59.849895
1283.000000	59.874868
1284.000000	59.878022
1285.000000	59.873102
1286.000000	59.885682
1287.000000	59.888793
1288.000000	59.895038
1289.000000	59.913748
1290.000000	59.935188
1291.000000	59.959147
1292.000000	59.989270
1293.000000	59.985939
1294.000000	59.981706
1295.000000	60.005761
1296.000000	60.009222
1297.000000	60.012716
1298.000000	60.022400
1299.000000	60.024573
1300.000000	60.036159
1301.000000	60.035972
1302.000000	60.029465
1303.000000	60.037967
1304.000000	60.047592
1305.000000	60.064724
1306.000000	60.096525
1307.000000	60.122006
1308.000000	60.120461
1309.000000	60.103588
1310.000000	60.120709
1311.000000	60.127319
1312.000000	60.131776
1313.000000	60.145925
1314.000000	60.162647
1315.000000	60.174379
1316.000000	60.180577
1317.000000	60.190661
1318.000000	60.194987
1319.000000	60.199103
1320.000000	60.196198
1321.000000	60.195341
1322.000000	60.225909
1323.000000	60.264218
1324.000000	60.279469
1325.000000	60.279066
1326.000000	60.278031
1327.000000	60.254332
1328.000000	60.258779
1329.000000	60.263671
1330.000000	60.260165
1331.000000	60.263409
1332.000000	60.262962
1333.000000	60.257340
1334.000000	60.255957
1335.000000	60.273089
1336.000000	60.292243
1337.000000	60.313270
1338.000000	60.327330
1339.000000	60.326803
1340.000000	60.310148
1341.000000	60.292204
1342.000000	60.294552
1343.000000	60.310712
1344.000000	60.337638
1345.000000	60.343665
1346.000000	60.314420
1347.000000	60.323012
1348.000000	60.325145
1349.000000	60.354263
1350.000000	60.299148
1351.000000	60.216848
1352.000000	60.145225
1353.000000	60.108420
1354.000000	60.200022
1355.000000	60.357836
1356.000000	60.452177
1357.000000	60.406442
1358.000000	60.326182
1359.000000	60.304700
1360.000000	60.428241
1361.000000	60.488282
1362.000000	60.238932
1363.000000	60.131303
1364.000000	60.156301
1365.000000	60.015894
1366.000000	60.047076
1367.000000	60.210197
1368.000000	60.263883
1369.000000	60.307548
1370.000000	60.429089
1371.000000	60.410271
1372.000000	60.325833
1373.000000	60.234079
1374.000000	60.270749
1375.000000	60.295224
1376.000000	60.283322
1377.000000	60.183486
1378.000000	60.245660
1379.000000	60.148514
1380.000000	60.184509
1381.000000	60.137936
1382.000000	60.335166
1383.000000	60.421989
1384.000000	60.496930
1385.000000	60.558119
1386.000000	60.585103
1387.000000	60.800543
1388.000000	60.708510
1389.000000	60.633022
1390.000000	60.455508
1391.000000	60.287964
1392.000000	60.085171
1393.000000	60.085181
1394.000000	60.143459
1395.000000	59.984302
1396.000000	59.788525
1397.000000	59.942442
1398.000000	59.970191
1399.000000	59.970612
1400.000000	60.228696
1401.000000	60.187416
1402.000000	59.973998
1403.000000	59.861668
1404.000000	59.854261
1405.000000	59.589904
1406.000000	59.588503
1407.000000	59.555706
1408.000000	59.594013
1409.000000	59.523318
1410.000000	59.461222
1411.000000	59.395259
1412.000000	59.382982
1413.000000	59.236372
1414.000000	59.264239
1415.000000	59.139180
1416.000000	59.139957
1417.000000	58.894290
1418.000000	58.808069
1419.000000	58.641076
1420.000000	58.555855
1421.000000	58.542495
1422.000000	58.321049
1423.000000	58.428814
1424.000000	58.341502
1425.000000	58.293906
1426.000000	58.274226
1427.000000	58.395103
1428.000000	58.352392
1429.000000	58.207421
1430.000000	58.117589
1431.000000	58.158129
1432.000000	58.186978
1433.000000	58.184228
1434.000000	58.060844
1435.000000	57.827974
1436.000000	57.743730
1437.000000	57.758287
1438.000000	57.715103
1439.000000	57.595844
1440.000000	57.602888
1441.000000	57.553556
1442.000000	57.562628
1443.000000	57.508808
1444.000000	57.474398
1445.000000	57.531130
1446.000000	57.501485
1447.000000	57.497188
1448.000000	57.460785
1449.000000	57.427022
1450.000000	57.441769
1451.000000	57.401827
1452.000000	57.357726
1453.000000	57.244571
1454.000000	57.205256
1455.000000	57.185072
1456.000000	57.136451
1457.000000	57.106440
1458.000000	57.027457
1459.000000	57.022875
1460.000000	57.001593
1461.000000	56.971872
1462.000000	56.975965
1463.000000	56.953079
1464.000000	56.921374
1465.000000	56.916849
1466.000000	56.897782
1467.000000	56.844832
1468.000000	56.825588
1469.000000	56.867098
1470.000000	56.887666
1471.000000	56.859743
1472.000000	56.811801
1473.000000	56.821842
1474.000000	56.795954
1475.000000	56.788100
1476.000000	56.707624
1477.000000	56.670970
1478.000000	56.632659
1479.000000	56.593802
1480.000000	56.497171
1481.000000	56.486333
1482.000000	56.474099
1483.000000	56.469032
1484.000000	56.461339
1485.000000	56.412306
1486.000000	56.418258
1487.000000	56.390377
1488.000000	56.406093
1489.000000	56.403080
1490.000000	56.388227
1491.000000	56.409495
1492.000000	56.399168
1493.000000	56.374530
1494.000000	56.354241
1495.000000	56.352324
1496.000000	56.368290
1497.000000	56.362324
1498.000000	56.376118
1499.000000	56.396468
1500.000000	56.409346
1501.000000	56.409928
1502.000000	56.429739
1503.000000	56.422820
1504.000000	56.363512
1505.000000	56.330684
1506.000000	56.344705
1507.000000	56.330876
1508.000000	56.319648
1509.000000	56.338658
1510.000000	56.366550
1511.000000	56.408643
1512.000000	56.458750
1513.000000	56.491608
1514.000000	56.503632
1515.000000	56.506852
1516.000000	56.528806
1517.000000	56.548227
1518.000000	56.549846
1519.000000	56.551533
1520.000000	56.585468
1521.000000	56.611494
1522.000000	56.644636
1523.000000	56.656530
1524.000000	56.681336
1525.000000	56.710234
1526.000000	56.725937
1527.000000	56.768988
1528.000000	56.805052
1529.000000	56.816697
1530.000000	56.838233
1531.000000	56.865270
1532.000000	56.897842
1533.000000	56.923826
1534.000000	56.949842
1535.000000	56.996222
1536.000000	57.049850
1537.000000	57.093123
1538.000000	57.143158
1539.000000	57.207195
1540.000000	57.256090
1541.000000	57.293654
1542.000000	57.328516
1543.000000	57.360314
1544.000000	57.382037
1545.000000	57.416609
1546.000000	57.446881
1547.000000	57.455854
1548.000000	57.480399
1549.000000	57.516464
1550.000000	57.533198
1551.000000	57.582819
1552.000000	57.624567
1553.000000	57.660889
1554.000000	57.704019
1555.000000	57.727446
1556.000000	57.731736
1557.000000	57.727777
1558.000000	57.749664
1559.000000	57.771310
1560.000000	57.785395
1561.000000	57.809267
1562.000000	57.817669
1563.000000	57.835736
1564.000000	57.858067
1565.000000	57.868012
1566.000000	57.873903
1567.000000	57.872761
1568.000000	57.884102
1569.000000	57.906362
1570.000000	57.916474
1571.000000	57.907726
1572.000000	57.898098
1573.000000	57.893623
1574.000000	57.893878
1575.000000	57.900752
1576.000000	57.909865
1577.000000	57.933534
1578.000000	57.945465
1579.000000	57.949922
1580.000000	57.957311
1581.000000	57.960899
1582.000000	57.976736
1583.000000	57.971789
1584.000000	57.982117
1585.000000	58.002390
1586.000000	57.988772
1587.000000	57.980210
1588.000000	57.970971
1589.000000	57.976094
1590.000000	57.983097
1591.000000	57.998103
1592.000000	58.036577
1593.000000	58.035320
1594.000000	58.032933
1595.000000	58.049574
1596.000000	58.049365
1597.000000	58.059233
1598.000000	58.082727
1599.000000	58.108782
1600.000000	58.126897
1601.000000	58.145794
1602.000000	58.179267
1603.000000	58.181992
1604.000000	58.179623
1605.000000	58.191908
1606.000000	58.211860
1607.000000	58.222543
1608.000000	58.238995
1609.000000	58.251711
1610.000000	58.295895
1611.000000	58.308828
1612.000000	58.307708
1613.000000	58.325204
1614.000000	58.356845
1615.000000	58.366185
1616.000000	58.384477
1617.000000	58.397809
1618.000000	58.434276
1619.000000	58.451192
1620.000000	58.485295
1621.000000	58.505019
1622.000000	58.518458
1623.000000	58.562519
1624.000000	58.574421
1625.000000	58.590187
1626.000000	58.611367
1627.000000	58.629104
1628.000000	58.682952
1629.000000	58.724733
1630.000000	58.733928
1631.000000	58.769811
1632.000000	58.796571
1633.000000	58.821768
1634.000000	58.824824
1635.000000	58.842970
1636.000000	58.849824
1637.000000	58.859964
1638.000000	58.905449
1639.000000	58.954974
1640.000000	58.952706
1641.000000	58.977470
1642.000000	59.031147
1643.000000	59.054153
1644.000000	59.076695
1645.000000	59.071912
1646.000000	59.092334
1647.000000	59.115262
1648.000000	59.138082
1649.000000	59.133749
1650.000000	59.138560
1651.000000	59.138697
1652.000000	59.143760
1653.000000	59.147909
1654.000000	59.161823
1655.000000	59.163621
1656.000000	59.168696
1657.000000	59.189028
1658.000000	59.176782
1659.000000	59.183275
1660.000000	59.180826
1661.000000	59.187644
1662.000000	59.169007
1663.000000	59.174692
1664.000000	59.172006
1665.000000	59.191127
1666.000000	59.168885
1667.000000	59.126551
1668.000000	59.099890
1669.000000	59.107038
1670.000000	59.113689
1671.000000	59.142329
1672.000000	59.136248
1673.000000	59.125421
1674.000000	59.094364
1675.000000	59.120629
1676.000000	59.111252
1677.000000	59.080661
1678.000000	59.070201
1679.000000	59.049112
1680.000000	59.040705
1681.000000	59.032789
1682.000000	59.007969
1683.000000	58.974982
1684.000000	58.977727
1685.000000	58.952950
1686.000000	58.923603
1687.000000	58.918984
1688.000000	58.907762
1689.000000	58.893282
1690.000000	58.882631
1691.000000	58.862734
1692.000000	58.853981
1693.000000	58.842052
1694.000000	58.816914
1695.000000	58.803054
1696.000000	58.792439
1697.000000	58.809629
1698.000000	58.788397
1699.000000	58.784025
1700.000000	58.752153
1701.000000	58.780366
1702.000000	58.821296
1703.000000	58.819751
1704.000000	58.808408
1705.000000	58.811783
1706.000000	58.790125
1707.000000	58.771723
1708.000000	58.757801
1709.000000	58.762367
1710.000000	58.750388
1711.000000	58.742026
1712.000000	58.736513
1713.000000	58.715523
1714.000000	58.700013
1715.000000	58.673264
1716.000000	58.649764
1717.000000	58.641568
1718.000000	58.635193
1719.000000	58.585701
1720.000000	58.581981
1721.000000	58.587868
1722.000000	58.578008
1723.000000	58.557171
1724.000000	58.508888
1725.000000	58.484106
1726.000000	58.496349
1727.000000	58.485090
1728.000000	58.474800
1729.000000	58.480202
1730.000000	58.453870
1731.000000	58.434474
1732.000000	58.403352
1733.000000	58.370556
1734.000000	58.351799
1735.000000	58.343294
1736.000000	58.290134
1737.000000	58.243017
1738.000000	58.228509
1739.000000	58.209760
1740.000000	58.172378
1741.000000	58.171893
1742.000000	58.188752
1743.000000	58.183652
1744.000000	58.168914
1745.000000	58.142359
1746.000000	58.130490
1747.000000	58.118140
1748.000000	58.115568
1749.000000	58.125734
1750.000000	58.149180
1751.000000	58.135288
1752.000000	58.138277
1753.000000	58.154705
1754.000000	58.196938
1755.000000	58.225975
1756.000000	58.250983
1757.000000	58.263511
1758.000000	58.279766
1759.000000	58.301101
1760.000000	58.294044
1761.000000	58.284094
1762.000000	58.282104
1763.000000	58.296262
1764.000000	58.321818
1765.000000	58.334545
1766.000000	58.336109
1767.000000	58.352740
1768.000000	58.359965
1769.000000	58.351204
1770.000000	58.358199
1771.000000	58.384995
1772.000000	58.406997
1773.000000	58.406427
1774.000000	58.405239
1775.000000	58.412785
1776.000000	58.421088
1777.000000	58.433666
1778.000000	58.454482
1779.000000	58.470243
1780.000000	58.480983
1781.000000	58.489090
1782.000000	58.514678
1783.000000	58.556812
1784.000000	58.576071
1785.000000	58.557464
1786.000000	58.562031
1787.000000	58.564614
1788.000000	58.577623
1789.000000	58.587973
1790.000000	58.598410
1791.000000	58.609506
1792.000000	58.622226
1793.000000	58.624060
1794.000000	58.648220
1795.000000	58.687622
1796.000000	58.708127
1797.000000	58.726843
1798.000000	58.740227
1799.000000	58.735952
1800.000000	58.780356
1801.000000	58.821137
1802.000000	58.833703
1803.000000	58.845098
1804.000000	58.865772
1805.000000	58.917641
1806.000000	58.974277
1807.000000	59.001693
1808.000000	59.018435
1809.000000	59.055444
1810.000000	59.088290
1811.000000	59.114148
1812.000000	59.129538
1813.000000	59.121693
1814.000000	59.124812
1815.000000	59.122079
1816.000000	59.157833
1817.000000	59.266208
1818.000000	59.318681
1819.000000	59.453075
1820.000000	59.545382
1821.000000	59.574941
1822.000000	59.581311
1823.000000	59.562697
1824.000000	59.539598
1825.000000	59.738169
1826.000000	59.842804
1827.000000	59.838552
1828.000000	59.856531
1829.000000	59.875840
1830.000000	59.986194
1831.000000	60.054408
1832.000000	60.042048
1833.000000	60.054414
1834.000000	60.130427
1835.000000	60.255918
1836.000000	60.247122
1837.000000	60.191924
1838.000000	60.131933
1839.000000	60.115359
1840.000000	60.018571
1841.000000	60.024665
1842.000000	60.024271
1843.000000	60.029989
1844.000000	60.045408
1845.000000	60.024102
1846.000000	60.075128
1847.000000	60.242315
1848.000000	60.274307
1849.000000	60.257386
1850.000000	60.204103
1851.000000	60.110745
1852.000000	60.028723
1853.000000	60.070377
1854.000000	59.979127
1855.000000	59.935376
1856.000000	59.811514
1857.000000	59.726175
1858.000000	59.699417
1859.000000	59.699524
1860.000000	59.429742
1861.000000	59.295081
1862.000000	59.305321
1863.000000	59.498902
1864.000000	59.627114
1865.000000	59.556203
1866.000000	59.480651
1867.000000	59.447776
1868.000000	59.411167
1869.000000	59.313383
1870.000000	59.407972
1871.000000	59.412092
1872.000000	59.673791
1873.000000	59.760832
1874.000000	59.782588
1875.000000	59.796561
1876.000000	59.870683
1877.000000	59.862312
1878.000000	59.830119
1879.000000	59.786071
1880.000000	59.814810
1881.000000	59.727330
1882.000000	59.525717
1883.000000	59.583953
1884.000000	59.546762
1885.000000	59.576871
1886.000000	59.642958
1887.000000	59.557059
1888.000000	59.387401
1889.000000	59.404667
1890.000000	59.286965
1891.000000	59.409830
1892.000000	59.413387
1893.000000	59.403590
1894.000000	59.361848
1895.000000	59.340784
1896.000000	59.241237
1897.000000	59.140631
1898.000000	58.830289
1899.000000	58.562363
1900.000000	58.372409
1901.000000	58.259558
1902.000000	58.484259
1903.000000	58.365659
1904.000000	58.226905
1905.000000	57.786659
1906.000000	57.690228
1907.000000	57.293409
1908.000000	57.104674
1909.000000	56.888755
1910.000000	56.711066
1911.000000	56.328125
1912.000000	56.058833
1913.000000	55.885885
1914.000000	55.650902
1915.000000	55.454439
1916.000000	55.179636
1917.000000	54.891468
1918.000000	54.520603
1919.000000	54.386859
1920.000000	54.274257
1921.000000	53.992792
1922.000000	53.773402
1923.000000	53.680851
1924.000000	53.319276
1925.000000	53.135138
1926.000000	52.904456
1927.000000	52.695320
1928.000000	52.496018
1929.000000	52.294568
1930.000000	52.109749
1931.000000	51.953781
1932.000000	51.769105
1933.000000	51.649439
1934.000000	51.467444
1935.000000	51.312087
1936.000000	51.138537
1937.000000	50.724716
1938.000000	50.615409
1939.000000	50.499918
1940.000000	50.454652
1941.000000	50.261724
1942.000000	50.162263
1943.000000	50.063550
1944.000000	50.033058
1945.000000	50.006011
1946.000000	50.025858
1947.000000	50.050596
1948.000000	49.992761
1949.000000	49.992404
1950.000000	49.913076
1951.000000	49.933160
1952.000000	50.005034
1953.000000	50.023553
1954.000000	49.964225
1955.000000	49.879295
1956.000000	49.937312
1957.000000	49.962795
1958.000000	49.878019
1959.000000	49.932393
1960.000000	49.981089
1961.000000	49.982410
1962.000000	50.056984
1963.000000	50.097662
1964.000000	50.142934
1965.000000	50.218408
1966.000000	50.291005
1967.000000	50.370330
1968.000000	50.395960
1969.000000	50.501005
1970.000000	50.596744
1971.000000	50.680557
1972.000000	50.732363
1973.000000	50.794854
1974.000000	50.857259
1975.000000	50.919910
1976.000000	51.008452
1977.000000	51.125236
1978.000000	51.197926
1979.000000	51.248119
1980.000000	51.331590
1981.000000	51.367049
1982.000000	51.428499
1983.000000	51.510380
1984.000000	51.581501
1985.000000	51.658471
1986.000000	51.748124
1987.000000	51.825179
1988.000000	51.931989
1989.000000	52.008309
1990.000000	52.105781
1991.000000	52.171570
1992.000000	52.267825
1993.000000	52.357991
1994.000000	52.439103
1995.000000	52.521300
1996.000000	52.622946
1997.000000	52.695402
1998.000000	52.761029
1999.000000	52.825932
2000.000000	52.877686
