PE UV       SUBTECH     SPECTRUM    ASCII       PEDS        4.00        
   -1
MACRASPIS.SP-TX3.ASC
23/11/30
13:55:33.00
23/11/30
13:55:33.00
Vinicio Soto Monge
MACRASPIS ?
250,000000
1
Lambda 1050
1050L1511233
PerkinElmer UV WinLab 6.3.2.0749 / 2.02.05 Lambda 900 UV/VIS/NIR, Aug  7 2015 09:38:08

0
0
3350/servo 860,8/2
0
0
UV/VIS
1
1
1
DoubleDePol,CommonBeamDepol,RBeamAtt,SBeamAtt,60mm sphere, WB InGaAs Detector
0
0
0
0
Program
Program
3350/servo 860,8/2
3350/0,4 860,8/0,4
3350/0,4 860,8/0,4
0
20.00
 
 
 
0
 
860,8
319,2
860,8
Front
100
on
S:100 R:100
0
0
0
0
 
0
 
 
 
0
 
 
0
0
0
0
0
 
 
 
 
0
0


0
0
#HDR
-1
-1
#GR
nm
%T
1.0
0.0
2200,000000
-1,000000
1951
8
80,438291
0,396740
#DATA
284.000000	0.340356
285.000000	0.340646
286.000000	0.341050
287.000000	0.341181
288.000000	0.341378
289.000000	0.341425
290.000000	0.341571
291.000000	0.342028
292.000000	0.342398
293.000000	0.342697
294.000000	0.342407
295.000000	0.343013
296.000000	0.343670
297.000000	0.344281
298.000000	0.345006
299.000000	0.345457
300.000000	0.346000
301.000000	0.346957
302.000000	0.347207
303.000000	0.347339
304.000000	0.347734
305.000000	0.348197
306.000000	0.348893
307.000000	0.349254
308.000000	0.350425
309.000000	0.351623
310.000000	0.352450
311.000000	0.353741
312.000000	0.354483
313.000000	0.355192
314.000000	0.355995
315.000000	0.356618
316.000000	0.356978
317.000000	0.358238
318.000000	0.360246
319.000000	0.363940
320.000000	0.368336
321.000000	0.371749
322.000000	0.373362
323.000000	0.376832
324.000000	0.380515
325.000000	0.383378
326.000000	0.386078
327.000000	0.390275
328.000000	0.394328
329.000000	0.399525
330.000000	0.402981
331.000000	0.406125
332.000000	0.409113
333.000000	0.413062
334.000000	0.417889
335.000000	0.420955
336.000000	0.424558
337.000000	0.427535
338.000000	0.431697
339.000000	0.436121
340.000000	0.440170
341.000000	0.444459
342.000000	0.448861
343.000000	0.452505
344.000000	0.456444
345.000000	0.460294
346.000000	0.463893
347.000000	0.467717
348.000000	0.472392
349.000000	0.476455
350.000000	0.481376
351.000000	0.485881
352.000000	0.490143
353.000000	0.493355
354.000000	0.495207
355.000000	0.495992
356.000000	0.498407
357.000000	0.502766
358.000000	0.505709
359.000000	0.508249
360.000000	0.511296
361.000000	0.514468
362.000000	0.516854
363.000000	0.519096
364.000000	0.519786
365.000000	0.522054
366.000000	0.525064
367.000000	0.528538
368.000000	0.531373
369.000000	0.533603
370.000000	0.537639
371.000000	0.541102
372.000000	0.544720
373.000000	0.547596
374.000000	0.550450
375.000000	0.553030
376.000000	0.554636
377.000000	0.557143
378.000000	0.559973
379.000000	0.562419
380.000000	0.565019
381.000000	0.567836
382.000000	0.570932
383.000000	0.573353
384.000000	0.575895
385.000000	0.577828
386.000000	0.580222
387.000000	0.582660
388.000000	0.585596
389.000000	0.588129
390.000000	0.590661
391.000000	0.592849
392.000000	0.594880
393.000000	0.596579
394.000000	0.598612
395.000000	0.600961
396.000000	0.602949
397.000000	0.604592
398.000000	0.606508
399.000000	0.609095
400.000000	0.611136
401.000000	0.612784
402.000000	0.614294
403.000000	0.615518
404.000000	0.616773
405.000000	0.617721
406.000000	0.618778
407.000000	0.620382
408.000000	0.621740
409.000000	0.622555
410.000000	0.624038
411.000000	0.625825
412.000000	0.627110
413.000000	0.628303
414.000000	0.629499
415.000000	0.630579
416.000000	0.631540
417.000000	0.632471
418.000000	0.633430
419.000000	0.634326
420.000000	0.635116
421.000000	0.635908
422.000000	0.636677
423.000000	0.637352
424.000000	0.637971
425.000000	0.638556
426.000000	0.639087
427.000000	0.639455
428.000000	0.639753
429.000000	0.640072
430.000000	0.640420
431.000000	0.640688
432.000000	0.640865
433.000000	0.641045
434.000000	0.641250
435.000000	0.641549
436.000000	0.641798
437.000000	0.641911
438.000000	0.642054
439.000000	0.642234
440.000000	0.642357
441.000000	0.642458
442.000000	0.642520
443.000000	0.642531
444.000000	0.642567
445.000000	0.642641
446.000000	0.642596
447.000000	0.642394
448.000000	0.642102
449.000000	0.641783
450.000000	0.641465
451.000000	0.641192
452.000000	0.640909
453.000000	0.640591
454.000000	0.640304
455.000000	0.640013
456.000000	0.639657
457.000000	0.639289
458.000000	0.638885
459.000000	0.638440
460.000000	0.638032
461.000000	0.637602
462.000000	0.637259
463.000000	0.636911
464.000000	0.636491
465.000000	0.635988
466.000000	0.635433
467.000000	0.634885
468.000000	0.634342
469.000000	0.633779
470.000000	0.633068
471.000000	0.632420
472.000000	0.631846
473.000000	0.631242
474.000000	0.630618
475.000000	0.629960
476.000000	0.629268
477.000000	0.628579
478.000000	0.627867
479.000000	0.627074
480.000000	0.626332
481.000000	0.625719
482.000000	0.625232
483.000000	0.624713
484.000000	0.624147
485.000000	0.623494
486.000000	0.622766
487.000000	0.622156
488.000000	0.621543
489.000000	0.620930
490.000000	0.620239
491.000000	0.619487
492.000000	0.618815
493.000000	0.618178
494.000000	0.617531
495.000000	0.616872
496.000000	0.616246
497.000000	0.615583
498.000000	0.614905
499.000000	0.614239
500.000000	0.613536
501.000000	0.612877
502.000000	0.612190
503.000000	0.611437
504.000000	0.610669
505.000000	0.609916
506.000000	0.609172
507.000000	0.608397
508.000000	0.607604
509.000000	0.606820
510.000000	0.606117
511.000000	0.605407
512.000000	0.604722
513.000000	0.603988
514.000000	0.603242
515.000000	0.602509
516.000000	0.601773
517.000000	0.601023
518.000000	0.600317
519.000000	0.599562
520.000000	0.598864
521.000000	0.598292
522.000000	0.597625
523.000000	0.596915
524.000000	0.596268
525.000000	0.595757
526.000000	0.595354
527.000000	0.594898
528.000000	0.594511
529.000000	0.594180
530.000000	0.593908
531.000000	0.593716
532.000000	0.593508
533.000000	0.593386
534.000000	0.593352
535.000000	0.593427
536.000000	0.593347
537.000000	0.593390
538.000000	0.593534
539.000000	0.593705
540.000000	0.594035
541.000000	0.594423
542.000000	0.594736
543.000000	0.595157
544.000000	0.595635
545.000000	0.596056
546.000000	0.596750
547.000000	0.597435
548.000000	0.598169
549.000000	0.599019
550.000000	0.599875
551.000000	0.600715
552.000000	0.601622
553.000000	0.602578
554.000000	0.603677
555.000000	0.604761
556.000000	0.605847
557.000000	0.606891
558.000000	0.608050
559.000000	0.609110
560.000000	0.610086
561.000000	0.611139
562.000000	0.612181
563.000000	0.613296
564.000000	0.614500
565.000000	0.615784
566.000000	0.617036
567.000000	0.618409
568.000000	0.619736
569.000000	0.621018
570.000000	0.622332
571.000000	0.623969
572.000000	0.625565
573.000000	0.627140
574.000000	0.628795
575.000000	0.630426
576.000000	0.632072
577.000000	0.633952
578.000000	0.635747
579.000000	0.637613
580.000000	0.639635
581.000000	0.641575
582.000000	0.643632
583.000000	0.645811
584.000000	0.648152
585.000000	0.650551
586.000000	0.653126
587.000000	0.655711
588.000000	0.658412
589.000000	0.661207
590.000000	0.664165
591.000000	0.667309
592.000000	0.670671
593.000000	0.674150
594.000000	0.677923
595.000000	0.681982
596.000000	0.686117
597.000000	0.690580
598.000000	0.695079
599.000000	0.699726
600.000000	0.704576
601.000000	0.709741
602.000000	0.715117
603.000000	0.720755
604.000000	0.726683
605.000000	0.732845
606.000000	0.739226
607.000000	0.745896
608.000000	0.752932
609.000000	0.760257
610.000000	0.767788
611.000000	0.775619
612.000000	0.783749
613.000000	0.792371
614.000000	0.801352
615.000000	0.810535
616.000000	0.820124
617.000000	0.830117
618.000000	0.840562
619.000000	0.851293
620.000000	0.862477
621.000000	0.874086
622.000000	0.886262
623.000000	0.898936
624.000000	0.911983
625.000000	0.925502
626.000000	0.939482
627.000000	0.953841
628.000000	0.968718
629.000000	0.984075
630.000000	0.999956
631.000000	1.016319
632.000000	1.033232
633.000000	1.050790
634.000000	1.069008
635.000000	1.087713
636.000000	1.107047
637.000000	1.126983
638.000000	1.147450
639.000000	1.168524
640.000000	1.190355
641.000000	1.212718
642.000000	1.235713
643.000000	1.259411
644.000000	1.283717
645.000000	1.308720
646.000000	1.334416
647.000000	1.360762
648.000000	1.387707
649.000000	1.415244
650.000000	1.443683
651.000000	1.472829
652.000000	1.502661
653.000000	1.533119
654.000000	1.564328
655.000000	1.596231
656.000000	1.628722
657.000000	1.661739
658.000000	1.695409
659.000000	1.729768
660.000000	1.764910
661.000000	1.800740
662.000000	1.837338
663.000000	1.874514
664.000000	1.912434
665.000000	1.950989
666.000000	1.990219
667.000000	2.030098
668.000000	2.070782
669.000000	2.112175
670.000000	2.154289
671.000000	2.196946
672.000000	2.240328
673.000000	2.284614
674.000000	2.329682
675.000000	2.375373
676.000000	2.421804
677.000000	2.468903
678.000000	2.516638
679.000000	2.565207
680.000000	2.614523
681.000000	2.664570
682.000000	2.715378
683.000000	2.766887
684.000000	2.819274
685.000000	2.872436
686.000000	2.926368
687.000000	2.981031
688.000000	3.036406
689.000000	3.092745
690.000000	3.149933
691.000000	3.207911
692.000000	3.266704
693.000000	3.326514
694.000000	3.387456
695.000000	3.449168
696.000000	3.511640
697.000000	3.574926
698.000000	3.639389
699.000000	3.704763
700.000000	3.771004
701.000000	3.838247
702.000000	3.906322
703.000000	3.975353
704.000000	4.045348
705.000000	4.116105
706.000000	4.187659
707.000000	4.260161
708.000000	4.333528
709.000000	4.407686
710.000000	4.482715
711.000000	4.558809
712.000000	4.635830
713.000000	4.714163
714.000000	4.793561
715.000000	4.873809
716.000000	4.954980
717.000000	5.037272
718.000000	5.120523
719.000000	5.204380
720.000000	5.289183
721.000000	5.375067
722.000000	5.462226
723.000000	5.550399
724.000000	5.639392
725.000000	5.729498
726.000000	5.820382
727.000000	5.912160
728.000000	6.004929
729.000000	6.098677
730.000000	6.193255
731.000000	6.289005
732.000000	6.385820
733.000000	6.483535
734.000000	6.582560
735.000000	6.682148
736.000000	6.782597
737.000000	6.884136
738.000000	6.986397
739.000000	7.089523
740.000000	7.194192
741.000000	7.299854
742.000000	7.406373
743.000000	7.514065
744.000000	7.623021
745.000000	7.732892
746.000000	7.843585
747.000000	7.955245
748.000000	8.067701
749.000000	8.180880
750.000000	8.295159
751.000000	8.410939
752.000000	8.527872
753.000000	8.645826
754.000000	8.764699
755.000000	8.884675
756.000000	9.005588
757.000000	9.126992
758.000000	9.249435
759.000000	9.373096
760.000000	9.497383
761.000000	9.622513
762.000000	9.749048
763.000000	9.876336
764.000000	10.004506
765.000000	10.133949
766.000000	10.264378
767.000000	10.395379
768.000000	10.527263
769.000000	10.660386
770.000000	10.794941
771.000000	10.929936
772.000000	11.065545
773.000000	11.202044
774.000000	11.339985
775.000000	11.478753
776.000000	11.618541
777.000000	11.758695
778.000000	11.899719
779.000000	12.041655
780.000000	12.184674
781.000000	12.328502
782.000000	12.473573
783.000000	12.619197
784.000000	12.765804
785.000000	12.913416
786.000000	13.061348
787.000000	13.209850
788.000000	13.359564
789.000000	13.509995
790.000000	13.660456
791.000000	13.812089
792.000000	13.964727
793.000000	14.117851
794.000000	14.271666
795.000000	14.426433
796.000000	14.582528
797.000000	14.739319
798.000000	14.896655
799.000000	15.055012
800.000000	15.213628
801.000000	15.372823
802.000000	15.532589
803.000000	15.693184
804.000000	15.854874
805.000000	16.015761
806.000000	16.178769
807.000000	16.341887
808.000000	16.506756
809.000000	16.671444
810.000000	16.835969
811.000000	17.001811
812.000000	17.168284
813.000000	17.335056
814.000000	17.502496
815.000000	17.670199
816.000000	17.838500
817.000000	18.008427
818.000000	18.179737
819.000000	18.351083
820.000000	18.523257
821.000000	18.694486
822.000000	18.866133
823.000000	19.038382
824.000000	19.211389
825.000000	19.386204
826.000000	19.560899
827.000000	19.734323
828.000000	19.908974
829.000000	20.084174
830.000000	20.260295
831.000000	20.436749
832.000000	20.612457
833.000000	20.791528
834.000000	20.969616
835.000000	21.146413
836.000000	21.324429
837.000000	21.504663
838.000000	21.683552
839.000000	21.860770
840.000000	22.040781
841.000000	22.223097
842.000000	22.403455
843.000000	22.583788
844.000000	22.766067
845.000000	22.948095
846.000000	23.127667
847.000000	23.307951
848.000000	23.484710
849.000000	23.665965
850.000000	23.848898
851.000000	24.029341
852.000000	24.209696
853.000000	24.391271
854.000000	24.570559
855.000000	24.748991
856.000000	24.931503
857.000000	25.117891
858.000000	25.322318
859.000000	25.510277
860.000000	25.697611
861.000000	25.910467
862.000000	26.109410
863.000000	26.291395
864.000000	26.488563
865.000000	26.679327
866.000000	26.888701
867.000000	27.080322
868.000000	27.264671
869.000000	27.464063
870.000000	27.655331
871.000000	27.853971
872.000000	28.062768
873.000000	28.249073
874.000000	28.447409
875.000000	28.650019
876.000000	28.847364
877.000000	29.038443
878.000000	29.240235
879.000000	29.424318
880.000000	29.609273
881.000000	29.806725
882.000000	29.993678
883.000000	30.207312
884.000000	30.398705
885.000000	30.590349
886.000000	30.790076
887.000000	30.988356
888.000000	31.187190
889.000000	31.395194
890.000000	31.597400
891.000000	31.808151
892.000000	32.000141
893.000000	32.159355
894.000000	32.353468
895.000000	32.542839
896.000000	32.700923
897.000000	32.896927
898.000000	33.091143
899.000000	33.246226
900.000000	33.437513
901.000000	33.598368
902.000000	33.760110
903.000000	33.954249
904.000000	34.128773
905.000000	34.312505
906.000000	34.480023
907.000000	34.648898
908.000000	34.826183
909.000000	35.005420
910.000000	35.182778
911.000000	35.365286
912.000000	35.560829
913.000000	35.737317
914.000000	35.935912
915.000000	36.117376
916.000000	36.287343
917.000000	36.465609
918.000000	36.616230
919.000000	36.782121
920.000000	36.954580
921.000000	37.113429
922.000000	37.273400
923.000000	37.432400
924.000000	37.595613
925.000000	37.765551
926.000000	37.917791
927.000000	38.085495
928.000000	38.258921
929.000000	38.412214
930.000000	38.565806
931.000000	38.737951
932.000000	38.889955
933.000000	39.042489
934.000000	39.235854
935.000000	39.392153
936.000000	39.564896
937.000000	39.735897
938.000000	39.880686
939.000000	40.034779
940.000000	40.181396
941.000000	40.337748
942.000000	40.484910
943.000000	40.652560
944.000000	40.805928
945.000000	40.961085
946.000000	41.115436
947.000000	41.266015
948.000000	41.400637
949.000000	41.535234
950.000000	41.680088
951.000000	41.830360
952.000000	41.972613
953.000000	42.135753
954.000000	42.298773
955.000000	42.444832
956.000000	42.594464
957.000000	42.744212
958.000000	42.896001
959.000000	43.040218
960.000000	43.169006
961.000000	43.308868
962.000000	43.450686
963.000000	43.616039
964.000000	43.779101
965.000000	43.943215
966.000000	44.095793
967.000000	44.225323
968.000000	44.376363
969.000000	44.509157
970.000000	44.654674
971.000000	44.791239
972.000000	44.927393
973.000000	45.068520
974.000000	45.213304
975.000000	45.370092
976.000000	45.522133
977.000000	45.660481
978.000000	45.795234
979.000000	45.935866
980.000000	46.069409
981.000000	46.188781
982.000000	46.306425
983.000000	46.451319
984.000000	46.585623
985.000000	46.725922
986.000000	46.860829
987.000000	47.000497
988.000000	47.124080
989.000000	47.262741
990.000000	47.404352
991.000000	47.536604
992.000000	47.671034
993.000000	47.813868
994.000000	47.944519
995.000000	48.078181
996.000000	48.191856
997.000000	48.309271
998.000000	48.429942
999.000000	48.557387
1000.000000	48.683840
1001.000000	48.801718
1002.000000	48.929149
1003.000000	49.056480
1004.000000	49.188097
1005.000000	49.312494
1006.000000	49.432526
1007.000000	49.569258
1008.000000	49.699715
1009.000000	49.816986
1010.000000	49.923873
1011.000000	50.032045
1012.000000	50.151442
1013.000000	50.257825
1014.000000	50.356751
1015.000000	50.477172
1016.000000	50.616368
1017.000000	50.749997
1018.000000	50.877157
1019.000000	51.000275
1020.000000	51.114627
1021.000000	51.236648
1022.000000	51.358379
1023.000000	51.481120
1024.000000	51.594818
1025.000000	51.705900
1026.000000	51.829375
1027.000000	51.945748
1028.000000	52.047068
1029.000000	52.144235
1030.000000	52.255632
1031.000000	52.382760
1032.000000	52.517237
1033.000000	52.622584
1034.000000	52.726679
1035.000000	52.840371
1036.000000	52.950933
1037.000000	53.071225
1038.000000	53.184126
1039.000000	53.287968
1040.000000	53.401985
1041.000000	53.515266
1042.000000	53.633679
1043.000000	53.733085
1044.000000	53.822352
1045.000000	53.928509
1046.000000	54.040949
1047.000000	54.139892
1048.000000	54.254233
1049.000000	54.364628
1050.000000	54.451598
1051.000000	54.548568
1052.000000	54.636807
1053.000000	54.740537
1054.000000	54.848236
1055.000000	54.948300
1056.000000	55.034652
1057.000000	55.126184
1058.000000	55.209138
1059.000000	55.307241
1060.000000	55.419174
1061.000000	55.523839
1062.000000	55.621304
1063.000000	55.743349
1064.000000	55.864025
1065.000000	55.965300
1066.000000	56.059305
1067.000000	56.141471
1068.000000	56.242074
1069.000000	56.341913
1070.000000	56.431023
1071.000000	56.515645
1072.000000	56.588442
1073.000000	56.663550
1074.000000	56.750696
1075.000000	56.819863
1076.000000	56.899665
1077.000000	56.987639
1078.000000	57.083322
1079.000000	57.171949
1080.000000	57.257807
1081.000000	57.342117
1082.000000	57.435773
1083.000000	57.496115
1084.000000	57.577561
1085.000000	57.670710
1086.000000	57.729379
1087.000000	57.820299
1088.000000	57.892217
1089.000000	57.955749
1090.000000	58.044799
1091.000000	58.135237
1092.000000	58.234904
1093.000000	58.353325
1094.000000	58.414323
1095.000000	58.493906
1096.000000	58.560119
1097.000000	58.648303
1098.000000	58.711076
1099.000000	58.768449
1100.000000	58.848193
1101.000000	58.935222
1102.000000	59.006303
1103.000000	59.072100
1104.000000	59.120763
1105.000000	59.177336
1106.000000	59.251775
1107.000000	59.337768
1108.000000	59.432986
1109.000000	59.501890
1110.000000	59.582447
1111.000000	59.667279
1112.000000	59.738655
1113.000000	59.814297
1114.000000	59.899896
1115.000000	59.978413
1116.000000	60.056516
1117.000000	60.128262
1118.000000	60.212367
1119.000000	60.294920
1120.000000	60.365732
1121.000000	60.453191
1122.000000	60.534736
1123.000000	60.624891
1124.000000	60.700422
1125.000000	60.798908
1126.000000	60.875652
1127.000000	60.930062
1128.000000	60.947795
1129.000000	61.015530
1130.000000	61.061026
1131.000000	61.117669
1132.000000	61.167526
1133.000000	61.211147
1134.000000	61.323786
1135.000000	61.377635
1136.000000	61.423809
1137.000000	61.475801
1138.000000	61.532229
1139.000000	61.603120
1140.000000	61.673328
1141.000000	61.751970
1142.000000	61.786698
1143.000000	61.830961
1144.000000	61.891027
1145.000000	61.950726
1146.000000	62.006801
1147.000000	62.048577
1148.000000	62.108346
1149.000000	62.174073
1150.000000	62.224763
1151.000000	62.260014
1152.000000	62.304131
1153.000000	62.362812
1154.000000	62.400917
1155.000000	62.453911
1156.000000	62.522294
1157.000000	62.551199
1158.000000	62.570923
1159.000000	62.622964
1160.000000	62.652891
1161.000000	62.686927
1162.000000	62.726006
1163.000000	62.797555
1164.000000	62.868398
1165.000000	62.929298
1166.000000	62.995543
1167.000000	63.050360
1168.000000	63.094255
1169.000000	63.084040
1170.000000	63.144661
1171.000000	63.183977
1172.000000	63.243277
1173.000000	63.274761
1174.000000	63.310918
1175.000000	63.347483
1176.000000	63.366922
1177.000000	63.428750
1178.000000	63.475501
1179.000000	63.522973
1180.000000	63.585030
1181.000000	63.608803
1182.000000	63.663065
1183.000000	63.692152
1184.000000	63.739898
1185.000000	63.793185
1186.000000	63.831757
1187.000000	63.869361
1188.000000	63.922544
1189.000000	63.974566
1190.000000	64.029228
1191.000000	64.036671
1192.000000	64.092204
1193.000000	64.136388
1194.000000	64.179777
1195.000000	64.212798
1196.000000	64.254409
1197.000000	64.311288
1198.000000	64.359542
1199.000000	64.398726
1200.000000	64.437608
1201.000000	64.470708
1202.000000	64.493036
1203.000000	64.551506
1204.000000	64.619501
1205.000000	64.653217
1206.000000	64.715476
1207.000000	64.761928
1208.000000	64.825110
1209.000000	64.896504
1210.000000	64.955305
1211.000000	64.998705
1212.000000	65.040458
1213.000000	65.079804
1214.000000	65.138287
1215.000000	65.172104
1216.000000	65.239191
1217.000000	65.291862
1218.000000	65.352553
1219.000000	65.384710
1220.000000	65.417762
1221.000000	65.476501
1222.000000	65.537246
1223.000000	65.582549
1224.000000	65.626132
1225.000000	65.651354
1226.000000	65.713958
1227.000000	65.769286
1228.000000	65.835359
1229.000000	65.879346
1230.000000	65.921519
1231.000000	65.972293
1232.000000	65.990056
1233.000000	66.028714
1234.000000	66.062011
1235.000000	66.093435
1236.000000	66.137076
1237.000000	66.181835
1238.000000	66.198739
1239.000000	66.223770
1240.000000	66.256171
1241.000000	66.284627
1242.000000	66.330329
1243.000000	66.367488
1244.000000	66.392248
1245.000000	66.430548
1246.000000	66.488064
1247.000000	66.544749
1248.000000	66.587215
1249.000000	66.613458
1250.000000	66.646242
1251.000000	66.675670
1252.000000	66.697681
1253.000000	66.718548
1254.000000	66.748649
1255.000000	66.786238
1256.000000	66.828926
1257.000000	66.864147
1258.000000	66.895222
1259.000000	66.935147
1260.000000	66.967409
1261.000000	67.004122
1262.000000	67.025937
1263.000000	67.043258
1264.000000	67.075545
1265.000000	67.096777
1266.000000	67.131939
1267.000000	67.201814
1268.000000	67.242954
1269.000000	67.277430
1270.000000	67.307443
1271.000000	67.327666
1272.000000	67.370240
1273.000000	67.431682
1274.000000	67.474639
1275.000000	67.527083
1276.000000	67.575994
1277.000000	67.587355
1278.000000	67.611740
1279.000000	67.646206
1280.000000	67.676122
1281.000000	67.693919
1282.000000	67.707613
1283.000000	67.732873
1284.000000	67.757246
1285.000000	67.780162
1286.000000	67.810867
1287.000000	67.842064
1288.000000	67.877180
1289.000000	67.917096
1290.000000	67.950076
1291.000000	67.970502
1292.000000	67.998574
1293.000000	68.034054
1294.000000	68.070243
1295.000000	68.102775
1296.000000	68.104858
1297.000000	68.114516
1298.000000	68.140517
1299.000000	68.160228
1300.000000	68.192362
1301.000000	68.213386
1302.000000	68.223513
1303.000000	68.252265
1304.000000	68.278884
1305.000000	68.316730
1306.000000	68.356768
1307.000000	68.389016
1308.000000	68.404925
1309.000000	68.426803
1310.000000	68.441246
1311.000000	68.461860
1312.000000	68.502051
1313.000000	68.523087
1314.000000	68.543126
1315.000000	68.567437
1316.000000	68.610614
1317.000000	68.647098
1318.000000	68.669529
1319.000000	68.679746
1320.000000	68.711239
1321.000000	68.726296
1322.000000	68.746420
1323.000000	68.763888
1324.000000	68.782262
1325.000000	68.810499
1326.000000	68.855153
1327.000000	68.876063
1328.000000	68.886732
1329.000000	68.897372
1330.000000	68.923512
1331.000000	68.963662
1332.000000	68.983236
1333.000000	68.996693
1334.000000	69.027455
1335.000000	69.061243
1336.000000	69.089528
1337.000000	69.110737
1338.000000	69.116225
1339.000000	69.137070
1340.000000	69.139137
1341.000000	69.147599
1342.000000	69.159645
1343.000000	69.185535
1344.000000	69.206617
1345.000000	69.243263
1346.000000	69.218494
1347.000000	69.243571
1348.000000	69.284840
1349.000000	69.300332
1350.000000	69.289530
1351.000000	69.278630
1352.000000	69.180306
1353.000000	69.146968
1354.000000	69.253949
1355.000000	69.416710
1356.000000	69.422724
1357.000000	69.499489
1358.000000	69.513978
1359.000000	69.527219
1360.000000	69.600740
1361.000000	69.571032
1362.000000	69.353039
1363.000000	69.260427
1364.000000	69.551449
1365.000000	69.507755
1366.000000	69.515564
1367.000000	69.740252
1368.000000	69.886134
1369.000000	69.925098
1370.000000	69.912635
1371.000000	69.897123
1372.000000	69.934255
1373.000000	69.956031
1374.000000	69.939002
1375.000000	69.958269
1376.000000	69.987551
1377.000000	70.008086
1378.000000	70.188235
1379.000000	70.125438
1380.000000	70.240887
1381.000000	70.297838
1382.000000	70.585952
1383.000000	70.680765
1384.000000	70.673477
1385.000000	70.725829
1386.000000	70.717663
1387.000000	70.899015
1388.000000	70.833743
1389.000000	70.765597
1390.000000	70.611014
1391.000000	70.648607
1392.000000	70.512317
1393.000000	70.463675
1394.000000	70.455615
1395.000000	70.461680
1396.000000	70.520541
1397.000000	70.706725
1398.000000	70.782985
1399.000000	70.568670
1400.000000	70.860554
1401.000000	70.931186
1402.000000	70.689998
1403.000000	70.523216
1404.000000	70.376886
1405.000000	70.292362
1406.000000	70.297045
1407.000000	70.238315
1408.000000	70.205427
1409.000000	70.275588
1410.000000	70.256843
1411.000000	70.209907
1412.000000	70.133346
1413.000000	69.933217
1414.000000	69.995317
1415.000000	69.811618
1416.000000	69.768655
1417.000000	69.470356
1418.000000	69.305791
1419.000000	69.271124
1420.000000	69.235634
1421.000000	69.232171
1422.000000	69.122806
1423.000000	69.187918
1424.000000	69.144269
1425.000000	69.143883
1426.000000	69.069810
1427.000000	69.092693
1428.000000	69.076655
1429.000000	69.033926
1430.000000	68.935527
1431.000000	68.902553
1432.000000	68.944332
1433.000000	68.943188
1434.000000	68.843528
1435.000000	68.539902
1436.000000	68.410331
1437.000000	68.402352
1438.000000	68.396405
1439.000000	68.502907
1440.000000	68.559510
1441.000000	68.562695
1442.000000	68.532342
1443.000000	68.495670
1444.000000	68.412175
1445.000000	68.426904
1446.000000	68.405100
1447.000000	68.419375
1448.000000	68.392671
1449.000000	68.339089
1450.000000	68.362556
1451.000000	68.322520
1452.000000	68.266905
1453.000000	68.282463
1454.000000	68.286824
1455.000000	68.263135
1456.000000	68.228439
1457.000000	68.207230
1458.000000	68.214125
1459.000000	68.203760
1460.000000	68.172034
1461.000000	68.172582
1462.000000	68.164163
1463.000000	68.176072
1464.000000	68.171073
1465.000000	68.139592
1466.000000	68.083431
1467.000000	68.012941
1468.000000	67.996957
1469.000000	68.002224
1470.000000	68.022846
1471.000000	68.021395
1472.000000	68.042159
1473.000000	68.034483
1474.000000	67.986292
1475.000000	67.976370
1476.000000	67.921314
1477.000000	67.910675
1478.000000	67.890166
1479.000000	67.867176
1480.000000	67.812930
1481.000000	67.794714
1482.000000	67.800094
1483.000000	67.795872
1484.000000	67.798606
1485.000000	67.781696
1486.000000	67.792978
1487.000000	67.795007
1488.000000	67.787050
1489.000000	67.771969
1490.000000	67.731232
1491.000000	67.725022
1492.000000	67.730509
1493.000000	67.731591
1494.000000	67.728299
1495.000000	67.722001
1496.000000	67.712834
1497.000000	67.712591
1498.000000	67.717446
1499.000000	67.736794
1500.000000	67.762890
1501.000000	67.774078
1502.000000	67.788629
1503.000000	67.779372
1504.000000	67.746931
1505.000000	67.735251
1506.000000	67.753302
1507.000000	67.735982
1508.000000	67.740064
1509.000000	67.746958
1510.000000	67.749284
1511.000000	67.775545
1512.000000	67.812579
1513.000000	67.846067
1514.000000	67.860480
1515.000000	67.865814
1516.000000	67.894050
1517.000000	67.909576
1518.000000	67.921896
1519.000000	67.925318
1520.000000	67.937571
1521.000000	67.965113
1522.000000	67.981080
1523.000000	67.997232
1524.000000	68.030997
1525.000000	68.083388
1526.000000	68.128582
1527.000000	68.146031
1528.000000	68.155919
1529.000000	68.182380
1530.000000	68.196681
1531.000000	68.224031
1532.000000	68.262913
1533.000000	68.294578
1534.000000	68.313356
1535.000000	68.330182
1536.000000	68.360567
1537.000000	68.393937
1538.000000	68.430678
1539.000000	68.478195
1540.000000	68.513023
1541.000000	68.532217
1542.000000	68.550024
1543.000000	68.582750
1544.000000	68.613574
1545.000000	68.650923
1546.000000	68.682175
1547.000000	68.701179
1548.000000	68.732400
1549.000000	68.766818
1550.000000	68.805682
1551.000000	68.847401
1552.000000	68.884291
1553.000000	68.925618
1554.000000	68.976356
1555.000000	69.010825
1556.000000	69.031243
1557.000000	69.059091
1558.000000	69.097490
1559.000000	69.125450
1560.000000	69.150952
1561.000000	69.188626
1562.000000	69.233706
1563.000000	69.269800
1564.000000	69.282217
1565.000000	69.290624
1566.000000	69.322551
1567.000000	69.354599
1568.000000	69.379002
1569.000000	69.406367
1570.000000	69.436988
1571.000000	69.453792
1572.000000	69.472272
1573.000000	69.488348
1574.000000	69.497976
1575.000000	69.528537
1576.000000	69.541657
1577.000000	69.555319
1578.000000	69.573439
1579.000000	69.595857
1580.000000	69.606987
1581.000000	69.621921
1582.000000	69.626172
1583.000000	69.642494
1584.000000	69.642802
1585.000000	69.660343
1586.000000	69.665813
1587.000000	69.657935
1588.000000	69.670928
1589.000000	69.683872
1590.000000	69.696869
1591.000000	69.726418
1592.000000	69.737047
1593.000000	69.740224
1594.000000	69.746996
1595.000000	69.752337
1596.000000	69.753674
1597.000000	69.763570
1598.000000	69.773311
1599.000000	69.797513
1600.000000	69.814806
1601.000000	69.825603
1602.000000	69.846981
1603.000000	69.853786
1604.000000	69.871383
1605.000000	69.873365
1606.000000	69.881291
1607.000000	69.894023
1608.000000	69.924554
1609.000000	69.933534
1610.000000	69.948845
1611.000000	69.973667
1612.000000	69.990764
1613.000000	70.015058
1614.000000	70.042502
1615.000000	70.076760
1616.000000	70.107720
1617.000000	70.138883
1618.000000	70.155424
1619.000000	70.185861
1620.000000	70.208191
1621.000000	70.237344
1622.000000	70.260368
1623.000000	70.270640
1624.000000	70.291313
1625.000000	70.307746
1626.000000	70.309608
1627.000000	70.339908
1628.000000	70.373024
1629.000000	70.377829
1630.000000	70.382574
1631.000000	70.406099
1632.000000	70.434990
1633.000000	70.487513
1634.000000	70.501688
1635.000000	70.540365
1636.000000	70.565048
1637.000000	70.568122
1638.000000	70.593687
1639.000000	70.591258
1640.000000	70.607250
1641.000000	70.622460
1642.000000	70.647003
1643.000000	70.655006
1644.000000	70.679628
1645.000000	70.671953
1646.000000	70.691456
1647.000000	70.720389
1648.000000	70.718536
1649.000000	70.732610
1650.000000	70.732525
1651.000000	70.736868
1652.000000	70.767886
1653.000000	70.765098
1654.000000	70.775148
1655.000000	70.773298
1656.000000	70.784634
1657.000000	70.794398
1658.000000	70.805758
1659.000000	70.807858
1660.000000	70.804782
1661.000000	70.829641
1662.000000	70.828519
1663.000000	70.821022
1664.000000	70.846284
1665.000000	70.866357
1666.000000	70.870207
1667.000000	70.875127
1668.000000	70.829617
1669.000000	70.853840
1670.000000	70.835851
1671.000000	70.822882
1672.000000	70.810946
1673.000000	70.814485
1674.000000	70.808053
1675.000000	70.784670
1676.000000	70.771791
1677.000000	70.767421
1678.000000	70.743365
1679.000000	70.748693
1680.000000	70.757565
1681.000000	70.754378
1682.000000	70.735068
1683.000000	70.724864
1684.000000	70.693015
1685.000000	70.667176
1686.000000	70.619862
1687.000000	70.585821
1688.000000	70.568641
1689.000000	70.546187
1690.000000	70.550640
1691.000000	70.524428
1692.000000	70.513498
1693.000000	70.477473
1694.000000	70.446371
1695.000000	70.424934
1696.000000	70.399269
1697.000000	70.374726
1698.000000	70.356555
1699.000000	70.341168
1700.000000	70.308823
1701.000000	70.276087
1702.000000	70.261662
1703.000000	70.267271
1704.000000	70.222879
1705.000000	70.207184
1706.000000	70.194635
1707.000000	70.204471
1708.000000	70.187142
1709.000000	70.189470
1710.000000	70.189044
1711.000000	70.187262
1712.000000	70.177967
1713.000000	70.172134
1714.000000	70.146162
1715.000000	70.122299
1716.000000	70.091532
1717.000000	70.077360
1718.000000	70.063181
1719.000000	70.047151
1720.000000	70.016182
1721.000000	70.017316
1722.000000	69.994806
1723.000000	69.988124
1724.000000	69.974858
1725.000000	69.957109
1726.000000	69.937001
1727.000000	69.898868
1728.000000	69.892798
1729.000000	69.899043
1730.000000	69.901204
1731.000000	69.884226
1732.000000	69.883795
1733.000000	69.876794
1734.000000	69.831511
1735.000000	69.822029
1736.000000	69.830166
1737.000000	69.804604
1738.000000	69.799809
1739.000000	69.800051
1740.000000	69.797188
1741.000000	69.805075
1742.000000	69.789802
1743.000000	69.774288
1744.000000	69.779257
1745.000000	69.784032
1746.000000	69.780409
1747.000000	69.765761
1748.000000	69.777578
1749.000000	69.801088
1750.000000	69.828645
1751.000000	69.866902
1752.000000	69.892320
1753.000000	69.919832
1754.000000	69.953321
1755.000000	70.003890
1756.000000	70.036622
1757.000000	70.068958
1758.000000	70.094284
1759.000000	70.107947
1760.000000	70.101412
1761.000000	70.123951
1762.000000	70.164725
1763.000000	70.196230
1764.000000	70.204803
1765.000000	70.216505
1766.000000	70.233064
1767.000000	70.249571
1768.000000	70.265250
1769.000000	70.293546
1770.000000	70.314432
1771.000000	70.312249
1772.000000	70.325759
1773.000000	70.347505
1774.000000	70.378741
1775.000000	70.402529
1776.000000	70.403731
1777.000000	70.415517
1778.000000	70.447448
1779.000000	70.461238
1780.000000	70.480377
1781.000000	70.503838
1782.000000	70.528675
1783.000000	70.548149
1784.000000	70.545208
1785.000000	70.534921
1786.000000	70.519567
1787.000000	70.523635
1788.000000	70.535499
1789.000000	70.547028
1790.000000	70.543248
1791.000000	70.544093
1792.000000	70.547508
1793.000000	70.556117
1794.000000	70.587578
1795.000000	70.630941
1796.000000	70.650163
1797.000000	70.669027
1798.000000	70.681204
1799.000000	70.687198
1800.000000	70.714311
1801.000000	70.772895
1802.000000	70.819099
1803.000000	70.830866
1804.000000	70.850678
1805.000000	70.897917
1806.000000	70.956137
1807.000000	70.966952
1808.000000	70.963325
1809.000000	70.968721
1810.000000	71.009780
1811.000000	71.087057
1812.000000	71.142197
1813.000000	71.162404
1814.000000	71.161366
1815.000000	71.141240
1816.000000	71.170213
1817.000000	71.269215
1818.000000	71.324659
1819.000000	71.372261
1820.000000	71.373336
1821.000000	71.396093
1822.000000	71.436173
1823.000000	71.501323
1824.000000	71.562037
1825.000000	71.713546
1826.000000	71.782620
1827.000000	71.816007
1828.000000	71.881283
1829.000000	71.931221
1830.000000	72.058408
1831.000000	72.104204
1832.000000	72.094487
1833.000000	72.120127
1834.000000	72.203161
1835.000000	72.280650
1836.000000	72.211177
1837.000000	72.154972
1838.000000	72.133869
1839.000000	72.171579
1840.000000	72.134935
1841.000000	72.196031
1842.000000	72.222363
1843.000000	72.255627
1844.000000	72.295668
1845.000000	72.274897
1846.000000	72.296428
1847.000000	72.373598
1848.000000	72.386624
1849.000000	72.373552
1850.000000	72.385661
1851.000000	72.376647
1852.000000	72.350149
1853.000000	72.454031
1854.000000	72.489226
1855.000000	72.515727
1856.000000	72.427276
1857.000000	72.331794
1858.000000	72.224823
1859.000000	72.147231
1860.000000	72.013242
1861.000000	71.983753
1862.000000	71.997462
1863.000000	72.084968
1864.000000	72.116415
1865.000000	72.007365
1866.000000	71.938164
1867.000000	71.915679
1868.000000	71.854050
1869.000000	71.792167
1870.000000	71.993035
1871.000000	72.085733
1872.000000	72.220381
1873.000000	72.273289
1874.000000	72.248632
1875.000000	72.237515
1876.000000	72.259224
1877.000000	72.251891
1878.000000	72.208859
1879.000000	72.144133
1880.000000	72.165911
1881.000000	72.077305
1882.000000	71.930851
1883.000000	71.936848
1884.000000	71.903628
1885.000000	71.886863
1886.000000	71.893628
1887.000000	71.818923
1888.000000	71.605889
1889.000000	71.502788
1890.000000	71.401329
1891.000000	71.436877
1892.000000	71.391697
1893.000000	71.429764
1894.000000	71.369546
1895.000000	71.273994
1896.000000	71.148417
1897.000000	71.041047
1898.000000	70.792149
1899.000000	70.595033
1900.000000	70.430500
1901.000000	70.323657
1902.000000	70.487907
1903.000000	70.375615
1904.000000	70.180539
1905.000000	69.692813
1906.000000	69.542434
1907.000000	69.250352
1908.000000	69.045569
1909.000000	68.842900
1910.000000	68.616449
1911.000000	68.255724
1912.000000	67.986102
1913.000000	67.836541
1914.000000	67.631642
1915.000000	67.380096
1916.000000	67.130156
1917.000000	66.925094
1918.000000	66.641922
1919.000000	66.505000
1920.000000	66.387362
1921.000000	66.093991
1922.000000	65.847026
1923.000000	65.652924
1924.000000	65.380891
1925.000000	65.199730
1926.000000	65.000249
1927.000000	64.784735
1928.000000	64.539620
1929.000000	64.331815
1930.000000	64.159605
1931.000000	63.974811
1932.000000	63.769902
1933.000000	63.604080
1934.000000	63.410231
1935.000000	63.262980
1936.000000	63.128125
1937.000000	62.727859
1938.000000	62.597692
1939.000000	62.508484
1940.000000	62.452458
1941.000000	62.260254
1942.000000	62.179170
1943.000000	62.097679
1944.000000	62.061710
1945.000000	62.034852
1946.000000	62.000200
1947.000000	62.000863
1948.000000	61.890735
1949.000000	61.855134
1950.000000	61.831769
1951.000000	61.837692
1952.000000	61.825719
1953.000000	61.807440
1954.000000	61.747419
1955.000000	61.676153
1956.000000	61.710845
1957.000000	61.739402
1958.000000	61.758979
1959.000000	61.834918
1960.000000	61.887774
1961.000000	61.882031
1962.000000	61.975456
1963.000000	62.008799
1964.000000	62.073087
1965.000000	62.129346
1966.000000	62.208469
1967.000000	62.280249
1968.000000	62.334336
1969.000000	62.437293
1970.000000	62.524632
1971.000000	62.599458
1972.000000	62.683927
1973.000000	62.776433
1974.000000	62.859883
1975.000000	62.936658
1976.000000	63.035042
1977.000000	63.126153
1978.000000	63.201320
1979.000000	63.264359
1980.000000	63.361728
1981.000000	63.464748
1982.000000	63.542097
1983.000000	63.647211
1984.000000	63.739706
1985.000000	63.836854
1986.000000	63.928850
1987.000000	64.018954
1988.000000	64.131201
1989.000000	64.233444
1990.000000	64.320201
1991.000000	64.417154
1992.000000	64.507108
1993.000000	64.589954
1994.000000	64.675207
1995.000000	64.727494
1996.000000	64.836907
1997.000000	64.932226
1998.000000	65.018384
1999.000000	65.101516
2000.000000	65.176154
