PE UV       SUBTECH     SPECTRUM    ASCII       PEDS        4.00        
   -1
CICIMAUCR0001-1.Sample.ASC
24/04/11
15:31:38.00
24/04/11
15:31:38.00
Vinicio Soto Monge
C. kalinini
250,000000
1
Lambda 1050
1050L1511233
PerkinElmer UV WinLab 6.3.2.0749 / 2.02.05 Lambda 900 UV/VIS/NIR, Aug  7 2015 09:38:08

0
0
3350/2 860,8/2
0
0
UV/VIS
1
1
1
DoubleDePol,CommonBeamDepol,RBeamAtt,SBeamAtt,60mm sphere, WB InGaAs Detector
0
0
0
0
Program
Program
3350/2 860,8/2
3350/0,2 860,8/0,2
3350/0,2 860,8/0,2
0
15.00
 
 
 
0
 
860,8
319,2
860,8
Front
100
on
S:100 R:100
0
0
0
0
 
0
 
 
 
0
 
 
0
0
0
0
0
 
 
 
 
0
0


0
0
#HDR
-1
-1
#GR
nm
%R
1.0
0.0
2400,000000
-1,000000
2151
8
18,022800
1,427300
#DATA
2382.000000	8.505593
2381.000000	6.199105
2380.000000	6.446822
2379.000000	6.236026
2378.000000	7.018881
2377.000000	7.650857
2376.000000	6.841911
2375.000000	7.114894
2374.000000	7.697987
2373.000000	7.715829
2372.000000	7.315893
2371.000000	7.417269
2370.000000	7.597849
2369.000000	7.185847
2368.000000	7.532980
2367.000000	7.221324
2366.000000	7.571551
2365.000000	7.111078
2364.000000	7.559382
2363.000000	7.661067
2362.000000	7.206885
2361.000000	6.798184
2360.000000	7.653848
2359.000000	6.606157
2358.000000	7.471928
2357.000000	7.586092
2356.000000	7.273507
2355.000000	6.872437
2354.000000	7.393962
2353.000000	7.394684
2352.000000	6.810972
2351.000000	6.784571
2350.000000	6.797462
2349.000000	6.571918
2348.000000	6.889763
2347.000000	7.470072
2346.000000	6.627917
2345.000000	6.955456
2344.000000	7.346626
2343.000000	6.515816
2342.000000	6.790862
2341.000000	7.502454
2340.000000	7.099115
2339.000000	7.126238
2338.000000	6.260570
2337.000000	6.426609
2336.000000	6.609045
2335.000000	6.653081
2334.000000	6.823038
2333.000000	6.343074
2332.000000	6.334411
2331.000000	6.528191
2330.000000	6.540051
2329.000000	6.497459
2328.000000	6.794987
2327.000000	6.414336
2326.000000	6.232107
2325.000000	6.565833
2324.000000	6.696395
2323.000000	6.982476
2322.000000	6.633074
2321.000000	6.094429
2320.000000	6.386388
2319.000000	6.643593
2318.000000	6.540567
2317.000000	6.462085
2316.000000	6.470851
2315.000000	6.436097
2314.000000	5.886933
2313.000000	5.725742
2312.000000	6.330802
2311.000000	6.342146
2310.000000	6.419905
2309.000000	6.253661
2308.000000	6.489414
2307.000000	6.818810
2306.000000	6.631836
2305.000000	6.442903
2304.000000	6.375869
2303.000000	5.959639
2302.000000	5.720998
2301.000000	6.010379
2300.000000	6.399383
2299.000000	6.157338
2298.000000	5.879198
2297.000000	6.037399
2296.000000	6.298831
2295.000000	6.214781
2294.000000	6.198590
2293.000000	6.557583
2292.000000	6.601207
2291.000000	6.175386
2290.000000	6.060706
2289.000000	5.867648
2288.000000	5.821343
2287.000000	6.037192
2286.000000	6.269130
2285.000000	6.261086
2284.000000	6.145066
2283.000000	5.994290
2282.000000	5.891058
2281.000000	6.012751
2280.000000	5.904671
2279.000000	5.546503
2278.000000	5.644888
2277.000000	5.897658
2276.000000	5.787207
2275.000000	5.950460
2274.000000	6.049465
2273.000000	5.756371
2272.000000	6.083394
2271.000000	6.196733
2270.000000	5.768437
2269.000000	5.368811
2268.000000	5.436361
2267.000000	5.590230
2266.000000	5.773491
2265.000000	6.038224
2264.000000	5.902608
2263.000000	6.236541
2262.000000	6.003469
2261.000000	5.881570
2260.000000	5.949945
2259.000000	5.908796
2258.000000	6.097007
2257.000000	6.332348
2256.000000	6.387832
2255.000000	6.208181
2254.000000	6.122893
2253.000000	5.983771
2252.000000	5.978821
2251.000000	6.101854
2250.000000	6.302132
2249.000000	6.093810
2248.000000	6.306257
2247.000000	6.487249
2246.000000	6.370197
2245.000000	6.610591
2244.000000	6.528604
2243.000000	6.350087
2242.000000	6.382057
2241.000000	6.400930
2240.000000	6.652565
2239.000000	6.643077
2238.000000	6.716196
2237.000000	7.017540
2236.000000	6.808290
2235.000000	6.458063
2234.000000	6.484155
2233.000000	6.429084
2232.000000	6.489002
2231.000000	6.408355
2230.000000	6.258714
2229.000000	6.541392
2228.000000	6.847273
2227.000000	6.630908
2226.000000	6.540051
2225.000000	6.525819
2224.000000	6.348643
2223.000000	6.327914
2222.000000	6.239223
2221.000000	6.491683
2220.000000	6.483330
2219.000000	5.817424
2218.000000	6.232932
2217.000000	6.434343
2216.000000	6.273462
2215.000000	6.063800
2214.000000	6.209831
2213.000000	6.413614
2212.000000	6.118458
2211.000000	6.223960
2210.000000	5.911993
2209.000000	6.331730
2208.000000	6.265108
2207.000000	6.114333
2206.000000	6.091748
2205.000000	5.980574
2204.000000	6.113199
2203.000000	6.169817
2202.000000	6.148366
2201.000000	5.932619
2200.000000	5.888480
2199.000000	5.751318
2198.000000	5.873320
2197.000000	5.871979
2196.000000	5.741417
2195.000000	5.831965
2194.000000	5.976965
2193.000000	5.849600
2192.000000	5.971499
2191.000000	6.177345
2190.000000	6.250361
2189.000000	6.004500
2188.000000	6.064315
2187.000000	6.085972
2186.000000	6.078032
2185.000000	5.867544
2184.000000	5.946851
2183.000000	5.754721
2182.000000	5.724298
2181.000000	5.799789
2180.000000	5.698000
2179.000000	6.084322
2178.000000	5.975521
2177.000000	5.436361
2176.000000	5.913540
2175.000000	5.886727
2174.000000	5.753690
2173.000000	5.606318
2172.000000	6.068028
2171.000000	5.609721
2170.000000	5.581773
2169.000000	6.065243
2168.000000	6.080403
2167.000000	6.149810
2166.000000	5.828458
2165.000000	5.695628
2164.000000	6.272121
2163.000000	6.638746
2162.000000	5.820414
2161.000000	6.298935
2160.000000	6.268511
2159.000000	6.084941
2158.000000	5.826293
2157.000000	6.088757
2156.000000	6.607188
2155.000000	6.201477
2154.000000	6.503234
2153.000000	6.270471
2152.000000	6.358337
2151.000000	6.447235
2150.000000	6.822832
2149.000000	6.628536
2148.000000	6.175386
2147.000000	7.058276
2146.000000	6.593781
2145.000000	6.594091
2144.000000	6.505915
2143.000000	6.353387
2142.000000	6.369578
2141.000000	6.909151
2140.000000	6.819841
2139.000000	6.659990
2138.000000	6.486011
2137.000000	7.586917
2136.000000	6.791171
2135.000000	6.280578
2134.000000	6.738678
2133.000000	7.017127
2132.000000	6.364112
2131.000000	6.797256
2130.000000	6.483742
2129.000000	6.434550
2128.000000	6.371744
2127.000000	6.696395
2126.000000	6.412686
2125.000000	6.976288
2124.000000	6.427021
2123.000000	6.640808
2122.000000	6.216844
2121.000000	6.395257
2120.000000	6.514784
2119.000000	6.796740
2118.000000	6.910079
2117.000000	6.233654
2116.000000	6.533348
2115.000000	6.909254
2114.000000	6.717330
2113.000000	6.308629
2112.000000	6.468479
2111.000000	6.465798
2110.000000	6.622348
2109.000000	6.849233
2108.000000	6.489930
2107.000000	6.808703
2106.000000	6.718980
2105.000000	6.823244
2104.000000	6.483949
2103.000000	6.813447
2102.000000	6.808497
2101.000000	6.742494
2100.000000	6.833867
2099.000000	6.614098
2098.000000	6.620079
2097.000000	6.283981
2096.000000	6.371847
2095.000000	6.702480
2094.000000	6.765801
2093.000000	6.535410
2092.000000	6.329151
2091.000000	6.543145
2090.000000	6.526232
2089.000000	6.613376
2088.000000	6.522932
2087.000000	6.390101
2086.000000	6.493333
2085.000000	6.553664
2084.000000	6.808394
2083.000000	6.588522
2082.000000	6.371641
2081.000000	6.614923
2080.000000	6.513444
2079.000000	6.550880
2078.000000	6.458682
2077.000000	6.335958
2076.000000	6.159194
2075.000000	6.197662
2074.000000	6.297078
2073.000000	6.213956
2072.000000	6.232829
2071.000000	6.175695
2070.000000	6.051115
2069.000000	6.144241
2068.000000	6.324098
2067.000000	6.223960
2066.000000	5.975418
2065.000000	5.864863
2064.000000	5.705631
2063.000000	5.809070
2062.000000	6.032758
2061.000000	5.910653
2060.000000	5.765550
2059.000000	5.797417
2058.000000	5.983359
2057.000000	5.975108
2056.000000	5.864863
2055.000000	5.801026
2054.000000	5.735951
2053.000000	5.704394
2052.000000	5.779266
2051.000000	5.963661
2050.000000	5.853622
2049.000000	5.764621
2048.000000	5.744924
2047.000000	5.764003
2046.000000	5.905599
2045.000000	5.919625
2044.000000	5.778750
2043.000000	5.913437
2042.000000	6.038533
2041.000000	5.972530
2040.000000	6.016257
2039.000000	6.043174
2038.000000	6.067512
2037.000000	6.050393
2036.000000	6.132587
2035.000000	6.200962
2034.000000	6.125574
2033.000000	6.287075
2032.000000	6.251908
2031.000000	6.158885
2030.000000	6.346993
2029.000000	6.285115
2028.000000	6.212100
2027.000000	6.256858
2026.000000	6.378757
2025.000000	6.268408
2024.000000	6.142797
2023.000000	6.196424
2022.000000	6.280474
2021.000000	6.252733
2020.000000	6.375353
2019.000000	6.373703
2018.000000	6.344208
2017.000000	6.411655
2016.000000	6.401033
2015.000000	6.355862
2014.000000	6.346271
2013.000000	6.461673
2012.000000	6.404023
2011.000000	6.337402
2010.000000	6.390410
2009.000000	6.365453
2008.000000	6.371331
2007.000000	6.331523
2006.000000	6.274493
2005.000000	6.282124
2004.000000	6.264902
2003.000000	6.161566
2002.000000	6.224269
2001.000000	6.238604
2000.000000	6.061428
1999.000000	6.029458
1998.000000	6.054931
1997.000000	6.023579
1996.000000	5.994497
1995.000000	6.069575
1994.000000	6.050290
1993.000000	5.971911
1992.000000	6.016876
1991.000000	5.949120
1990.000000	5.871670
1989.000000	5.873217
1988.000000	5.892296
1987.000000	5.815774
1986.000000	5.697794
1985.000000	5.655820
1984.000000	5.710994
1983.000000	5.762043
1982.000000	5.665617
1981.000000	5.570326
1980.000000	5.566613
1979.000000	5.568263
1978.000000	5.519070
1977.000000	5.473797
1976.000000	5.397893
1975.000000	5.447911
1974.000000	5.494526
1973.000000	5.460699
1972.000000	5.441620
1971.000000	5.412641
1970.000000	5.332406
1969.000000	5.228039
1968.000000	5.279810
1967.000000	5.252481
1966.000000	5.200504
1965.000000	5.193594
1964.000000	5.131820
1963.000000	5.062001
1962.000000	5.077161
1961.000000	5.102737
1960.000000	5.075099
1959.000000	5.098303
1958.000000	5.083761
1957.000000	5.001877
1956.000000	4.968153
1955.000000	4.928345
1954.000000	4.955675
1953.000000	4.878431
1952.000000	4.899882
1951.000000	4.844914
1950.000000	4.853267
1949.000000	4.798403
1948.000000	4.780974
1947.000000	4.787161
1946.000000	4.820163
1945.000000	4.769939
1944.000000	4.757460
1943.000000	4.730853
1942.000000	4.783139
1941.000000	4.680835
1940.000000	4.780252
1939.000000	4.869871
1938.000000	4.822844
1937.000000	4.777570
1936.000000	4.755707
1935.000000	4.772208
1934.000000	4.715899
1933.000000	4.787471
1932.000000	4.731472
1931.000000	4.725078
1930.000000	4.836148
1929.000000	4.779839
1928.000000	4.827691
1927.000000	4.910401
1926.000000	4.986407
1925.000000	4.898438
1924.000000	4.976816
1923.000000	5.033847
1922.000000	4.926695
1921.000000	4.980426
1920.000000	5.232268
1919.000000	5.369636
1918.000000	5.213704
1917.000000	5.170493
1916.000000	5.255162
1915.000000	5.448324
1914.000000	5.480706
1913.000000	5.612093
1912.000000	5.707900
1911.000000	5.819899
1910.000000	5.834543
1909.000000	5.858469
1908.000000	5.806595
1907.000000	5.992744
1906.000000	6.289344
1905.000000	6.468376
1904.000000	6.596050
1903.000000	6.578931
1902.000000	6.752291
1901.000000	6.596050
1900.000000	6.757654
1899.000000	7.181928
1898.000000	7.304755
1897.000000	7.435833
1896.000000	7.542262
1895.000000	7.525246
1894.000000	7.767187
1893.000000	7.985615
1892.000000	8.168051
1891.000000	8.151344
1890.000000	8.311195
1889.000000	8.713811
1888.000000	8.778783
1887.000000	8.778061
1886.000000	9.040525
1885.000000	9.051354
1884.000000	9.208420
1883.000000	9.556585
1882.000000	9.455827
1881.000000	9.661880
1880.000000	9.755005
1879.000000	9.874532
1878.000000	9.654867
1877.000000	10.009632
1876.000000	10.281893
1875.000000	10.297466
1874.000000	10.075738
1873.000000	10.485986
1872.000000	10.618714
1871.000000	10.561889
1870.000000	11.025765
1869.000000	10.850445
1868.000000	10.614073
1867.000000	10.939859
1866.000000	11.055054
1865.000000	10.572718
1864.000000	10.693998
1863.000000	10.913354
1862.000000	10.745872
1861.000000	10.641402
1860.000000	10.658522
1859.000000	11.193969
1858.000000	10.991423
1857.000000	10.648106
1856.000000	11.089912
1855.000000	10.871896
1854.000000	10.638618
1853.000000	11.136939
1852.000000	11.257703
1851.000000	10.867874
1850.000000	10.847764
1849.000000	10.705652
1848.000000	10.754741
1847.000000	11.319065
1846.000000	11.410335
1845.000000	11.112085
1844.000000	10.883344
1843.000000	10.603760
1842.000000	10.794549
1841.000000	11.126626
1840.000000	11.084240
1839.000000	10.958937
1838.000000	10.802697
1837.000000	10.871793
1836.000000	11.052785
1835.000000	11.042782
1834.000000	10.999261
1833.000000	10.808575
1832.000000	10.767839
1831.000000	10.853436
1830.000000	10.913457
1829.000000	10.821363
1828.000000	10.898194
1827.000000	10.764539
1826.000000	10.811669
1825.000000	10.956669
1824.000000	10.805378
1823.000000	10.643980
1822.000000	10.665947
1821.000000	10.695958
1820.000000	10.999983
1819.000000	10.998230
1818.000000	10.841370
1817.000000	10.765261
1816.000000	10.705136
1815.000000	10.887159
1814.000000	10.860346
1813.000000	10.688017
1812.000000	10.786815
1811.000000	10.756495
1810.000000	10.808472
1809.000000	10.770623
1808.000000	10.710086
1807.000000	10.685954
1806.000000	10.749276
1805.000000	10.750513
1804.000000	10.686057
1803.000000	10.599532
1802.000000	10.614692
1801.000000	10.678838
1800.000000	10.711118
1799.000000	10.717512
1798.000000	10.663678
1797.000000	10.635214
1796.000000	10.627377
1795.000000	10.651921
1794.000000	10.661822
1793.000000	10.626552
1792.000000	10.601182
1791.000000	10.583444
1790.000000	10.595922
1789.000000	10.587878
1788.000000	10.593550
1787.000000	10.641505
1786.000000	10.620467
1785.000000	10.628511
1784.000000	10.661925
1783.000000	10.637483
1782.000000	10.603038
1781.000000	10.603347
1780.000000	10.588806
1779.000000	10.535282
1778.000000	10.545698
1777.000000	10.564983
1776.000000	10.579215
1775.000000	10.606441
1774.000000	10.549514
1773.000000	10.519710
1772.000000	10.507334
1771.000000	10.497743
1770.000000	10.488049
1769.000000	10.487430
1768.000000	10.476189
1767.000000	10.499187
1766.000000	10.483821
1765.000000	10.533116
1764.000000	10.512387
1763.000000	10.439269
1762.000000	10.438753
1761.000000	10.508881
1760.000000	10.493308
1759.000000	10.446178
1758.000000	10.419055
1757.000000	10.398429
1756.000000	10.402864
1755.000000	10.401008
1754.000000	10.449272
1753.000000	10.447107
1752.000000	10.433493
1751.000000	10.444838
1750.000000	10.438134
1749.000000	10.428337
1748.000000	10.415240
1747.000000	10.376669
1746.000000	10.362231
1745.000000	10.367800
1744.000000	10.334283
1743.000000	10.299322
1742.000000	10.268899
1741.000000	10.277252
1740.000000	10.262917
1739.000000	10.234454
1738.000000	10.234763
1737.000000	10.220119
1736.000000	10.199080
1735.000000	10.188767
1734.000000	10.181136
1733.000000	10.172886
1732.000000	10.151022
1731.000000	10.151641
1730.000000	10.160613
1729.000000	10.121733
1728.000000	10.082441
1727.000000	10.066765
1726.000000	10.077388
1725.000000	10.099354
1724.000000	10.101314
1723.000000	10.092445
1722.000000	10.077697
1721.000000	10.119052
1720.000000	10.209806
1719.000000	10.232391
1718.000000	10.313657
1717.000000	10.395542
1716.000000	10.462679
1715.000000	10.511150
1714.000000	10.521772
1713.000000	10.573956
1712.000000	10.617992
1711.000000	10.670691
1710.000000	10.705961
1709.000000	10.750101
1708.000000	10.828273
1707.000000	10.841783
1706.000000	10.834667
1705.000000	10.859005
1704.000000	10.886644
1703.000000	10.877981
1702.000000	10.856014
1701.000000	10.869731
1700.000000	10.869834
1699.000000	10.898091
1698.000000	10.929442
1697.000000	10.908713
1696.000000	10.907785
1695.000000	10.899329
1694.000000	10.891182
1693.000000	10.843123
1692.000000	10.812906
1691.000000	10.767323
1690.000000	10.816516
1689.000000	10.805894
1688.000000	10.795477
1687.000000	10.780008
1686.000000	10.766911
1685.000000	10.850445
1684.000000	10.875300
1683.000000	10.975129
1682.000000	11.019268
1681.000000	11.057839
1680.000000	11.091046
1679.000000	11.139311
1678.000000	11.209851
1677.000000	11.286270
1676.000000	11.311124
1675.000000	11.344744
1674.000000	11.361864
1673.000000	11.436323
1672.000000	11.486857
1671.000000	11.512020
1670.000000	11.575548
1669.000000	11.647532
1668.000000	11.696622
1667.000000	11.725085
1666.000000	11.802432
1665.000000	11.814292
1664.000000	11.843684
1663.000000	11.824296
1662.000000	11.864826
1661.000000	11.941554
1660.000000	11.969605
1659.000000	11.998172
1658.000000	12.008382
1657.000000	12.068919
1656.000000	12.059534
1655.000000	12.064278
1654.000000	12.067784
1653.000000	12.097795
1652.000000	12.098001
1651.000000	12.093567
1650.000000	12.100476
1649.000000	12.158022
1648.000000	12.134509
1647.000000	12.056853
1646.000000	12.042930
1645.000000	12.057987
1644.000000	12.097486
1643.000000	12.038908
1642.000000	12.067681
1641.000000	12.041383
1640.000000	12.046437
1639.000000	12.046540
1638.000000	12.021067
1637.000000	12.033648
1636.000000	12.012919
1635.000000	12.006113
1634.000000	12.011063
1633.000000	12.008382
1632.000000	12.034680
1631.000000	12.033545
1630.000000	12.013538
1629.000000	12.001060
1628.000000	11.977752
1627.000000	11.942998
1626.000000	11.976205
1625.000000	11.929385
1624.000000	11.905356
1623.000000	11.895868
1622.000000	11.910409
1621.000000	11.857091
1620.000000	11.868435
1619.000000	11.896486
1618.000000	11.879676
1617.000000	11.903912
1616.000000	11.865651
1615.000000	11.857710
1614.000000	11.870910
1613.000000	11.829762
1612.000000	11.811714
1611.000000	11.825843
1610.000000	11.787891
1609.000000	11.790057
1608.000000	11.758293
1607.000000	11.756437
1606.000000	11.721785
1605.000000	11.717970
1604.000000	11.716216
1603.000000	11.741896
1602.000000	11.651142
1601.000000	11.653823
1600.000000	11.665992
1599.000000	11.606384
1598.000000	11.582251
1597.000000	11.580395
1596.000000	11.564719
1595.000000	11.484897
1594.000000	11.483144
1593.000000	11.455712
1592.000000	11.465612
1591.000000	11.457774
1590.000000	11.447564
1589.000000	11.429001
1588.000000	11.425907
1587.000000	11.422091
1586.000000	11.409716
1585.000000	11.407447
1584.000000	11.384449
1583.000000	11.364133
1582.000000	11.319478
1581.000000	11.306690
1580.000000	11.301636
1579.000000	11.307412
1578.000000	11.330203
1577.000000	11.358357
1576.000000	11.328450
1575.000000	11.354645
1574.000000	11.335772
1573.000000	11.335050
1572.000000	11.338969
1571.000000	11.296480
1570.000000	11.310093
1569.000000	11.309990
1568.000000	11.310402
1567.000000	11.260385
1566.000000	11.281320
1565.000000	11.322778
1564.000000	11.360317
1563.000000	11.344022
1562.000000	11.347838
1561.000000	11.345466
1560.000000	11.349901
1559.000000	11.365680
1558.000000	11.302461
1557.000000	11.290808
1556.000000	11.292870
1555.000000	11.312156
1554.000000	11.275441
1553.000000	11.239862
1552.000000	11.219442
1551.000000	11.214801
1550.000000	11.210367
1549.000000	11.204076
1548.000000	11.159524
1547.000000	11.151480
1546.000000	11.116107
1545.000000	11.153130
1544.000000	11.094243
1543.000000	11.094449
1542.000000	11.084962
1541.000000	11.068358
1540.000000	11.045463
1539.000000	11.028859
1538.000000	11.049485
1537.000000	11.053816
1536.000000	11.006790
1535.000000	11.025043
1534.000000	11.025559
1533.000000	10.983482
1532.000000	10.965744
1531.000000	10.914282
1530.000000	10.878084
1529.000000	10.898297
1528.000000	10.906032
1527.000000	10.913045
1526.000000	10.883550
1525.000000	10.867256
1524.000000	10.848073
1523.000000	10.814556
1522.000000	10.787846
1521.000000	10.805069
1520.000000	10.791971
1519.000000	10.778874
1518.000000	10.731434
1517.000000	10.716996
1516.000000	10.698948
1515.000000	10.666566
1514.000000	10.624386
1513.000000	10.588909
1512.000000	10.581072
1511.000000	10.566530
1510.000000	10.538376
1509.000000	10.526207
1508.000000	10.519194
1507.000000	10.475880
1506.000000	10.437206
1505.000000	10.437722
1504.000000	10.441434
1503.000000	10.441950
1502.000000	10.417405
1501.000000	10.398636
1500.000000	10.377700
1499.000000	10.364912
1498.000000	10.371925
1497.000000	10.371616
1496.000000	10.348515
1495.000000	10.354496
1494.000000	10.338305
1493.000000	10.333561
1492.000000	10.350887
1491.000000	10.377804
1490.000000	10.374916
1489.000000	10.369553
1488.000000	10.357796
1487.000000	10.349649
1486.000000	10.381516
1485.000000	10.391623
1484.000000	10.400595
1483.000000	10.380279
1482.000000	10.357075
1481.000000	10.399873
1480.000000	10.406886
1479.000000	10.382032
1478.000000	10.392757
1477.000000	10.445869
1476.000000	10.467114
1475.000000	10.446591
1474.000000	10.439991
1473.000000	10.472683
1472.000000	10.501146
1471.000000	10.495268
1470.000000	10.513006
1469.000000	10.547039
1468.000000	10.546008
1467.000000	10.549823
1466.000000	10.587672
1465.000000	10.616754
1464.000000	10.626552
1463.000000	10.653056
1462.000000	10.685026
1461.000000	10.693173
1460.000000	10.713902
1459.000000	10.718955
1458.000000	10.725143
1457.000000	10.777120
1456.000000	10.806512
1455.000000	10.848692
1454.000000	10.892213
1453.000000	10.888603
1452.000000	10.903145
1451.000000	10.951100
1450.000000	11.019990
1449.000000	11.052063
1448.000000	11.045154
1447.000000	11.031437
1446.000000	11.073102
1445.000000	11.149933
1444.000000	11.138073
1443.000000	11.101359
1442.000000	11.149005
1441.000000	11.192525
1440.000000	11.231302
1439.000000	11.273070
1438.000000	11.319375
1437.000000	11.374755
1436.000000	11.405075
1435.000000	11.434879
1434.000000	11.469840
1433.000000	11.456743
1432.000000	11.518414
1431.000000	11.611128
1430.000000	11.645882
1429.000000	11.673315
1428.000000	11.765306
1427.000000	11.837600
1426.000000	11.881739
1425.000000	11.922063
1424.000000	11.986312
1423.000000	12.115121
1422.000000	12.172667
1421.000000	12.158022
1420.000000	12.182464
1419.000000	12.327361
1418.000000	12.453694
1417.000000	12.490821
1416.000000	12.493812
1415.000000	12.521760
1414.000000	12.790102
1413.000000	12.956966
1412.000000	12.982026
1411.000000	12.982954
1410.000000	13.004611
1409.000000	13.294920
1408.000000	13.397740
1407.000000	13.551300
1406.000000	13.610599
1405.000000	13.659689
1404.000000	13.998881
1403.000000	13.970933
1402.000000	13.819436
1401.000000	13.976090
1400.000000	14.487199
1399.000000	14.663963
1398.000000	14.466573
1397.000000	14.337249
1396.000000	14.574859
1395.000000	15.009240
1394.000000	15.052554
1393.000000	14.875790
1392.000000	15.145989
1391.000000	15.300271
1390.000000	15.222511
1389.000000	15.136914
1388.000000	15.380918
1387.000000	15.598933
1386.000000	15.433823
1385.000000	15.580886
1384.000000	15.518080
1383.000000	15.602852
1382.000000	16.036099
1381.000000	16.078691
1380.000000	16.205128
1379.000000	16.147272
1378.000000	16.057240
1377.000000	16.002272
1376.000000	16.087766
1375.000000	16.091995
1374.000000	16.078691
1373.000000	16.039193
1372.000000	16.018464
1371.000000	16.209047
1370.000000	16.293613
1369.000000	16.103648
1368.000000	16.292478
1367.000000	16.548033
1366.000000	16.243079
1365.000000	16.245864
1364.000000	16.612282
1363.000000	16.262674
1362.000000	16.230704
1361.000000	16.707986
1360.000000	16.587016
1359.000000	16.498840
1358.000000	16.503790
1357.000000	16.528954
1356.000000	16.456248
1355.000000	16.542773
1354.000000	16.753054
1353.000000	16.660237
1352.000000	16.747794
1351.000000	16.803484
1350.000000	16.893722
1349.000000	16.795440
1348.000000	16.869693
1347.000000	17.051923
1346.000000	17.038928
1345.000000	17.024903
1344.000000	17.057801
1343.000000	17.113697
1342.000000	17.121432
1341.000000	17.149896
1340.000000	17.157527
1339.000000	17.250034
1338.000000	17.247972
1337.000000	17.256119
1336.000000	17.282933
1335.000000	17.349245
1334.000000	17.383793
1333.000000	17.412875
1332.000000	17.432161
1331.000000	17.503526
1330.000000	17.500432
1329.000000	17.505279
1328.000000	17.525080
1327.000000	17.593661
1326.000000	17.566229
1325.000000	17.612740
1324.000000	17.628416
1323.000000	17.593455
1322.000000	17.594899
1321.000000	17.603562
1320.000000	17.656261
1319.000000	17.693697
1318.000000	17.692459
1317.000000	17.683693
1316.000000	17.691222
1315.000000	17.737939
1314.000000	17.752893
1313.000000	17.758256
1312.000000	17.778160
1311.000000	17.764547
1310.000000	17.740414
1309.000000	17.733917
1308.000000	17.757534
1307.000000	17.733608
1306.000000	17.741549
1305.000000	17.763722
1304.000000	17.766815
1303.000000	17.767537
1302.000000	17.789194
1301.000000	17.793423
1300.000000	17.764031
1299.000000	17.729586
1298.000000	17.740517
1297.000000	17.750212
1296.000000	17.728864
1295.000000	17.709991
1294.000000	17.728761
1293.000000	17.725048
1292.000000	17.707000
1291.000000	17.736805
1290.000000	17.737630
1289.000000	17.739899
1288.000000	17.747118
1287.000000	17.734433
1286.000000	17.716798
1285.000000	17.705557
1284.000000	17.714013
1283.000000	17.719273
1282.000000	17.709579
1281.000000	17.709166
1280.000000	17.715354
1279.000000	17.711332
1278.000000	17.712982
1277.000000	17.736392
1276.000000	17.736805
1275.000000	17.757018
1274.000000	17.758153
1273.000000	17.758462
1272.000000	17.718963
1271.000000	17.673690
1270.000000	17.645742
1269.000000	17.603871
1268.000000	17.625322
1267.000000	17.666780
1266.000000	17.678537
1265.000000	17.636047
1264.000000	17.617690
1263.000000	17.641926
1262.000000	17.678021
1261.000000	17.687200
1260.000000	17.650279
1259.000000	17.636769
1258.000000	17.617794
1257.000000	17.590670
1256.000000	17.588917
1255.000000	17.562929
1254.000000	17.553956
1253.000000	17.538590
1252.000000	17.536940
1251.000000	17.546428
1250.000000	17.549419
1249.000000	17.549212
1248.000000	17.559938
1247.000000	17.532402
1246.000000	17.519408
1245.000000	17.500639
1244.000000	17.502495
1243.000000	17.510952
1242.000000	17.507961
1241.000000	17.516520
1240.000000	17.530855
1239.000000	17.518583
1238.000000	17.533021
1237.000000	17.538900
1236.000000	17.526421
1235.000000	17.506414
1234.000000	17.489191
1233.000000	17.489191
1232.000000	17.495070
1231.000000	17.525183
1230.000000	17.535496
1229.000000	17.524049
1228.000000	17.478053
1227.000000	17.443917
1226.000000	17.423292
1225.000000	17.404522
1224.000000	17.386165
1223.000000	17.374408
1222.000000	17.358939
1221.000000	17.331919
1220.000000	17.305621
1219.000000	17.281901
1218.000000	17.272413
1217.000000	17.241268
1216.000000	17.215280
1215.000000	17.189807
1214.000000	17.164231
1213.000000	17.171243
1212.000000	17.180216
1211.000000	17.171656
1210.000000	17.142986
1209.000000	17.106581
1208.000000	17.092865
1207.000000	17.094412
1206.000000	17.082758
1205.000000	17.067805
1204.000000	17.052851
1203.000000	17.033359
1202.000000	17.007990
1201.000000	17.010259
1200.000000	17.016446
1199.000000	17.029028
1198.000000	17.019643
1197.000000	16.993242
1196.000000	16.991283
1195.000000	16.970347
1194.000000	16.960756
1193.000000	16.942090
1192.000000	16.901148
1191.000000	16.868456
1190.000000	16.838651
1189.000000	16.858143
1188.000000	16.858040
1187.000000	16.788427
1186.000000	16.739131
1185.000000	16.730262
1184.000000	16.745835
1183.000000	16.753054
1182.000000	16.737791
1181.000000	16.736759
1180.000000	16.764604
1179.000000	16.791418
1178.000000	16.783065
1177.000000	16.793481
1176.000000	16.809466
1175.000000	16.766048
1174.000000	16.771823
1173.000000	16.801731
1172.000000	16.855874
1171.000000	16.868249
1170.000000	16.871343
1169.000000	16.902901
1168.000000	16.901148
1167.000000	16.911254
1166.000000	16.904345
1165.000000	16.911461
1164.000000	16.921258
1163.000000	16.964778
1162.000000	17.035731
1161.000000	17.069042
1160.000000	17.082862
1159.000000	17.082346
1158.000000	17.117513
1157.000000	17.172172
1156.000000	17.177431
1155.000000	17.185682
1154.000000	17.165468
1153.000000	17.161343
1152.000000	17.197645
1151.000000	17.195582
1150.000000	17.192385
1149.000000	17.208370
1148.000000	17.246940
1147.000000	17.307787
1146.000000	17.350585
1145.000000	17.368736
1144.000000	17.391734
1143.000000	17.358526
1142.000000	17.309849
1141.000000	17.329547
1140.000000	17.358423
1139.000000	17.380287
1138.000000	17.384412
1137.000000	17.369458
1136.000000	17.329753
1135.000000	17.437420
1134.000000	17.552513
1133.000000	17.533124
1132.000000	17.501876
1131.000000	17.450724
1130.000000	17.457840
1129.000000	17.524049
1128.000000	17.548491
1127.000000	17.529927
1126.000000	17.572417
1125.000000	17.608924
1124.000000	17.532815
1123.000000	17.516727
1122.000000	17.568188
1121.000000	17.580564
1120.000000	17.616453
1119.000000	17.598715
1118.000000	17.564991
1117.000000	17.525390
1116.000000	17.563857
1115.000000	17.496410
1114.000000	17.421848
1113.000000	17.400087
1112.000000	17.376161
1111.000000	17.388537
1110.000000	17.404419
1109.000000	17.324494
1108.000000	17.322947
1107.000000	17.348729
1106.000000	17.380596
1105.000000	17.322947
1104.000000	17.311396
1103.000000	17.262513
1102.000000	17.238793
1101.000000	17.228274
1100.000000	17.204348
1099.000000	17.203935
1098.000000	17.226624
1097.000000	17.262925
1096.000000	17.230027
1095.000000	17.199707
1094.000000	17.168046
1093.000000	17.115347
1092.000000	17.063576
1091.000000	17.075333
1090.000000	17.047901
1089.000000	17.082449
1088.000000	17.072858
1087.000000	17.042744
1086.000000	16.990251
1085.000000	17.004277
1084.000000	16.966532
1083.000000	17.054295
1082.000000	16.938068
1081.000000	16.888772
1080.000000	16.838651
1079.000000	16.881966
1078.000000	16.861030
1077.000000	16.829885
1076.000000	16.912698
1075.000000	16.859174
1074.000000	16.871550
1073.000000	16.802762
1072.000000	16.753054
1071.000000	16.714793
1070.000000	16.772030
1069.000000	16.788324
1068.000000	16.757901
1067.000000	16.718299
1066.000000	16.639302
1065.000000	16.604032
1064.000000	16.615170
1063.000000	16.631052
1062.000000	16.577012
1061.000000	16.568143
1060.000000	16.534832
1059.000000	16.536173
1058.000000	16.518022
1057.000000	16.578972
1056.000000	16.419946
1055.000000	16.404064
1054.000000	16.334555
1053.000000	16.361472
1052.000000	16.343321
1051.000000	16.400352
1050.000000	16.400867
1049.000000	16.383954
1048.000000	16.369722
1047.000000	16.285362
1046.000000	16.204818
1045.000000	16.179861
1044.000000	16.193680
1043.000000	16.146344
1042.000000	16.050949
1041.000000	16.112930
1040.000000	16.143663
1039.000000	16.161916
1038.000000	16.146447
1037.000000	16.110971
1036.000000	16.101070
1035.000000	16.058271
1034.000000	16.015988
1033.000000	15.987422
1032.000000	15.938745
1031.000000	15.947407
1030.000000	15.861088
1029.000000	15.881920
1028.000000	15.860263
1027.000000	15.833862
1026.000000	15.805089
1025.000000	15.705363
1024.000000	15.680509
1023.000000	15.758578
1022.000000	15.797870
1021.000000	15.723720
1020.000000	15.743005
1019.000000	15.686387
1018.000000	15.711757
1017.000000	15.654623
1016.000000	15.580267
1015.000000	15.476209
1014.000000	15.457440
1013.000000	15.514677
1012.000000	15.487038
1011.000000	15.502095
1010.000000	15.515502
1009.000000	15.540871
1008.000000	15.441558
1007.000000	15.425985
1006.000000	15.292639
1005.000000	15.265619
1004.000000	15.347298
1003.000000	15.337191
1002.000000	15.277789
1001.000000	15.226636
1000.000000	15.243962
999.000000	15.259019
998.000000	15.244375
997.000000	15.155786
996.000000	15.213848
995.000000	15.189200
994.000000	15.084524
993.000000	15.053173
992.000000	15.066270
991.000000	15.060186
990.000000	15.037910
989.000000	15.013159
988.000000	14.999442
987.000000	15.000989
986.000000	14.929108
985.000000	14.880328
984.000000	14.845883
983.000000	14.778642
982.000000	14.777096
981.000000	14.784418
980.000000	14.775755
979.000000	14.699748
978.000000	14.683557
977.000000	14.678091
976.000000	14.609613
975.000000	14.585791
974.000000	14.637252
973.000000	14.593113
972.000000	14.594969
971.000000	14.648184
970.000000	14.657672
969.000000	14.587337
968.000000	14.441925
967.000000	14.460592
966.000000	14.380873
965.000000	14.404799
964.000000	14.431509
963.000000	14.318789
962.000000	14.383554
961.000000	14.378501
960.000000	14.355915
959.000000	14.412740
958.000000	14.356637
957.000000	14.233191
956.000000	14.200602
955.000000	14.278465
954.000000	14.320232
953.000000	14.271555
952.000000	14.229066
951.000000	14.200087
950.000000	14.225250
949.000000	14.310745
948.000000	14.254230
947.000000	14.103558
946.000000	14.039411
945.000000	14.076228
944.000000	14.099433
943.000000	14.148110
942.000000	14.217206
941.000000	14.185442
940.000000	14.018167
939.000000	14.052406
938.000000	14.015588
937.000000	13.991456
936.000000	13.978359
935.000000	13.958558
934.000000	14.019507
933.000000	14.014454
932.000000	13.963096
931.000000	13.996819
930.000000	13.922772
929.000000	13.799636
928.000000	13.918853
927.000000	13.821293
926.000000	13.743327
925.000000	13.812733
924.000000	13.987228
923.000000	13.908231
922.000000	13.732292
921.000000	13.675983
920.000000	13.661442
919.000000	13.603071
918.000000	13.718473
917.000000	13.739511
916.000000	13.766118
915.000000	13.627409
914.000000	13.529437
913.000000	13.490866
912.000000	13.703622
911.000000	13.755702
910.000000	13.603793
909.000000	13.750237
908.000000	13.911015
907.000000	13.524383
906.000000	13.556663
905.000000	13.879148
904.000000	13.815002
903.000000	13.587705
902.000000	13.955361
901.000000	13.905137
900.000000	13.723114
899.000000	13.668042
898.000000	13.746421
897.000000	13.828305
896.000000	13.824283
895.000000	13.963199
894.000000	13.936076
893.000000	13.813867
892.000000	13.828305
891.000000	13.664124
890.000000	13.513245
889.000000	13.924628
888.000000	14.299710
887.000000	13.918441
886.000000	13.809020
885.000000	14.315798
884.000000	13.710429
883.000000	13.566666
882.000000	14.475339
881.000000	14.438006
880.000000	14.567743
879.000000	14.243917
878.000000	13.937932
877.000000	14.266502
876.000000	14.031573
875.000000	13.936591
874.000000	13.894824
873.000000	14.495346
872.000000	14.670563
871.000000	14.869603
870.000000	13.980834
869.000000	14.835982
868.000000	14.968710
867.000000	14.567640
866.000000	14.121296
865.000000	14.105723
864.000000	14.510712
863.000000	15.636369
862.000000	16.411593
861.000000	14.875997
860.000000	14.069009
859.000000	14.722540
858.000000	16.734800
857.000000	16.854700
856.000000	16.686200
855.000000	16.663500
854.000000	16.679900
853.000000	16.621100
852.000000	16.505300
851.000000	16.571200
850.000000	16.641100
849.000000	16.503200
848.000000	16.467100
847.000000	16.547100
846.000000	16.443100
845.000000	16.557600
844.000000	16.504200
843.000000	16.455800
842.000000	16.417600
841.000000	16.384500
840.000000	16.475600
839.000000	16.341500
838.000000	16.379400
837.000000	16.398800
836.000000	16.375900
835.000000	16.323000
834.000000	16.286600
833.000000	16.304900
832.000000	16.212200
831.000000	16.243900
830.000000	16.271300
829.000000	16.278200
828.000000	16.201400
827.000000	16.231400
826.000000	16.213600
825.000000	16.187400
824.000000	16.204300
823.000000	16.145400
822.000000	16.128600
821.000000	16.062500
820.000000	16.142200
819.000000	16.121800
818.000000	16.052900
817.000000	16.029400
816.000000	16.070300
815.000000	16.104000
814.000000	16.060600
813.000000	16.054400
812.000000	16.056100
811.000000	16.062300
810.000000	16.064600
809.000000	16.143700
808.000000	16.072600
807.000000	16.029500
806.000000	16.085200
805.000000	16.119300
804.000000	16.141300
803.000000	16.149800
802.000000	16.100500
801.000000	16.130900
800.000000	16.222700
799.000000	16.205400
798.000000	16.239900
797.000000	16.228900
796.000000	16.303000
795.000000	16.230600
794.000000	16.219100
793.000000	16.228000
792.000000	16.285600
791.000000	16.334600
790.000000	16.343900
789.000000	16.329800
788.000000	16.376700
787.000000	16.423300
786.000000	16.383200
785.000000	16.416100
784.000000	16.456100
783.000000	16.511100
782.000000	16.459500
781.000000	16.482000
780.000000	16.565200
779.000000	16.604500
778.000000	16.673100
777.000000	16.670100
776.000000	16.683500
775.000000	16.712800
774.000000	16.688600
773.000000	16.755000
772.000000	16.851000
771.000000	16.867100
770.000000	16.873700
769.000000	16.906900
768.000000	17.014200
767.000000	17.065200
766.000000	17.212600
765.000000	17.193400
764.000000	17.144100
763.000000	17.211800
762.000000	17.221600
761.000000	17.224300
760.000000	17.305600
759.000000	17.427900
758.000000	17.423500
757.000000	17.474800
756.000000	17.485200
755.000000	17.497000
754.000000	17.514400
753.000000	17.600100
752.000000	17.647000
751.000000	17.616800
750.000000	17.688500
749.000000	17.724500
748.000000	17.764600
747.000000	17.773500
746.000000	17.801200
745.000000	17.826100
744.000000	17.856400
743.000000	17.879600
742.000000	17.853100
741.000000	17.867600
740.000000	17.882400
739.000000	17.881300
738.000000	17.942200
737.000000	17.931100
736.000000	17.954500
735.000000	17.931500
734.000000	17.927800
733.000000	17.955700
732.000000	17.990300
731.000000	18.022800
730.000000	17.994300
729.000000	17.958900
728.000000	17.951800
727.000000	17.943500
726.000000	17.915200
725.000000	17.905200
724.000000	17.920300
723.000000	17.895400
722.000000	17.872900
721.000000	17.843000
720.000000	17.800800
719.000000	17.771600
718.000000	17.738600
717.000000	17.718000
716.000000	17.666100
715.000000	17.600400
714.000000	17.572300
713.000000	17.611700
712.000000	17.561700
711.000000	17.556700
710.000000	17.525500
709.000000	17.473500
708.000000	17.430900
707.000000	17.376200
706.000000	17.311200
705.000000	17.253900
704.000000	17.194300
703.000000	17.151200
702.000000	17.117800
701.000000	17.061400
700.000000	16.974100
699.000000	16.883600
698.000000	16.800600
697.000000	16.771400
696.000000	16.723500
695.000000	16.675200
694.000000	16.612300
693.000000	16.529800
692.000000	16.461600
691.000000	16.425700
690.000000	16.390000
689.000000	16.326300
688.000000	16.268900
687.000000	16.229600
686.000000	16.168400
685.000000	16.110800
684.000000	16.039600
683.000000	15.947800
682.000000	15.869800
681.000000	15.763000
680.000000	15.659700
679.000000	15.569600
678.000000	15.507100
677.000000	15.508600
676.000000	15.444800
675.000000	15.341200
674.000000	15.226000
673.000000	15.129500
672.000000	15.059600
671.000000	15.010000
670.000000	14.939900
669.000000	14.837700
668.000000	14.759600
667.000000	14.679500
666.000000	14.609900
665.000000	14.522900
664.000000	14.426700
663.000000	14.333500
662.000000	14.262000
661.000000	14.192500
660.000000	14.113500
659.000000	14.028600
658.000000	13.938000
657.000000	13.870200
656.000000	13.791500
655.000000	13.702700
654.000000	13.622300
653.000000	13.555300
652.000000	13.495100
651.000000	13.439700
650.000000	13.371300
649.000000	13.276000
648.000000	13.203400
647.000000	13.135800
646.000000	13.073500
645.000000	13.016400
644.000000	12.945700
643.000000	12.865900
642.000000	12.788700
641.000000	12.708700
640.000000	12.637800
639.000000	12.584300
638.000000	12.533700
637.000000	12.497400
636.000000	12.452300
635.000000	12.396800
634.000000	12.329700
633.000000	12.268600
632.000000	12.212300
631.000000	12.158500
630.000000	12.129100
629.000000	12.093900
628.000000	12.047800
627.000000	11.998700
626.000000	11.937300
625.000000	11.888200
624.000000	11.855200
623.000000	11.816200
622.000000	11.770200
621.000000	11.717400
620.000000	11.675000
619.000000	11.629600
618.000000	11.577900
617.000000	11.534900
616.000000	11.483500
615.000000	11.443700
614.000000	11.398300
613.000000	11.353000
612.000000	11.323100
611.000000	11.281900
610.000000	11.236200
609.000000	11.193300
608.000000	11.158000
607.000000	11.137100
606.000000	11.119800
605.000000	11.102600
604.000000	11.076900
603.000000	11.051100
602.000000	11.035400
601.000000	11.011900
600.000000	10.983100
599.000000	10.952400
598.000000	10.910500
597.000000	10.885400
596.000000	10.870300
595.000000	10.859400
594.000000	10.837700
593.000000	10.812000
592.000000	10.792800
591.000000	10.779400
590.000000	10.759700
589.000000	10.726300
588.000000	10.690800
587.000000	10.671400
586.000000	10.673100
585.000000	10.675200
584.000000	10.664800
583.000000	10.672700
582.000000	10.689300
581.000000	10.694900
580.000000	10.685800
579.000000	10.692600
578.000000	10.698500
577.000000	10.699600
576.000000	10.692200
575.000000	10.689700
574.000000	10.701800
573.000000	10.697700
572.000000	10.698100
571.000000	10.701600
570.000000	10.723100
569.000000	10.715900
568.000000	10.695100
567.000000	10.689700
566.000000	10.708600
565.000000	10.729700
564.000000	10.720200
563.000000	10.693100
562.000000	10.686500
561.000000	10.704800
560.000000	10.722600
559.000000	10.898700
558.000000	10.984000
557.000000	11.008700
556.000000	11.026700
555.000000	11.068300
554.000000	11.088200
553.000000	11.112300
552.000000	11.142600
551.000000	11.174200
550.000000	11.196300
549.000000	11.235600
548.000000	11.264600
547.000000	11.299100
546.000000	11.310200
545.000000	11.308100
544.000000	11.298500
543.000000	11.303100
542.000000	11.295800
541.000000	11.303700
540.000000	11.307700
539.000000	11.294200
538.000000	11.282500
537.000000	11.277600
536.000000	11.250900
535.000000	11.232500
534.000000	11.197800
533.000000	11.177000
532.000000	11.160400
531.000000	11.113800
530.000000	11.094200
529.000000	11.081600
528.000000	11.024000
527.000000	10.966100
526.000000	10.923500
525.000000	10.851300
524.000000	10.816800
523.000000	10.755800
522.000000	10.706600
521.000000	10.630900
520.000000	10.547500
519.000000	10.469700
518.000000	10.411400
517.000000	10.346900
516.000000	10.238000
515.000000	10.127800
514.000000	10.031500
513.000000	9.937400
512.000000	9.812100
511.000000	9.729900
510.000000	9.639300
509.000000	9.543600
508.000000	9.455100
507.000000	9.360900
506.000000	9.268400
505.000000	9.196400
504.000000	9.090100
503.000000	8.984000
502.000000	8.899500
501.000000	8.793900
500.000000	8.692600
499.000000	8.606200
498.000000	8.513100
497.000000	8.449000
496.000000	8.385700
495.000000	8.297200
494.000000	8.222300
493.000000	8.126900
492.000000	8.057100
491.000000	7.983300
490.000000	7.877300
489.000000	7.798500
488.000000	7.725100
487.000000	7.642700
486.000000	7.537500
485.000000	7.458900
484.000000	7.362300
483.000000	7.280400
482.000000	7.126100
481.000000	6.939100
480.000000	6.786100
479.000000	6.687200
478.000000	6.617000
477.000000	6.518200
476.000000	6.444700
475.000000	6.339700
474.000000	6.260800
473.000000	6.171400
472.000000	6.087200
471.000000	5.989900
470.000000	5.893000
469.000000	5.826500
468.000000	5.753900
467.000000	5.677700
466.000000	5.594100
465.000000	5.520500
464.000000	5.470200
463.000000	5.408200
462.000000	5.335400
461.000000	5.277900
460.000000	5.213700
459.000000	5.174100
458.000000	5.118700
457.000000	5.058600
456.000000	5.011300
455.000000	4.963400
454.000000	4.916000
453.000000	4.890000
452.000000	4.854800
451.000000	4.812400
450.000000	4.784100
449.000000	4.764000
448.000000	4.732600
447.000000	4.688000
446.000000	4.658800
445.000000	4.643100
444.000000	4.624700
443.000000	4.570600
442.000000	4.503100
441.000000	4.462100
440.000000	4.434200
439.000000	4.394800
438.000000	4.340200
437.000000	4.301900
436.000000	4.251900
435.000000	4.213300
434.000000	4.167000
433.000000	4.105600
432.000000	4.069200
431.000000	4.020400
430.000000	3.971900
429.000000	3.927600
428.000000	3.875100
427.000000	3.824400
426.000000	3.774900
425.000000	3.719200
424.000000	3.666100
423.000000	3.616800
422.000000	3.557700
421.000000	3.503100
420.000000	3.450700
419.000000	3.399000
418.000000	3.339300
417.000000	3.286100
416.000000	3.238100
415.000000	3.190200
414.000000	3.134200
413.000000	3.082100
412.000000	3.021800
411.000000	2.955800
410.000000	2.913900
409.000000	2.852900
408.000000	2.802300
407.000000	2.751000
406.000000	2.692700
405.000000	2.645200
404.000000	2.592500
403.000000	2.543100
402.000000	2.492700
401.000000	2.439800
400.000000	2.392600
399.000000	2.355600
398.000000	2.311000
397.000000	2.278300
396.000000	2.234800
395.000000	2.192800
394.000000	2.161300
393.000000	2.121700
392.000000	2.084500
391.000000	2.053800
390.000000	2.027500
389.000000	1.998800
388.000000	1.975400
387.000000	1.947700
386.000000	1.927500
385.000000	1.906500
384.000000	1.887500
383.000000	1.864700
382.000000	1.845800
381.000000	1.831700
380.000000	1.820300
379.000000	1.804000
378.000000	1.789700
377.000000	1.778000
376.000000	1.810900
375.000000	1.865200
374.000000	1.830500
373.000000	1.811300
372.000000	1.814400
371.000000	1.799500
370.000000	1.806200
369.000000	1.773400
368.000000	1.747500
367.000000	1.770300
366.000000	1.759700
365.000000	1.723800
364.000000	1.705600
363.000000	1.682200
362.000000	1.683000
361.000000	1.691700
360.000000	1.663300
359.000000	1.652500
358.000000	1.656000
357.000000	1.635400
356.000000	1.621700
355.000000	1.625000
354.000000	1.617000
353.000000	1.582900
352.000000	1.583300
351.000000	1.600000
350.000000	1.583100
349.000000	1.542300
348.000000	1.545200
347.000000	1.528500
346.000000	1.541500
345.000000	1.562700
344.000000	1.525900
343.000000	1.532700
342.000000	1.540200
341.000000	1.560600
340.000000	1.559400
339.000000	1.538700
338.000000	1.534500
337.000000	1.551700
336.000000	1.563100
335.000000	1.533400
334.000000	1.536300
333.000000	1.560200
332.000000	1.508600
331.000000	1.473400
330.000000	1.498300
329.000000	1.505300
328.000000	1.504700
327.000000	1.443100
326.000000	1.439300
325.000000	1.538500
324.000000	1.570500
323.000000	1.457200
322.000000	1.427300
321.000000	1.483500
320.000000	1.493200
319.000000	1.454600
318.000000	1.462200
317.000000	1.473800
316.000000	1.461100
315.000000	1.477400
314.000000	1.463400
313.000000	1.460600
312.000000	1.487100
311.000000	1.495300
310.000000	1.478600
309.000000	1.464300
308.000000	1.466100
307.000000	1.460000
306.000000	1.451900
305.000000	1.467700
304.000000	1.485700
303.000000	1.482900
302.000000	1.491400
301.000000	1.487600
300.000000	1.481900
299.000000	1.479500
298.000000	1.490700
297.000000	1.492200
296.000000	1.485500
295.000000	1.479700
294.000000	1.481600
293.000000	1.477200
292.000000	1.486000
291.000000	1.483600
290.000000	1.471600
289.000000	1.467200
288.000000	1.462000
287.000000	1.462100
286.000000	1.472700
285.000000	1.475400
284.000000	1.458500
283.000000	1.457700
282.000000	1.477200
281.000000	1.463200
280.000000	1.465500
279.000000	1.477400
278.000000	1.458800
277.000000	1.459200
276.000000	1.456500
275.000000	1.448400
274.000000	1.455800
273.000000	1.470800
272.000000	1.461300
271.000000	1.458500
270.000000	1.461200
269.000000	1.498900
268.000000	1.499100
267.000000	1.497800
266.000000	1.490600
265.000000	1.494200
264.000000	1.474100
263.000000	1.481200
262.000000	1.496100
261.000000	1.505900
260.000000	1.475500
259.000000	1.505100
258.000000	1.517200
257.000000	1.523300
256.000000	1.535500
255.000000	1.544800
254.000000	1.528800
253.000000	1.529600
252.000000	1.505700
251.000000	1.529800
250.000000	1.513000
