PE UV       SUBTECH     SPECTRUM    ASCII       PEDS        4.00        
   -1
CICIMAUCR0020-6.Sample.ASC
24/04/25
16:11:31.00
24/04/25
16:11:31.00
Vinicio Soto Monge
C. resplendens
250,000000
1
Lambda 1050
1050L1511233
PerkinElmer UV WinLab 6.3.2.0749 / 2.02.05 Lambda 900 UV/VIS/NIR, Aug  7 2015 09:38:08

0
0
3350/servo 860,8/2
0
0
UV/VIS
1
1
1
DoubleDePol,CommonBeamDepol,RBeamAtt,SBeamAtt,60mm sphere, WB InGaAs Detector
0
0
0
0
Program
Program
3350/servo 860,8/2
3350/0,2 860,8/0,2
3350/0,2 860,8/0,2
0
15.00
 
 
 
0
 
860,8
319,2
860,8
Front
100
on
S:100 R:100
0
0
0
0
 
0
 
 
 
0
 
 
0
0
0
0
0
 
 
 
 
0
0


0
0
#HDR
-1
-1
#GR
nm
%R
1.0
0.0
2500,000000
-1,000000
2251
8
83,086600
5,660700
#DATA
2482.000000	8.986007
2481.000000	9.004106
2480.000000	8.953210
2479.000000	8.915312
2478.000000	8.978111
2477.000000	8.921628
2476.000000	8.914097
2475.000000	8.933532
2474.000000	8.898914
2473.000000	8.881422
2472.000000	8.895391
2471.000000	8.831134
2470.000000	8.897821
2469.000000	8.899885
2468.000000	8.908024
2467.000000	8.878264
2466.000000	8.890289
2465.000000	8.901100
2464.000000	8.939727
2463.000000	8.911668
2462.000000	8.976168
2461.000000	8.991351
2460.000000	9.040182
2459.000000	9.105167
2458.000000	9.142215
2457.000000	9.199063
2456.000000	9.222871
2455.000000	9.265992
2454.000000	9.336079
2453.000000	9.399850
2452.000000	9.445523
2451.000000	9.508686
2450.000000	9.599059
2449.000000	9.644610
2448.000000	9.723200
2447.000000	9.788671
2446.000000	9.854750
2445.000000	9.905281
2444.000000	9.953140
2443.000000	10.019219
2442.000000	10.092343
2441.000000	10.131456
2440.000000	10.206402
2439.000000	10.248916
2438.000000	10.290458
2437.000000	10.359938
2436.000000	10.402210
2435.000000	10.449218
2434.000000	10.498899
2433.000000	10.535582
2432.000000	10.557325
2431.000000	10.601783
2430.000000	10.626076
2429.000000	10.664703
2428.000000	10.714505
2427.000000	10.734426
2426.000000	10.759449
2425.000000	10.790909
2424.000000	10.799291
2423.000000	10.812166
2422.000000	10.845206
2421.000000	10.861968
2420.000000	10.875330
2419.000000	10.914321
2418.000000	10.926225
2417.000000	10.912499
2416.000000	10.959265
2415.000000	10.990118
2414.000000	11.007245
2413.000000	11.042592
2412.000000	11.061177
2411.000000	11.095795
2410.000000	11.166247
2409.000000	11.266095
2408.000000	11.340433
2407.000000	11.383555
2406.000000	11.417930
2405.000000	11.452427
2404.000000	11.467854
2403.000000	11.497128
2402.000000	11.568794
2401.000000	11.625399
2400.000000	11.651272
2399.000000	11.680181
2398.000000	11.724274
2397.000000	11.789746
2396.000000	11.832260
2395.000000	11.856068
2394.000000	11.890929
2393.000000	11.934172
2392.000000	11.981180
2391.000000	11.993084
2390.000000	12.014098
2389.000000	12.038757
2388.000000	12.066208
2387.000000	12.095968
2386.000000	12.110302
2385.000000	12.107022
2384.000000	12.119412
2383.000000	12.141155
2382.000000	12.144434
2381.000000	12.153423
2380.000000	12.151844
2379.000000	12.131316
2378.000000	12.126092
2377.000000	12.130587
2376.000000	12.115282
2375.000000	12.097304
2374.000000	12.104471
2373.000000	12.086494
2372.000000	12.041307
2371.000000	11.992841
2370.000000	11.961138
2369.000000	11.946076
2368.000000	11.897488
2367.000000	11.847808
2366.000000	11.812460
2365.000000	11.744924
2364.000000	11.654308
2363.000000	11.599404
2362.000000	11.553246
2361.000000	11.479879
2360.000000	11.433478
2359.000000	11.390357
2358.000000	11.321970
2357.000000	11.279335
2356.000000	11.263058
2355.000000	11.246781
2354.000000	11.249939
2353.000000	11.250547
2352.000000	11.288445
2351.000000	11.322456
2350.000000	11.351608
2349.000000	11.442588
2348.000000	11.501258
2347.000000	11.553854
2346.000000	11.641068
2345.000000	11.717108
2344.000000	11.770311
2343.000000	11.848294
2342.000000	11.914494
2341.000000	11.971949
2340.000000	12.007296
2339.000000	12.027824
2338.000000	12.066330
2337.000000	12.083578
2336.000000	12.062443
2335.000000	12.053333
2334.000000	12.057098
2333.000000	12.050053
2332.000000	11.989805
2331.000000	11.920689
2330.000000	11.884734
2329.000000	11.857039
2328.000000	11.799585
2327.000000	11.727432
2326.000000	11.632201
2325.000000	11.535512
2324.000000	11.478179
2323.000000	11.397645
2322.000000	11.274597
2321.000000	11.159445
2320.000000	11.050245
2319.000000	10.927440
2318.000000	10.827836
2317.000000	10.703330
2316.000000	10.584048
2315.000000	10.465009
2314.000000	10.372450
2313.000000	10.281470
2312.000000	10.195834
2311.000000	10.132185
2310.000000	10.078253
2309.000000	10.028936
2308.000000	10.020312
2307.000000	10.024442
2306.000000	10.049586
2305.000000	10.088213
2304.000000	10.161094
2303.000000	10.215755
2302.000000	10.319732
2301.000000	10.433063
2300.000000	10.545786
2299.000000	10.642717
2298.000000	10.796011
2297.000000	10.898287
2296.000000	10.991454
2295.000000	11.046236
2294.000000	11.172564
2293.000000	11.249089
2292.000000	11.328165
2291.000000	11.365942
2290.000000	11.359382
2289.000000	11.376874
2288.000000	11.367521
2287.000000	11.361204
2286.000000	11.324642
2285.000000	11.287837
2284.000000	11.275933
2283.000000	11.231840
2282.000000	11.174264
2281.000000	11.104541
2280.000000	11.087414
2279.000000	11.028380
2278.000000	10.969590
2277.000000	10.943474
2276.000000	10.914807
2275.000000	10.892214
2274.000000	10.881039
2273.000000	10.869985
2272.000000	10.917965
2271.000000	10.943595
2270.000000	10.975542
2269.000000	11.047937
2268.000000	11.140496
2267.000000	11.237671
2266.000000	11.364241
2265.000000	11.528831
2264.000000	11.708848
2263.000000	11.953728
2262.000000	12.176016
2261.000000	12.429035
2260.000000	12.681569
2259.000000	12.977466
2258.000000	13.247248
2257.000000	13.560394
2256.000000	13.863337
2255.000000	14.186322
2254.000000	14.456954
2253.000000	14.697583
2252.000000	14.991781
2251.000000	15.223786
2250.000000	15.521141
2249.000000	15.743550
2248.000000	15.979685
2247.000000	16.171362
2246.000000	16.373243
2245.000000	16.570630
2244.000000	16.733276
2243.000000	16.867499
2242.000000	17.043386
2241.000000	17.179188
2240.000000	17.290453
2239.000000	17.435608
2238.000000	17.544565
2237.000000	17.678667
2236.000000	17.772198
2235.000000	17.860991
2234.000000	17.958773
2233.000000	18.005174
2232.000000	18.067852
2231.000000	18.155674
2230.000000	18.176202
2229.000000	18.218109
2228.000000	18.242524
2227.000000	18.256736
2226.000000	18.275928
2225.000000	18.327552
2224.000000	18.317713
2223.000000	18.343950
2222.000000	18.302044
2221.000000	18.314312
2220.000000	18.291962
2219.000000	18.252728
2218.000000	18.244346
2217.000000	18.227341
2216.000000	18.208999
2215.000000	18.202318
2214.000000	18.181061
2213.000000	18.137818
2212.000000	18.113039
2211.000000	18.073197
2210.000000	18.068460
2209.000000	18.033720
2208.000000	18.029711
2207.000000	18.034570
2206.000000	18.015621
2205.000000	17.994971
2204.000000	17.987926
2203.000000	17.973350
2202.000000	17.962782
2201.000000	17.941160
2200.000000	17.935573
2199.000000	17.914073
2198.000000	17.947841
2197.000000	17.935937
2196.000000	17.926220
2195.000000	17.886500
2194.000000	17.860141
2193.000000	17.852853
2192.000000	17.863785
2191.000000	17.835604
2190.000000	17.812039
2189.000000	17.811310
2188.000000	17.783130
2187.000000	17.773534
2186.000000	17.758593
2185.000000	17.696401
2184.000000	17.692757
2183.000000	17.676966
2182.000000	17.635181
2181.000000	17.596190
2180.000000	17.577119
2179.000000	17.570681
2178.000000	17.563879
2177.000000	17.563272
2176.000000	17.526345
2175.000000	17.532054
2174.000000	17.530475
2173.000000	17.500472
2172.000000	17.500108
2171.000000	17.493427
2170.000000	17.512012
2169.000000	17.519907
2168.000000	17.518693
2167.000000	17.523308
2166.000000	17.528896
2165.000000	17.548574
2164.000000	17.568373
2163.000000	17.591209
2162.000000	17.593031
2161.000000	17.619026
2160.000000	17.639554
2159.000000	17.668342
2158.000000	17.674172
2157.000000	17.716443
2156.000000	17.743288
2155.000000	17.792847
2154.000000	17.838884
2153.000000	17.878483
2152.000000	17.925734
2151.000000	17.954158
2150.000000	17.957680
2149.000000	17.994364
2148.000000	18.022059
2147.000000	18.074290
2146.000000	18.100406
2145.000000	18.140126
2144.000000	18.179360
2143.000000	18.202925
2142.000000	18.243010
2141.000000	18.288196
2140.000000	18.307024
2139.000000	18.337148
2138.000000	18.387558
2137.000000	18.398125
2136.000000	18.426671
2135.000000	18.430193
2134.000000	18.441247
2133.000000	18.462139
2132.000000	18.499430
2131.000000	18.520444
2130.000000	18.529555
2129.000000	18.523724
2128.000000	18.539151
2127.000000	18.550326
2126.000000	18.555670
2125.000000	18.557614
2124.000000	18.539758
2123.000000	18.540851
2122.000000	18.554213
2121.000000	18.519351
2120.000000	18.505504
2119.000000	18.530648
2118.000000	18.504411
2117.000000	18.457038
2116.000000	18.434445
2115.000000	18.413188
2114.000000	18.411487
2113.000000	18.393388
2112.000000	18.347837
2111.000000	18.323301
2110.000000	18.314919
2109.000000	18.301072
2108.000000	18.273985
2107.000000	18.230863
2106.000000	18.188714
2105.000000	18.178389
2104.000000	18.176567
2103.000000	18.155553
2102.000000	18.134053
2101.000000	18.112674
2100.000000	18.087652
2099.000000	18.066759
2098.000000	18.040886
2097.000000	18.023759
2096.000000	18.011005
2095.000000	17.991084
2094.000000	17.978087
2093.000000	17.968855
2092.000000	17.952093
2091.000000	17.929864
2090.000000	17.941889
2089.000000	17.955008
2088.000000	17.942375
2087.000000	17.918932
2086.000000	17.892452
2085.000000	17.875203
2084.000000	17.882005
2083.000000	17.877632
2082.000000	17.847508
2081.000000	17.829166
2080.000000	17.824915
2079.000000	17.804387
2078.000000	17.786774
2077.000000	17.765760
2076.000000	17.743288
2075.000000	17.733692
2074.000000	17.691907
2073.000000	17.688506
2072.000000	17.690328
2071.000000	17.668949
2070.000000	17.639675
2069.000000	17.634938
2068.000000	17.614896
2067.000000	17.619876
2066.000000	17.614167
2065.000000	17.590845
2064.000000	17.581370
2063.000000	17.580763
2062.000000	17.581370
2061.000000	17.595339
2060.000000	17.607000
2059.000000	17.608215
2058.000000	17.628743
2057.000000	17.689842
2056.000000	17.713285
2055.000000	17.763573
2054.000000	17.835240
2053.000000	17.916259
2052.000000	18.025703
2051.000000	18.114982
2050.000000	18.204019
2049.000000	18.327431
2048.000000	18.463111
2047.000000	18.591746
2046.000000	18.735201
2045.000000	18.887523
2044.000000	19.026847
2043.000000	19.185971
2042.000000	19.328454
2041.000000	19.461948
2040.000000	19.645851
2039.000000	19.800602
2038.000000	19.937619
2037.000000	20.061760
2036.000000	20.165859
2035.000000	20.317330
2034.000000	20.427138
2033.000000	20.559903
2032.000000	20.673233
2031.000000	20.797010
2030.000000	20.876572
2029.000000	20.964758
2028.000000	21.046992
2027.000000	21.149390
2026.000000	21.239034
2025.000000	21.322847
2024.000000	21.393056
2023.000000	21.467031
2022.000000	21.533231
2021.000000	21.607327
2020.000000	21.676078
2019.000000	21.714341
2018.000000	21.760620
2017.000000	21.819775
2016.000000	21.873708
2015.000000	21.907354
2014.000000	21.941244
2013.000000	21.974891
2012.000000	22.012425
2011.000000	22.044128
2010.000000	22.034411
2009.000000	22.035504
2008.000000	22.029430
2007.000000	22.023843
2006.000000	22.018377
2005.000000	22.008659
2004.000000	21.975012
2003.000000	21.985945
2002.000000	21.915250
2001.000000	21.857917
2000.000000	21.842004
1999.000000	21.813581
1998.000000	21.753697
1997.000000	21.727824
1996.000000	21.662838
1995.000000	21.590686
1994.000000	21.531045
1993.000000	21.465937
1992.000000	21.404474
1991.000000	21.299525
1990.000000	21.275839
1989.000000	21.164695
1988.000000	21.092786
1987.000000	21.016625
1986.000000	20.904631
1985.000000	20.842439
1984.000000	20.721335
1983.000000	20.621852
1982.000000	20.524555
1981.000000	20.437462
1980.000000	20.318423
1979.000000	20.231209
1978.000000	20.146181
1977.000000	20.074150
1976.000000	19.966286
1975.000000	19.897291
1974.000000	19.787362
1973.000000	19.703427
1972.000000	19.609532
1971.000000	19.504705
1970.000000	19.427329
1969.000000	19.334284
1968.000000	19.235530
1967.000000	19.154025
1966.000000	19.058550
1965.000000	19.000003
1964.000000	18.904042
1963.000000	18.824359
1962.000000	18.726334
1961.000000	18.679204
1960.000000	18.572554
1959.000000	18.478295
1958.000000	18.402984
1957.000000	18.316013
1956.000000	18.239973
1955.000000	18.166606
1954.000000	18.092875
1953.000000	18.000437
1952.000000	17.929621
1951.000000	17.860870
1950.000000	17.780700
1949.000000	17.722638
1948.000000	17.669314
1947.000000	17.602384
1946.000000	17.569952
1945.000000	17.530111
1944.000000	17.497314
1943.000000	17.442896
1942.000000	17.396738
1941.000000	17.376939
1940.000000	17.372444
1939.000000	17.383134
1938.000000	17.416294
1937.000000	17.420789
1936.000000	17.468283
1935.000000	17.479701
1934.000000	17.519178
1933.000000	17.578091
1932.000000	17.640769
1931.000000	17.710856
1930.000000	17.808152
1929.000000	17.904598
1928.000000	18.013313
1927.000000	18.149601
1926.000000	18.268761
1925.000000	18.420233
1924.000000	18.553727
1923.000000	18.684913
1922.000000	18.878777
1921.000000	19.106409
1920.000000	19.353841
1919.000000	19.539323
1918.000000	19.739382
1917.000000	19.923893
1916.000000	20.116299
1915.000000	20.332028
1914.000000	20.623552
1913.000000	20.935119
1912.000000	21.236726
1911.000000	21.488652
1910.000000	21.714584
1909.000000	21.916465
1908.000000	22.179566
1907.000000	22.488217
1906.000000	22.853352
1905.000000	23.209255
1904.000000	23.537099
1903.000000	23.856562
1902.000000	24.155374
1901.000000	24.465970
1900.000000	24.836692
1899.000000	25.273007
1898.000000	25.669724
1897.000000	26.017853
1896.000000	26.279011
1895.000000	26.544420
1894.000000	26.847848
1893.000000	27.209582
1892.000000	27.643711
1891.000000	28.041399
1890.000000	28.415158
1889.000000	28.771426
1888.000000	29.182475
1887.000000	29.563765
1886.000000	30.025468
1885.000000	30.554707
1884.000000	31.156827
1883.000000	31.746921
1882.000000	32.306284
1881.000000	32.889334
1880.000000	33.389785
1879.000000	33.892665
1878.000000	34.402590
1877.000000	34.856761
1876.000000	35.290526
1875.000000	35.699875
1874.000000	36.104123
1873.000000	36.480068
1872.000000	36.823703
1871.000000	37.203414
1870.000000	37.540611
1869.000000	37.845861
1868.000000	38.038875
1867.000000	38.176621
1866.000000	38.249988
1865.000000	38.333679
1864.000000	38.365990
1863.000000	38.396357
1862.000000	38.475312
1861.000000	38.549894
1860.000000	38.609049
1859.000000	38.685453
1858.000000	38.728453
1857.000000	38.704888
1856.000000	38.676585
1855.000000	38.692133
1854.000000	38.683995
1853.000000	38.613908
1852.000000	38.538597
1851.000000	38.444216
1850.000000	38.349956
1849.000000	38.332343
1848.000000	38.358095
1847.000000	38.370242
1846.000000	38.312665
1845.000000	38.163988
1844.000000	38.014460
1843.000000	37.968666
1842.000000	38.002799
1841.000000	38.019926
1840.000000	37.972553
1839.000000	37.898214
1838.000000	37.843796
1837.000000	37.817195
1836.000000	37.794359
1835.000000	37.720384
1834.000000	37.597944
1833.000000	37.466150
1832.000000	37.375049
1831.000000	37.312736
1830.000000	37.239126
1829.000000	37.142922
1828.000000	37.020604
1827.000000	36.951245
1826.000000	36.914926
1825.000000	36.823217
1824.000000	36.700169
1823.000000	36.646480
1822.000000	36.647573
1821.000000	36.668709
1820.000000	36.658263
1819.000000	36.609189
1818.000000	36.558901
1817.000000	36.537037
1816.000000	36.542989
1815.000000	36.523918
1814.000000	36.509464
1813.000000	36.498774
1812.000000	36.491243
1811.000000	36.459783
1810.000000	36.402936
1809.000000	36.340744
1808.000000	36.271749
1807.000000	36.234580
1806.000000	36.173846
1805.000000	36.104244
1804.000000	36.026747
1803.000000	35.955081
1802.000000	35.915360
1801.000000	35.864829
1800.000000	35.765590
1799.000000	35.691129
1798.000000	35.641449
1797.000000	35.569782
1796.000000	35.511720
1795.000000	35.464833
1794.000000	35.391952
1793.000000	35.312512
1792.000000	35.225054
1791.000000	35.157153
1790.000000	35.084636
1789.000000	35.002645
1788.000000	34.916524
1787.000000	34.822264
1786.000000	34.734442
1785.000000	34.631558
1784.000000	34.528796
1783.000000	34.439881
1782.000000	34.330195
1781.000000	34.196458
1780.000000	34.098797
1779.000000	33.990568
1778.000000	33.862905
1777.000000	33.721151
1776.000000	33.593002
1775.000000	33.434606
1774.000000	33.259570
1773.000000	33.091700
1772.000000	32.916178
1771.000000	32.727416
1770.000000	32.558575
1769.000000	32.401394
1768.000000	32.263406
1767.000000	32.105618
1766.000000	31.976133
1765.000000	31.898028
1764.000000	31.834257
1763.000000	31.821017
1762.000000	31.845068
1761.000000	31.877743
1760.000000	31.948802
1759.000000	32.015974
1758.000000	32.083025
1757.000000	32.163559
1756.000000	32.226358
1755.000000	32.254174
1754.000000	32.255510
1753.000000	32.247493
1752.000000	32.222592
1751.000000	32.170482
1750.000000	32.088248
1749.000000	32.010387
1748.000000	31.910418
1747.000000	31.792715
1746.000000	31.628246
1745.000000	31.424665
1744.000000	31.233959
1743.000000	30.997095
1742.000000	30.707636
1741.000000	30.409430
1740.000000	30.132239
1739.000000	29.841564
1738.000000	29.565102
1737.000000	29.348402
1736.000000	29.167535
1735.000000	29.081535
1734.000000	29.040721
1733.000000	29.067202
1732.000000	29.143484
1731.000000	29.259729
1730.000000	29.447641
1729.000000	29.583686
1728.000000	29.736615
1727.000000	29.882499
1726.000000	30.014171
1725.000000	30.120092
1724.000000	30.205606
1723.000000	30.263546
1722.000000	30.283467
1721.000000	30.311405
1720.000000	30.330718
1719.000000	30.387930
1718.000000	30.415746
1717.000000	30.502111
1716.000000	30.576449
1715.000000	30.669859
1714.000000	30.745534
1713.000000	30.841494
1712.000000	30.902957
1711.000000	30.943649
1710.000000	30.969886
1709.000000	30.984098
1708.000000	30.954946
1707.000000	30.932717
1706.000000	30.883765
1705.000000	30.816350
1704.000000	30.728042
1703.000000	30.646172
1702.000000	30.497130
1701.000000	30.324645
1700.000000	30.124951
1699.000000	29.944448
1698.000000	29.773056
1697.000000	29.622799
1696.000000	29.562065
1695.000000	29.611867
1694.000000	29.668228
1693.000000	29.835491
1692.000000	30.083773
1691.000000	30.315170
1690.000000	30.510006
1689.000000	30.660020
1688.000000	30.737517
1687.000000	30.783189
1686.000000	30.813799
1685.000000	30.883036
1684.000000	31.013372
1683.000000	31.333321
1682.000000	31.805712
1681.000000	32.404188
1680.000000	33.044206
1679.000000	33.753948
1678.000000	34.463203
1677.000000	35.076498
1676.000000	35.636711
1675.000000	36.120035
1674.000000	36.535579
1673.000000	36.928409
1672.000000	37.210823
1671.000000	37.474167
1670.000000	37.719656
1669.000000	37.923358
1668.000000	38.118680
1667.000000	38.282784
1666.000000	38.400244
1665.000000	38.518798
1664.000000	38.640631
1663.000000	38.736227
1662.000000	38.831822
1661.000000	38.885633
1660.000000	38.920009
1659.000000	38.953412
1658.000000	38.984630
1657.000000	39.001150
1656.000000	39.011110
1655.000000	39.028480
1654.000000	39.003458
1653.000000	38.994104
1652.000000	38.962523
1651.000000	38.947461
1650.000000	38.890613
1649.000000	38.829393
1648.000000	38.792588
1647.000000	38.746308
1646.000000	38.668811
1645.000000	38.625204
1644.000000	38.548800
1643.000000	38.467538
1642.000000	38.391620
1641.000000	38.314366
1640.000000	38.242699
1639.000000	38.161680
1638.000000	38.065477
1637.000000	37.968788
1636.000000	37.902223
1635.000000	37.802983
1634.000000	37.695483
1633.000000	37.610577
1632.000000	37.515953
1631.000000	37.399829
1630.000000	37.302532
1629.000000	37.181549
1628.000000	37.091906
1627.000000	36.987443
1626.000000	36.852005
1625.000000	36.729443
1624.000000	36.654133
1623.000000	36.570684
1622.000000	36.465492
1621.000000	36.350947
1620.000000	36.232758
1619.000000	36.151981
1618.000000	36.034643
1617.000000	35.944513
1616.000000	35.848917
1615.000000	35.748827
1614.000000	35.664042
1613.000000	35.580107
1612.000000	35.471393
1611.000000	35.382478
1610.000000	35.304616
1609.000000	35.223839
1608.000000	35.133102
1607.000000	35.035320
1606.000000	34.952721
1605.000000	34.864414
1604.000000	34.778050
1603.000000	34.705776
1602.000000	34.602284
1601.000000	34.509118
1600.000000	34.439152
1599.000000	34.365785
1598.000000	34.284280
1597.000000	34.211398
1596.000000	34.158438
1595.000000	34.089201
1594.000000	34.019235
1593.000000	33.975385
1592.000000	33.915865
1591.000000	33.853066
1590.000000	33.805815
1589.000000	33.767916
1588.000000	33.723337
1587.000000	33.680580
1586.000000	33.646205
1585.000000	33.617781
1584.000000	33.582677
1583.000000	33.553403
1582.000000	33.538827
1581.000000	33.522064
1580.000000	33.498377
1579.000000	33.492911
1578.000000	33.492668
1577.000000	33.483558
1576.000000	33.476756
1575.000000	33.497770
1574.000000	33.526558
1573.000000	33.547208
1572.000000	33.564092
1571.000000	33.591908
1570.000000	33.629321
1569.000000	33.668191
1568.000000	33.703902
1567.000000	33.728682
1566.000000	33.769374
1565.000000	33.808244
1564.000000	33.843105
1563.000000	33.894608
1562.000000	33.937365
1561.000000	33.961173
1560.000000	33.983280
1559.000000	34.014984
1558.000000	34.043407
1557.000000	34.058712
1556.000000	34.072560
1555.000000	34.091387
1554.000000	34.091023
1553.000000	34.089687
1552.000000	34.078876
1551.000000	34.075232
1550.000000	34.087500
1549.000000	34.083006
1548.000000	34.072074
1547.000000	34.056283
1546.000000	34.031017
1545.000000	34.023972
1544.000000	34.027130
1543.000000	34.031139
1542.000000	34.033811
1541.000000	34.029317
1540.000000	34.021664
1539.000000	34.034783
1538.000000	34.019721
1537.000000	34.018263
1536.000000	34.025430
1535.000000	33.995792
1534.000000	33.984859
1533.000000	33.972348
1532.000000	33.956314
1531.000000	33.929348
1530.000000	33.896916
1529.000000	33.884283
1528.000000	33.857803
1527.000000	33.822213
1526.000000	33.805086
1525.000000	33.771925
1524.000000	33.723459
1523.000000	33.669648
1522.000000	33.629321
1521.000000	33.586564
1520.000000	33.564821
1519.000000	33.532510
1518.000000	33.484773
1517.000000	33.445174
1516.000000	33.414564
1515.000000	33.370350
1514.000000	33.324556
1513.000000	33.272203
1512.000000	33.232483
1511.000000	33.175635
1510.000000	33.119638
1509.000000	33.055138
1508.000000	33.036311
1507.000000	32.999263
1506.000000	32.948732
1505.000000	32.910834
1504.000000	32.876701
1503.000000	32.848520
1502.000000	32.810986
1501.000000	32.774910
1500.000000	32.756204
1499.000000	32.720249
1498.000000	32.680529
1497.000000	32.664374
1496.000000	32.647976
1495.000000	32.624411
1494.000000	32.621860
1493.000000	32.622710
1492.000000	32.621374
1491.000000	32.621374
1490.000000	32.621738
1489.000000	32.622832
1488.000000	32.641416
1487.000000	32.636800
1486.000000	32.640080
1485.000000	32.651134
1484.000000	32.672755
1483.000000	32.689761
1482.000000	32.717213
1481.000000	32.767136
1480.000000	32.770416
1479.000000	32.834673
1478.000000	32.866012
1477.000000	32.890913
1476.000000	32.908161
1475.000000	32.970839
1474.000000	33.013961
1473.000000	33.058418
1472.000000	33.119152
1471.000000	33.161666
1470.000000	33.194706
1469.000000	33.237341
1468.000000	33.299533
1467.000000	33.361968
1466.000000	33.436307
1465.000000	33.465824
1464.000000	33.524979
1463.000000	33.604663
1462.000000	33.681066
1461.000000	33.797069
1460.000000	33.912100
1459.000000	34.028831
1458.000000	34.106207
1457.000000	34.230347
1456.000000	34.362262
1455.000000	34.467819
1454.000000	34.602042
1453.000000	34.743067
1452.000000	34.898425
1451.000000	35.051354
1450.000000	35.227848
1449.000000	35.311540
1448.000000	35.483054
1447.000000	35.645214
1446.000000	35.841386
1445.000000	36.016422
1444.000000	36.137769
1443.000000	36.294707
1442.000000	36.473023
1441.000000	36.649881
1440.000000	36.802810
1439.000000	36.974810
1438.000000	37.153004
1437.000000	37.312128
1436.000000	37.477933
1435.000000	37.623088
1434.000000	37.824969
1433.000000	37.981542
1432.000000	38.169089
1431.000000	38.367691
1430.000000	38.519769
1429.000000	38.726023
1428.000000	39.007709
1427.000000	39.190884
1426.000000	39.481315
1425.000000	39.716114
1424.000000	39.979580
1423.000000	40.241101
1422.000000	40.523516
1421.000000	40.769004
1420.000000	41.087859
1419.000000	41.357520
1418.000000	41.658155
1417.000000	41.859550
1416.000000	42.118035
1415.000000	42.448672
1414.000000	42.758782
1413.000000	42.996496
1412.000000	43.193275
1411.000000	43.526585
1410.000000	43.903016
1409.000000	44.292445
1408.000000	44.697178
1407.000000	45.065350
1406.000000	45.492069
1405.000000	45.909314
1404.000000	46.314533
1403.000000	46.654403
1402.000000	46.993907
1401.000000	47.507355
1400.000000	47.887309
1399.000000	48.122837
1398.000000	48.272243
1397.000000	48.497082
1396.000000	48.886389
1395.000000	49.096772
1394.000000	49.188238
1393.000000	49.324040
1392.000000	49.564062
1391.000000	49.791452
1390.000000	49.921909
1389.000000	50.236756
1388.000000	50.602498
1387.000000	50.926212
1386.000000	51.280050
1385.000000	51.698752
1384.000000	52.122921
1383.000000	52.556564
1382.000000	52.978667
1381.000000	53.204599
1380.000000	53.245898
1379.000000	53.413889
1378.000000	53.430895
1377.000000	53.568883
1376.000000	53.692295
1375.000000	53.890046
1374.000000	54.166752
1373.000000	54.467873
1372.000000	54.830092
1371.000000	55.228266
1370.000000	55.507280
1369.000000	55.797711
1368.000000	56.095309
1367.000000	56.314317
1366.000000	56.503687
1365.000000	56.725974
1364.000000	56.910607
1363.000000	57.070095
1362.000000	57.263595
1361.000000	57.435351
1360.000000	57.456730
1359.000000	57.481266
1358.000000	57.575769
1357.000000	57.744125
1356.000000	58.048039
1355.000000	58.483383
1354.000000	58.918726
1353.000000	59.338765
1352.000000	59.867639
1351.000000	60.329949
1350.000000	60.763713
1349.000000	61.149984
1348.000000	61.511596
1347.000000	61.841748
1346.000000	62.134244
1345.000000	62.443017
1344.000000	62.755556
1343.000000	63.019750
1342.000000	63.275928
1341.000000	63.536842
1340.000000	63.789011
1339.000000	63.999152
1338.000000	64.223747
1337.000000	64.443484
1336.000000	64.664436
1335.000000	64.858057
1334.000000	65.027748
1333.000000	65.207036
1332.000000	65.400050
1331.000000	65.539739
1330.000000	65.681371
1329.000000	65.838916
1328.000000	65.977512
1327.000000	66.099466
1326.000000	66.205508
1325.000000	66.317867
1324.000000	66.417957
1323.000000	66.513431
1322.000000	66.609756
1321.000000	66.707660
1320.000000	66.803863
1319.000000	66.884154
1318.000000	66.962744
1317.000000	67.032102
1316.000000	67.103890
1315.000000	67.183452
1314.000000	67.244308
1313.000000	67.288280
1312.000000	67.342819
1311.000000	67.393350
1310.000000	67.431734
1309.000000	67.458457
1308.000000	67.502307
1307.000000	67.535468
1306.000000	67.556240
1305.000000	67.593530
1304.000000	67.618310
1303.000000	67.619646
1302.000000	67.610172
1301.000000	67.605556
1300.000000	67.615030
1299.000000	67.613816
1298.000000	67.615638
1297.000000	67.604706
1296.000000	67.588550
1295.000000	67.586121
1294.000000	67.560734
1293.000000	67.532553
1292.000000	67.509353
1291.000000	67.480807
1290.000000	67.449104
1289.000000	67.420559
1288.000000	67.372457
1287.000000	67.327393
1286.000000	67.289616
1285.000000	67.222079
1284.000000	67.153814
1283.000000	67.103890
1282.000000	67.051173
1281.000000	66.997241
1280.000000	66.947925
1279.000000	66.906747
1278.000000	66.858524
1277.000000	66.802770
1276.000000	66.754911
1275.000000	66.722357
1274.000000	66.672191
1273.000000	66.635629
1272.000000	66.609392
1271.000000	66.571250
1270.000000	66.547807
1269.000000	66.527036
1268.000000	66.477112
1267.000000	66.439092
1266.000000	66.400223
1265.000000	66.373256
1264.000000	66.325033
1263.000000	66.279847
1262.000000	66.244014
1261.000000	66.204658
1260.000000	66.175627
1259.000000	66.137729
1258.000000	66.081003
1257.000000	66.024156
1256.000000	65.969981
1255.000000	65.926495
1254.000000	65.864789
1253.000000	65.803690
1252.000000	65.735789
1251.000000	65.644566
1250.000000	65.572657
1249.000000	65.506942
1248.000000	65.413776
1247.000000	65.325225
1246.000000	65.205943
1245.000000	65.120429
1244.000000	65.009285
1243.000000	64.886966
1242.000000	64.763433
1241.000000	64.637348
1240.000000	64.516973
1239.000000	64.379470
1238.000000	64.237595
1237.000000	64.108109
1236.000000	63.974737
1235.000000	63.834198
1234.000000	63.675195
1233.000000	63.525667
1232.000000	63.388043
1231.000000	63.222117
1230.000000	63.061779
1229.000000	62.894759
1228.000000	62.740615
1227.000000	62.591695
1226.000000	62.437794
1225.000000	62.267495
1224.000000	62.111651
1223.000000	61.921674
1222.000000	61.760364
1221.000000	61.603669
1220.000000	61.473576
1219.000000	61.335466
1218.000000	61.174520
1217.000000	61.064105
1216.000000	60.939357
1215.000000	60.807442
1214.000000	60.707595
1213.000000	60.589527
1212.000000	60.465143
1211.000000	60.361652
1210.000000	60.255124
1209.000000	60.170704
1208.000000	60.092721
1207.000000	60.023119
1206.000000	59.980119
1205.000000	59.952424
1204.000000	59.921814
1203.000000	59.905902
1202.000000	59.889868
1201.000000	59.840309
1200.000000	59.779939
1199.000000	59.699405
1198.000000	59.606117
1197.000000	59.458290
1196.000000	59.295522
1195.000000	59.057201
1194.000000	58.770170
1193.000000	58.424713
1192.000000	58.014392
1191.000000	57.589738
1190.000000	57.196544
1189.000000	56.891050
1188.000000	56.659045
1187.000000	56.545836
1186.000000	56.572438
1185.000000	56.703624
1184.000000	56.964782
1183.000000	57.317770
1182.000000	57.770726
1181.000000	58.242267
1180.000000	58.739196
1179.000000	59.167616
1178.000000	59.541253
1177.000000	59.888653
1176.000000	60.182972
1175.000000	60.445830
1174.000000	60.731038
1173.000000	61.010052
1172.000000	61.312144
1171.000000	61.592372
1170.000000	61.911592
1169.000000	62.221580
1168.000000	62.547237
1167.000000	62.865971
1166.000000	63.168307
1165.000000	63.487648
1164.000000	63.806017
1163.000000	64.134468
1162.000000	64.412996
1161.000000	64.706099
1160.000000	64.979039
1159.000000	65.236432
1158.000000	65.492002
1157.000000	65.719269
1156.000000	65.920664
1155.000000	66.020876
1154.000000	66.124003
1153.000000	66.194333
1152.000000	66.238062
1151.000000	66.218262
1150.000000	66.209517
1149.000000	66.212432
1148.000000	66.237090
1147.000000	66.259197
1146.000000	66.360502
1145.000000	66.515375
1144.000000	66.692719
1143.000000	66.910026
1142.000000	67.121017
1141.000000	67.342455
1140.000000	67.593652
1139.000000	67.846792
1138.000000	68.106857
1137.000000	68.368379
1136.000000	68.680675
1135.000000	68.986290
1134.000000	69.235300
1133.000000	69.419204
1132.000000	69.600071
1131.000000	69.798672
1130.000000	69.969943
1129.000000	70.120928
1128.000000	70.254179
1127.000000	70.339207
1126.000000	70.418891
1125.000000	70.502583
1124.000000	70.578987
1123.000000	70.641543
1122.000000	70.698147
1121.000000	70.721955
1120.000000	70.736288
1119.000000	70.770178
1118.000000	70.802003
1117.000000	70.813907
1116.000000	70.824475
1115.000000	70.856056
1114.000000	70.864802
1113.000000	70.869540
1112.000000	70.877921
1111.000000	70.889339
1110.000000	70.895655
1109.000000	70.887760
1108.000000	70.894441
1107.000000	70.915941
1106.000000	70.922621
1105.000000	70.918370
1104.000000	70.913511
1103.000000	70.940356
1102.000000	70.937683
1101.000000	70.923229
1100.000000	70.920556
1099.000000	70.912418
1098.000000	70.896384
1097.000000	70.898813
1096.000000	70.892254
1095.000000	70.895534
1094.000000	70.877435
1093.000000	70.865288
1092.000000	70.841723
1091.000000	70.827390
1090.000000	70.801517
1089.000000	70.782932
1088.000000	70.805040
1087.000000	70.798116
1086.000000	70.779531
1085.000000	70.745034
1084.000000	70.748314
1083.000000	70.741147
1082.000000	70.739932
1081.000000	70.739204
1080.000000	70.750500
1079.000000	70.743334
1078.000000	70.755966
1077.000000	70.760218
1076.000000	70.759367
1075.000000	70.782204
1074.000000	70.787184
1073.000000	70.794472
1072.000000	70.822896
1071.000000	70.857879
1070.000000	70.880593
1069.000000	70.891768
1068.000000	70.912539
1067.000000	70.946065
1066.000000	70.972666
1065.000000	70.996474
1064.000000	71.003519
1063.000000	71.028056
1062.000000	71.050649
1061.000000	71.074093
1060.000000	71.071906
1059.000000	71.088547
1058.000000	71.134827
1057.000000	71.132641
1056.000000	71.124502
1055.000000	71.125595
1054.000000	71.117578
1053.000000	71.103610
1052.000000	71.103002
1051.000000	71.089762
1050.000000	71.073485
1049.000000	71.056966
1048.000000	71.047613
1047.000000	71.034737
1046.000000	71.010808
1045.000000	70.997567
1044.000000	70.965257
1043.000000	70.935740
1042.000000	70.921528
1041.000000	70.895169
1040.000000	70.864559
1039.000000	70.827025
1038.000000	70.796658
1037.000000	70.769935
1036.000000	70.745520
1035.000000	70.715517
1034.000000	70.675918
1033.000000	70.653204
1032.000000	70.641421
1031.000000	70.613727
1030.000000	70.594170
1029.000000	70.604616
1028.000000	70.615549
1027.000000	70.609475
1026.000000	70.629760
1025.000000	70.650532
1024.000000	70.677133
1023.000000	70.725721
1022.000000	70.770786
1021.000000	70.827633
1020.000000	70.887031
1019.000000	70.947279
1018.000000	71.018946
1017.000000	71.108711
1016.000000	71.196412
1015.000000	71.279496
1014.000000	71.381408
1013.000000	71.498626
1012.000000	71.611348
1011.000000	71.712046
1010.000000	71.820032
1009.000000	71.943322
1008.000000	72.072322
1007.000000	72.194398
1006.000000	72.307364
1005.000000	72.426160
1004.000000	72.524671
1003.000000	72.621482
1002.000000	72.728738
1001.000000	72.813645
1000.000000	72.886648
999.000000	72.971554
998.000000	73.058769
997.000000	73.132500
996.000000	73.206475
995.000000	73.247410
994.000000	73.289924
993.000000	73.348957
992.000000	73.408113
991.000000	73.442853
990.000000	73.471033
989.000000	73.515977
988.000000	73.542335
987.000000	73.576104
986.000000	73.632465
985.000000	73.654572
984.000000	73.663440
983.000000	73.720530
982.000000	73.776162
981.000000	73.798513
980.000000	73.840419
979.000000	73.912329
978.000000	73.957151
977.000000	74.003309
976.000000	74.031004
975.000000	74.115910
974.000000	74.189520
973.000000	74.229848
972.000000	74.277949
971.000000	74.367836
970.000000	74.431243
969.000000	74.502545
968.000000	74.570567
967.000000	74.641627
966.000000	74.769897
965.000000	74.843629
964.000000	74.936674
963.000000	74.992792
962.000000	75.043202
961.000000	75.158719
960.000000	75.228806
959.000000	75.309583
958.000000	75.429472
957.000000	75.520331
956.000000	75.593576
955.000000	75.671438
954.000000	75.728528
953.000000	75.769341
952.000000	75.865059
951.000000	75.986163
950.000000	76.041795
949.000000	76.090140
948.000000	76.174196
947.000000	76.273922
946.000000	76.352026
945.000000	76.424057
944.000000	76.533015
943.000000	76.599458
942.000000	76.672339
941.000000	76.775345
940.000000	76.818952
939.000000	76.907502
938.000000	76.997632
937.000000	77.054480
936.000000	77.135499
935.000000	77.317581
934.000000	77.407346
933.000000	77.509258
932.000000	77.584933
931.000000	77.750495
930.000000	77.825319
929.000000	77.881074
928.000000	78.037404
927.000000	78.095952
926.000000	78.180129
925.000000	78.227867
924.000000	78.273903
923.000000	78.407640
922.000000	78.466674
921.000000	78.506273
920.000000	78.547936
919.000000	78.579275
918.000000	78.612801
917.000000	78.638795
916.000000	78.623490
915.000000	78.624583
914.000000	78.640617
913.000000	78.629685
912.000000	78.619724
911.000000	78.752004
910.000000	78.727710
909.000000	78.615837
908.000000	78.567007
907.000000	78.536275
906.000000	78.509188
905.000000	78.486230
904.000000	78.472383
903.000000	78.416264
902.000000	78.401081
901.000000	78.327349
900.000000	78.250338
899.000000	78.194584
898.000000	78.150005
897.000000	77.964037
896.000000	77.883503
895.000000	77.772359
894.000000	77.724986
893.000000	77.654899
892.000000	77.589913
891.000000	77.425566
890.000000	77.204372
889.000000	77.107075
888.000000	77.044276
887.000000	76.790407
886.000000	76.720562
885.000000	76.574435
884.000000	76.426487
883.000000	76.191809
882.000000	76.036451
881.000000	75.761932
880.000000	75.699497
879.000000	75.495187
878.000000	75.200139
877.000000	75.018544
876.000000	74.735522
875.000000	74.519793
874.000000	74.201789
873.000000	74.015456
872.000000	73.659188
871.000000	73.392686
870.000000	72.901710
869.000000	72.370527
868.000000	71.892670
867.000000	71.510894
866.000000	71.064618
865.000000	70.894198
864.000000	71.046155
863.000000	71.227022
862.000000	71.479069
861.000000	71.698684
860.000000	71.889998
859.000000	72.087020
858.000000	75.102600
857.000000	75.279300
856.000000	74.906000
855.000000	75.122500
854.000000	75.221900
853.000000	75.473800
852.000000	75.655500
851.000000	76.089300
850.000000	76.094200
849.000000	76.100100
848.000000	75.961100
847.000000	76.732800
846.000000	76.443800
845.000000	76.842000
844.000000	76.702000
843.000000	77.073000
842.000000	76.968900
841.000000	77.437900
840.000000	77.377100
839.000000	77.374200
838.000000	77.685900
837.000000	77.716500
836.000000	77.833300
835.000000	77.939800
834.000000	77.900000
833.000000	78.072400
832.000000	78.221000
831.000000	78.349200
830.000000	78.260200
829.000000	78.725800
828.000000	78.654800
827.000000	78.635200
826.000000	78.920900
825.000000	79.046500
824.000000	79.055600
823.000000	79.264700
822.000000	79.451300
821.000000	79.546900
820.000000	79.627100
819.000000	79.780600
818.000000	79.743600
817.000000	79.762900
816.000000	80.084100
815.000000	80.261400
814.000000	80.434300
813.000000	80.600700
812.000000	80.765700
811.000000	80.959700
810.000000	80.913900
809.000000	81.195900
808.000000	81.288300
807.000000	81.209900
806.000000	81.303500
805.000000	81.545500
804.000000	81.608700
803.000000	81.774900
802.000000	81.825900
801.000000	82.053200
800.000000	82.153800
799.000000	82.165200
798.000000	82.248300
797.000000	82.358300
796.000000	82.459900
795.000000	82.587700
794.000000	82.633700
793.000000	82.698300
792.000000	82.698200
791.000000	82.685000
790.000000	82.793300
789.000000	82.856100
788.000000	82.918600
787.000000	82.938500
786.000000	83.002300
785.000000	82.984900
784.000000	83.060000
783.000000	83.027800
782.000000	83.027000
781.000000	83.029600
780.000000	82.966100
779.000000	82.999200
778.000000	83.035200
777.000000	83.085200
776.000000	83.073600
775.000000	83.072300
774.000000	83.053100
773.000000	83.086600
772.000000	83.058200
771.000000	82.987700
770.000000	83.023500
769.000000	83.024800
768.000000	82.907100
767.000000	82.861500
766.000000	82.830000
765.000000	82.748100
764.000000	82.631600
763.000000	82.677300
762.000000	82.622900
761.000000	82.456200
760.000000	82.343100
759.000000	82.160100
758.000000	82.094600
757.000000	81.973500
756.000000	81.825700
755.000000	81.797100
754.000000	81.678600
753.000000	81.466500
752.000000	81.231300
751.000000	81.037500
750.000000	80.977300
749.000000	80.789500
748.000000	80.595600
747.000000	80.467800
746.000000	80.245500
745.000000	80.067800
744.000000	79.845100
743.000000	79.613400
742.000000	79.500700
741.000000	79.336600
740.000000	79.159700
739.000000	79.012300
738.000000	78.800600
737.000000	78.546200
736.000000	78.396300
735.000000	78.241500
734.000000	78.100200
733.000000	78.070300
732.000000	77.958600
731.000000	77.863600
730.000000	77.779000
729.000000	77.652500
728.000000	77.588400
727.000000	77.567800
726.000000	77.520700
725.000000	77.515400
724.000000	77.413900
723.000000	77.343500
722.000000	77.287200
721.000000	77.246200
720.000000	77.270000
719.000000	77.209700
718.000000	77.186100
717.000000	77.209700
716.000000	77.239300
715.000000	77.229600
714.000000	77.292400
713.000000	77.297600
712.000000	77.314700
711.000000	77.312100
710.000000	77.312700
709.000000	77.418400
708.000000	77.471700
707.000000	77.406400
706.000000	77.417900
705.000000	77.456300
704.000000	77.488800
703.000000	77.515100
702.000000	77.477200
701.000000	77.452600
700.000000	77.340800
699.000000	77.378100
698.000000	77.280200
697.000000	77.144700
696.000000	77.032600
695.000000	76.959000
694.000000	76.843300
693.000000	76.717100
692.000000	76.582900
691.000000	76.315800
690.000000	76.045000
689.000000	75.844000
688.000000	75.651500
687.000000	75.456600
686.000000	75.211800
685.000000	74.952000
684.000000	74.653200
683.000000	74.402200
682.000000	73.982700
681.000000	73.655400
680.000000	73.277900
679.000000	72.895200
678.000000	72.520000
677.000000	72.074900
676.000000	71.726600
675.000000	71.165700
674.000000	70.739500
673.000000	70.237700
672.000000	69.698300
671.000000	69.184500
670.000000	68.574800
669.000000	67.951200
668.000000	67.351600
667.000000	66.752200
666.000000	66.159000
665.000000	65.539500
664.000000	64.957300
663.000000	64.334400
662.000000	63.722900
661.000000	63.151400
660.000000	62.574400
659.000000	62.044400
658.000000	61.508800
657.000000	61.001000
656.000000	60.507200
655.000000	60.047500
654.000000	59.651400
653.000000	59.289900
652.000000	58.918000
651.000000	58.626800
650.000000	58.372400
649.000000	58.197800
648.000000	57.997200
647.000000	57.923200
646.000000	57.835300
645.000000	57.868500
644.000000	57.908300
643.000000	57.983500
642.000000	58.159600
641.000000	58.304700
640.000000	58.568000
639.000000	58.846000
638.000000	59.218700
637.000000	59.574300
636.000000	59.924100
635.000000	60.393500
634.000000	60.830500
633.000000	61.365700
632.000000	61.893000
631.000000	62.471500
630.000000	63.048600
629.000000	63.599400
628.000000	64.127200
627.000000	64.747200
626.000000	65.303500
625.000000	65.878800
624.000000	66.423500
623.000000	66.984700
622.000000	67.557800
621.000000	68.143100
620.000000	68.671700
619.000000	69.283100
618.000000	69.825900
617.000000	70.303000
616.000000	70.826200
615.000000	71.352800
614.000000	71.860800
613.000000	72.424400
612.000000	72.918800
611.000000	73.438100
610.000000	73.898800
609.000000	74.346300
608.000000	74.866500
607.000000	75.309800
606.000000	75.808900
605.000000	76.273000
604.000000	76.689800
603.000000	77.155500
602.000000	77.606400
601.000000	78.034800
600.000000	78.499100
599.000000	78.886900
598.000000	79.261700
597.000000	79.641000
596.000000	79.967200
595.000000	80.205800
594.000000	80.587000
593.000000	80.872200
592.000000	81.085400
591.000000	81.332500
590.000000	81.511000
589.000000	81.728800
588.000000	81.848300
587.000000	81.995200
586.000000	82.042100
585.000000	82.103700
584.000000	82.082700
583.000000	82.177500
582.000000	82.161500
581.000000	82.190000
580.000000	82.159500
579.000000	82.140200
578.000000	82.030700
577.000000	82.003200
576.000000	81.922800
575.000000	81.838000
574.000000	81.791500
573.000000	81.645000
572.000000	81.521300
571.000000	81.377200
570.000000	81.289200
569.000000	81.119500
568.000000	81.030900
567.000000	80.865600
566.000000	80.641600
565.000000	80.490100
564.000000	80.357400
563.000000	80.110100
562.000000	79.879000
561.000000	79.583900
560.000000	79.326900
559.000000	79.089600
558.000000	78.783300
557.000000	78.437800
556.000000	78.119300
555.000000	77.752000
554.000000	77.326600
553.000000	76.937200
552.000000	76.445400
551.000000	76.022800
550.000000	75.504500
549.000000	74.944700
548.000000	74.404700
547.000000	73.803600
546.000000	73.171800
545.000000	72.522000
544.000000	71.831700
543.000000	71.146600
542.000000	70.342300
541.000000	69.629200
540.000000	68.831000
539.000000	67.986800
538.000000	67.164700
537.000000	66.338000
536.000000	65.475200
535.000000	64.577200
534.000000	63.717100
533.000000	62.824700
532.000000	61.925200
531.000000	61.039600
530.000000	60.157600
529.000000	59.269500
528.000000	58.382900
527.000000	57.527800
526.000000	56.691800
525.000000	55.848900
524.000000	55.017800
523.000000	54.172500
522.000000	53.348400
521.000000	52.581200
520.000000	51.785000
519.000000	51.011700
518.000000	50.224600
517.000000	49.424900
516.000000	48.678600
515.000000	47.931800
514.000000	47.200400
513.000000	46.427500
512.000000	45.694500
511.000000	44.979700
510.000000	44.252900
509.000000	43.547900
508.000000	42.818300
507.000000	42.126200
506.000000	41.428000
505.000000	40.736900
504.000000	40.030000
503.000000	39.335100
502.000000	38.631100
501.000000	37.919600
500.000000	37.218800
499.000000	36.502200
498.000000	35.794800
497.000000	35.105800
496.000000	34.432500
495.000000	33.734100
494.000000	33.048300
493.000000	32.373800
492.000000	31.719600
491.000000	31.046100
490.000000	30.430300
489.000000	29.800000
488.000000	29.222600
487.000000	28.679300
486.000000	28.152400
485.000000	27.665300
484.000000	27.195300
483.000000	26.758400
482.000000	26.398800
481.000000	26.057600
480.000000	25.743300
479.000000	25.458100
478.000000	25.191200
477.000000	24.962200
476.000000	24.771000
475.000000	24.606400
474.000000	24.452900
473.000000	24.331400
472.000000	24.229100
471.000000	24.146100
470.000000	24.096900
469.000000	24.071100
468.000000	24.058100
467.000000	24.046500
466.000000	24.061600
465.000000	24.085200
464.000000	24.094500
463.000000	24.111000
462.000000	24.169600
461.000000	24.227300
460.000000	24.261600
459.000000	24.284900
458.000000	24.316500
457.000000	24.364800
456.000000	24.405800
455.000000	24.427800
454.000000	24.423900
453.000000	24.427300
452.000000	24.448600
451.000000	24.464600
450.000000	24.442700
449.000000	24.393300
448.000000	24.340200
447.000000	24.282000
446.000000	24.225600
445.000000	24.165600
444.000000	24.071800
443.000000	23.961100
442.000000	23.825100
441.000000	23.665000
440.000000	23.519700
439.000000	23.355800
438.000000	23.159000
437.000000	22.979800
436.000000	22.780800
435.000000	22.550200
434.000000	22.317400
433.000000	22.079500
432.000000	21.840500
431.000000	21.583000
430.000000	21.304300
429.000000	21.002800
428.000000	20.704300
427.000000	20.405400
426.000000	20.099000
425.000000	19.763600
424.000000	19.432900
423.000000	19.107500
422.000000	18.765900
421.000000	18.428400
420.000000	18.078900
419.000000	17.730500
418.000000	17.361700
417.000000	16.992500
416.000000	16.633700
415.000000	16.273400
414.000000	15.912000
413.000000	15.532400
412.000000	15.174400
411.000000	14.833700
410.000000	14.492700
409.000000	14.140700
408.000000	13.786400
407.000000	13.452000
406.000000	13.148200
405.000000	12.819400
404.000000	12.478300
403.000000	12.184100
402.000000	11.892300
401.000000	11.621800
400.000000	11.354400
399.000000	11.066300
398.000000	10.816100
397.000000	10.571600
396.000000	10.320900
395.000000	10.102300
394.000000	9.887400
393.000000	9.667000
392.000000	9.464000
391.000000	9.268700
390.000000	9.081100
389.000000	8.909600
388.000000	8.753000
387.000000	8.593000
386.000000	8.451100
385.000000	8.294100
384.000000	8.154700
383.000000	8.046500
382.000000	7.937500
381.000000	7.806900
380.000000	7.705800
379.000000	7.610900
378.000000	7.505400
377.000000	7.418100
376.000000	7.218800
375.000000	6.851800
374.000000	6.821600
373.000000	6.851700
372.000000	6.731100
371.000000	6.760200
370.000000	6.682300
369.000000	6.660300
368.000000	6.696800
367.000000	6.699100
366.000000	6.614000
365.000000	6.618400
364.000000	6.571400
363.000000	6.682600
362.000000	6.640100
361.000000	6.522200
360.000000	6.555800
359.000000	6.523200
358.000000	6.446100
357.000000	6.334000
356.000000	6.197200
355.000000	6.330900
354.000000	6.440700
353.000000	6.452800
352.000000	6.218600
351.000000	6.382500
350.000000	6.296600
349.000000	6.151700
348.000000	6.269800
347.000000	6.045800
346.000000	6.031800
345.000000	6.157400
344.000000	6.228700
343.000000	5.983100
342.000000	6.152200
341.000000	6.045500
340.000000	6.278500
339.000000	6.270700
338.000000	6.012900
337.000000	6.065200
336.000000	6.077000
335.000000	6.107600
334.000000	6.029200
333.000000	5.977800
332.000000	5.802100
331.000000	6.058600
330.000000	5.986600
329.000000	6.052800
328.000000	6.440400
327.000000	5.972300
326.000000	5.959100
325.000000	6.187400
324.000000	6.670800
323.000000	6.324500
322.000000	6.620200
321.000000	6.316900
320.000000	6.563100
319.000000	6.444800
318.000000	6.773700
317.000000	6.531100
316.000000	5.811600
315.000000	5.815700
314.000000	5.676100
313.000000	5.750700
312.000000	5.705800
311.000000	5.727200
310.000000	5.744100
309.000000	5.774500
308.000000	5.743400
307.000000	5.728900
306.000000	5.660700
305.000000	5.726400
304.000000	5.810100
303.000000	5.744800
302.000000	5.782700
301.000000	5.788300
300.000000	5.798100
299.000000	5.803200
298.000000	5.715200
297.000000	5.725900
296.000000	5.812000
295.000000	5.744900
294.000000	5.755900
293.000000	5.788200
292.000000	5.757200
291.000000	5.735400
290.000000	5.813100
289.000000	5.768600
288.000000	5.790300
287.000000	5.881100
286.000000	5.813100
285.000000	5.779400
284.000000	5.768100
283.000000	5.741100
282.000000	5.805000
281.000000	5.841700
280.000000	5.838800
279.000000	5.812400
278.000000	5.763600
277.000000	5.799100
276.000000	5.722800
275.000000	5.822200
274.000000	5.884300
273.000000	5.830000
272.000000	5.851700
271.000000	5.843100
270.000000	5.832600
269.000000	5.857400
268.000000	5.968000
267.000000	5.879200
266.000000	5.964900
265.000000	5.923100
264.000000	6.020100
263.000000	5.987500
262.000000	6.033300
261.000000	6.071300
260.000000	6.096600
259.000000	6.132600
258.000000	6.122000
257.000000	6.114000
256.000000	6.110200
255.000000	6.038000
254.000000	6.163900
253.000000	6.223600
252.000000	6.239300
251.000000	6.210800
250.000000	6.208500
