PE UV       SUBTECH     SPECTRUM    ASCII       PEDS        4.00        
   -1
CICIMAUCR0253-2.Sample.ASC
24/06/26
17:02:27.00
24/06/26
17:02:27.00
Vinicio Soto Monge
C. resplendens. Sex M. Ventral
250,000000
1
Lambda 1050
1050L1511233
PerkinElmer UV WinLab 6.3.2.0749 / 2.02.05 Lambda 900 UV/VIS/NIR, Aug  7 2015 09:38:08

0
0
3350/servo 860,8/2
0
0
UV/VIS
1
1
1
DoubleDePol,CommonBeamDepol,RBeamAtt,SBeamAtt,60mm sphere, WB InGaAs Detector
0
0
0
0
Program
Program
3350/servo 860,8/2
3350/0,2 860,8/0,2
3350/0,2 860,8/0,2
0
15.00
 
 
 
0
 
860,8
319,2
860,8
Front
100
on
S:100 R:100
0
0
0
0
 
0
 
 
 
0
 
 
0
0
0
0
0
 
 
 
 
0
0


0
0
#HDR
-1
-1
#GR
nm
%R
1.0
0.0
2500,000000
-1,000000
2251
8
60,305500
4,564700
#DATA
2482.000000	6.091926
2481.000000	6.078527
2480.000000	6.105775
2479.000000	6.081793
2478.000000	6.027860
2477.000000	6.077176
2476.000000	6.055896
2475.000000	6.030337
2474.000000	6.068957
2473.000000	6.012434
2472.000000	6.003202
2471.000000	5.999599
2470.000000	6.076501
2469.000000	6.030787
2468.000000	6.058035
2467.000000	6.065354
2466.000000	6.028198
2465.000000	6.035404
2464.000000	6.031688
2463.000000	6.061188
2462.000000	6.044862
2461.000000	6.075487
2460.000000	6.043285
2459.000000	6.096430
2458.000000	6.095529
2457.000000	6.117823
2456.000000	6.135838
2455.000000	6.178736
2454.000000	6.148674
2453.000000	6.188420
2452.000000	6.193149
2451.000000	6.188757
2450.000000	6.227828
2449.000000	6.241339
2448.000000	6.282211
2447.000000	6.315539
2446.000000	6.342787
2445.000000	6.390527
2444.000000	6.388162
2443.000000	6.418788
2442.000000	6.452679
2441.000000	6.489723
2440.000000	6.481165
2439.000000	6.512129
2438.000000	6.551424
2437.000000	6.566399
2436.000000	6.574168
2435.000000	6.584752
2434.000000	6.621008
2433.000000	6.673139
2432.000000	6.688902
2431.000000	6.715587
2430.000000	6.719078
2429.000000	6.751054
2428.000000	6.763665
2427.000000	6.789224
2426.000000	6.807464
2425.000000	6.819512
2424.000000	6.841580
2423.000000	6.872544
2422.000000	6.877836
2421.000000	6.892023
2420.000000	6.917356
2419.000000	6.931318
2418.000000	6.939650
2417.000000	6.959016
2416.000000	6.983900
2415.000000	7.002591
2414.000000	7.001802
2413.000000	7.032315
2412.000000	7.049430
2411.000000	7.069809
2410.000000	7.070710
2409.000000	7.058550
2408.000000	7.074201
2407.000000	7.101449
2406.000000	7.136691
2405.000000	7.133651
2404.000000	7.146036
2403.000000	7.165290
2402.000000	7.167654
2401.000000	7.181728
2400.000000	7.203684
2399.000000	7.211679
2398.000000	7.232734
2397.000000	7.236224
2396.000000	7.257617
2395.000000	7.282838
2394.000000	7.306708
2393.000000	7.343302
2392.000000	7.374715
2391.000000	7.366271
2390.000000	7.377755
2389.000000	7.414799
2388.000000	7.420541
2387.000000	7.411309
2386.000000	7.418402
2385.000000	7.440471
2384.000000	7.466367
2383.000000	7.471096
2382.000000	7.477402
2381.000000	7.472673
2380.000000	7.478640
2379.000000	7.505212
2378.000000	7.504086
2377.000000	7.487760
2376.000000	7.496092
2375.000000	7.512531
2374.000000	7.505100
2373.000000	7.508815
2372.000000	7.509716
2371.000000	7.501159
2370.000000	7.507690
2369.000000	7.507239
2368.000000	7.495980
2367.000000	7.483482
2366.000000	7.488436
2365.000000	7.492602
2364.000000	7.491476
2363.000000	7.481793
2362.000000	7.453644
2361.000000	7.444186
2360.000000	7.438331
2359.000000	7.427973
2358.000000	7.424482
2357.000000	7.417727
2356.000000	7.401963
2355.000000	7.393856
2354.000000	7.397910
2353.000000	7.402076
2352.000000	7.395658
2351.000000	7.380458
2350.000000	7.383723
2349.000000	7.404553
2348.000000	7.417276
2347.000000	7.423807
2346.000000	7.442835
2345.000000	7.452969
2344.000000	7.455783
2343.000000	7.487873
2342.000000	7.506451
2341.000000	7.520976
2340.000000	7.537640
2339.000000	7.541243
2338.000000	7.539892
2337.000000	7.559483
2336.000000	7.584479
2335.000000	7.590559
2334.000000	7.585830
2333.000000	7.590221
2332.000000	7.599454
2331.000000	7.610713
2330.000000	7.592698
2329.000000	7.564099
2328.000000	7.572544
2327.000000	7.569617
2326.000000	7.555655
2325.000000	7.542031
2324.000000	7.532348
2323.000000	7.518499
2322.000000	7.506676
2321.000000	7.469407
2320.000000	7.442610
2319.000000	7.414912
2318.000000	7.377305
2317.000000	7.338798
2316.000000	7.302317
2315.000000	7.278447
2314.000000	7.257054
2313.000000	7.231833
2312.000000	7.190736
2311.000000	7.159660
2310.000000	7.130048
2309.000000	7.085798
2308.000000	7.061252
2307.000000	7.048642
2306.000000	7.046277
2305.000000	7.026686
2304.000000	7.016777
2303.000000	7.027699
2302.000000	7.045151
2301.000000	7.035468
2300.000000	7.064855
2299.000000	7.084672
2298.000000	7.108880
2297.000000	7.135114
2296.000000	7.159547
2295.000000	7.204135
2294.000000	7.217196
2293.000000	7.253001
2292.000000	7.282050
2291.000000	7.305132
2290.000000	7.298827
2289.000000	7.315941
2288.000000	7.352534
2287.000000	7.352084
2286.000000	7.359628
2285.000000	7.374378
2284.000000	7.383273
2283.000000	7.360078
2282.000000	7.360416
2281.000000	7.348031
2280.000000	7.332943
2279.000000	7.318869
2278.000000	7.299164
2277.000000	7.266962
2276.000000	7.265949
2275.000000	7.256266
2274.000000	7.241966
2273.000000	7.231383
2272.000000	7.202558
2271.000000	7.209652
2270.000000	7.221136
2269.000000	7.192650
2268.000000	7.228568
2267.000000	7.239827
2266.000000	7.257167
2265.000000	7.300516
2264.000000	7.355349
2263.000000	7.398360
2262.000000	7.454995
2261.000000	7.505888
2260.000000	7.589433
2259.000000	7.664083
2258.000000	7.757987
2257.000000	7.856170
2256.000000	7.909202
2255.000000	8.048594
2254.000000	8.156797
2253.000000	8.235275
2252.000000	8.329292
2251.000000	8.422858
2250.000000	8.522053
2249.000000	8.632734
2248.000000	8.726525
2247.000000	8.814799
2246.000000	8.886860
2245.000000	8.987857
2244.000000	9.022086
2243.000000	9.138734
2242.000000	9.164856
2241.000000	9.232637
2240.000000	9.270357
2239.000000	9.345682
2238.000000	9.400854
2237.000000	9.439361
2236.000000	9.480233
2235.000000	9.535292
2234.000000	9.530000
2233.000000	9.584270
2232.000000	9.576501
2231.000000	9.604199
2230.000000	9.616247
2229.000000	9.649575
2228.000000	9.639104
2227.000000	9.657457
2226.000000	9.653516
2225.000000	9.646647
2224.000000	9.640567
2223.000000	9.634262
2222.000000	9.616134
2221.000000	9.605550
2220.000000	9.593278
2219.000000	9.588999
2218.000000	9.565467
2217.000000	9.542723
2216.000000	9.523244
2215.000000	9.525946
2214.000000	9.504553
2213.000000	9.492055
2212.000000	9.433619
2211.000000	9.451972
2210.000000	9.433281
2209.000000	9.415041
2208.000000	9.410649
2207.000000	9.398489
2206.000000	9.386554
2205.000000	9.386554
2204.000000	9.381150
2203.000000	9.352438
2202.000000	9.372367
2201.000000	9.333973
2200.000000	9.318097
2199.000000	9.324402
2198.000000	9.316070
2197.000000	9.304923
2196.000000	9.303009
2195.000000	9.289723
2194.000000	9.291412
2193.000000	9.289385
2192.000000	9.276324
2191.000000	9.296028
2190.000000	9.269681
2189.000000	9.278013
2188.000000	9.257183
2187.000000	9.243221
2186.000000	9.244572
2185.000000	9.231512
2184.000000	9.227571
2183.000000	9.203363
2182.000000	9.234552
2181.000000	9.200998
2180.000000	9.179943
2179.000000	9.203025
2178.000000	9.192216
2177.000000	9.183434
2176.000000	9.194243
2175.000000	9.194468
2174.000000	9.166770
2173.000000	9.177354
2172.000000	9.168571
2171.000000	9.184109
2170.000000	9.180281
2169.000000	9.173638
2168.000000	9.161590
2167.000000	9.181294
2166.000000	9.193567
2165.000000	9.216649
2164.000000	9.239393
2163.000000	9.230949
2162.000000	9.238155
2161.000000	9.265065
2160.000000	9.247387
2159.000000	9.264051
2158.000000	9.293326
2157.000000	9.322037
2156.000000	9.355703
2155.000000	9.359757
2154.000000	9.384527
2153.000000	9.406033
2152.000000	9.424161
2151.000000	9.444991
2150.000000	9.461880
2149.000000	9.489803
2148.000000	9.487889
2147.000000	9.539570
2146.000000	9.568957
2145.000000	9.580442
2144.000000	9.597444
2143.000000	9.622665
2142.000000	9.628069
2141.000000	9.645409
2140.000000	9.689771
2139.000000	9.722086
2138.000000	9.727603
2137.000000	9.757440
2136.000000	9.771290
2135.000000	9.769938
2134.000000	9.800789
2133.000000	9.801240
2132.000000	9.799100
2131.000000	9.815652
2130.000000	9.835018
2129.000000	9.854497
2128.000000	9.846615
2127.000000	9.855961
2126.000000	9.847066
2125.000000	9.868684
2124.000000	9.866995
2123.000000	9.855623
2122.000000	9.860577
2121.000000	9.850669
2120.000000	9.848642
2119.000000	9.828825
2118.000000	9.833329
2117.000000	9.835468
2116.000000	9.821394
2115.000000	9.817341
2114.000000	9.815314
2113.000000	9.800677
2112.000000	9.776694
2111.000000	9.765322
2110.000000	9.754963
2109.000000	9.734133
2108.000000	9.732895
2107.000000	9.722311
2106.000000	9.696302
2105.000000	9.689996
2104.000000	9.687407
2103.000000	9.674008
2102.000000	9.646985
2101.000000	9.633249
2100.000000	9.625930
2099.000000	9.617035
2098.000000	9.600146
2097.000000	9.596656
2096.000000	9.580442
2095.000000	9.577289
2094.000000	9.566255
2093.000000	9.550154
2092.000000	9.547001
2091.000000	9.533377
2090.000000	9.516601
2089.000000	9.515362
2088.000000	9.515362
2087.000000	9.501288
2086.000000	9.490929
2085.000000	9.478769
2084.000000	9.450733
2083.000000	9.444991
2082.000000	9.434069
2081.000000	9.409073
2080.000000	9.410875
2079.000000	9.393985
2078.000000	9.361333
2077.000000	9.352438
2076.000000	9.335324
2075.000000	9.321700
2074.000000	9.293438
2073.000000	9.249639
2072.000000	9.213609
2071.000000	9.193229
2070.000000	9.166882
2069.000000	9.128150
2068.000000	9.102703
2067.000000	9.073767
2066.000000	9.044605
2065.000000	9.021523
2064.000000	8.994162
2063.000000	8.967477
2062.000000	8.941806
2061.000000	8.908365
2060.000000	8.876388
2059.000000	8.866255
2058.000000	8.853982
2057.000000	8.838894
2056.000000	8.833490
2055.000000	8.825045
2054.000000	8.825608
2053.000000	8.825158
2052.000000	8.820429
2051.000000	8.834503
2050.000000	8.855784
2049.000000	8.871434
2048.000000	8.920751
2047.000000	8.946647
2046.000000	8.961510
2045.000000	8.993599
2044.000000	9.019946
2043.000000	9.061381
2042.000000	9.112724
2041.000000	9.150106
2040.000000	9.183434
2039.000000	9.207641
2038.000000	9.262700
2037.000000	9.299744
2036.000000	9.332509
2035.000000	9.348497
2034.000000	9.365161
2033.000000	9.388693
2032.000000	9.407722
2031.000000	9.448369
2030.000000	9.467735
2029.000000	9.478093
2028.000000	9.497235
2027.000000	9.506242
2026.000000	9.515250
2025.000000	9.532364
2024.000000	9.529099
2023.000000	9.537656
2022.000000	9.536868
2021.000000	9.550379
2020.000000	9.546101
2019.000000	9.548690
2018.000000	9.563553
2017.000000	9.559612
2016.000000	9.531463
2015.000000	9.534503
2014.000000	9.547564
2013.000000	9.540809
2012.000000	9.509733
2011.000000	9.502752
2010.000000	9.490141
2009.000000	9.493069
2008.000000	9.476968
2007.000000	9.440262
2006.000000	9.426863
2005.000000	9.387793
2004.000000	9.383964
2003.000000	9.359757
2002.000000	9.350299
2001.000000	9.310553
2000.000000	9.288147
1999.000000	9.273622
1998.000000	9.226895
1997.000000	9.202350
1996.000000	9.165982
1995.000000	9.119480
1994.000000	9.076919
1993.000000	9.063183
1992.000000	9.017469
1991.000000	9.001594
1990.000000	8.965000
1989.000000	8.938766
1988.000000	8.881906
1987.000000	8.844975
1986.000000	8.814011
1985.000000	8.765370
1984.000000	8.728777
1983.000000	8.714928
1982.000000	8.655253
1981.000000	8.614606
1980.000000	8.578238
1979.000000	8.561799
1978.000000	8.520139
1977.000000	8.463955
1976.000000	8.437720
1975.000000	8.418241
1974.000000	8.360818
1973.000000	8.326252
1972.000000	8.293937
1971.000000	8.250813
1970.000000	8.220525
1969.000000	8.185846
1968.000000	8.168056
1967.000000	8.128198
1966.000000	8.108832
1965.000000	8.062555
1964.000000	8.043977
1963.000000	8.014477
1962.000000	7.984415
1961.000000	7.953451
1960.000000	7.948384
1959.000000	7.899406
1958.000000	7.855381
1957.000000	7.844572
1956.000000	7.819351
1955.000000	7.775327
1954.000000	7.771724
1953.000000	7.750331
1952.000000	7.723871
1951.000000	7.704955
1950.000000	7.679847
1949.000000	7.633683
1948.000000	7.608011
1947.000000	7.602607
1946.000000	7.589546
1945.000000	7.556218
1944.000000	7.561735
1943.000000	7.547886
1942.000000	7.551939
1941.000000	7.544170
1940.000000	7.515459
1939.000000	7.498232
1938.000000	7.480329
1937.000000	7.488323
1936.000000	7.498682
1935.000000	7.501722
1934.000000	7.490688
1933.000000	7.511518
1932.000000	7.521088
1931.000000	7.550138
1930.000000	7.542481
1929.000000	7.558470
1928.000000	7.575471
1927.000000	7.626026
1926.000000	7.653162
1925.000000	7.678495
1924.000000	7.717791
1923.000000	7.740310
1922.000000	7.794355
1921.000000	7.816536
1920.000000	7.896141
1919.000000	7.953789
1918.000000	8.010987
1917.000000	8.071450
1916.000000	8.131801
1915.000000	8.176726
1914.000000	8.241581
1913.000000	8.321860
1912.000000	8.412837
1911.000000	8.505952
1910.000000	8.567654
1909.000000	8.677096
1908.000000	8.735870
1907.000000	8.808719
1906.000000	8.924804
1905.000000	9.048208
1904.000000	9.196269
1903.000000	9.327104
1902.000000	9.430241
1901.000000	9.560625
1900.000000	9.713416
1899.000000	9.879606
1898.000000	10.049848
1897.000000	10.228986
1896.000000	10.393487
1895.000000	10.563054
1894.000000	10.746696
1893.000000	10.905004
1892.000000	11.129067
1891.000000	11.358760
1890.000000	11.621780
1889.000000	11.880860
1888.000000	12.129807
1887.000000	12.394629
1886.000000	12.676341
1885.000000	12.983273
1884.000000	13.293471
1883.000000	13.662556
1882.000000	14.030740
1881.000000	14.371901
1880.000000	14.757988
1879.000000	15.097348
1878.000000	15.432654
1877.000000	15.803541
1876.000000	16.161591
1875.000000	16.509170
1874.000000	16.863843
1873.000000	17.217840
1872.000000	17.600774
1871.000000	17.934167
1870.000000	18.273752
1869.000000	18.583499
1868.000000	18.906645
1867.000000	19.140955
1866.000000	19.373575
1865.000000	19.545844
1864.000000	19.741646
1863.000000	19.898378
1862.000000	20.045426
1861.000000	20.213530
1860.000000	20.369361
1859.000000	20.545459
1858.000000	20.700501
1857.000000	20.815348
1856.000000	20.909702
1855.000000	20.989081
1854.000000	21.074428
1853.000000	21.148740
1852.000000	21.194678
1851.000000	21.242531
1850.000000	21.271468
1849.000000	21.305697
1848.000000	21.339588
1847.000000	21.378545
1846.000000	21.422457
1845.000000	21.405230
1844.000000	21.381585
1843.000000	21.355126
1842.000000	21.328891
1841.000000	21.350960
1840.000000	21.368637
1839.000000	21.380685
1838.000000	21.380347
1837.000000	21.342402
1836.000000	21.330918
1835.000000	21.318758
1834.000000	21.281376
1833.000000	21.226993
1832.000000	21.173060
1831.000000	21.130950
1830.000000	21.096271
1829.000000	21.064857
1828.000000	21.026687
1827.000000	20.974669
1826.000000	20.927154
1825.000000	20.892587
1824.000000	20.847324
1823.000000	20.781569
1822.000000	20.736982
1821.000000	20.731915
1820.000000	20.726736
1819.000000	20.728537
1818.000000	20.689580
1817.000000	20.646906
1816.000000	20.628778
1815.000000	20.617969
1814.000000	20.597702
1813.000000	20.584754
1812.000000	20.570680
1811.000000	20.540279
1810.000000	20.505713
1809.000000	20.475425
1808.000000	20.448289
1807.000000	20.410683
1806.000000	20.378819
1805.000000	20.354160
1804.000000	20.308222
1803.000000	20.262846
1802.000000	20.227154
1801.000000	20.192813
1800.000000	20.149464
1799.000000	20.094180
1798.000000	20.045989
1797.000000	20.006806
1796.000000	19.974379
1795.000000	19.931368
1794.000000	19.880926
1793.000000	19.839153
1792.000000	19.809879
1791.000000	19.775762
1790.000000	19.730612
1789.000000	19.703589
1788.000000	19.665082
1787.000000	19.618130
1786.000000	19.575795
1785.000000	19.538864
1784.000000	19.505761
1783.000000	19.453630
1782.000000	19.392153
1781.000000	19.348128
1780.000000	19.312774
1779.000000	19.255351
1778.000000	19.199954
1777.000000	19.151088
1776.000000	19.099520
1775.000000	19.043786
1774.000000	18.975215
1773.000000	18.900903
1772.000000	18.831432
1771.000000	18.770068
1770.000000	18.689225
1769.000000	18.605005
1768.000000	18.537786
1767.000000	18.482164
1766.000000	18.413144
1765.000000	18.341421
1764.000000	18.280057
1763.000000	18.257876
1762.000000	18.240311
1761.000000	18.238397
1760.000000	18.259452
1759.000000	18.284786
1758.000000	18.321379
1757.000000	18.376438
1756.000000	18.432172
1755.000000	18.479237
1754.000000	18.519545
1753.000000	18.555238
1752.000000	18.583161
1751.000000	18.599825
1750.000000	18.593745
1749.000000	18.587215
1748.000000	18.588453
1747.000000	18.558165
1746.000000	18.513353
1745.000000	18.475859
1744.000000	18.421138
1743.000000	18.337368
1742.000000	18.249319
1741.000000	18.156428
1740.000000	18.052391
1739.000000	17.916827
1738.000000	17.772143
1737.000000	17.634440
1736.000000	17.510248
1735.000000	17.415781
1734.000000	17.327733
1733.000000	17.264004
1732.000000	17.252294
1731.000000	17.240134
1730.000000	17.259613
1729.000000	17.285960
1728.000000	17.317149
1727.000000	17.386282
1726.000000	17.445619
1725.000000	17.500678
1724.000000	17.551345
1723.000000	17.616425
1722.000000	17.657071
1721.000000	17.712693
1720.000000	17.765613
1719.000000	17.804233
1718.000000	17.847919
1717.000000	17.929325
1716.000000	18.010280
1715.000000	18.070856
1714.000000	18.157779
1713.000000	18.224323
1712.000000	18.324419
1711.000000	18.373736
1710.000000	18.445346
1709.000000	18.508399
1708.000000	18.519208
1707.000000	18.533507
1706.000000	18.536885
1705.000000	18.518982
1704.000000	18.503557
1703.000000	18.456493
1702.000000	18.413031
1701.000000	18.341083
1700.000000	18.251120
1699.000000	18.174331
1698.000000	18.057345
1697.000000	17.947903
1696.000000	17.877757
1695.000000	17.800742
1694.000000	17.772819
1693.000000	17.771468
1692.000000	17.806259
1691.000000	17.848707
1690.000000	17.931127
1689.000000	18.017937
1688.000000	18.117696
1687.000000	18.216554
1686.000000	18.266320
1685.000000	18.351442
1684.000000	18.438365
1683.000000	18.548595
1682.000000	18.646439
1681.000000	18.831207
1680.000000	19.095354
1679.000000	19.410506
1678.000000	19.740633
1677.000000	20.112533
1676.000000	20.477451
1675.000000	20.841244
1674.000000	21.136692
1673.000000	21.444188
1672.000000	21.709573
1671.000000	21.917986
1670.000000	22.105568
1669.000000	22.303397
1668.000000	22.443239
1667.000000	22.625755
1666.000000	22.757828
1665.000000	22.874814
1664.000000	22.946537
1663.000000	23.038864
1662.000000	23.137609
1661.000000	23.195708
1660.000000	23.242885
1659.000000	23.316409
1658.000000	23.360209
1657.000000	23.409976
1656.000000	23.432044
1655.000000	23.408287
1654.000000	23.444542
1653.000000	23.451748
1652.000000	23.418758
1651.000000	23.421010
1650.000000	23.394437
1649.000000	23.394775
1648.000000	23.388920
1647.000000	23.314721
1646.000000	23.271484
1645.000000	23.238269
1644.000000	23.197960
1643.000000	23.151796
1642.000000	23.108673
1641.000000	23.063072
1640.000000	23.001820
1639.000000	22.971645
1638.000000	22.930548
1637.000000	22.870648
1636.000000	22.813225
1635.000000	22.742853
1634.000000	22.689708
1633.000000	22.616635
1632.000000	22.560900
1631.000000	22.512372
1630.000000	22.438735
1629.000000	22.376245
1628.000000	22.305086
1627.000000	22.220077
1626.000000	22.161190
1625.000000	22.100276
1624.000000	22.043866
1623.000000	21.955930
1622.000000	21.876100
1621.000000	21.810120
1620.000000	21.747518
1619.000000	21.668251
1618.000000	21.586733
1617.000000	21.527846
1616.000000	21.472674
1615.000000	21.426736
1614.000000	21.347131
1613.000000	21.280363
1612.000000	21.210442
1611.000000	21.169345
1610.000000	21.088051
1609.000000	20.999777
1608.000000	20.955640
1607.000000	20.891461
1606.000000	20.794743
1605.000000	20.752069
1604.000000	20.688341
1603.000000	20.614366
1602.000000	20.540054
1601.000000	20.490963
1600.000000	20.403702
1599.000000	20.353260
1598.000000	20.259356
1597.000000	20.183129
1596.000000	20.110619
1595.000000	20.058938
1594.000000	19.998700
1593.000000	19.944767
1592.000000	19.892298
1591.000000	19.816409
1590.000000	19.753356
1589.000000	19.704715
1588.000000	19.670261
1587.000000	19.604731
1586.000000	19.559806
1585.000000	19.502496
1584.000000	19.460948
1583.000000	19.410281
1582.000000	19.347678
1581.000000	19.301627
1580.000000	19.268749
1579.000000	19.212340
1578.000000	19.170004
1577.000000	19.156380
1576.000000	19.130371
1575.000000	19.088598
1574.000000	19.048852
1573.000000	19.025658
1572.000000	19.015299
1571.000000	18.985236
1570.000000	18.981183
1569.000000	18.965532
1568.000000	18.930628
1567.000000	18.924210
1566.000000	18.912388
1565.000000	18.899890
1564.000000	18.904168
1563.000000	18.889531
1562.000000	18.871854
1561.000000	18.857554
1560.000000	18.834360
1559.000000	18.808238
1558.000000	18.782228
1557.000000	18.771982
1556.000000	18.753629
1555.000000	18.722216
1554.000000	18.671548
1553.000000	18.635856
1552.000000	18.603203
1551.000000	18.546118
1550.000000	18.519658
1549.000000	18.491397
1548.000000	18.436901
1547.000000	18.396029
1546.000000	18.351442
1545.000000	18.326221
1544.000000	18.289402
1543.000000	18.239073
1542.000000	18.216328
1541.000000	18.196061
1540.000000	18.156541
1539.000000	18.128955
1538.000000	18.097429
1537.000000	18.077499
1536.000000	18.044284
1535.000000	18.003412
1534.000000	17.971548
1533.000000	17.941373
1532.000000	17.911423
1531.000000	17.878883
1530.000000	17.821797
1529.000000	17.771017
1528.000000	17.732622
1527.000000	17.677451
1526.000000	17.643898
1525.000000	17.602914
1524.000000	17.554498
1523.000000	17.505857
1522.000000	17.453726
1521.000000	17.407224
1520.000000	17.352166
1519.000000	17.305551
1518.000000	17.256122
1517.000000	17.194308
1516.000000	17.147018
1515.000000	17.101868
1514.000000	17.041742
1513.000000	16.970921
1512.000000	16.914736
1511.000000	16.873189
1510.000000	16.834343
1509.000000	16.779960
1508.000000	16.714430
1507.000000	16.645297
1506.000000	16.588324
1505.000000	16.540472
1504.000000	16.475054
1503.000000	16.417406
1502.000000	16.359983
1501.000000	16.295691
1500.000000	16.252230
1499.000000	16.203364
1498.000000	16.155061
1497.000000	16.115315
1496.000000	16.064985
1495.000000	16.017132
1494.000000	15.976486
1493.000000	15.938879
1492.000000	15.903750
1491.000000	15.879655
1490.000000	15.835855
1489.000000	15.791606
1488.000000	15.764583
1487.000000	15.726076
1486.000000	15.705020
1485.000000	15.691847
1484.000000	15.649737
1483.000000	15.608189
1482.000000	15.603122
1481.000000	15.583869
1480.000000	15.548852
1479.000000	15.526783
1478.000000	15.513610
1477.000000	15.506854
1476.000000	15.491091
1475.000000	15.472175
1474.000000	15.457988
1473.000000	15.452133
1472.000000	15.460578
1471.000000	15.461028
1470.000000	15.465757
1469.000000	15.461366
1468.000000	15.467896
1467.000000	15.467671
1466.000000	15.462942
1465.000000	15.451458
1464.000000	15.472851
1463.000000	15.487488
1462.000000	15.509556
1461.000000	15.531512
1460.000000	15.547501
1459.000000	15.579140
1458.000000	15.606951
1457.000000	15.626767
1456.000000	15.659307
1455.000000	15.705471
1454.000000	15.751747
1453.000000	15.782598
1452.000000	15.833378
1451.000000	15.883145
1450.000000	15.948112
1449.000000	15.990335
1448.000000	16.034134
1447.000000	16.081199
1446.000000	16.137383
1445.000000	16.208993
1444.000000	16.280266
1443.000000	16.339716
1442.000000	16.372593
1441.000000	16.453324
1440.000000	16.522231
1439.000000	16.605889
1438.000000	16.697091
1437.000000	16.779960
1436.000000	16.847517
1435.000000	16.921154
1434.000000	17.016859
1433.000000	17.117068
1432.000000	17.212886
1431.000000	17.310168
1430.000000	17.417696
1429.000000	17.539072
1428.000000	17.673510
1427.000000	17.780475
1426.000000	17.915926
1425.000000	18.063425
1424.000000	18.227138
1423.000000	18.390737
1422.000000	18.560980
1421.000000	18.732349
1420.000000	18.910811
1419.000000	19.111004
1418.000000	19.300951
1417.000000	19.509702
1416.000000	19.725658
1415.000000	19.933507
1414.000000	20.187746
1413.000000	20.445362
1412.000000	20.732928
1411.000000	20.972755
1410.000000	21.258632
1409.000000	21.597767
1408.000000	21.934762
1407.000000	22.294727
1406.000000	22.636676
1405.000000	22.993376
1404.000000	23.394775
1403.000000	23.765549
1402.000000	24.186202
1401.000000	24.545266
1400.000000	25.012758
1399.000000	25.486894
1398.000000	25.890095
1397.000000	26.220335
1396.000000	26.590208
1395.000000	27.069635
1394.000000	27.566402
1393.000000	27.946971
1392.000000	28.352987
1391.000000	28.824420
1390.000000	29.311392
1389.000000	29.750848
1388.000000	30.269909
1387.000000	30.868349
1386.000000	31.447422
1385.000000	32.022893
1384.000000	32.633831
1383.000000	33.262221
1382.000000	33.917746
1381.000000	34.573721
1380.000000	35.125209
1379.000000	35.558698
1378.000000	35.901661
1377.000000	36.218164
1376.000000	36.488279
1375.000000	36.764811
1374.000000	37.042244
1373.000000	37.336228
1372.000000	37.658361
1371.000000	38.028346
1370.000000	38.407452
1369.000000	38.754694
1368.000000	39.080767
1367.000000	39.400085
1366.000000	39.717151
1365.000000	39.976569
1364.000000	40.213243
1363.000000	40.442147
1362.000000	40.653037
1361.000000	40.851879
1360.000000	41.074028
1359.000000	41.205876
1358.000000	41.341215
1357.000000	41.473288
1356.000000	41.641279
1355.000000	41.832802
1354.000000	42.144351
1353.000000	42.516251
1352.000000	42.875202
1351.000000	43.293716
1350.000000	43.755466
1349.000000	44.227350
1348.000000	44.624808
1347.000000	45.061788
1346.000000	45.458571
1345.000000	45.852539
1344.000000	46.231307
1343.000000	46.633157
1342.000000	46.958780
1341.000000	47.327527
1340.000000	47.702579
1339.000000	48.077294
1338.000000	48.408209
1337.000000	48.757477
1336.000000	49.104719
1335.000000	49.479321
1334.000000	49.793910
1333.000000	50.145768
1332.000000	50.490870
1331.000000	50.809287
1330.000000	51.125453
1329.000000	51.447586
1328.000000	51.759585
1327.000000	52.058411
1326.000000	52.318054
1325.000000	52.624311
1324.000000	52.899942
1323.000000	53.165327
1322.000000	53.422606
1321.000000	53.654438
1320.000000	53.915545
1319.000000	54.130037
1318.000000	54.367949
1317.000000	54.578501
1316.000000	54.804478
1315.000000	55.012440
1314.000000	55.194731
1313.000000	55.402130
1312.000000	55.591964
1311.000000	55.761644
1310.000000	55.937404
1309.000000	56.098302
1308.000000	56.256835
1307.000000	56.377199
1306.000000	56.508709
1305.000000	56.634927
1304.000000	56.748310
1303.000000	56.841876
1302.000000	56.942761
1301.000000	57.035539
1300.000000	57.114918
1299.000000	57.202066
1298.000000	57.255886
1297.000000	57.325469
1296.000000	57.392463
1295.000000	57.446171
1294.000000	57.491096
1293.000000	57.530279
1292.000000	57.558202
1291.000000	57.580834
1290.000000	57.606393
1289.000000	57.615851
1288.000000	57.619003
1287.000000	57.625309
1286.000000	57.613261
1285.000000	57.581622
1284.000000	57.575204
1283.000000	57.533882
1282.000000	57.503707
1281.000000	57.478823
1280.000000	57.442906
1279.000000	57.401133
1278.000000	57.350353
1277.000000	57.304752
1276.000000	57.270974
1275.000000	57.227963
1274.000000	57.209385
1273.000000	57.196774
1272.000000	57.167387
1271.000000	57.129668
1270.000000	57.123588
1269.000000	57.119309
1268.000000	57.099155
1267.000000	57.071907
1266.000000	57.033850
1265.000000	57.003787
1264.000000	56.979579
1263.000000	56.937469
1262.000000	56.890742
1261.000000	56.846380
1260.000000	56.810575
1259.000000	56.764861
1258.000000	56.720387
1257.000000	56.681879
1256.000000	56.620177
1255.000000	56.555436
1254.000000	56.493846
1253.000000	56.435973
1252.000000	56.346010
1251.000000	56.251993
1250.000000	56.187139
1249.000000	56.098077
1248.000000	55.999894
1247.000000	55.904977
1246.000000	55.790018
1245.000000	55.667178
1244.000000	55.551543
1243.000000	55.441763
1242.000000	55.314081
1241.000000	55.190002
1240.000000	55.064572
1239.000000	54.931710
1238.000000	54.802226
1237.000000	54.678035
1236.000000	54.551141
1235.000000	54.406569
1234.000000	54.263912
1233.000000	54.138144
1232.000000	53.993235
1231.000000	53.823217
1230.000000	53.666035
1229.000000	53.500071
1228.000000	53.313389
1227.000000	53.146524
1226.000000	52.977295
1225.000000	52.810204
1224.000000	52.621834
1223.000000	52.421753
1222.000000	52.230230
1221.000000	52.045012
1220.000000	51.861708
1219.000000	51.668046
1218.000000	51.479562
1217.000000	51.291980
1216.000000	51.111829
1215.000000	50.934943
1214.000000	50.779787
1213.000000	50.625533
1212.000000	50.442905
1211.000000	50.280318
1210.000000	50.136197
1209.000000	49.983069
1208.000000	49.820032
1207.000000	49.681428
1206.000000	49.557236
1205.000000	49.447907
1204.000000	49.337902
1203.000000	49.245237
1202.000000	49.171825
1201.000000	49.098639
1200.000000	49.028492
1199.000000	48.963413
1198.000000	48.869171
1197.000000	48.771890
1196.000000	48.644545
1195.000000	48.507180
1194.000000	48.314305
1193.000000	48.058828
1192.000000	47.777793
1191.000000	47.448454
1190.000000	47.102451
1189.000000	46.735167
1188.000000	46.405941
1187.000000	46.125468
1186.000000	45.934057
1185.000000	45.845333
1184.000000	45.839365
1183.000000	45.970200
1182.000000	46.203721
1181.000000	46.540154
1180.000000	46.939301
1179.000000	47.379433
1178.000000	47.854695
1177.000000	48.295953
1176.000000	48.691497
1175.000000	49.052813
1174.000000	49.384967
1173.000000	49.710590
1172.000000	50.025855
1171.000000	50.351253
1170.000000	50.663928
1169.000000	50.982795
1168.000000	51.324520
1167.000000	51.668946
1166.000000	52.030150
1165.000000	52.382908
1164.000000	52.754808
1163.000000	53.135040
1162.000000	53.543532
1161.000000	53.953939
1160.000000	54.349259
1159.000000	54.754374
1158.000000	55.146991
1157.000000	55.533978
1156.000000	55.921979
1155.000000	56.282056
1154.000000	56.593042
1153.000000	56.878807
1152.000000	57.130568
1151.000000	57.363414
1150.000000	57.564733
1149.000000	57.756481
1148.000000	57.927512
1147.000000	58.109690
1146.000000	58.323845
1145.000000	58.585289
1144.000000	58.898415
1143.000000	59.229218
1142.000000	59.602694
1141.000000	60.034944
1140.000000	60.516961
1139.000000	60.996951
1138.000000	61.480432
1137.000000	61.991274
1136.000000	62.530489
1135.000000	63.094475
1134.000000	63.681768
1133.000000	64.210399
1132.000000	64.711895
1131.000000	65.164074
1130.000000	65.599252
1129.000000	66.016527
1128.000000	66.323235
1127.000000	66.631068
1126.000000	66.874160
1125.000000	67.062418
1124.000000	67.213857
1123.000000	67.364284
1122.000000	67.480369
1121.000000	67.578889
1120.000000	67.667275
1119.000000	67.729653
1118.000000	67.765345
1117.000000	67.804303
1116.000000	67.848102
1115.000000	67.896631
1114.000000	67.895617
1113.000000	67.900684
1112.000000	67.894379
1111.000000	67.890550
1110.000000	67.899558
1109.000000	67.892465
1108.000000	67.893140
1107.000000	67.868369
1106.000000	67.874337
1105.000000	67.887736
1104.000000	67.881881
1103.000000	67.890888
1102.000000	67.856997
1101.000000	67.850242
1100.000000	67.858799
1099.000000	67.843824
1098.000000	67.814999
1097.000000	67.819841
1096.000000	67.788089
1095.000000	67.750258
1094.000000	67.732017
1093.000000	67.688218
1092.000000	67.641379
1091.000000	67.622463
1090.000000	67.566729
1089.000000	67.529910
1088.000000	67.470010
1087.000000	67.433754
1086.000000	67.371377
1085.000000	67.334896
1084.000000	67.258107
1083.000000	67.193590
1082.000000	67.130312
1081.000000	67.084824
1080.000000	67.021771
1079.000000	66.949035
1078.000000	66.860761
1077.000000	66.800410
1076.000000	66.747716
1075.000000	66.688604
1074.000000	66.584567
1073.000000	66.507439
1072.000000	66.447427
1071.000000	66.364332
1070.000000	66.295762
1069.000000	66.237325
1068.000000	66.124843
1067.000000	66.061340
1066.000000	65.970026
1065.000000	65.873645
1064.000000	65.789312
1063.000000	65.702163
1062.000000	65.609048
1061.000000	65.520999
1060.000000	65.426532
1059.000000	65.343325
1058.000000	65.251560
1057.000000	65.137164
1056.000000	65.039545
1055.000000	64.956900
1054.000000	64.849598
1053.000000	64.745898
1052.000000	64.644225
1051.000000	64.538724
1050.000000	64.454954
1049.000000	64.371071
1048.000000	64.268610
1047.000000	64.188893
1046.000000	64.106587
1045.000000	64.004914
1044.000000	63.908533
1043.000000	63.814291
1042.000000	63.732998
1041.000000	63.643373
1040.000000	63.547330
1039.000000	63.450949
1038.000000	63.336553
1037.000000	63.243887
1036.000000	63.152911
1035.000000	63.060246
1034.000000	62.957222
1033.000000	62.825036
1032.000000	62.717396
1031.000000	62.636327
1030.000000	62.508420
1029.000000	62.362160
1028.000000	62.255983
1027.000000	62.161179
1026.000000	62.035411
1025.000000	61.919326
1024.000000	61.780046
1023.000000	61.657206
1022.000000	61.542021
1021.000000	61.413213
1020.000000	61.287558
1019.000000	61.186335
1018.000000	61.048520
1017.000000	60.936826
1016.000000	60.828960
1015.000000	60.713326
1014.000000	60.607600
1013.000000	60.524730
1012.000000	60.423057
1011.000000	60.359441
1010.000000	60.279612
1009.000000	60.181092
1008.000000	60.116124
1007.000000	60.044064
1006.000000	59.998238
1005.000000	59.929443
1004.000000	59.865714
1003.000000	59.795455
1002.000000	59.724521
1001.000000	59.682410
1000.000000	59.612489
999.000000	59.546734
998.000000	59.504961
997.000000	59.429523
996.000000	59.380995
995.000000	59.313663
994.000000	59.254664
993.000000	59.196115
992.000000	59.153554
991.000000	59.101198
990.000000	59.048729
989.000000	59.003803
988.000000	58.932418
987.000000	58.901117
986.000000	58.863398
985.000000	58.811492
984.000000	58.788973
983.000000	58.766679
982.000000	58.719277
981.000000	58.671087
980.000000	58.650257
979.000000	58.635169
978.000000	58.596099
977.000000	58.543742
976.000000	58.511990
975.000000	58.492962
974.000000	58.472920
973.000000	58.443983
972.000000	58.414371
971.000000	58.394329
970.000000	58.348728
969.000000	58.331952
968.000000	58.323507
967.000000	58.296935
966.000000	58.273853
965.000000	58.248519
964.000000	58.245592
963.000000	58.255838
962.000000	58.236359
961.000000	58.202806
960.000000	58.192447
959.000000	58.204157
958.000000	58.214065
957.000000	58.204607
956.000000	58.193123
955.000000	58.188844
954.000000	58.198865
953.000000	58.203819
952.000000	58.180737
951.000000	58.190758
950.000000	58.203932
949.000000	58.186367
948.000000	58.189745
947.000000	58.181751
946.000000	58.144707
945.000000	58.121062
944.000000	58.116559
943.000000	58.083568
942.000000	58.041571
941.000000	58.014773
940.000000	57.984147
939.000000	57.957350
938.000000	57.901616
937.000000	57.841603
936.000000	57.787895
935.000000	57.738804
934.000000	57.693541
933.000000	57.643887
932.000000	57.593557
931.000000	57.562256
930.000000	57.503932
929.000000	57.439978
928.000000	57.363301
927.000000	57.318151
926.000000	57.254422
925.000000	57.177183
924.000000	57.103208
923.000000	57.020451
922.000000	56.977440
921.000000	56.912698
920.000000	56.828477
919.000000	56.743581
918.000000	56.663864
917.000000	56.586737
916.000000	56.499476
915.000000	56.408049
914.000000	56.316285
913.000000	56.223169
912.000000	56.139399
911.000000	56.053039
910.000000	55.969156
909.000000	55.892704
908.000000	55.803980
907.000000	55.728654
906.000000	55.665376
905.000000	55.594554
904.000000	55.534091
903.000000	55.477118
902.000000	55.387042
901.000000	55.349098
900.000000	55.309803
899.000000	55.267129
898.000000	55.218376
897.000000	55.163655
896.000000	55.082699
895.000000	55.015706
894.000000	54.964363
893.000000	54.908290
892.000000	54.827335
891.000000	54.720145
890.000000	54.625903
889.000000	54.504864
888.000000	54.415464
887.000000	54.326289
886.000000	54.217185
885.000000	54.089391
884.000000	53.960808
883.000000	53.812408
882.000000	53.674818
881.000000	53.512119
880.000000	53.372276
879.000000	53.187396
878.000000	52.996773
877.000000	52.804687
876.000000	52.630053
875.000000	52.394618
874.000000	52.136326
873.000000	51.872179
872.000000	51.667820
871.000000	51.551961
870.000000	51.518295
869.000000	51.531131
868.000000	51.545543
867.000000	51.554888
866.000000	51.568850
865.000000	51.528766
864.000000	51.517507
863.000000	51.530230
862.000000	51.531581
861.000000	51.512778
860.000000	51.491723
859.000000	51.482602
858.000000	51.469767
857.000000	50.627600
856.000000	51.991000
855.000000	51.790700
854.000000	51.844600
853.000000	51.799400
852.000000	52.011000
851.000000	51.642900
850.000000	51.611800
849.000000	51.766000
848.000000	51.654800
847.000000	52.007500
846.000000	51.977100
845.000000	51.783000
844.000000	51.941100
843.000000	51.849100
842.000000	51.957700
841.000000	51.773700
840.000000	52.023300
839.000000	51.872400
838.000000	51.664700
837.000000	51.795900
836.000000	51.691500
835.000000	51.719600
834.000000	51.812400
833.000000	51.696500
832.000000	51.866900
831.000000	51.763900
830.000000	51.834200
829.000000	51.863300
828.000000	51.832800
827.000000	51.762800
826.000000	51.852900
825.000000	51.649300
824.000000	51.810300
823.000000	51.733000
822.000000	51.541500
821.000000	51.607100
820.000000	51.328700
819.000000	51.407100
818.000000	51.457500
817.000000	51.490200
816.000000	51.342200
815.000000	51.406500
814.000000	51.393200
813.000000	51.142900
812.000000	51.049900
811.000000	51.033100
810.000000	50.990900
809.000000	51.010600
808.000000	51.028600
807.000000	50.870700
806.000000	50.877900
805.000000	50.767500
804.000000	50.716000
803.000000	50.738100
802.000000	50.746200
801.000000	50.464000
800.000000	50.547400
799.000000	50.345000
798.000000	50.362400
797.000000	50.225500
796.000000	50.288500
795.000000	50.108000
794.000000	49.927500
793.000000	49.937400
792.000000	49.991800
791.000000	49.741800
790.000000	49.631200
789.000000	49.578000
788.000000	49.546700
787.000000	49.453700
786.000000	49.267900
785.000000	49.171500
784.000000	49.218300
783.000000	49.063700
782.000000	48.936200
781.000000	48.937000
780.000000	48.715700
779.000000	48.634600
778.000000	48.598500
777.000000	48.442300
776.000000	48.251900
775.000000	48.177900
774.000000	48.138700
773.000000	48.048700
772.000000	47.895800
771.000000	47.725000
770.000000	47.743100
769.000000	47.443200
768.000000	47.411100
767.000000	47.308300
766.000000	47.093600
765.000000	46.975200
764.000000	46.865100
763.000000	46.637600
762.000000	46.520200
761.000000	46.440500
760.000000	46.269100
759.000000	46.142500
758.000000	45.986300
757.000000	45.849200
756.000000	45.717200
755.000000	45.564600
754.000000	45.405500
753.000000	45.216200
752.000000	45.077300
751.000000	44.892700
750.000000	44.708800
749.000000	44.554400
748.000000	44.398800
747.000000	44.174600
746.000000	44.057000
745.000000	43.870900
744.000000	43.675500
743.000000	43.547300
742.000000	43.297800
741.000000	43.122200
740.000000	42.939800
739.000000	42.701900
738.000000	42.527900
737.000000	42.323900
736.000000	42.086400
735.000000	41.928300
734.000000	41.732700
733.000000	41.493300
732.000000	41.245700
731.000000	41.068600
730.000000	40.835200
729.000000	40.586300
728.000000	40.380400
727.000000	40.157300
726.000000	39.994000
725.000000	39.801500
724.000000	39.552600
723.000000	39.370000
722.000000	39.101700
721.000000	38.897300
720.000000	38.668900
719.000000	38.407000
718.000000	38.187400
717.000000	37.966300
716.000000	37.748500
715.000000	37.557400
714.000000	37.313000
713.000000	37.070200
712.000000	36.859900
711.000000	36.651400
710.000000	36.460600
709.000000	36.231300
708.000000	36.026300
707.000000	35.837700
706.000000	35.586500
705.000000	35.400600
704.000000	35.209800
703.000000	35.023800
702.000000	34.778800
701.000000	34.562000
700.000000	34.346400
699.000000	34.150800
698.000000	33.980800
697.000000	33.776600
696.000000	33.599000
695.000000	33.425800
694.000000	33.219300
693.000000	32.986900
692.000000	32.795900
691.000000	32.641600
690.000000	32.474500
689.000000	32.290000
688.000000	32.105000
687.000000	31.900900
686.000000	31.724400
685.000000	31.565100
684.000000	31.384900
683.000000	31.204800
682.000000	31.041100
681.000000	30.854300
680.000000	30.686000
679.000000	30.527900
678.000000	30.377700
677.000000	30.245400
676.000000	30.116100
675.000000	29.938100
674.000000	29.768700
673.000000	29.628700
672.000000	29.497300
671.000000	29.390000
670.000000	29.253600
669.000000	29.099700
668.000000	28.958800
667.000000	28.833100
666.000000	28.712000
665.000000	28.576500
664.000000	28.442100
663.000000	28.315900
662.000000	28.199300
661.000000	28.078500
660.000000	27.954400
659.000000	27.848100
658.000000	27.726300
657.000000	27.599900
656.000000	27.482200
655.000000	27.368500
654.000000	27.265800
653.000000	27.177300
652.000000	27.090000
651.000000	26.979800
650.000000	26.869900
649.000000	26.802800
648.000000	26.705600
647.000000	26.614500
646.000000	26.547500
645.000000	26.457800
644.000000	26.361900
643.000000	26.297800
642.000000	26.232200
641.000000	26.155600
640.000000	26.087100
639.000000	26.027300
638.000000	25.962400
637.000000	25.888900
636.000000	25.845400
635.000000	25.788800
634.000000	25.737500
633.000000	25.695000
632.000000	25.632400
631.000000	25.587500
630.000000	25.538000
629.000000	25.484900
628.000000	25.463800
627.000000	25.437400
626.000000	25.408300
625.000000	25.379500
624.000000	25.352900
623.000000	25.345800
622.000000	25.329600
621.000000	25.314200
620.000000	25.291000
619.000000	25.284500
618.000000	25.281400
617.000000	25.270200
616.000000	25.267600
615.000000	25.279100
614.000000	25.297200
613.000000	25.339200
612.000000	25.353400
611.000000	25.364300
610.000000	25.399000
609.000000	25.431700
608.000000	25.454800
607.000000	25.495900
606.000000	25.561000
605.000000	25.607800
604.000000	25.643300
603.000000	25.724300
602.000000	25.804100
601.000000	25.882700
600.000000	25.947500
599.000000	26.011700
598.000000	26.085600
597.000000	26.172300
596.000000	26.272900
595.000000	26.382000
594.000000	26.462100
593.000000	26.553700
592.000000	26.653600
591.000000	26.768600
590.000000	26.865400
589.000000	26.969200
588.000000	27.064900
587.000000	27.141800
586.000000	27.250800
585.000000	27.354400
584.000000	27.434900
583.000000	27.518200
582.000000	27.605900
581.000000	27.685100
580.000000	27.740100
579.000000	27.800200
578.000000	27.878700
577.000000	27.935500
576.000000	28.007400
575.000000	28.060600
574.000000	28.111200
573.000000	28.151800
572.000000	28.169100
571.000000	28.179000
570.000000	28.198400
569.000000	28.211700
568.000000	28.235600
567.000000	28.238800
566.000000	28.231100
565.000000	28.233200
564.000000	28.238600
563.000000	28.208600
562.000000	28.178000
561.000000	28.137300
560.000000	28.109600
559.000000	28.107200
558.000000	28.067600
557.000000	28.008300
556.000000	27.970400
555.000000	27.940100
554.000000	27.838900
553.000000	27.750800
552.000000	27.646000
551.000000	27.550900
550.000000	27.450100
549.000000	27.327500
548.000000	27.209100
547.000000	27.103200
546.000000	26.956200
545.000000	26.825100
544.000000	26.673000
543.000000	26.514100
542.000000	26.341700
541.000000	26.163700
540.000000	25.970100
539.000000	25.781900
538.000000	25.581200
537.000000	25.388700
536.000000	25.152900
535.000000	24.933600
534.000000	24.707600
533.000000	24.440800
532.000000	24.190800
531.000000	23.929500
530.000000	23.660300
529.000000	23.398000
528.000000	23.121300
527.000000	22.833300
526.000000	22.549300
525.000000	22.233800
524.000000	21.958900
523.000000	21.631900
522.000000	21.321600
521.000000	21.018300
520.000000	20.703900
519.000000	20.389300
518.000000	20.082100
517.000000	19.785600
516.000000	19.483300
515.000000	19.187000
514.000000	18.882800
513.000000	18.596700
512.000000	18.348900
511.000000	18.056800
510.000000	17.769300
509.000000	17.515600
508.000000	17.278900
507.000000	17.027300
506.000000	16.799900
505.000000	16.570600
504.000000	16.329500
503.000000	16.119500
502.000000	15.911100
501.000000	15.700900
500.000000	15.512200
499.000000	15.332900
498.000000	15.136300
497.000000	14.953900
496.000000	14.800900
495.000000	14.652700
494.000000	14.494300
493.000000	14.336000
492.000000	14.199200
491.000000	14.052900
490.000000	13.919200
489.000000	13.787600
488.000000	13.663100
487.000000	13.558100
486.000000	13.445800
485.000000	13.342000
484.000000	13.245800
483.000000	13.130000
482.000000	13.009500
481.000000	12.906200
480.000000	12.772800
479.000000	12.650600
478.000000	12.547100
477.000000	12.455700
476.000000	12.351100
475.000000	12.255100
474.000000	12.157400
473.000000	12.078200
472.000000	11.976300
471.000000	11.889900
470.000000	11.806100
469.000000	11.748500
468.000000	11.657600
467.000000	11.583300
466.000000	11.505100
465.000000	11.427300
464.000000	11.366900
463.000000	11.292900
462.000000	11.215000
461.000000	11.150800
460.000000	11.096600
459.000000	11.013100
458.000000	10.953000
457.000000	10.874800
456.000000	10.836000
455.000000	10.761100
454.000000	10.724900
453.000000	10.636300
452.000000	10.577400
451.000000	10.522700
450.000000	10.443300
449.000000	10.382600
448.000000	10.341300
447.000000	10.252400
446.000000	10.155300
445.000000	10.107200
444.000000	10.069100
443.000000	9.991000
442.000000	9.919300
441.000000	9.810000
440.000000	9.771400
439.000000	9.682400
438.000000	9.607500
437.000000	9.533300
436.000000	9.431700
435.000000	9.381500
434.000000	9.298900
433.000000	9.196900
432.000000	9.113000
431.000000	9.047000
430.000000	8.965200
429.000000	8.884500
428.000000	8.795600
427.000000	8.729500
426.000000	8.673400
425.000000	8.602000
424.000000	8.509500
423.000000	8.425700
422.000000	8.344000
421.000000	8.250600
420.000000	8.173200
419.000000	8.106700
418.000000	7.993400
417.000000	7.920600
416.000000	7.858600
415.000000	7.780600
414.000000	7.720200
413.000000	7.617800
412.000000	7.525300
411.000000	7.455500
410.000000	7.379100
409.000000	7.305100
408.000000	7.232100
407.000000	7.179000
406.000000	7.103400
405.000000	7.023600
404.000000	6.969500
403.000000	6.885200
402.000000	6.818500
401.000000	6.740800
400.000000	6.658100
399.000000	6.597700
398.000000	6.527500
397.000000	6.479300
396.000000	6.411700
395.000000	6.332200
394.000000	6.268800
393.000000	6.212800
392.000000	6.154500
391.000000	6.097800
390.000000	6.029100
389.000000	5.975600
388.000000	5.929100
387.000000	5.877300
386.000000	5.834100
385.000000	5.758100
384.000000	5.692300
383.000000	5.641200
382.000000	5.611200
381.000000	5.582400
380.000000	5.516500
379.000000	5.499500
378.000000	5.470700
377.000000	5.425900
376.000000	5.451300
375.000000	5.257800
374.000000	4.735200
373.000000	4.648300
372.000000	4.657600
371.000000	4.827400
370.000000	4.790900
369.000000	4.724500
368.000000	4.884800
367.000000	4.895900
366.000000	5.017800
365.000000	5.051800
364.000000	5.012000
363.000000	4.920000
362.000000	4.882500
361.000000	4.864500
360.000000	4.801800
359.000000	4.815000
358.000000	4.878000
357.000000	4.857400
356.000000	4.812700
355.000000	4.796500
354.000000	4.848400
353.000000	4.933700
352.000000	4.917700
351.000000	4.875500
350.000000	4.938600
349.000000	5.015400
348.000000	4.924100
347.000000	4.806400
346.000000	4.894400
345.000000	4.985600
344.000000	4.789800
343.000000	4.784800
342.000000	4.837900
341.000000	4.895600
340.000000	4.932900
339.000000	4.775200
338.000000	4.651200
337.000000	4.803900
336.000000	4.857400
335.000000	4.654100
334.000000	4.817400
333.000000	4.905700
332.000000	5.037900
331.000000	5.271500
330.000000	4.859100
329.000000	4.779100
328.000000	5.083800
327.000000	5.367300
326.000000	5.496700
325.000000	5.280100
324.000000	5.413300
323.000000	5.618400
322.000000	5.495900
321.000000	5.555300
320.000000	5.533500
319.000000	5.556000
318.000000	6.335600
317.000000	5.613400
316.000000	4.610200
315.000000	4.601900
314.000000	4.600800
313.000000	4.602200
312.000000	4.592100
311.000000	4.595400
310.000000	4.594700
309.000000	4.573100
308.000000	4.583400
307.000000	4.588700
306.000000	4.605400
305.000000	4.564700
304.000000	4.574300
303.000000	4.642800
302.000000	4.617000
301.000000	4.589800
300.000000	4.584800
299.000000	4.606600
298.000000	4.591100
297.000000	4.602100
296.000000	4.595500
295.000000	4.587900
294.000000	4.624500
293.000000	4.640400
292.000000	4.628300
291.000000	4.629400
290.000000	4.669400
289.000000	4.664600
288.000000	4.638400
287.000000	4.649200
286.000000	4.651600
285.000000	4.642300
284.000000	4.666600
283.000000	4.664800
282.000000	4.677200
281.000000	4.678300
280.000000	4.691100
279.000000	4.691500
278.000000	4.706800
277.000000	4.680100
276.000000	4.687500
275.000000	4.716300
274.000000	4.750100
273.000000	4.767300
272.000000	4.744300
271.000000	4.741400
270.000000	4.785900
269.000000	4.789600
268.000000	4.768200
267.000000	4.783300
266.000000	4.794100
265.000000	4.837400
264.000000	4.842600
263.000000	4.829800
262.000000	4.873200
261.000000	4.896900
260.000000	4.935100
259.000000	4.972300
258.000000	4.998100
257.000000	4.990100
256.000000	4.985300
255.000000	4.962100
254.000000	4.968000
253.000000	5.025300
252.000000	5.081900
251.000000	5.069200
250.000000	5.092000
