Time1=100ms:Average1=5:Objective=10X:Aperture=1: (11/21/2018 10:32:46 AM)
11/21/2018 10:32:46 AM
Reflectance
10X
Ap#: 1
Avg1: 5.000000
Avg2: 0.000000
Int.Time1:100.000000

420.190645	23.726858
420.624620	23.514591
421.058582	23.288746
421.492531	23.067207
421.926468	22.874106
422.360391	22.726031
422.794301	22.590631
423.228199	22.506882
423.662083	22.453656
424.095955	22.428951
424.529813	22.386315
424.963658	22.318417
425.397491	22.279092
425.831310	22.223428
426.265116	22.158017
426.698909	22.098214
427.132689	22.059497
427.566455	21.987559
428.000209	21.982386
428.433949	21.975720
428.867676	21.964177
429.301389	21.947237
429.735090	21.937761
430.168777	21.901780
430.602451	21.881642
431.036111	21.812127
431.469759	21.767177
431.903392	21.708992
432.337013	21.655618
432.770620	21.575924
433.204213	21.531304
433.637794	21.512043
434.071360	21.493679
434.504914	21.498962
434.938453	21.522292
435.371979	21.549165
435.805492	21.560745
436.238991	21.558966
436.672477	21.551081
437.105949	21.529950
437.539407	21.497646
437.972852	21.449757
438.406283	21.406347
438.839700	21.353693
439.273104	21.340614
439.706494	21.323237
440.139871	21.302168
440.573233	21.277735
441.006582	21.268929
441.439917	21.240898
441.873238	21.198456
442.306546	21.155558
442.739839	21.093812
443.173119	21.038232
443.606385	20.967429
444.039636	20.899312
444.472874	20.855273
444.906099	20.811599
445.339309	20.779992
445.772505	20.758245
446.205687	20.758484
446.638855	20.745360
447.072009	20.722101
447.505149	20.704826
447.938275	20.684006
448.371387	20.661162
448.804485	20.624959
449.237569	20.588930
449.670638	20.555476
450.103694	20.493163
450.536735	20.425677
450.969762	20.368982
451.402774	20.324221
451.835773	20.290271
452.268757	20.262902
452.701727	20.226201
453.134683	20.200309
453.567624	20.178379
454.000551	20.154850
454.433464	20.121162
454.866362	20.074407
455.299246	20.034811
455.732116	19.986733
456.164971	19.929825
456.597811	19.879067
457.030638	19.841054
457.463449	19.785951
457.896246	19.723017
458.329029	19.658952
458.761797	19.599316
459.194551	19.528705
459.627290	19.455688
460.060014	19.385602
460.492724	19.325221
460.925419	19.253653
461.358099	19.181703
461.790765	19.098463
462.223416	19.015569
462.656052	18.925341
463.088674	18.835394
463.521281	18.760422
463.953873	18.682305
464.386450	18.591337
464.819012	18.514762
465.251560	18.438053
465.684093	18.362343
466.116611	18.294223
466.549114	18.231411
466.981602	18.172523
467.414075	18.108256
467.846533	18.049947
468.278977	17.995052
468.711405	17.930214
469.143818	17.867184
469.576216	17.807519
470.008600	17.740525
470.440968	17.678886
470.873321	17.619483
471.305659	17.560025
471.737982	17.507612
472.170289	17.453714
472.602582	17.410941
473.034859	17.377646
473.467122	17.359810
473.899369	17.345014
474.331600	17.358968
474.763817	17.374429
475.196018	17.415169
475.628204	17.465173
476.060375	17.533782
476.492530	17.614017
476.924670	17.688751
477.356795	17.773440
477.788904	17.868196
478.220998	17.957733
478.653076	18.054980
479.085139	18.149484
479.517186	18.257000
479.949219	18.369084
480.381235	18.488668
480.813236	18.624120
481.245221	18.782399
481.677191	18.946337
482.109146	19.122220
482.541084	19.309178
482.973008	19.507612
483.404915	19.707124
483.836807	19.901158
484.268683	20.108780
484.700544	20.318168
485.132388	20.519670
485.564217	20.722108
485.996031	20.933036
486.427828	21.145694
486.859610	21.350927
487.291376	21.559401
487.723126	21.765985
488.154860	21.983879
488.586579	22.201537
489.018281	22.436101
489.449968	22.684578
489.881639	22.936932
490.313293	23.202793
490.744932	23.481353
491.176555	23.760155
491.608162	24.031936
492.039753	24.297997
492.471328	24.550784
492.902886	24.783911
493.334429	24.995550
493.765956	25.187823
494.197466	25.374673
494.628960	25.531524
495.060439	25.702365
495.491901	25.864197
495.923347	26.025867
496.354776	26.184280
496.786190	26.360611
497.217587	26.541665
497.648968	26.708654
498.080332	26.880187
498.511681	27.045734
498.943013	27.197252
499.374328	27.317859
499.805628	27.415792
500.236911	27.498285
500.668177	27.554754
501.099427	27.584857
501.530661	27.597162
501.961878	27.582739
502.393079	27.550447
502.824264	27.490953
503.255431	27.423782
503.686583	27.345398
504.117717	27.263746
504.548835	27.176112
504.979937	27.111262
505.411022	27.045472
505.842090	26.994314
506.273142	26.950873
506.704177	26.925209
507.135195	26.902704
507.566197	26.878613
507.997182	26.849188
508.428150	26.811764
508.859102	26.772957
509.290036	26.724916
509.720954	26.679741
510.151855	26.633006
510.582739	26.596888
511.013607	26.589147
511.444457	26.604118
511.875291	26.656198
512.306107	26.755671
512.736907	26.901895
513.167690	27.103882
513.598456	27.357557
514.029205	27.660156
514.459936	28.018709
514.890651	28.416062
515.321349	28.868509
515.752030	29.366252
516.182693	29.901553
516.613340	30.480207
517.043969	31.104298
517.474582	31.771062
517.905177	32.476142
518.335755	33.214911
518.766315	34.008720
519.196859	34.836966
519.627385	35.708218
520.057894	36.611138
520.488386	37.558764
520.918860	38.551946
521.349318	39.620298
521.779757	40.750124
522.210180	41.946883
522.640585	43.189804
523.070973	44.489526
523.501343	45.834953
523.931696	47.224826
524.362031	48.651936
524.792349	50.116756
525.222650	51.598865
525.652933	53.073433
526.083198	54.559825
526.513446	56.031668
526.943677	57.474745
527.373890	58.917604
527.804085	60.342170
528.234262	61.774905
528.664422	63.184820
529.094565	64.590000
529.524689	66.005553
529.954796	67.427494
530.384885	68.841956
530.814957	70.257749
531.245011	71.671265
531.675047	73.066361
532.105065	74.449809
532.535065	75.828618
532.965048	77.167695
533.395013	78.471850
533.824959	79.729321
534.254888	80.937600
534.684799	82.108746
535.114693	83.221393
535.544568	84.275554
535.974425	85.282235
536.404264	86.226065
536.834086	87.111749
537.263889	87.961345
537.693674	88.754305
538.123441	89.495807
538.553190	90.213509
538.982921	90.902797
539.412634	91.574661
539.842329	92.236117
540.272006	92.893237
540.701664	93.525568
541.131304	94.146480
541.560926	94.749689
541.990530	95.343180
542.420116	95.926675
542.849683	96.500636
543.279232	97.040478
543.708763	97.543180
544.138275	98.020524
544.567769	98.490491
544.997245	98.929065
545.426702	99.328981
545.856141	99.704788
546.285562	100.071387
546.714964	100.416112
547.144347	100.727951
547.573713	101.056341
548.003059	101.366852
548.432387	101.688065
548.861697	102.005490
549.290988	102.334719
549.720260	102.678655
550.149514	103.045307
550.578750	103.402021
551.007966	103.758545
551.437164	104.125935
551.866344	104.471478
552.295504	104.815420
552.724646	105.143472
553.153769	105.458295
553.582874	105.746943
554.011960	106.016330
554.441027	106.247777
554.870075	106.435912
555.299104	106.590334
555.728115	106.708642
556.157106	106.783272
556.586079	106.826487
557.015033	106.879725
557.443968	106.906983
557.872884	106.899719
558.301781	106.904419
558.730659	106.915656
559.159518	106.924180
559.588358	106.957672
560.017180	107.000574
560.445982	107.073835
560.874765	107.154581
561.303528	107.271560
561.732273	107.376499
562.160999	107.502005
562.589705	107.647456
563.018393	107.780270
563.447061	107.937865
563.875710	108.089399
564.304340	108.253441
564.732950	108.386850
565.161542	108.528109
565.590114	108.659227
566.018666	108.789259
566.447200	108.915446
566.875714	109.031781
567.304208	109.137457
567.732684	109.249732
568.161140	109.364711
568.589576	109.485304
569.017993	109.596997
569.446391	109.709921
569.874769	109.827865
570.303128	109.944392
570.731467	110.060279
571.159787	110.180450
571.588087	110.298826
572.016368	110.414657
572.444629	110.539206
572.872870	110.646867
573.301092	110.742259
573.729294	110.822788
574.157476	110.885369
574.585639	110.902192
575.013782	110.902220
575.441906	110.876320
575.870009	110.821920
576.298093	110.750944
576.726157	110.619399
577.154202	110.493798
577.582226	110.348232
578.010231	110.228131
578.438216	110.081178
578.866181	109.959904
579.294126	109.818344
579.722051	109.697259
580.149957	109.596860
580.577842	109.502114
581.005707	109.436583
581.433553	109.376422
581.861378	109.356535
582.289184	109.334170
582.716969	109.333528
583.144734	109.352143
583.572479	109.375223
584.000205	109.405843
584.427910	109.441061
584.855594	109.473259
585.283259	109.512679
585.710904	109.566031
586.138528	109.595237
586.566132	109.642661
586.993716	109.692989
587.421280	109.726753
587.848823	109.760995
588.276346	109.804713
588.703849	109.826184
589.131332	109.837953
589.558794	109.840442
589.986236	109.837134
590.413657	109.819782
590.841058	109.803927
591.268438	109.760595
591.695799	109.722522
592.123138	109.659077
592.550458	109.612185
592.977756	109.549254
593.405034	109.474571
593.832292	109.410447
594.259529	109.328366
594.686746	109.259971
595.113942	109.163956
595.541117	109.084360
595.968272	108.986437
596.395406	108.888294
596.822519	108.781935
597.249612	108.664008
597.676684	108.541652
598.103735	108.404012
598.530766	108.250253
598.957775	108.049018
599.384764	107.852177
599.811733	107.620315
600.238680	107.378500
600.665606	107.127709
601.092512	106.865883
601.519397	106.588363
601.946261	106.327193
602.373104	106.047596
602.799926	105.780481
603.226727	105.499224
603.653507	105.203611
604.080266	104.893240
604.507004	104.571226
604.933721	104.247097
605.360417	103.917041
605.787092	103.565188
606.213746	103.197800
606.640379	102.817364
607.066991	102.424813
607.493581	102.011508
607.920150	101.591068
608.346699	101.147353
608.773226	100.690217
609.199731	100.228306
609.626216	99.736141
610.052679	99.225754
610.479121	98.697706
610.905542	98.144114
611.331941	97.574157
611.758319	96.977932
612.184676	96.359452
612.611011	95.712161
613.037325	95.052748
613.463617	94.346366
613.889888	93.617267
614.316138	92.854008
614.742366	92.038568
615.168573	91.189362
615.594758	90.300410
616.020921	89.363363
616.447063	88.405136
616.873184	87.406948
617.299283	86.369827
617.725360	85.318111
618.151416	84.231573
618.577450	83.121713
619.003462	81.975771
619.429453	80.804517
619.855422	79.620449
620.281369	78.402099
620.707295	77.176643
621.133199	75.910519
621.559081	74.629613
621.984941	73.321556
622.410779	71.999419
622.836596	70.654923
623.262391	69.291560
623.688163	67.913952
624.113914	66.527770
624.539644	65.124392
624.965351	63.715507
625.391036	62.309723
625.816699	60.927269
626.242340	59.545005
626.667960	58.189035
627.093557	56.861398
627.519132	55.569947
627.944685	54.330567
628.370216	53.132313
628.795725	52.004936
629.221212	50.943491
629.646677	49.951209
630.072119	49.034653
630.497540	48.213140
630.922938	47.470195
631.348314	46.825315
631.773668	46.268652
632.198999	45.807375
632.624308	45.444865
633.049595	45.171916
633.474860	44.995481
633.900102	44.902700
634.325322	44.903521
634.750520	44.991256
635.175695	45.168286
635.600848	45.415977
636.025978	45.748060
636.451086	46.153563
636.876171	46.635090
637.301234	47.181464
637.726275	47.791814
638.151293	48.471236
638.576288	49.204820
639.001261	49.983036
639.426211	50.810184
639.851139	51.679580
640.276044	52.575507
640.700927	53.509124
641.125787	54.463225
641.550624	55.426330
641.975438	56.399568
642.400230	57.368560
642.824999	58.336435
643.249745	59.301537
643.674469	60.243363
644.099169	61.170755
644.523847	62.076102
644.948502	62.962403
645.373135	63.827650
645.797744	64.668338
646.222330	65.485147
646.646894	66.277105
647.071435	67.042831
647.495953	67.782269
647.920447	68.490533
648.344919	69.166768
648.769368	69.818944
649.193794	70.438812
649.618197	71.033897
650.042576	71.582272
650.466933	72.110897
650.891267	72.610004
651.315577	73.085567
651.739864	73.544082
652.164129	73.980584
652.588370	74.382086
653.012587	74.772740
653.436782	75.147595
653.860953	75.492786
654.285102	75.824713
654.709226	76.146522
655.133328	76.452168
655.557406	76.752533
655.981461	77.042650
656.405493	77.319686
656.829501	77.577710
657.253486	77.825356
657.677448	78.044851
658.101386	78.250913
658.525301	78.428074
658.949192	78.583148
659.373060	78.711448
659.796904	78.822538
660.220725	78.906472
660.644522	78.977627
661.068296	79.021171
661.492046	79.053650
661.915772	79.054312
662.339475	79.047670
662.763154	79.020034
663.186810	78.989523
663.610442	78.944263
664.034050	78.897443
664.457635	78.834789
664.881196	78.763272
665.304733	78.680915
665.728247	78.609626
666.151736	78.517830
666.575202	78.431189
666.998644	78.331881
667.422062	78.229449
667.845457	78.114065
668.268827	77.989695
668.692174	77.844381
669.115496	77.683116
669.538795	77.502201
669.962070	77.299133
670.385321	77.069220
670.808547	76.822887
671.231750	76.541129
671.654929	76.251638
672.078084	75.934234
672.501214	75.597778
672.924321	75.227539
673.347404	74.833250
673.770462	74.401505
674.193496	73.953869
674.616506	73.482691
675.039492	72.998409
675.462454	72.497566
675.885391	71.999069
676.308305	71.489185
676.731194	70.984348
677.154058	70.469233
677.576899	69.956040
677.999715	69.454446
678.422507	68.953882
678.845274	68.461432
679.268017	67.989657
679.690736	67.518858
680.113430	67.080945
680.536100	66.646467
680.958746	66.242672
681.381367	65.853414
681.803963	65.489659
682.226535	65.146120
682.649083	64.835170
683.071605	64.554977
683.494104	64.299331
683.916578	64.072782
684.339027	63.885186
684.761451	63.726652
685.183851	63.601549
685.606227	63.499425
686.028577	63.427283
686.450903	63.389873
686.873204	63.390530
687.295481	63.427246
687.717733	63.490718
688.139959	63.589353
688.562162	63.711497
688.984339	63.851849
689.406492	64.026712
689.828619	64.210853
690.250722	64.427094
690.672800	64.660093
691.094853	64.910280
691.516881	65.186079
691.938884	65.479194
692.360863	65.778067
692.782816	66.111679
693.204744	66.449679
693.626647	66.814210
694.048526	67.184685
694.470379	67.572254
694.892207	67.980081
695.314010	68.407834
695.735788	68.847286
696.157540	69.302117
696.579268	69.779413
697.000970	70.281199
697.422648	70.794642
697.844300	71.318984
698.265926	71.867586
698.687528	72.438259
699.109104	73.021920
699.530655	73.614568
699.952181	74.221091
