PE UV       SUBTECH     SPECTRUM    ASCII       PEDS        4.00        
   -1
PELID.002-TX3.ASC
23/11/30
16:05:07.00
23/11/30
16:05:07.00
Vinicio Soto Monge
PELID 2
250,000000
1
Lambda 1050
1050L1511233
PerkinElmer UV WinLab 6.3.2.0749 / 2.02.05 Lambda 900 UV/VIS/NIR, Aug  7 2015 09:38:08

0
0
3350/servo 860,8/2
0
0
UV/VIS
1
1
1
DoubleDePol,CommonBeamDepol,RBeamAtt,SBeamAtt,60mm sphere, WB InGaAs Detector
0
0
0
0
Program
Program
3350/servo 860,8/2
3350/0,4 860,8/0,4
3350/0,4 860,8/0,4
0
20.00
 
 
 
0
 
860,8
319,2
860,8
Front
100
on
S:100 R:100
0
0
0
0
 
0
 
 
 
0
 
 
0
0
0
0
0
 
 
 
 
0
0


0
0
#HDR
-1
-1
#GR
nm
%A
1.0
0.0
2200,000000
-1,000000
1951
8
82,131741
0,175828
#DATA
284.000000	93.831098
285.000000	93.846001
286.000000	93.859621
287.000000	93.872848
288.000000	93.886719
289.000000	93.897740
290.000000	93.906918
291.000000	93.916903
292.000000	93.925436
293.000000	93.930712
294.000000	93.935992
295.000000	93.939170
296.000000	93.942679
297.000000	93.946725
298.000000	93.950037
299.000000	93.952381
300.000000	93.954623
301.000000	93.955244
302.000000	93.957538
303.000000	93.959454
304.000000	93.962198
305.000000	93.965484
306.000000	93.966455
307.000000	93.966508
308.000000	93.967672
309.000000	93.969674
310.000000	93.970963
311.000000	93.971568
312.000000	93.971008
313.000000	93.973282
314.000000	93.976958
315.000000	93.978331
316.000000	93.982751
317.000000	93.992262
318.000000	94.000115
319.000000	94.009040
320.000000	94.017259
321.000000	94.023805
322.000000	94.032740
323.000000	94.043127
324.000000	94.052433
325.000000	94.059343
326.000000	94.069244
327.000000	94.081212
328.000000	94.093385
329.000000	94.105970
330.000000	94.122986
331.000000	94.137647
332.000000	94.152758
333.000000	94.167821
334.000000	94.181679
335.000000	94.196283
336.000000	94.209173
337.000000	94.220622
338.000000	94.231343
339.000000	94.242868
340.000000	94.255645
341.000000	94.267645
342.000000	94.279090
343.000000	94.289073
344.000000	94.298772
345.000000	94.307674
346.000000	94.314248
347.000000	94.321458
348.000000	94.328680
349.000000	94.333463
350.000000	94.339625
351.000000	94.342228
352.000000	94.339381
353.000000	94.337568
354.000000	94.334489
355.000000	94.330945
356.000000	94.328501
357.000000	94.323873
358.000000	94.315961
359.000000	94.309215
360.000000	94.303351
361.000000	94.294933
362.000000	94.284719
363.000000	94.273751
364.000000	94.262618
365.000000	94.248151
366.000000	94.231166
367.000000	94.212133
368.000000	94.193214
369.000000	94.173554
370.000000	94.151209
371.000000	94.129478
372.000000	94.108228
373.000000	94.085038
374.000000	94.061032
375.000000	94.035195
376.000000	94.007638
377.000000	93.974446
378.000000	93.941471
379.000000	93.906488
380.000000	93.870597
381.000000	93.834865
382.000000	93.797547
383.000000	93.757932
384.000000	93.717826
385.000000	93.675739
386.000000	93.632407
387.000000	93.587013
388.000000	93.540840
389.000000	93.492629
390.000000	93.444116
391.000000	93.393456
392.000000	93.341008
393.000000	93.287219
394.000000	93.231778
395.000000	93.175808
396.000000	93.117732
397.000000	93.058030
398.000000	92.997884
399.000000	92.934827
400.000000	92.869424
401.000000	92.804856
402.000000	92.739346
403.000000	92.671807
404.000000	92.603255
405.000000	92.533890
406.000000	92.461545
407.000000	92.387148
408.000000	92.312531
409.000000	92.232664
410.000000	92.150272
411.000000	92.067219
412.000000	91.985665
413.000000	91.901005
414.000000	91.813484
415.000000	91.722700
416.000000	91.628623
417.000000	91.531640
418.000000	91.431289
419.000000	91.327377
420.000000	91.219765
421.000000	91.108348
422.000000	90.993044
423.000000	90.874551
424.000000	90.752652
425.000000	90.627355
426.000000	90.499279
427.000000	90.367588
428.000000	90.233204
429.000000	90.095776
430.000000	89.955106
431.000000	89.811075
432.000000	89.664303
433.000000	89.514702
434.000000	89.362296
435.000000	89.206860
436.000000	89.048260
437.000000	88.886701
438.000000	88.722366
439.000000	88.555622
440.000000	88.386456
441.000000	88.214548
442.000000	88.040119
443.000000	87.863507
444.000000	87.685330
445.000000	87.505912
446.000000	87.325461
447.000000	87.143978
448.000000	86.961682
449.000000	86.778572
450.000000	86.595093
451.000000	86.411211
452.000000	86.227135
453.000000	86.042346
454.000000	85.857126
455.000000	85.672400
456.000000	85.488005
457.000000	85.303593
458.000000	85.119264
459.000000	84.935044
460.000000	84.750627
461.000000	84.565695
462.000000	84.380732
463.000000	84.195117
464.000000	84.008980
465.000000	83.822321
466.000000	83.635154
467.000000	83.447344
468.000000	83.258840
469.000000	83.069779
470.000000	82.880156
471.000000	82.689929
472.000000	82.498697
473.000000	82.306037
474.000000	82.112084
475.000000	81.916787
476.000000	81.720239
477.000000	81.522670
478.000000	81.323770
479.000000	81.123266
480.000000	80.921821
481.000000	80.718502
482.000000	80.513227
483.000000	80.305741
484.000000	80.096629
485.000000	79.885527
486.000000	79.672667
487.000000	79.458047
488.000000	79.241813
489.000000	79.023927
490.000000	78.804052
491.000000	78.582112
492.000000	78.357744
493.000000	78.130688
494.000000	77.900601
495.000000	77.668691
496.000000	77.435512
497.000000	77.200394
498.000000	76.962447
499.000000	76.722116
500.000000	76.480062
501.000000	76.235996
502.000000	75.989693
503.000000	75.741063
504.000000	75.490312
505.000000	75.236841
506.000000	74.981549
507.000000	74.724047
508.000000	74.464909
509.000000	74.203710
510.000000	73.940257
511.000000	73.674936
512.000000	73.407469
513.000000	73.138064
514.000000	72.866752
515.000000	72.592323
516.000000	72.316575
517.000000	72.038966
518.000000	71.760472
519.000000	71.480046
520.000000	71.198020
521.000000	70.913777
522.000000	70.627841
523.000000	70.340148
524.000000	70.050706
525.000000	69.759326
526.000000	69.466713
527.000000	69.173294
528.000000	68.878733
529.000000	68.583401
530.000000	68.286902
531.000000	67.988550
532.000000	67.689149
533.000000	67.389559
534.000000	67.089309
535.000000	66.787629
536.000000	66.485023
537.000000	66.181996
538.000000	65.878338
539.000000	65.573718
540.000000	65.269539
541.000000	64.963880
542.000000	64.657683
543.000000	64.350547
544.000000	64.042922
545.000000	63.735033
546.000000	63.425456
547.000000	63.114531
548.000000	62.803384
549.000000	62.491766
550.000000	62.179252
551.000000	61.864581
552.000000	61.549429
553.000000	61.231230
554.000000	60.911290
555.000000	60.589118
556.000000	60.265226
557.000000	59.940004
558.000000	59.613289
559.000000	59.282910
560.000000	58.948787
561.000000	58.611626
562.000000	58.271598
563.000000	57.928474
564.000000	57.582588
565.000000	57.233753
566.000000	56.882924
567.000000	56.528728
568.000000	56.171946
569.000000	55.812572
570.000000	55.451908
571.000000	55.090611
572.000000	54.726911
573.000000	54.362116
574.000000	53.996182
575.000000	53.630020
576.000000	53.264453
577.000000	52.899036
578.000000	52.535296
579.000000	52.172726
580.000000	51.811086
581.000000	51.453677
582.000000	51.099114
583.000000	50.747576
584.000000	50.398141
585.000000	50.053658
586.000000	49.712737
587.000000	49.377248
588.000000	49.048365
589.000000	48.725098
590.000000	48.410332
591.000000	48.102469
592.000000	47.799836
593.000000	47.505143
594.000000	47.217943
595.000000	46.940612
596.000000	46.671437
597.000000	46.412426
598.000000	46.161360
599.000000	45.919121
600.000000	45.686154
601.000000	45.461055
602.000000	45.244982
603.000000	45.035863
604.000000	44.834379
605.000000	44.640246
606.000000	44.452553
607.000000	44.272270
608.000000	44.096296
609.000000	43.926852
610.000000	43.761738
611.000000	43.602101
612.000000	43.445749
613.000000	43.291935
614.000000	43.141679
615.000000	42.993296
616.000000	42.846100
617.000000	42.699768
618.000000	42.554759
619.000000	42.411978
620.000000	42.268219
621.000000	42.123321
622.000000	41.975758
623.000000	41.827054
624.000000	41.677162
625.000000	41.523935
626.000000	41.367642
627.000000	41.210539
628.000000	41.050287
629.000000	40.888285
630.000000	40.723197
631.000000	40.554569
632.000000	40.382956
633.000000	40.208137
634.000000	40.030265
635.000000	39.848850
636.000000	39.662063
637.000000	39.471655
638.000000	39.280292
639.000000	39.086306
640.000000	38.889572
641.000000	38.688943
642.000000	38.485665
643.000000	38.281501
644.000000	38.074364
645.000000	37.866854
646.000000	37.656239
647.000000	37.444376
648.000000	37.232850
649.000000	37.019374
650.000000	36.805204
651.000000	36.590100
652.000000	36.375447
653.000000	36.158812
654.000000	35.940507
655.000000	35.722099
656.000000	35.506353
657.000000	35.291288
658.000000	35.075646
659.000000	34.860035
660.000000	34.643628
661.000000	34.427589
662.000000	34.212192
663.000000	33.997169
664.000000	33.783008
665.000000	33.569531
666.000000	33.357596
667.000000	33.143678
668.000000	32.933032
669.000000	32.722222
670.000000	32.509963
671.000000	32.301702
672.000000	32.093720
673.000000	31.884489
674.000000	31.677219
675.000000	31.471466
676.000000	31.267156
677.000000	31.062698
678.000000	30.859923
679.000000	30.658530
680.000000	30.456352
681.000000	30.255797
682.000000	30.057652
683.000000	29.859208
684.000000	29.661610
685.000000	29.464852
686.000000	29.268968
687.000000	29.074395
688.000000	28.883579
689.000000	28.692731
690.000000	28.502973
691.000000	28.312735
692.000000	28.122379
693.000000	27.933359
694.000000	27.746364
695.000000	27.560436
696.000000	27.377204
697.000000	27.196727
698.000000	27.016075
699.000000	26.835349
700.000000	26.655310
701.000000	26.475242
702.000000	26.297165
703.000000	26.119914
704.000000	25.944623
705.000000	25.770070
706.000000	25.594863
707.000000	25.423793
708.000000	25.253522
709.000000	25.082173
710.000000	24.912002
711.000000	24.742123
712.000000	24.574272
713.000000	24.408217
714.000000	24.241547
715.000000	24.075249
716.000000	23.909161
717.000000	23.744230
718.000000	23.581467
719.000000	23.419857
720.000000	23.258360
721.000000	23.097113
722.000000	22.936615
723.000000	22.774960
724.000000	22.616504
725.000000	22.459874
726.000000	22.303918
727.000000	22.148633
728.000000	21.993423
729.000000	21.839471
730.000000	21.686918
731.000000	21.534929
732.000000	21.380759
733.000000	21.227958
734.000000	21.077451
735.000000	20.927889
736.000000	20.780544
737.000000	20.633478
738.000000	20.486381
739.000000	20.340597
740.000000	20.195563
741.000000	20.051706
742.000000	19.906557
743.000000	19.762326
744.000000	19.619187
745.000000	19.476061
746.000000	19.334588
747.000000	19.195072
748.000000	19.055442
749.000000	18.919383
750.000000	18.784455
751.000000	18.650225
752.000000	18.514054
753.000000	18.373223
754.000000	18.234815
755.000000	18.100622
756.000000	17.966877
757.000000	17.833035
758.000000	17.699411
759.000000	17.567818
760.000000	17.436848
761.000000	17.305479
762.000000	17.174983
763.000000	17.047129
764.000000	16.919380
765.000000	16.794644
766.000000	16.668532
767.000000	16.541812
768.000000	16.418741
769.000000	16.297732
770.000000	16.175075
771.000000	16.049930
772.000000	15.927712
773.000000	15.805254
774.000000	15.682362
775.000000	15.560604
776.000000	15.441917
777.000000	15.323457
778.000000	15.205101
779.000000	15.086013
780.000000	14.968221
781.000000	14.851665
782.000000	14.732783
783.000000	14.616218
784.000000	14.501264
785.000000	14.385997
786.000000	14.271234
787.000000	14.157690
788.000000	14.050790
789.000000	13.945813
790.000000	13.836946
791.000000	13.726885
792.000000	13.618370
793.000000	13.511308
794.000000	13.405797
795.000000	13.298300
796.000000	13.191703
797.000000	13.087954
798.000000	12.983771
799.000000	12.878215
800.000000	12.767498
801.000000	12.659725
802.000000	12.555044
803.000000	12.452708
804.000000	12.345993
805.000000	12.243348
806.000000	12.142859
807.000000	12.041396
808.000000	11.937890
809.000000	11.835664
810.000000	11.736585
811.000000	11.633895
812.000000	11.536200
813.000000	11.439342
814.000000	11.347013
815.000000	11.254204
816.000000	11.160939
817.000000	11.067281
818.000000	10.970441
819.000000	10.874648
820.000000	10.779093
821.000000	10.685615
822.000000	10.593295
823.000000	10.498425
824.000000	10.405401
825.000000	10.316151
826.000000	10.231941
827.000000	10.140449
828.000000	10.049955
829.000000	9.955559
830.000000	9.870476
831.000000	9.790085
832.000000	9.696954
833.000000	9.612656
834.000000	9.528917
835.000000	9.451523
836.000000	9.377280
837.000000	9.303483
838.000000	9.219218
839.000000	9.142677
840.000000	9.063513
841.000000	8.988668
842.000000	8.922260
843.000000	8.853212
844.000000	8.777836
845.000000	8.703862
846.000000	8.632928
847.000000	8.554127
848.000000	8.486400
849.000000	8.407902
850.000000	8.334149
851.000000	8.265266
852.000000	8.202402
853.000000	8.138090
854.000000	8.074426
855.000000	8.008648
856.000000	7.930792
857.000000	7.890396
858.000000	7.840399
859.000000	7.768212
860.000000	7.665183
861.000000	7.576930
862.000000	7.549371
863.000000	7.480681
864.000000	7.409639
865.000000	7.342983
866.000000	7.305373
867.000000	7.250249
868.000000	7.176561
869.000000	7.109141
870.000000	7.046160
871.000000	6.994915
872.000000	6.957606
873.000000	6.899589
874.000000	6.818581
875.000000	6.735697
876.000000	6.656375
877.000000	6.563859
878.000000	6.489694
879.000000	6.417119
880.000000	6.325530
881.000000	6.269283
882.000000	6.183276
883.000000	6.077649
884.000000	6.002493
885.000000	5.933470
886.000000	5.861392
887.000000	5.793499
888.000000	5.715447
889.000000	5.644208
890.000000	5.558911
891.000000	5.509040
892.000000	5.433458
893.000000	5.357541
894.000000	5.279485
895.000000	5.249401
896.000000	5.212516
897.000000	5.131484
898.000000	5.058039
899.000000	5.017869
900.000000	4.990922
901.000000	4.903281
902.000000	4.875442
903.000000	4.851264
904.000000	4.815032
905.000000	4.765888
906.000000	4.728206
907.000000	4.627949
908.000000	4.566033
909.000000	4.527185
910.000000	4.504769
911.000000	4.476963
912.000000	4.480395
913.000000	4.443712
914.000000	4.394619
915.000000	4.391320
916.000000	4.341595
917.000000	4.312677
918.000000	4.338397
919.000000	4.320096
920.000000	4.274530
921.000000	4.252766
922.000000	4.243290
923.000000	4.217835
924.000000	4.189154
925.000000	4.170471
926.000000	4.136106
927.000000	4.093308
928.000000	4.055865
929.000000	4.056655
930.000000	4.059577
931.000000	4.043013
932.000000	3.992257
933.000000	3.973817
934.000000	3.908550
935.000000	3.855307
936.000000	3.843867
937.000000	3.815743
938.000000	3.768374
939.000000	3.737087
940.000000	3.672830
941.000000	3.613739
942.000000	3.621902
943.000000	3.581365
944.000000	3.544495
945.000000	3.532300
946.000000	3.501680
947.000000	3.423060
948.000000	3.380366
949.000000	3.388109
950.000000	3.358595
951.000000	3.330026
952.000000	3.326041
953.000000	3.253964
954.000000	3.191631
955.000000	3.158642
956.000000	3.095125
957.000000	3.048539
958.000000	3.030635
959.000000	3.007821
960.000000	3.007152
961.000000	3.020291
962.000000	2.978680
963.000000	2.973349
964.000000	2.945021
965.000000	2.872655
966.000000	2.847830
967.000000	2.857404
968.000000	2.855773
969.000000	2.871177
970.000000	2.828165
971.000000	2.795740
972.000000	2.753613
973.000000	2.738084
974.000000	2.710562
975.000000	2.728811
976.000000	2.752275
977.000000	2.746886
978.000000	2.773418
979.000000	2.794820
980.000000	2.775196
981.000000	2.769890
982.000000	2.789682
983.000000	2.808607
984.000000	2.769790
985.000000	2.741308
986.000000	2.735978
987.000000	2.709339
988.000000	2.720132
989.000000	2.738130
990.000000	2.754041
991.000000	2.786277
992.000000	2.768367
993.000000	2.737835
994.000000	2.710372
995.000000	2.687649
996.000000	2.657854
997.000000	2.697276
998.000000	2.657860
999.000000	2.607636
1000.000000	2.593738
1001.000000	2.550909
1002.000000	2.547145
1003.000000	2.547773
1004.000000	2.535604
1005.000000	2.547383
1006.000000	2.540393
1007.000000	2.541144
1008.000000	2.510155
1009.000000	2.488363
1010.000000	2.482771
1011.000000	2.458871
1012.000000	2.436078
1013.000000	2.408631
1014.000000	2.384884
1015.000000	2.367089
1016.000000	2.335474
1017.000000	2.289908
1018.000000	2.241884
1019.000000	2.231130
1020.000000	2.222158
1021.000000	2.181247
1022.000000	2.176579
1023.000000	2.160455
1024.000000	2.142733
1025.000000	2.142182
1026.000000	2.126524
1027.000000	2.090039
1028.000000	2.080191
1029.000000	2.082379
1030.000000	2.069332
1031.000000	2.047562
1032.000000	2.038478
1033.000000	2.064064
1034.000000	2.089582
1035.000000	2.098903
1036.000000	2.109324
1037.000000	2.098509
1038.000000	2.074817
1039.000000	2.052552
1040.000000	2.038782
1041.000000	2.029946
1042.000000	1.990797
1043.000000	1.968308
1044.000000	1.963478
1045.000000	1.947841
1046.000000	1.904737
1047.000000	1.849260
1048.000000	1.822432
1049.000000	1.818213
1050.000000	1.792304
1051.000000	1.785887
1052.000000	1.829488
1053.000000	1.862373
1054.000000	1.887000
1055.000000	1.893910
1056.000000	1.930634
1057.000000	1.937894
1058.000000	1.923911
1059.000000	1.919938
1060.000000	1.904025
1061.000000	1.890326
1062.000000	1.927693
1063.000000	1.957787
1064.000000	1.969871
1065.000000	1.965252
1066.000000	1.942642
1067.000000	1.889880
1068.000000	1.872015
1069.000000	1.875170
1070.000000	1.863740
1071.000000	1.853479
1072.000000	1.808278
1073.000000	1.819308
1074.000000	1.834779
1075.000000	1.837893
1076.000000	1.831138
1077.000000	1.874123
1078.000000	1.898594
1079.000000	1.910832
1080.000000	1.904233
1081.000000	1.893278
1082.000000	1.925260
1083.000000	1.916495
1084.000000	1.880189
1085.000000	1.895875
1086.000000	1.901434
1087.000000	1.855405
1088.000000	1.836056
1089.000000	1.826431
1090.000000	1.804948
1091.000000	1.774392
1092.000000	1.764809
1093.000000	1.790038
1094.000000	1.793793
1095.000000	1.778118
1096.000000	1.791468
1097.000000	1.788159
1098.000000	1.773442
1099.000000	1.742829
1100.000000	1.742904
1101.000000	1.781586
1102.000000	1.777827
1103.000000	1.778607
1104.000000	1.781309
1105.000000	1.804424
1106.000000	1.815575
1107.000000	1.829406
1108.000000	1.808234
1109.000000	1.797178
1110.000000	1.767498
1111.000000	1.754204
1112.000000	1.696113
1113.000000	1.669897
1114.000000	1.671042
1115.000000	1.690309
1116.000000	1.730680
1117.000000	1.721972
1118.000000	1.721185
1119.000000	1.763356
1120.000000	1.770507
1121.000000	1.806012
1122.000000	1.824408
1123.000000	1.793787
1124.000000	1.777145
1125.000000	1.815363
1126.000000	1.857423
1127.000000	1.831265
1128.000000	1.781426
1129.000000	1.767000
1130.000000	1.775157
1131.000000	1.766164
1132.000000	1.772694
1133.000000	1.764560
1134.000000	1.724443
1135.000000	1.727497
1136.000000	1.692049
1137.000000	1.715137
1138.000000	1.679959
1139.000000	1.657041
1140.000000	1.647874
1141.000000	1.667773
1142.000000	1.678012
1143.000000	1.703707
1144.000000	1.718010
1145.000000	1.769191
1146.000000	1.773709
1147.000000	1.803476
1148.000000	1.836088
1149.000000	1.815074
1150.000000	1.808130
1151.000000	1.777763
1152.000000	1.764788
1153.000000	1.761473
1154.000000	1.764819
1155.000000	1.732862
1156.000000	1.716140
1157.000000	1.731129
1158.000000	1.765216
1159.000000	1.791642
1160.000000	1.800875
1161.000000	1.791244
1162.000000	1.826177
1163.000000	1.853929
1164.000000	1.900425
1165.000000	1.929678
1166.000000	1.976217
1167.000000	1.991692
1168.000000	2.004836
1169.000000	2.111847
1170.000000	2.154999
1171.000000	2.222830
1172.000000	2.257346
1173.000000	2.305544
1174.000000	2.344612
1175.000000	2.410205
1176.000000	2.444429
1177.000000	2.474521
1178.000000	2.478163
1179.000000	2.456923
1180.000000	2.475322
1181.000000	2.510898
1182.000000	2.556983
1183.000000	2.587708
1184.000000	2.645201
1185.000000	2.681854
1186.000000	2.722860
1187.000000	2.780563
1188.000000	2.826745
1189.000000	2.854076
1190.000000	2.922979
1191.000000	2.959692
1192.000000	2.977897
1193.000000	2.998108
1194.000000	3.025653
1195.000000	3.013132
1196.000000	3.014067
1197.000000	3.033669
1198.000000	3.064932
1199.000000	3.075856
1200.000000	3.078639
1201.000000	3.064083
1202.000000	3.071219
1203.000000	3.106014
1204.000000	3.081939
1205.000000	3.054966
1206.000000	3.020762
1207.000000	3.025119
1208.000000	3.047133
1209.000000	3.058379
1210.000000	3.041377
1211.000000	2.982495
1212.000000	2.946810
1213.000000	2.932698
1214.000000	2.988059
1215.000000	2.968096
1216.000000	2.955350
1217.000000	2.928728
1218.000000	2.932258
1219.000000	2.906532
1220.000000	2.900196
1221.000000	2.906824
1222.000000	2.883219
1223.000000	2.900079
1224.000000	2.901293
1225.000000	2.898627
1226.000000	2.872302
1227.000000	2.847998
1228.000000	2.824872
1229.000000	2.781151
1230.000000	2.801805
1231.000000	2.806054
1232.000000	2.794681
1233.000000	2.774266
1234.000000	2.735193
1235.000000	2.724492
1236.000000	2.717202
1237.000000	2.696528
1238.000000	2.690460
1239.000000	2.711938
1240.000000	2.718198
1241.000000	2.712264
1242.000000	2.685171
1243.000000	2.677171
1244.000000	2.656906
1245.000000	2.630417
1246.000000	2.628789
1247.000000	2.631091
1248.000000	2.628132
1249.000000	2.580666
1250.000000	2.582794
1251.000000	2.591244
1252.000000	2.611005
1253.000000	2.612790
1254.000000	2.608554
1255.000000	2.548216
1256.000000	2.516606
1257.000000	2.520171
1258.000000	2.491260
1259.000000	2.461364
1260.000000	2.429725
1261.000000	2.404210
1262.000000	2.411276
1263.000000	2.438208
1264.000000	2.460090
1265.000000	2.443327
1266.000000	2.440083
1267.000000	2.443609
1268.000000	2.465628
1269.000000	2.483269
1270.000000	2.477626
1271.000000	2.475933
1272.000000	2.491850
1273.000000	2.454573
1274.000000	2.392456
1275.000000	2.390576
1276.000000	2.405288
1277.000000	2.404372
1278.000000	2.396823
1279.000000	2.404118
1280.000000	2.393199
1281.000000	2.404808
1282.000000	2.420970
1283.000000	2.422357
1284.000000	2.441772
1285.000000	2.402433
1286.000000	2.379304
1287.000000	2.359103
1288.000000	2.328908
1289.000000	2.326272
1290.000000	2.343064
1291.000000	2.349277
1292.000000	2.334700
1293.000000	2.317864
1294.000000	2.318836
1295.000000	2.290895
1296.000000	2.307270
1297.000000	2.329607
1298.000000	2.321415
1299.000000	2.284222
1300.000000	2.253826
1301.000000	2.243454
1302.000000	2.242061
1303.000000	2.243021
1304.000000	2.215038
1305.000000	2.193054
1306.000000	2.168756
1307.000000	2.160298
1308.000000	2.181603
1309.000000	2.204015
1310.000000	2.189086
1311.000000	2.161179
1312.000000	2.146419
1313.000000	2.135151
1314.000000	2.127923
1315.000000	2.128678
1316.000000	2.139495
1317.000000	2.153515
1318.000000	2.155205
1319.000000	2.157392
1320.000000	2.194621
1321.000000	2.175734
1322.000000	2.156359
1323.000000	2.184226
1324.000000	2.205770
1325.000000	2.210700
1326.000000	2.199934
1327.000000	2.227822
1328.000000	2.257705
1329.000000	2.247826
1330.000000	2.296268
1331.000000	2.314318
1332.000000	2.290778
1333.000000	2.291458
1334.000000	2.329738
1335.000000	2.393435
1336.000000	2.434596
1337.000000	2.459495
1338.000000	2.467992
1339.000000	2.526886
1340.000000	2.577944
1341.000000	2.617226
1342.000000	2.613885
1343.000000	2.632211
1344.000000	2.688527
1345.000000	2.729848
1346.000000	2.783927
1347.000000	2.796929
1348.000000	2.812050
1349.000000	2.832385
1350.000000	2.876710
1351.000000	2.937319
1352.000000	2.947613
1353.000000	2.995018
1354.000000	3.006110
1355.000000	3.068721
1356.000000	3.086619
1357.000000	3.120207
1358.000000	3.136212
1359.000000	3.170067
1360.000000	3.173684
1361.000000	3.190969
1362.000000	3.302486
1363.000000	3.390527
1364.000000	3.448149
1365.000000	3.527578
1366.000000	3.532739
1367.000000	3.498638
1368.000000	3.500726
1369.000000	3.466219
1370.000000	3.316667
1371.000000	3.295263
1372.000000	3.305817
1373.000000	3.342136
1374.000000	3.366630
1375.000000	3.404730
1376.000000	3.403569
1377.000000	3.497510
1378.000000	3.525399
1379.000000	3.629985
1380.000000	3.620922
1381.000000	3.758290
1382.000000	3.707091
1383.000000	3.749336
1384.000000	3.664937
1385.000000	3.631267
1386.000000	3.616827
1387.000000	3.466623
1388.000000	3.512351
1389.000000	3.540423
1390.000000	3.519121
1391.000000	3.614491
1392.000000	3.869356
1393.000000	3.966685
1394.000000	3.994785
1395.000000	4.082887
1396.000000	4.125496
1397.000000	4.119652
1398.000000	4.134752
1399.000000	4.148680
1400.000000	4.130680
1401.000000	4.260591
1402.000000	4.386753
1403.000000	4.509951
1404.000000	4.523271
1405.000000	4.804477
1406.000000	4.911427
1407.000000	5.034133
1408.000000	5.161579
1409.000000	5.229247
1410.000000	5.324081
1411.000000	5.476165
1412.000000	5.559253
1413.000000	5.646892
1414.000000	5.655969
1415.000000	5.778439
1416.000000	5.777048
1417.000000	6.027313
1418.000000	6.081938
1419.000000	6.332499
1420.000000	6.470611
1421.000000	6.603924
1422.000000	6.904095
1423.000000	6.966739
1424.000000	7.117097
1425.000000	7.249243
1426.000000	7.336614
1427.000000	7.232108
1428.000000	7.288115
1429.000000	7.387545
1430.000000	7.521814
1431.000000	7.662237
1432.000000	7.751663
1433.000000	7.849449
1434.000000	8.004967
1435.000000	8.159060
1436.000000	8.226548
1437.000000	8.298011
1438.000000	8.368518
1439.000000	8.589226
1440.000000	8.627896
1441.000000	8.724738
1442.000000	8.759273
1443.000000	8.822276
1444.000000	8.950688
1445.000000	8.959652
1446.000000	9.026040
1447.000000	9.077907
1448.000000	9.179175
1449.000000	9.246206
1450.000000	9.319615
1451.000000	9.389231
1452.000000	9.438718
1453.000000	9.551303
1454.000000	9.613287
1455.000000	9.721545
1456.000000	9.747733
1457.000000	9.801378
1458.000000	9.901784
1459.000000	9.966105
1460.000000	10.019323
1461.000000	10.128463
1462.000000	10.260721
1463.000000	10.326399
1464.000000	10.391855
1465.000000	10.455564
1466.000000	10.526790
1467.000000	10.590274
1468.000000	10.641977
1469.000000	10.632258
1470.000000	10.647478
1471.000000	10.694808
1472.000000	10.794673
1473.000000	10.902984
1474.000000	10.968790
1475.000000	11.041646
1476.000000	11.105916
1477.000000	11.187600
1478.000000	11.231443
1479.000000	11.264154
1480.000000	11.385021
1481.000000	11.396517
1482.000000	11.418082
1483.000000	11.455744
1484.000000	11.498380
1485.000000	11.560289
1486.000000	11.594000
1487.000000	11.630588
1488.000000	11.709292
1489.000000	11.736133
1490.000000	11.763213
1491.000000	11.835132
1492.000000	11.887866
1493.000000	11.925872
1494.000000	11.929066
1495.000000	11.958276
1496.000000	11.969482
1497.000000	11.952723
1498.000000	11.963891
1499.000000	12.002595
1500.000000	12.013920
1501.000000	12.031603
1502.000000	12.026648
1503.000000	12.044413
1504.000000	12.104448
1505.000000	12.110151
1506.000000	12.072605
1507.000000	12.050972
1508.000000	11.990580
1509.000000	11.964581
1510.000000	11.921701
1511.000000	11.887784
1512.000000	11.857257
1513.000000	11.819538
1514.000000	11.792317
1515.000000	11.757732
1516.000000	11.722888
1517.000000	11.701469
1518.000000	11.672312
1519.000000	11.638259
1520.000000	11.590620
1521.000000	11.540203
1522.000000	11.502239
1523.000000	11.435019
1524.000000	11.397599
1525.000000	11.369308
1526.000000	11.326964
1527.000000	11.266500
1528.000000	11.216371
1529.000000	11.197215
1530.000000	11.155061
1531.000000	11.108961
1532.000000	11.056338
1533.000000	11.013932
1534.000000	10.977985
1535.000000	10.933335
1536.000000	10.879312
1537.000000	10.833971
1538.000000	10.783824
1539.000000	10.741472
1540.000000	10.703554
1541.000000	10.681448
1542.000000	10.648815
1543.000000	10.636821
1544.000000	10.619986
1545.000000	10.591099
1546.000000	10.548457
1547.000000	10.527147
1548.000000	10.500796
1549.000000	10.442732
1550.000000	10.371757
1551.000000	10.318689
1552.000000	10.279602
1553.000000	10.244557
1554.000000	10.184987
1555.000000	10.143648
1556.000000	10.133551
1557.000000	10.089438
1558.000000	10.040912
1559.000000	10.001471
1560.000000	9.958409
1561.000000	9.916371
1562.000000	9.889492
1563.000000	9.852286
1564.000000	9.784506
1565.000000	9.765281
1566.000000	9.739797
1567.000000	9.690781
1568.000000	9.661086
1569.000000	9.611330
1570.000000	9.570790
1571.000000	9.550518
1572.000000	9.518035
1573.000000	9.489493
1574.000000	9.449803
1575.000000	9.418747
1576.000000	9.408824
1577.000000	9.398858
1578.000000	9.356286
1579.000000	9.308030
1580.000000	9.320067
1581.000000	9.352614
1582.000000	9.335011
1583.000000	9.314567
1584.000000	9.314217
1585.000000	9.325850
1586.000000	9.351579
1587.000000	9.344239
1588.000000	9.315674
1589.000000	9.312930
1590.000000	9.312910
1591.000000	9.284734
1592.000000	9.253256
1593.000000	9.260996
1594.000000	9.242236
1595.000000	9.229315
1596.000000	9.223341
1597.000000	9.202850
1598.000000	9.147929
1599.000000	9.148216
1600.000000	9.127821
1601.000000	9.077410
1602.000000	9.055485
1603.000000	9.019175
1604.000000	8.979723
1605.000000	8.955726
1606.000000	8.936445
1607.000000	8.898495
1608.000000	8.836745
1609.000000	8.791720
1610.000000	8.763128
1611.000000	8.749106
1612.000000	8.711493
1613.000000	8.654485
1614.000000	8.633748
1615.000000	8.571768
1616.000000	8.509307
1617.000000	8.458997
1618.000000	8.433749
1619.000000	8.396965
1620.000000	8.338496
1621.000000	8.292015
1622.000000	8.249257
1623.000000	8.211333
1624.000000	8.204171
1625.000000	8.160234
1626.000000	8.121579
1627.000000	8.100775
1628.000000	8.080211
1629.000000	8.068509
1630.000000	8.047024
1631.000000	7.995500
1632.000000	7.995787
1633.000000	7.992527
1634.000000	7.979504
1635.000000	7.938047
1636.000000	7.898041
1637.000000	7.877139
1638.000000	7.833589
1639.000000	7.828835
1640.000000	7.796484
1641.000000	7.774177
1642.000000	7.732648
1643.000000	7.748086
1644.000000	7.746423
1645.000000	7.721300
1646.000000	7.707186
1647.000000	7.671590
1648.000000	7.658741
1649.000000	7.648333
1650.000000	7.650831
1651.000000	7.587454
1652.000000	7.589299
1653.000000	7.519879
1654.000000	7.508709
1655.000000	7.556758
1656.000000	7.543779
1657.000000	7.509985
1658.000000	7.478837
1659.000000	7.456204
1660.000000	7.440141
1661.000000	7.437583
1662.000000	7.460432
1663.000000	7.447823
1664.000000	7.403791
1665.000000	7.392965
1666.000000	7.412871
1667.000000	7.400465
1668.000000	7.399359
1669.000000	7.439090
1670.000000	7.484889
1671.000000	7.518606
1672.000000	7.549214
1673.000000	7.616198
1674.000000	7.650645
1675.000000	7.746725
1676.000000	7.766684
1677.000000	7.833306
1678.000000	7.878512
1679.000000	7.934749
1680.000000	7.987521
1681.000000	8.011048
1682.000000	8.104143
1683.000000	8.187780
1684.000000	8.223187
1685.000000	8.258425
1686.000000	8.373102
1687.000000	8.419291
1688.000000	8.527862
1689.000000	8.622456
1690.000000	8.615332
1691.000000	8.670154
1692.000000	8.776150
1693.000000	8.851628
1694.000000	8.925189
1695.000000	9.019602
1696.000000	9.100333
1697.000000	9.156997
1698.000000	9.163705
1699.000000	9.228718
1700.000000	9.252614
1701.000000	9.283781
1702.000000	9.317778
1703.000000	9.373035
1704.000000	9.355017
1705.000000	9.357431
1706.000000	9.416646
1707.000000	9.441721
1708.000000	9.483405
1709.000000	9.514816
1710.000000	9.520929
1711.000000	9.568208
1712.000000	9.626247
1713.000000	9.648046
1714.000000	9.667492
1715.000000	9.693773
1716.000000	9.723861
1717.000000	9.761993
1718.000000	9.766639
1719.000000	9.825444
1720.000000	9.915337
1721.000000	9.977212
1722.000000	10.025965
1723.000000	10.072203
1724.000000	10.074727
1725.000000	10.146636
1726.000000	10.217292
1727.000000	10.255212
1728.000000	10.327077
1729.000000	10.391047
1730.000000	10.421753
1731.000000	10.414439
1732.000000	10.448402
1733.000000	10.543838
1734.000000	10.586423
1735.000000	10.651792
1736.000000	10.698772
1737.000000	10.743540
1738.000000	10.792214
1739.000000	10.831704
1740.000000	10.869769
1741.000000	10.893433
1742.000000	10.941666
1743.000000	10.942732
1744.000000	10.944408
1745.000000	10.904753
1746.000000	10.888563
1747.000000	10.848320
1748.000000	10.875084
1749.000000	10.904300
1750.000000	10.937917
1751.000000	10.928818
1752.000000	10.862038
1753.000000	10.842119
1754.000000	10.811959
1755.000000	10.753711
1756.000000	10.672733
1757.000000	10.644381
1758.000000	10.598569
1759.000000	10.585428
1760.000000	10.550638
1761.000000	10.494205
1762.000000	10.451129
1763.000000	10.415719
1764.000000	10.337041
1765.000000	10.282244
1766.000000	10.281597
1767.000000	10.246966
1768.000000	10.218024
1769.000000	10.249309
1770.000000	10.211849
1771.000000	10.176318
1772.000000	10.161879
1773.000000	10.151540
1774.000000	10.128529
1775.000000	10.109946
1776.000000	10.091606
1777.000000	10.053625
1778.000000	10.024690
1779.000000	10.016970
1780.000000	10.014253
1781.000000	9.997738
1782.000000	9.996058
1783.000000	9.945784
1784.000000	9.908578
1785.000000	9.876730
1786.000000	9.874060
1787.000000	9.895011
1788.000000	9.907785
1789.000000	9.895857
1790.000000	9.864365
1791.000000	9.863725
1792.000000	9.844754
1793.000000	9.853262
1794.000000	9.844160
1795.000000	9.848533
1796.000000	9.841034
1797.000000	9.823755
1798.000000	9.798062
1799.000000	9.782188
1800.000000	9.749668
1801.000000	9.713414
1802.000000	9.664382
1803.000000	9.622724
1804.000000	9.551472
1805.000000	9.530275
1806.000000	9.518721
1807.000000	9.491439
1808.000000	9.482760
1809.000000	9.488783
1810.000000	9.449898
1811.000000	9.403831
1812.000000	9.395874
1813.000000	9.418485
1814.000000	9.390248
1815.000000	9.365681
1816.000000	9.375708
1817.000000	9.281310
1818.000000	9.201532
1819.000000	9.115214
1820.000000	9.034160
1821.000000	9.053797
1822.000000	9.055403
1823.000000	9.030116
1824.000000	8.992643
1825.000000	8.891719
1826.000000	8.824446
1827.000000	8.815813
1828.000000	8.778415
1829.000000	8.757509
1830.000000	8.693864
1831.000000	8.688846
1832.000000	8.689271
1833.000000	8.707826
1834.000000	8.739068
1835.000000	8.687380
1836.000000	8.643509
1837.000000	8.657451
1838.000000	8.693329
1839.000000	8.702396
1840.000000	8.768883
1841.000000	8.778181
1842.000000	8.761280
1843.000000	8.717986
1844.000000	8.733774
1845.000000	8.788083
1846.000000	8.750209
1847.000000	8.626889
1848.000000	8.578554
1849.000000	8.589224
1850.000000	8.587354
1851.000000	8.603410
1852.000000	8.702504
1853.000000	8.786882
1854.000000	8.885968
1855.000000	8.913623
1856.000000	8.913211
1857.000000	8.984633
1858.000000	9.050812
1859.000000	9.074563
1860.000000	9.185908
1861.000000	9.254713
1862.000000	9.230768
1863.000000	9.107007
1864.000000	9.042892
1865.000000	9.077278
1866.000000	9.071095
1867.000000	9.026270
1868.000000	9.004087
1869.000000	8.998108
1870.000000	8.998096
1871.000000	9.106885
1872.000000	8.994396
1873.000000	8.991970
1874.000000	9.020029
1875.000000	9.011574
1876.000000	8.950985
1877.000000	8.996298
1878.000000	9.045908
1879.000000	9.086354
1880.000000	9.089009
1881.000000	9.217027
1882.000000	9.411504
1883.000000	9.459666
1884.000000	9.550562
1885.000000	9.676015
1886.000000	9.728630
1887.000000	9.856975
1888.000000	9.986658
1889.000000	10.035121
1890.000000	10.224502
1891.000000	10.348063
1892.000000	10.410310
1893.000000	10.534129
1894.000000	10.705595
1895.000000	10.899556
1896.000000	11.112431
1897.000000	11.351698
1898.000000	11.713981
1899.000000	12.011891
1900.000000	12.283344
1901.000000	12.558232
1902.000000	12.762352
1903.000000	13.095825
1904.000000	13.375770
1905.000000	13.808174
1906.000000	14.085724
1907.000000	14.573276
1908.000000	14.916690
1909.000000	15.263780
1910.000000	15.586320
1911.000000	16.042143
1912.000000	16.397473
1913.000000	16.782792
1914.000000	17.162367
1915.000000	17.533234
1916.000000	17.874232
1917.000000	18.295705
1918.000000	18.784909
1919.000000	19.121066
1920.000000	19.506885
1921.000000	19.962073
1922.000000	20.305095
1923.000000	20.601375
1924.000000	21.036357
1925.000000	21.375659
1926.000000	21.682628
1927.000000	22.049517
1928.000000	22.371260
1929.000000	22.724911
1930.000000	23.030077
1931.000000	23.304178
1932.000000	23.608544
1933.000000	23.848116
1934.000000	24.133384
1935.000000	24.352403
1936.000000	24.612484
1937.000000	24.972697
1938.000000	25.130984
1939.000000	25.393016
1940.000000	25.507178
1941.000000	25.679040
1942.000000	25.831409
1943.000000	25.971507
1944.000000	26.096769
1945.000000	26.206491
1946.000000	26.286225
1947.000000	26.372922
1948.000000	26.457787
1949.000000	26.519124
1950.000000	26.621288
1951.000000	26.626659
1952.000000	26.594527
1953.000000	26.558939
1954.000000	26.608100
1955.000000	26.574941
1956.000000	26.486660
1957.000000	26.501779
1958.000000	26.509290
1959.000000	26.428877
1960.000000	26.389256
1961.000000	26.360594
1962.000000	26.262970
1963.000000	26.207314
1964.000000	26.105210
1965.000000	25.989510
1966.000000	25.929670
1967.000000	25.804869
1968.000000	25.737328
1969.000000	25.605957
1970.000000	25.541739
1971.000000	25.425887
1972.000000	25.331592
1973.000000	25.219303
1974.000000	25.059146
1975.000000	25.011477
1976.000000	24.868327
1977.000000	24.724356
1978.000000	24.583687
1979.000000	24.459312
1980.000000	24.338426
1981.000000	24.213265
1982.000000	24.137232
1983.000000	24.010557
1984.000000	23.868271
1985.000000	23.729445
1986.000000	23.671663
1987.000000	23.573893
1988.000000	23.441755
1989.000000	23.306949
1990.000000	23.231638
1991.000000	23.139998
1992.000000	23.013499
1993.000000	22.918419
1994.000000	22.824878
1995.000000	22.683731
1996.000000	22.564433
1997.000000	22.445701
1998.000000	22.309912
1999.000000	22.215109
2000.000000	22.147241
