PE UV       SUBTECH     SPECTRUM    ASCII       PEDS        4.00        
   -1
NI#0002-TX3.ASC
23/11/30
13:13:48.00
23/11/30
13:13:48.00
Vinicio Soto Monge
NI #2
250,000000
1
Lambda 1050
1050L1511233
PerkinElmer UV WinLab 6.3.2.0749 / 2.02.05 Lambda 900 UV/VIS/NIR, Aug  7 2015 09:38:08

0
0
3350/servo 860,8/2
0
0
UV/VIS
1
1
1
DoubleDePol,CommonBeamDepol,RBeamAtt,SBeamAtt,60mm sphere, WB InGaAs Detector
0
0
0
0
Program
Program
3350/servo 860,8/2
3350/0,4 860,8/0,4
3350/0,4 860,8/0,4
0
20.00
 
 
 
0
 
860,8
319,2
860,8
Front
100
on
S:100 R:100
0
0
0
0
 
0
 
 
 
0
 
 
0
0
0
0
0
 
 
 
 
0
0


0
0
#HDR
-1
-1
#GR
nm
%A
1.0
0.0
2200,000000
-1,000000
1951
8
60,368636
0,383152
#DATA
284.000000	91.994362
285.000000	92.031350
286.000000	92.067926
287.000000	92.099418
288.000000	92.129672
289.000000	92.159440
290.000000	92.186025
291.000000	92.210977
292.000000	92.235883
293.000000	92.260800
294.000000	92.283156
295.000000	92.304576
296.000000	92.323142
297.000000	92.339240
298.000000	92.353945
299.000000	92.370773
300.000000	92.384393
301.000000	92.398119
302.000000	92.409862
303.000000	92.422318
304.000000	92.435252
305.000000	92.446883
306.000000	92.460574
307.000000	92.473697
308.000000	92.485552
309.000000	92.499769
310.000000	92.511363
311.000000	92.524824
312.000000	92.537631
313.000000	92.548989
314.000000	92.562098
315.000000	92.575467
316.000000	92.588094
317.000000	92.603087
318.000000	92.621353
319.000000	92.637724
320.000000	92.649863
321.000000	92.665041
322.000000	92.679457
323.000000	92.698114
324.000000	92.715195
325.000000	92.736039
326.000000	92.757081
327.000000	92.777515
328.000000	92.798017
329.000000	92.819563
330.000000	92.839269
331.000000	92.862999
332.000000	92.887109
333.000000	92.911222
334.000000	92.931272
335.000000	92.955417
336.000000	92.976496
337.000000	92.997441
338.000000	93.016111
339.000000	93.037193
340.000000	93.059113
341.000000	93.079050
342.000000	93.098085
343.000000	93.116081
344.000000	93.132654
345.000000	93.149222
346.000000	93.164979
347.000000	93.183064
348.000000	93.200669
349.000000	93.217572
350.000000	93.233514
351.000000	93.250254
352.000000	93.264480
353.000000	93.275341
354.000000	93.286554
355.000000	93.301886
356.000000	93.313767
357.000000	93.329378
358.000000	93.337943
359.000000	93.347135
360.000000	93.355423
361.000000	93.366479
362.000000	93.377186
363.000000	93.387616
364.000000	93.396206
365.000000	93.406395
366.000000	93.414062
367.000000	93.421671
368.000000	93.430241
369.000000	93.441277
370.000000	93.450658
371.000000	93.460765
372.000000	93.472129
373.000000	93.483936
374.000000	93.492820
375.000000	93.502278
376.000000	93.514509
377.000000	93.526480
378.000000	93.539658
379.000000	93.551987
380.000000	93.564842
381.000000	93.578442
382.000000	93.590389
383.000000	93.601940
384.000000	93.613800
385.000000	93.626476
386.000000	93.639202
387.000000	93.651281
388.000000	93.663142
389.000000	93.676084
390.000000	93.689312
391.000000	93.701596
392.000000	93.713131
393.000000	93.726923
394.000000	93.741047
395.000000	93.753802
396.000000	93.764639
397.000000	93.775355
398.000000	93.786459
399.000000	93.799068
400.000000	93.811351
401.000000	93.823274
402.000000	93.835119
403.000000	93.846714
404.000000	93.857643
405.000000	93.867815
406.000000	93.878821
407.000000	93.889621
408.000000	93.900205
409.000000	93.911622
410.000000	93.921077
411.000000	93.928968
412.000000	93.937283
413.000000	93.945070
414.000000	93.952955
415.000000	93.960713
416.000000	93.967703
417.000000	93.974771
418.000000	93.981780
419.000000	93.988868
420.000000	93.995632
421.000000	94.001737
422.000000	94.007376
423.000000	94.012747
424.000000	94.018176
425.000000	94.023460
426.000000	94.028994
427.000000	94.034700
428.000000	94.039724
429.000000	94.044408
430.000000	94.049160
431.000000	94.053797
432.000000	94.058214
433.000000	94.062070
434.000000	94.065714
435.000000	94.069389
436.000000	94.073014
437.000000	94.076193
438.000000	94.079124
439.000000	94.081747
440.000000	94.084462
441.000000	94.086713
442.000000	94.088423
443.000000	94.090067
444.000000	94.091295
445.000000	94.092410
446.000000	94.093262
447.000000	94.093840
448.000000	94.094284
449.000000	94.094173
450.000000	94.093806
451.000000	94.093136
452.000000	94.091733
453.000000	94.089771
454.000000	94.087416
455.000000	94.084649
456.000000	94.081491
457.000000	94.077843
458.000000	94.073320
459.000000	94.067679
460.000000	94.061142
461.000000	94.053307
462.000000	94.043951
463.000000	94.033387
464.000000	94.021248
465.000000	94.007023
466.000000	93.990572
467.000000	93.971936
468.000000	93.950829
469.000000	93.926394
470.000000	93.898552
471.000000	93.866876
472.000000	93.831060
473.000000	93.790735
474.000000	93.745359
475.000000	93.694161
476.000000	93.636694
477.000000	93.572298
478.000000	93.500213
479.000000	93.419939
480.000000	93.331290
481.000000	93.234116
482.000000	93.127938
483.000000	93.011548
484.000000	92.884597
485.000000	92.746723
486.000000	92.597312
487.000000	92.436261
488.000000	92.262954
489.000000	92.076703
490.000000	91.876817
491.000000	91.663602
492.000000	91.436939
493.000000	91.197167
494.000000	90.943800
495.000000	90.677772
496.000000	90.399583
497.000000	90.110136
498.000000	89.809923
499.000000	89.499787
500.000000	89.181278
501.000000	88.855561
502.000000	88.523190
503.000000	88.185589
504.000000	87.843838
505.000000	87.499033
506.000000	87.152737
507.000000	86.806265
508.000000	86.461184
509.000000	86.119173
510.000000	85.781692
511.000000	85.450715
512.000000	85.127815
513.000000	84.814641
514.000000	84.512750
515.000000	84.223433
516.000000	83.948352
517.000000	83.689271
518.000000	83.447795
519.000000	83.225113
520.000000	83.022423
521.000000	82.841071
522.000000	82.681660
523.000000	82.545534
524.000000	82.433797
525.000000	82.347193
526.000000	82.285660
527.000000	82.249392
528.000000	82.237884
529.000000	82.251718
530.000000	82.290211
531.000000	82.352733
532.000000	82.438678
533.000000	82.547310
534.000000	82.677682
535.000000	82.828651
536.000000	82.998400
537.000000	83.186269
538.000000	83.391232
539.000000	83.612172
540.000000	83.848105
541.000000	84.097230
542.000000	84.358098
543.000000	84.629673
544.000000	84.910305
545.000000	85.198650
546.000000	85.492942
547.000000	85.792063
548.000000	86.094531
549.000000	86.399256
550.000000	86.705043
551.000000	87.010118
552.000000	87.312965
553.000000	87.612758
554.000000	87.908634
555.000000	88.199689
556.000000	88.484382
557.000000	88.762595
558.000000	89.033341
559.000000	89.295854
560.000000	89.550361
561.000000	89.796217
562.000000	90.033028
563.000000	90.261109
564.000000	90.480281
565.000000	90.690205
566.000000	90.891070
567.000000	91.082232
568.000000	91.264457
569.000000	91.437719
570.000000	91.601899
571.000000	91.757651
572.000000	91.905119
573.000000	92.044390
574.000000	92.175871
575.000000	92.299453
576.000000	92.415812
577.000000	92.525263
578.000000	92.627384
579.000000	92.722914
580.000000	92.812347
581.000000	92.896122
582.000000	92.974076
583.000000	93.046948
584.000000	93.114580
585.000000	93.177135
586.000000	93.234594
587.000000	93.287514
588.000000	93.335701
589.000000	93.379687
590.000000	93.419350
591.000000	93.455764
592.000000	93.488293
593.000000	93.517610
594.000000	93.543544
595.000000	93.566075
596.000000	93.585535
597.000000	93.602405
598.000000	93.616495
599.000000	93.627709
600.000000	93.636880
601.000000	93.643513
602.000000	93.647868
603.000000	93.649955
604.000000	93.649904
605.000000	93.648125
606.000000	93.644751
607.000000	93.639330
608.000000	93.632377
609.000000	93.623821
610.000000	93.613815
611.000000	93.601878
612.000000	93.588538
613.000000	93.573953
614.000000	93.557984
615.000000	93.540295
616.000000	93.521417
617.000000	93.501519
618.000000	93.480108
619.000000	93.457324
620.000000	93.433710
621.000000	93.409233
622.000000	93.382933
623.000000	93.355949
624.000000	93.327961
625.000000	93.299125
626.000000	93.268756
627.000000	93.237430
628.000000	93.205065
629.000000	93.172105
630.000000	93.137640
631.000000	93.102027
632.000000	93.065432
633.000000	93.027796
634.000000	92.989468
635.000000	92.949627
636.000000	92.908846
637.000000	92.867155
638.000000	92.824626
639.000000	92.781045
640.000000	92.736497
641.000000	92.690740
642.000000	92.644164
643.000000	92.596310
644.000000	92.547698
645.000000	92.497614
646.000000	92.447007
647.000000	92.395210
648.000000	92.342178
649.000000	92.288275
650.000000	92.233782
651.000000	92.177615
652.000000	92.120473
653.000000	92.061954
654.000000	92.002800
655.000000	91.942423
656.000000	91.880764
657.000000	91.818737
658.000000	91.755452
659.000000	91.690873
660.000000	91.624796
661.000000	91.558156
662.000000	91.490322
663.000000	91.421176
664.000000	91.350991
665.000000	91.280004
666.000000	91.207900
667.000000	91.134496
668.000000	91.060051
669.000000	90.984377
670.000000	90.907665
671.000000	90.830253
672.000000	90.751691
673.000000	90.671476
674.000000	90.590327
675.000000	90.507797
676.000000	90.424363
677.000000	90.339934
678.000000	90.254477
679.000000	90.167167
680.000000	90.079166
681.000000	89.990038
682.000000	89.900147
683.000000	89.809386
684.000000	89.717281
685.000000	89.623775
686.000000	89.529776
687.000000	89.434888
688.000000	89.339791
689.000000	89.243028
690.000000	89.145010
691.000000	89.045546
692.000000	88.944855
693.000000	88.843067
694.000000	88.739807
695.000000	88.635785
696.000000	88.530375
697.000000	88.424441
698.000000	88.317760
699.000000	88.209427
700.000000	88.099718
701.000000	87.988995
702.000000	87.877479
703.000000	87.764894
704.000000	87.651313
705.000000	87.536449
706.000000	87.420178
707.000000	87.303183
708.000000	87.185595
709.000000	87.066389
710.000000	86.946197
711.000000	86.825127
712.000000	86.702550
713.000000	86.578655
714.000000	86.453873
715.000000	86.327935
716.000000	86.200871
717.000000	86.072492
718.000000	85.942800
719.000000	85.812408
720.000000	85.681116
721.000000	85.548596
722.000000	85.414763
723.000000	85.278611
724.000000	85.141402
725.000000	85.003815
726.000000	84.865368
727.000000	84.726273
728.000000	84.586214
729.000000	84.445266
730.000000	84.302958
731.000000	84.160279
732.000000	84.016499
733.000000	83.871443
734.000000	83.725816
735.000000	83.578864
736.000000	83.430740
737.000000	83.281812
738.000000	83.131369
739.000000	82.980074
740.000000	82.827504
741.000000	82.674460
742.000000	82.520494
743.000000	82.364718
744.000000	82.208943
745.000000	82.051930
746.000000	81.893379
747.000000	81.734765
748.000000	81.575310
749.000000	81.414715
750.000000	81.253291
751.000000	81.090746
752.000000	80.927730
753.000000	80.763056
754.000000	80.596823
755.000000	80.430111
756.000000	80.262277
757.000000	80.093474
758.000000	79.924849
759.000000	79.755504
760.000000	79.585158
761.000000	79.414066
762.000000	79.241085
763.000000	79.065910
764.000000	78.890155
765.000000	78.714201
766.000000	78.536435
767.000000	78.357836
768.000000	78.179797
769.000000	78.000096
770.000000	77.819270
771.000000	77.637295
772.000000	77.454016
773.000000	77.271529
774.000000	77.087326
775.000000	76.902817
776.000000	76.716807
777.000000	76.529785
778.000000	76.342723
779.000000	76.154366
780.000000	75.965291
781.000000	75.777042
782.000000	75.587033
783.000000	75.396200
784.000000	75.205339
785.000000	75.012867
786.000000	74.819927
787.000000	74.625759
788.000000	74.433292
789.000000	74.240170
790.000000	74.045037
791.000000	73.847610
792.000000	73.651078
793.000000	73.453598
794.000000	73.255495
795.000000	73.057114
796.000000	72.857688
797.000000	72.657495
798.000000	72.456652
799.000000	72.256019
800.000000	72.054451
801.000000	71.852233
802.000000	71.648270
803.000000	71.441539
804.000000	71.235127
805.000000	71.029425
806.000000	70.823467
807.000000	70.617970
808.000000	70.411551
809.000000	70.204239
810.000000	69.996278
811.000000	69.789013
812.000000	69.579986
813.000000	69.370033
814.000000	69.162050
815.000000	68.951619
816.000000	68.739470
817.000000	68.526768
818.000000	68.313776
819.000000	68.100860
820.000000	67.888357
821.000000	67.673997
822.000000	67.460807
823.000000	67.244595
824.000000	67.029990
825.000000	66.815986
826.000000	66.604373
827.000000	66.388913
828.000000	66.171604
829.000000	65.954627
830.000000	65.738132
831.000000	65.524878
832.000000	65.312298
833.000000	65.096570
834.000000	64.880653
835.000000	64.663298
836.000000	64.446967
837.000000	64.230731
838.000000	64.013208
839.000000	63.793385
840.000000	63.574730
841.000000	63.357596
842.000000	63.136173
843.000000	62.921411
844.000000	62.699260
845.000000	62.475062
846.000000	62.255640
847.000000	62.032242
848.000000	61.813912
849.000000	61.591333
850.000000	61.372661
851.000000	61.153094
852.000000	60.934461
853.000000	60.716150
854.000000	60.498247
855.000000	60.280380
856.000000	60.055908
857.000000	59.841947
858.000000	59.652971
859.000000	59.430613
860.000000	59.198453
861.000000	58.954901
862.000000	58.744488
863.000000	58.563911
864.000000	58.314226
865.000000	58.092217
866.000000	57.889701
867.000000	57.662942
868.000000	57.450892
869.000000	57.249792
870.000000	57.039333
871.000000	56.835932
872.000000	56.613416
873.000000	56.411354
874.000000	56.227872
875.000000	56.003964
876.000000	55.792470
877.000000	55.580496
878.000000	55.356825
879.000000	55.149519
880.000000	54.941825
881.000000	54.733607
882.000000	54.545021
883.000000	54.329840
884.000000	54.130861
885.000000	53.901306
886.000000	53.719770
887.000000	53.516775
888.000000	53.328072
889.000000	53.082125
890.000000	52.868267
891.000000	52.659862
892.000000	52.454084
893.000000	52.234347
894.000000	52.020548
895.000000	51.828296
896.000000	51.644323
897.000000	51.442355
898.000000	51.195213
899.000000	51.025442
900.000000	50.811452
901.000000	50.588031
902.000000	50.404194
903.000000	50.187847
904.000000	49.973948
905.000000	49.764647
906.000000	49.549783
907.000000	49.360992
908.000000	49.123190
909.000000	48.878634
910.000000	48.681439
911.000000	48.481838
912.000000	48.283641
913.000000	48.061297
914.000000	47.838477
915.000000	47.633146
916.000000	47.433682
917.000000	47.220378
918.000000	47.001577
919.000000	46.788799
920.000000	46.620579
921.000000	46.386239
922.000000	46.191202
923.000000	45.954755
924.000000	45.804784
925.000000	45.593604
926.000000	45.378154
927.000000	45.160075
928.000000	44.933921
929.000000	44.749333
930.000000	44.542356
931.000000	44.338293
932.000000	44.144078
933.000000	43.948679
934.000000	43.745446
935.000000	43.561433
936.000000	43.384287
937.000000	43.164193
938.000000	42.994245
939.000000	42.804242
940.000000	42.617454
941.000000	42.425221
942.000000	42.224737
943.000000	42.035962
944.000000	41.848722
945.000000	41.653418
946.000000	41.453381
947.000000	41.245458
948.000000	41.089134
949.000000	40.924168
950.000000	40.751905
951.000000	40.576107
952.000000	40.411383
953.000000	40.246529
954.000000	40.036231
955.000000	39.851005
956.000000	39.671171
957.000000	39.461891
958.000000	39.308839
959.000000	39.125470
960.000000	38.944667
961.000000	38.800258
962.000000	38.637576
963.000000	38.467636
964.000000	38.286972
965.000000	38.104263
966.000000	37.913965
967.000000	37.717411
968.000000	37.547368
969.000000	37.381693
970.000000	37.202543
971.000000	36.990984
972.000000	36.807208
973.000000	36.597425
974.000000	36.397936
975.000000	36.185175
976.000000	35.990356
977.000000	35.794359
978.000000	35.630652
979.000000	35.475794
980.000000	35.311877
981.000000	35.138809
982.000000	34.958979
983.000000	34.757686
984.000000	34.566702
985.000000	34.374642
986.000000	34.152766
987.000000	33.922617
988.000000	33.743400
989.000000	33.588621
990.000000	33.405527
991.000000	33.232154
992.000000	33.061654
993.000000	32.865693
994.000000	32.659146
995.000000	32.477452
996.000000	32.269031
997.000000	32.087522
998.000000	31.927403
999.000000	31.754999
1000.000000	31.603179
1001.000000	31.452829
1002.000000	31.286734
1003.000000	31.123125
1004.000000	30.952742
1005.000000	30.787653
1006.000000	30.657639
1007.000000	30.514608
1008.000000	30.347436
1009.000000	30.178042
1010.000000	30.019744
1011.000000	29.863025
1012.000000	29.715779
1013.000000	29.565221
1014.000000	29.378974
1015.000000	29.211062
1016.000000	29.043656
1017.000000	28.883327
1018.000000	28.743111
1019.000000	28.600471
1020.000000	28.456759
1021.000000	28.326043
1022.000000	28.188568
1023.000000	28.028986
1024.000000	27.865113
1025.000000	27.719564
1026.000000	27.573284
1027.000000	27.418637
1028.000000	27.282013
1029.000000	27.172838
1030.000000	27.047453
1031.000000	26.913371
1032.000000	26.759421
1033.000000	26.605259
1034.000000	26.469086
1035.000000	26.321899
1036.000000	26.163356
1037.000000	26.013386
1038.000000	25.872955
1039.000000	25.717022
1040.000000	25.560755
1041.000000	25.397525
1042.000000	25.229542
1043.000000	25.062870
1044.000000	24.918711
1045.000000	24.780818
1046.000000	24.625050
1047.000000	24.485837
1048.000000	24.349309
1049.000000	24.227268
1050.000000	24.107706
1051.000000	23.998854
1052.000000	23.872907
1053.000000	23.733553
1054.000000	23.602603
1055.000000	23.453956
1056.000000	23.333952
1057.000000	23.219795
1058.000000	23.094360
1059.000000	22.978501
1060.000000	22.836474
1061.000000	22.713318
1062.000000	22.585307
1063.000000	22.442142
1064.000000	22.298702
1065.000000	22.172112
1066.000000	22.050157
1067.000000	21.923100
1068.000000	21.798836
1069.000000	21.652417
1070.000000	21.510060
1071.000000	21.392090
1072.000000	21.289502
1073.000000	21.148845
1074.000000	21.039107
1075.000000	20.928063
1076.000000	20.802289
1077.000000	20.694462
1078.000000	20.635964
1079.000000	20.539683
1080.000000	20.423905
1081.000000	20.325358
1082.000000	20.209023
1083.000000	20.089281
1084.000000	19.974076
1085.000000	19.851774
1086.000000	19.706000
1087.000000	19.602159
1088.000000	19.461974
1089.000000	19.339219
1090.000000	19.222445
1091.000000	19.118580
1092.000000	18.993034
1093.000000	18.901096
1094.000000	18.776237
1095.000000	18.643060
1096.000000	18.518425
1097.000000	18.401933
1098.000000	18.297580
1099.000000	18.163141
1100.000000	18.078873
1101.000000	17.958819
1102.000000	17.834467
1103.000000	17.711373
1104.000000	17.585327
1105.000000	17.498482
1106.000000	17.373726
1107.000000	17.244274
1108.000000	17.142726
1109.000000	17.008057
1110.000000	16.911325
1111.000000	16.810099
1112.000000	16.717447
1113.000000	16.598738
1114.000000	16.488388
1115.000000	16.411002
1116.000000	16.309681
1117.000000	16.221633
1118.000000	16.085402
1119.000000	15.979601
1120.000000	15.871934
1121.000000	15.766417
1122.000000	15.634068
1123.000000	15.529104
1124.000000	15.407624
1125.000000	15.298619
1126.000000	15.184170
1127.000000	15.051636
1128.000000	14.906952
1129.000000	14.817907
1130.000000	14.759421
1131.000000	14.657086
1132.000000	14.580756
1133.000000	14.476737
1134.000000	14.374649
1135.000000	14.256436
1136.000000	14.156070
1137.000000	14.076980
1138.000000	13.976387
1139.000000	13.914724
1140.000000	13.800024
1141.000000	13.742093
1142.000000	13.666014
1143.000000	13.594196
1144.000000	13.514175
1145.000000	13.411245
1146.000000	13.306040
1147.000000	13.218518
1148.000000	13.121126
1149.000000	13.039166
1150.000000	12.956966
1151.000000	12.867756
1152.000000	12.735778
1153.000000	12.698631
1154.000000	12.637822
1155.000000	12.536451
1156.000000	12.456715
1157.000000	12.398840
1158.000000	12.348609
1159.000000	12.305530
1160.000000	12.247027
1161.000000	12.156309
1162.000000	12.129616
1163.000000	12.088035
1164.000000	12.040392
1165.000000	11.967305
1166.000000	11.918411
1167.000000	11.853463
1168.000000	11.831189
1169.000000	11.807452
1170.000000	11.758361
1171.000000	11.724044
1172.000000	11.685181
1173.000000	11.639939
1174.000000	11.558281
1175.000000	11.517356
1176.000000	11.488450
1177.000000	11.434366
1178.000000	11.378613
1179.000000	11.305449
1180.000000	11.238290
1181.000000	11.187242
1182.000000	11.147261
1183.000000	11.111483
1184.000000	11.074940
1185.000000	10.994495
1186.000000	10.974951
1187.000000	10.977834
1188.000000	10.901304
1189.000000	10.851447
1190.000000	10.829256
1191.000000	10.797230
1192.000000	10.756687
1193.000000	10.731560
1194.000000	10.675759
1195.000000	10.640122
1196.000000	10.614715
1197.000000	10.569684
1198.000000	10.508854
1199.000000	10.451749
1200.000000	10.377054
1201.000000	10.304184
1202.000000	10.249492
1203.000000	10.132652
1204.000000	10.085049
1205.000000	10.024337
1206.000000	9.942977
1207.000000	9.874252
1208.000000	9.816007
1209.000000	9.777758
1210.000000	9.707322
1211.000000	9.598227
1212.000000	9.522093
1213.000000	9.430124
1214.000000	9.383559
1215.000000	9.319722
1216.000000	9.266103
1217.000000	9.181846
1218.000000	9.111844
1219.000000	9.046970
1220.000000	8.987368
1221.000000	8.891339
1222.000000	8.785529
1223.000000	8.720771
1224.000000	8.657316
1225.000000	8.578851
1226.000000	8.493564
1227.000000	8.411381
1228.000000	8.309563
1229.000000	8.250650
1230.000000	8.188707
1231.000000	8.112568
1232.000000	8.046705
1233.000000	7.993349
1234.000000	7.923522
1235.000000	7.875542
1236.000000	7.820571
1237.000000	7.763728
1238.000000	7.736940
1239.000000	7.664830
1240.000000	7.591558
1241.000000	7.543559
1242.000000	7.490101
1243.000000	7.438436
1244.000000	7.369776
1245.000000	7.338250
1246.000000	7.319317
1247.000000	7.279930
1248.000000	7.215209
1249.000000	7.151633
1250.000000	7.108203
1251.000000	7.055452
1252.000000	7.003523
1253.000000	6.951042
1254.000000	6.874493
1255.000000	6.806448
1256.000000	6.749515
1257.000000	6.720028
1258.000000	6.681710
1259.000000	6.599432
1260.000000	6.544581
1261.000000	6.530598
1262.000000	6.547031
1263.000000	6.535023
1264.000000	6.488570
1265.000000	6.447375
1266.000000	6.417104
1267.000000	6.388341
1268.000000	6.362051
1269.000000	6.309465
1270.000000	6.263234
1271.000000	6.242196
1272.000000	6.210515
1273.000000	6.156122
1274.000000	6.096963
1275.000000	6.052009
1276.000000	6.026431
1277.000000	5.960382
1278.000000	5.911999
1279.000000	5.887455
1280.000000	5.834097
1281.000000	5.764466
1282.000000	5.722554
1283.000000	5.698523
1284.000000	5.671893
1285.000000	5.640000
1286.000000	5.625900
1287.000000	5.585590
1288.000000	5.529489
1289.000000	5.495468
1290.000000	5.486216
1291.000000	5.462008
1292.000000	5.428088
1293.000000	5.404016
1294.000000	5.382209
1295.000000	5.364527
1296.000000	5.331199
1297.000000	5.247645
1298.000000	5.185931
1299.000000	5.127106
1300.000000	5.066670
1301.000000	5.019348
1302.000000	4.969079
1303.000000	4.926998
1304.000000	4.886229
1305.000000	4.850457
1306.000000	4.799995
1307.000000	4.736637
1308.000000	4.707755
1309.000000	4.676631
1310.000000	4.651087
1311.000000	4.596311
1312.000000	4.580094
1313.000000	4.544744
1314.000000	4.487421
1315.000000	4.438667
1316.000000	4.414619
1317.000000	4.372266
1318.000000	4.358392
1319.000000	4.373557
1320.000000	4.362498
1321.000000	4.313765
1322.000000	4.290597
1323.000000	4.270598
1324.000000	4.245067
1325.000000	4.233147
1326.000000	4.217481
1327.000000	4.190546
1328.000000	4.143733
1329.000000	4.126706
1330.000000	4.105727
1331.000000	4.062279
1332.000000	4.046432
1333.000000	4.027226
1334.000000	4.009527
1335.000000	3.994274
1336.000000	3.946598
1337.000000	3.887231
1338.000000	3.820676
1339.000000	3.796549
1340.000000	3.761582
1341.000000	3.727422
1342.000000	3.729106
1343.000000	3.698178
1344.000000	3.692749
1345.000000	3.673949
1346.000000	3.670664
1347.000000	3.685371
1348.000000	3.689344
1349.000000	3.683050
1350.000000	3.693821
1351.000000	3.757287
1352.000000	3.816310
1353.000000	3.825206
1354.000000	3.753365
1355.000000	3.693920
1356.000000	3.665873
1357.000000	3.637115
1358.000000	3.706465
1359.000000	3.742504
1360.000000	3.690807
1361.000000	3.615442
1362.000000	3.665490
1363.000000	3.745970
1364.000000	3.784485
1365.000000	3.924919
1366.000000	3.935246
1367.000000	3.919535
1368.000000	4.006035
1369.000000	3.968604
1370.000000	3.872116
1371.000000	3.868079
1372.000000	3.936487
1373.000000	4.054576
1374.000000	4.070034
1375.000000	4.115820
1376.000000	4.107948
1377.000000	4.113715
1378.000000	4.162751
1379.000000	4.307421
1380.000000	4.601583
1381.000000	4.772559
1382.000000	4.758606
1383.000000	4.751188
1384.000000	4.689612
1385.000000	4.688045
1386.000000	4.700569
1387.000000	4.473685
1388.000000	4.486713
1389.000000	4.482348
1390.000000	4.515754
1391.000000	4.557730
1392.000000	4.721167
1393.000000	4.720640
1394.000000	4.630058
1395.000000	4.752911
1396.000000	5.054224
1397.000000	5.123894
1398.000000	5.145040
1399.000000	5.190145
1400.000000	5.077953
1401.000000	5.197052
1402.000000	5.271220
1403.000000	5.297122
1404.000000	5.330436
1405.000000	5.528418
1406.000000	5.637906
1407.000000	5.731213
1408.000000	5.769861
1409.000000	5.874072
1410.000000	5.988932
1411.000000	6.127500
1412.000000	6.276806
1413.000000	6.353407
1414.000000	6.299847
1415.000000	6.153355
1416.000000	6.120958
1417.000000	6.233288
1418.000000	6.299209
1419.000000	6.523933
1420.000000	6.677180
1421.000000	6.770165
1422.000000	7.116282
1423.000000	7.207547
1424.000000	7.382465
1425.000000	7.549010
1426.000000	7.695238
1427.000000	7.723415
1428.000000	7.823390
1429.000000	8.046197
1430.000000	8.136703
1431.000000	8.090096
1432.000000	8.176860
1433.000000	8.282290
1434.000000	8.402179
1435.000000	8.556727
1436.000000	8.651144
1437.000000	8.763265
1438.000000	8.828705
1439.000000	9.034908
1440.000000	9.133132
1441.000000	9.290683
1442.000000	9.339423
1443.000000	9.443908
1444.000000	9.564760
1445.000000	9.561615
1446.000000	9.655985
1447.000000	9.714537
1448.000000	9.822402
1449.000000	9.901014
1450.000000	9.918091
1451.000000	9.991962
1452.000000	10.105690
1453.000000	10.264484
1454.000000	10.313258
1455.000000	10.381563
1456.000000	10.408077
1457.000000	10.450431
1458.000000	10.523824
1459.000000	10.639761
1460.000000	10.733606
1461.000000	10.793420
1462.000000	10.869475
1463.000000	10.951026
1464.000000	11.025988
1465.000000	11.088047
1466.000000	11.153852
1467.000000	11.192721
1468.000000	11.229915
1469.000000	11.211156
1470.000000	11.255016
1471.000000	11.274010
1472.000000	11.341126
1473.000000	11.436674
1474.000000	11.509009
1475.000000	11.551603
1476.000000	11.575364
1477.000000	11.640166
1478.000000	11.670495
1479.000000	11.684527
1480.000000	11.806665
1481.000000	11.841564
1482.000000	11.887321
1483.000000	11.930973
1484.000000	12.021008
1485.000000	12.104725
1486.000000	12.150507
1487.000000	12.180510
1488.000000	12.216280
1489.000000	12.287158
1490.000000	12.327745
1491.000000	12.366082
1492.000000	12.379556
1493.000000	12.451086
1494.000000	12.470367
1495.000000	12.471784
1496.000000	12.504016
1497.000000	12.509205
1498.000000	12.520918
1499.000000	12.531204
1500.000000	12.532457
1501.000000	12.543771
1502.000000	12.592024
1503.000000	12.618300
1504.000000	12.676333
1505.000000	12.706850
1506.000000	12.694144
1507.000000	12.703371
1508.000000	12.683491
1509.000000	12.649537
1510.000000	12.667196
1511.000000	12.652267
1512.000000	12.633381
1513.000000	12.599028
1514.000000	12.604320
1515.000000	12.575336
1516.000000	12.546148
1517.000000	12.533474
1518.000000	12.518769
1519.000000	12.476653
1520.000000	12.462923
1521.000000	12.449637
1522.000000	12.411444
1523.000000	12.382373
1524.000000	12.334170
1525.000000	12.273453
1526.000000	12.247372
1527.000000	12.208047
1528.000000	12.145968
1529.000000	12.103091
1530.000000	12.077096
1531.000000	12.034004
1532.000000	11.980814
1533.000000	11.937249
1534.000000	11.892696
1535.000000	11.857886
1536.000000	11.804003
1537.000000	11.728776
1538.000000	11.691480
1539.000000	11.672472
1540.000000	11.622029
1541.000000	11.576618
1542.000000	11.513836
1543.000000	11.457843
1544.000000	11.414203
1545.000000	11.341326
1546.000000	11.300547
1547.000000	11.263677
1548.000000	11.226529
1549.000000	11.166157
1550.000000	11.127516
1551.000000	11.099079
1552.000000	11.026450
1553.000000	10.964260
1554.000000	10.920932
1555.000000	10.846653
1556.000000	10.751595
1557.000000	10.695592
1558.000000	10.652904
1559.000000	10.605829
1560.000000	10.569073
1561.000000	10.540655
1562.000000	10.543722
1563.000000	10.518714
1564.000000	10.476019
1565.000000	10.433021
1566.000000	10.405270
1567.000000	10.376284
1568.000000	10.335071
1569.000000	10.312981
1570.000000	10.308052
1571.000000	10.298850
1572.000000	10.269877
1573.000000	10.216096
1574.000000	10.165759
1575.000000	10.135314
1576.000000	10.146231
1577.000000	10.147609
1578.000000	10.147039
1579.000000	10.128099
1580.000000	10.101938
1581.000000	10.039495
1582.000000	10.011541
1583.000000	9.995337
1584.000000	9.978691
1585.000000	9.950900
1586.000000	9.911479
1587.000000	9.881569
1588.000000	9.853348
1589.000000	9.839449
1590.000000	9.842796
1591.000000	9.844059
1592.000000	9.822661
1593.000000	9.781544
1594.000000	9.757436
1595.000000	9.757515
1596.000000	9.732838
1597.000000	9.698682
1598.000000	9.662573
1599.000000	9.621357
1600.000000	9.587863
1601.000000	9.551300
1602.000000	9.550384
1603.000000	9.518068
1604.000000	9.455285
1605.000000	9.398794
1606.000000	9.336927
1607.000000	9.292735
1608.000000	9.243890
1609.000000	9.193270
1610.000000	9.160919
1611.000000	9.095920
1612.000000	9.038418
1613.000000	8.975567
1614.000000	8.950470
1615.000000	8.898978
1616.000000	8.895538
1617.000000	8.868433
1618.000000	8.848702
1619.000000	8.852107
1620.000000	8.837197
1621.000000	8.828207
1622.000000	8.783455
1623.000000	8.769588
1624.000000	8.754716
1625.000000	8.729033
1626.000000	8.709076
1627.000000	8.688676
1628.000000	8.663150
1629.000000	8.627367
1630.000000	8.586089
1631.000000	8.561240
1632.000000	8.486125
1633.000000	8.470332
1634.000000	8.453043
1635.000000	8.421258
1636.000000	8.376213
1637.000000	8.293399
1638.000000	8.247543
1639.000000	8.254152
1640.000000	8.261423
1641.000000	8.256159
1642.000000	8.247516
1643.000000	8.245668
1644.000000	8.214991
1645.000000	8.179718
1646.000000	8.182760
1647.000000	8.168891
1648.000000	8.149596
1649.000000	8.150335
1650.000000	8.151358
1651.000000	8.125298
1652.000000	8.081345
1653.000000	8.027121
1654.000000	7.971455
1655.000000	7.916951
1656.000000	7.897324
1657.000000	7.929044
1658.000000	7.906861
1659.000000	7.903218
1660.000000	7.921097
1661.000000	7.908403
1662.000000	7.889280
1663.000000	7.865717
1664.000000	7.849001
1665.000000	7.820098
1666.000000	7.802604
1667.000000	7.874074
1668.000000	7.875531
1669.000000	7.877693
1670.000000	7.905562
1671.000000	7.959152
1672.000000	8.077902
1673.000000	8.156359
1674.000000	8.178940
1675.000000	8.201133
1676.000000	8.240118
1677.000000	8.257487
1678.000000	8.294195
1679.000000	8.350104
1680.000000	8.437625
1681.000000	8.480163
1682.000000	8.552975
1683.000000	8.635231
1684.000000	8.690931
1685.000000	8.786934
1686.000000	8.878473
1687.000000	8.999151
1688.000000	9.117351
1689.000000	9.199383
1690.000000	9.306623
1691.000000	9.358223
1692.000000	9.424881
1693.000000	9.499721
1694.000000	9.567280
1695.000000	9.626413
1696.000000	9.704412
1697.000000	9.786079
1698.000000	9.874680
1699.000000	9.968971
1700.000000	10.077139
1701.000000	10.149731
1702.000000	10.200696
1703.000000	10.291042
1704.000000	10.341281
1705.000000	10.389163
1706.000000	10.415298
1707.000000	10.410972
1708.000000	10.468033
1709.000000	10.532298
1710.000000	10.572011
1711.000000	10.603975
1712.000000	10.662904
1713.000000	10.709893
1714.000000	10.795657
1715.000000	10.802080
1716.000000	10.872852
1717.000000	10.942003
1718.000000	11.012569
1719.000000	11.088463
1720.000000	11.140746
1721.000000	11.174585
1722.000000	11.239540
1723.000000	11.296437
1724.000000	11.381500
1725.000000	11.439133
1726.000000	11.501180
1727.000000	11.552996
1728.000000	11.612952
1729.000000	11.680604
1730.000000	11.712574
1731.000000	11.765101
1732.000000	11.831428
1733.000000	11.895837
1734.000000	11.949231
1735.000000	11.995084
1736.000000	12.030508
1737.000000	12.083733
1738.000000	12.112371
1739.000000	12.157225
1740.000000	12.186582
1741.000000	12.258031
1742.000000	12.337092
1743.000000	12.337745
1744.000000	12.359964
1745.000000	12.403941
1746.000000	12.454949
1747.000000	12.460654
1748.000000	12.502461
1749.000000	12.495339
1750.000000	12.514797
1751.000000	12.494727
1752.000000	12.478038
1753.000000	12.449640
1754.000000	12.420240
1755.000000	12.402767
1756.000000	12.400593
1757.000000	12.331201
1758.000000	12.282265
1759.000000	12.243059
1760.000000	12.200437
1761.000000	12.199055
1762.000000	12.189562
1763.000000	12.160798
1764.000000	12.105937
1765.000000	12.081666
1766.000000	12.046704
1767.000000	12.015829
1768.000000	11.980566
1769.000000	11.972216
1770.000000	11.926086
1771.000000	11.917881
1772.000000	11.895636
1773.000000	11.884810
1774.000000	11.850018
1775.000000	11.835411
1776.000000	11.782855
1777.000000	11.720267
1778.000000	11.697582
1779.000000	11.678357
1780.000000	11.623470
1781.000000	11.561859
1782.000000	11.546545
1783.000000	11.489347
1784.000000	11.417066
1785.000000	11.352110
1786.000000	11.319549
1787.000000	11.291083
1788.000000	11.239017
1789.000000	11.200496
1790.000000	11.159759
1791.000000	11.133812
1792.000000	11.147160
1793.000000	11.145381
1794.000000	11.114438
1795.000000	11.105612
1796.000000	11.073269
1797.000000	11.046722
1798.000000	11.020789
1799.000000	10.956967
1800.000000	10.908097
1801.000000	10.903203
1802.000000	10.879958
1803.000000	10.881078
1804.000000	10.832307
1805.000000	10.780033
1806.000000	10.726146
1807.000000	10.669766
1808.000000	10.616814
1809.000000	10.596865
1810.000000	10.536584
1811.000000	10.520016
1812.000000	10.501225
1813.000000	10.508556
1814.000000	10.460216
1815.000000	10.410481
1816.000000	10.431920
1817.000000	10.342551
1818.000000	10.229113
1819.000000	10.160146
1820.000000	10.069184
1821.000000	10.057998
1822.000000	10.036103
1823.000000	10.047866
1824.000000	10.033721
1825.000000	9.962004
1826.000000	9.874137
1827.000000	9.845010
1828.000000	9.836734
1829.000000	9.826574
1830.000000	9.744922
1831.000000	9.661590
1832.000000	9.608155
1833.000000	9.631436
1834.000000	9.667603
1835.000000	9.613721
1836.000000	9.517574
1837.000000	9.489768
1838.000000	9.506221
1839.000000	9.567858
1840.000000	9.642121
1841.000000	9.620911
1842.000000	9.562452
1843.000000	9.523213
1844.000000	9.514124
1845.000000	9.539232
1846.000000	9.505345
1847.000000	9.369815
1848.000000	9.296433
1849.000000	9.290563
1850.000000	9.320038
1851.000000	9.327044
1852.000000	9.387462
1853.000000	9.459278
1854.000000	9.546913
1855.000000	9.572633
1856.000000	9.449055
1857.000000	9.396410
1858.000000	9.379295
1859.000000	9.341868
1860.000000	9.411788
1861.000000	9.492491
1862.000000	9.462685
1863.000000	9.421561
1864.000000	9.454030
1865.000000	9.560869
1866.000000	9.618364
1867.000000	9.641789
1868.000000	9.629939
1869.000000	9.623939
1870.000000	9.605480
1871.000000	9.739710
1872.000000	9.689883
1873.000000	9.629539
1874.000000	9.596922
1875.000000	9.586332
1876.000000	9.569213
1877.000000	9.639570
1878.000000	9.747335
1879.000000	9.859729
1880.000000	9.930622
1881.000000	10.045633
1882.000000	10.277639
1883.000000	10.359016
1884.000000	10.475838
1885.000000	10.629148
1886.000000	10.690885
1887.000000	10.846374
1888.000000	11.058447
1889.000000	11.188548
1890.000000	11.454591
1891.000000	11.741217
1892.000000	11.979318
1893.000000	12.197793
1894.000000	12.477265
1895.000000	12.732009
1896.000000	13.016388
1897.000000	13.363545
1898.000000	13.667559
1899.000000	13.929968
1900.000000	14.246000
1901.000000	14.661690
1902.000000	14.998711
1903.000000	15.378585
1904.000000	15.725347
1905.000000	16.246696
1906.000000	16.601572
1907.000000	17.138300
1908.000000	17.618375
1909.000000	18.082562
1910.000000	18.561166
1911.000000	19.163427
1912.000000	19.681432
1913.000000	20.122924
1914.000000	20.581102
1915.000000	21.039344
1916.000000	21.554840
1917.000000	22.056275
1918.000000	22.667445
1919.000000	23.130973
1920.000000	23.563703
1921.000000	24.100200
1922.000000	24.555440
1923.000000	24.976539
1924.000000	25.458973
1925.000000	25.914911
1926.000000	26.379042
1927.000000	26.836539
1928.000000	27.277290
1929.000000	27.674322
1930.000000	28.027896
1931.000000	28.368317
1932.000000	28.732153
1933.000000	29.105038
1934.000000	29.488556
1935.000000	29.789320
1936.000000	30.054780
1937.000000	30.363414
1938.000000	30.594022
1939.000000	30.906678
1940.000000	31.113256
1941.000000	31.348187
1942.000000	31.537280
1943.000000	31.732150
1944.000000	31.873327
1945.000000	32.010101
1946.000000	32.088887
1947.000000	32.230750
1948.000000	32.342761
1949.000000	32.434809
1950.000000	32.550705
1951.000000	32.603960
1952.000000	32.594904
1953.000000	32.573305
1954.000000	32.653765
1955.000000	32.700088
1956.000000	32.670255
1957.000000	32.669981
1958.000000	32.641497
1959.000000	32.631417
1960.000000	32.577928
1961.000000	32.528101
1962.000000	32.459462
1963.000000	32.389115
1964.000000	32.309351
1965.000000	32.266208
1966.000000	32.213397
1967.000000	32.094520
1968.000000	32.015987
1969.000000	31.878770
1970.000000	31.765248
1971.000000	31.646802
1972.000000	31.581480
1973.000000	31.470274
1974.000000	31.360905
1975.000000	31.248186
1976.000000	31.109006
1977.000000	30.980134
1978.000000	30.840144
1979.000000	30.723692
1980.000000	30.590804
1981.000000	30.485989
1982.000000	30.329319
1983.000000	30.196938
1984.000000	30.034108
1985.000000	29.856910
1986.000000	29.694875
1987.000000	29.582768
1988.000000	29.440979
1989.000000	29.238711
1990.000000	29.070123
1991.000000	28.919536
1992.000000	28.795855
1993.000000	28.689079
1994.000000	28.552469
1995.000000	28.439255
1996.000000	28.314889
1997.000000	28.185869
1998.000000	28.030312
1999.000000	27.922511
2000.000000	27.778889
