PE UV       SUBTECH     SPECTRUM    ASCII       PEDS        4.00        
   -1
C.CUPR.MV23-TX3.ASC
23/11/29
12:57:02.00
23/11/29
12:57:02.00
Vinicio Soto Monge
C. CUPREOMARGINATA MV 23-15
250,000000
1
Lambda 1050
1050L1511233
PerkinElmer UV WinLab 6.3.2.0749 / 2.02.05 Lambda 900 UV/VIS/NIR, Aug  7 2015 09:38:08

0
0
3350/servo 860,8/2
0
0
UV/VIS
1
1
1
DoubleDePol,CommonBeamDepol,RBeamAtt,SBeamAtt,60mm sphere, WB InGaAs Detector
0
0
0
0
Program
Program
3350/servo 860,8/2
3350/0,4 860,8/0,4
3350/0,4 860,8/0,4
0
20.00
 
 
 
0
 
860,8
319,2
860,8
Front
100
on
S:100 R:100
0
0
0
0
 
0
 
 
 
0
 
 
0
0
0
0
0
 
 
 
 
0
0


0
0
#HDR
-1
-1
#GR
nm
%A
1.0
0.0
2200,000000
-1,000000
1951
8
84,599875
0,293470
#DATA
284.000000	93.362900
285.000000	93.380725
286.000000	93.396525
287.000000	93.412039
288.000000	93.427119
289.000000	93.440263
290.000000	93.452332
291.000000	93.464001
292.000000	93.474442
293.000000	93.484773
294.000000	93.493757
295.000000	93.502876
296.000000	93.511001
297.000000	93.521707
298.000000	93.529241
299.000000	93.536812
300.000000	93.544606
301.000000	93.552745
302.000000	93.559262
303.000000	93.565820
304.000000	93.572025
305.000000	93.578180
306.000000	93.583113
307.000000	93.590227
308.000000	93.595453
309.000000	93.601766
310.000000	93.606884
311.000000	93.610573
312.000000	93.617026
313.000000	93.624411
314.000000	93.631469
315.000000	93.637428
316.000000	93.645091
317.000000	93.658781
318.000000	93.672311
319.000000	93.684905
320.000000	93.697368
321.000000	93.709462
322.000000	93.720052
323.000000	93.733597
324.000000	93.748823
325.000000	93.761262
326.000000	93.776843
327.000000	93.790724
328.000000	93.805487
329.000000	93.820529
330.000000	93.837383
331.000000	93.851102
332.000000	93.866328
333.000000	93.882297
334.000000	93.896197
335.000000	93.910213
336.000000	93.922182
337.000000	93.936142
338.000000	93.949818
339.000000	93.961785
340.000000	93.974720
341.000000	93.987930
342.000000	93.999329
343.000000	94.010121
344.000000	94.021390
345.000000	94.031618
346.000000	94.039442
347.000000	94.046690
348.000000	94.053025
349.000000	94.059636
350.000000	94.066059
351.000000	94.070575
352.000000	94.069017
353.000000	94.065586
354.000000	94.061452
355.000000	94.055526
356.000000	94.047958
357.000000	94.039395
358.000000	94.025759
359.000000	94.010434
360.000000	93.995795
361.000000	93.976834
362.000000	93.956774
363.000000	93.932984
364.000000	93.907224
365.000000	93.876701
366.000000	93.845600
367.000000	93.808539
368.000000	93.768352
369.000000	93.726595
370.000000	93.682471
371.000000	93.635665
372.000000	93.581818
373.000000	93.523713
374.000000	93.463643
375.000000	93.398450
376.000000	93.325990
377.000000	93.243963
378.000000	93.157694
379.000000	93.065448
380.000000	92.968915
381.000000	92.869606
382.000000	92.763844
383.000000	92.653067
384.000000	92.536495
385.000000	92.414454
386.000000	92.288199
387.000000	92.157656
388.000000	92.023444
389.000000	91.884198
390.000000	91.741732
391.000000	91.595714
392.000000	91.447265
393.000000	91.295833
394.000000	91.140605
395.000000	90.983088
396.000000	90.823430
397.000000	90.662415
398.000000	90.500483
399.000000	90.337594
400.000000	90.174307
401.000000	90.010787
402.000000	89.849171
403.000000	89.688701
404.000000	89.529144
405.000000	89.369993
406.000000	89.213716
407.000000	89.060114
408.000000	88.909893
409.000000	88.762566
410.000000	88.618097
411.000000	88.479925
412.000000	88.350959
413.000000	88.227146
414.000000	88.108625
415.000000	87.994959
416.000000	87.886956
417.000000	87.784535
418.000000	87.687317
419.000000	87.595184
420.000000	87.507586
421.000000	87.424707
422.000000	87.346266
423.000000	87.271626
424.000000	87.200737
425.000000	87.133317
426.000000	87.069116
427.000000	87.007761
428.000000	86.948670
429.000000	86.891275
430.000000	86.834932
431.000000	86.778697
432.000000	86.722653
433.000000	86.666116
434.000000	86.608451
435.000000	86.549148
436.000000	86.487442
437.000000	86.422923
438.000000	86.355352
439.000000	86.284663
440.000000	86.209845
441.000000	86.129562
442.000000	86.044722
443.000000	85.955045
444.000000	85.860039
445.000000	85.758861
446.000000	85.651593
447.000000	85.539122
448.000000	85.421061
449.000000	85.297001
450.000000	85.167514
451.000000	85.032368
452.000000	84.891399
453.000000	84.745161
454.000000	84.593740
455.000000	84.437934
456.000000	84.277883
457.000000	84.113200
458.000000	83.944647
459.000000	83.772320
460.000000	83.596692
461.000000	83.417576
462.000000	83.235171
463.000000	83.050147
464.000000	82.862761
465.000000	82.673318
466.000000	82.482193
467.000000	82.289138
468.000000	82.094935
469.000000	81.900000
470.000000	81.704437
471.000000	81.508495
472.000000	81.312188
473.000000	81.115494
474.000000	80.918368
475.000000	80.721276
476.000000	80.524616
477.000000	80.327470
478.000000	80.129166
479.000000	79.929870
480.000000	79.730032
481.000000	79.528576
482.000000	79.324692
483.000000	79.116824
484.000000	78.904056
485.000000	78.685639
486.000000	78.460879
487.000000	78.229515
488.000000	77.991679
489.000000	77.745840
490.000000	77.491905
491.000000	77.228017
492.000000	76.954117
493.000000	76.669256
494.000000	76.372502
495.000000	76.062956
496.000000	75.740822
497.000000	75.404895
498.000000	75.053936
499.000000	74.687552
500.000000	74.303990
501.000000	73.902931
502.000000	73.483462
503.000000	73.044470
504.000000	72.585193
505.000000	72.104982
506.000000	71.603073
507.000000	71.079108
508.000000	70.533050
509.000000	69.964818
510.000000	69.373885
511.000000	68.760387
512.000000	68.123608
513.000000	67.464157
514.000000	66.782902
515.000000	66.080735
516.000000	65.358923
517.000000	64.617965
518.000000	63.860600
519.000000	63.088380
520.000000	62.302763
521.000000	61.505533
522.000000	60.698166
523.000000	59.880676
524.000000	59.056574
525.000000	58.227285
526.000000	57.394866
527.000000	56.560960
528.000000	55.727148
529.000000	54.895273
530.000000	54.066313
531.000000	53.241752
532.000000	52.423336
533.000000	51.612704
534.000000	50.811294
535.000000	50.021473
536.000000	49.245083
537.000000	48.484738
538.000000	47.741150
539.000000	47.016528
540.000000	46.312390
541.000000	45.629841
542.000000	44.971120
543.000000	44.337175
544.000000	43.727995
545.000000	43.145567
546.000000	42.587987
547.000000	42.056597
548.000000	41.551783
549.000000	41.073558
550.000000	40.620062
551.000000	40.189514
552.000000	39.781403
553.000000	39.393744
554.000000	39.026009
555.000000	38.678191
556.000000	38.348948
557.000000	38.036462
558.000000	37.742950
559.000000	37.464924
560.000000	37.199703
561.000000	36.949705
562.000000	36.714354
563.000000	36.492490
564.000000	36.284871
565.000000	36.091662
566.000000	35.911330
567.000000	35.742500
568.000000	35.585173
569.000000	35.438859
570.000000	35.303465
571.000000	35.177292
572.000000	35.057564
573.000000	34.945458
574.000000	34.837822
575.000000	34.734982
576.000000	34.637902
577.000000	34.543901
578.000000	34.451996
579.000000	34.363745
580.000000	34.279251
581.000000	34.200929
582.000000	34.128663
583.000000	34.063582
584.000000	34.004412
585.000000	33.953400
586.000000	33.910346
587.000000	33.877584
588.000000	33.856357
589.000000	33.845702
590.000000	33.846038
591.000000	33.857225
592.000000	33.878530
593.000000	33.908236
594.000000	33.946632
595.000000	33.995617
596.000000	34.051759
597.000000	34.114710
598.000000	34.182850
599.000000	34.255414
600.000000	34.331881
601.000000	34.410388
602.000000	34.491488
603.000000	34.573379
604.000000	34.655286
605.000000	34.736664
606.000000	34.816564
607.000000	34.895419
608.000000	34.972107
609.000000	35.048419
610.000000	35.120840
611.000000	35.189253
612.000000	35.251155
613.000000	35.307601
614.000000	35.356067
615.000000	35.394580
616.000000	35.422618
617.000000	35.438846
618.000000	35.442324
619.000000	35.433652
620.000000	35.409639
621.000000	35.370908
622.000000	35.316234
623.000000	35.246186
624.000000	35.161080
625.000000	35.058834
626.000000	34.939783
627.000000	34.807026
628.000000	34.660575
629.000000	34.500834
630.000000	34.328303
631.000000	34.143276
632.000000	33.946928
633.000000	33.739008
634.000000	33.520901
635.000000	33.293567
636.000000	33.056862
637.000000	32.812192
638.000000	32.561820
639.000000	32.305509
640.000000	32.043700
641.000000	31.776479
642.000000	31.505372
643.000000	31.230752
644.000000	30.952667
645.000000	30.674114
646.000000	30.393361
647.000000	30.113585
648.000000	29.835016
649.000000	29.558808
650.000000	29.284585
651.000000	29.014045
652.000000	28.748605
653.000000	28.486858
654.000000	28.228150
655.000000	27.975454
656.000000	27.730596
657.000000	27.492211
658.000000	27.259134
659.000000	27.031276
660.000000	26.808034
661.000000	26.591158
662.000000	26.379026
663.000000	26.170454
664.000000	25.965701
665.000000	25.763544
666.000000	25.565190
667.000000	25.367644
668.000000	25.174942
669.000000	24.982680
670.000000	24.790428
671.000000	24.602522
672.000000	24.416171
673.000000	24.228573
674.000000	24.041807
675.000000	23.856969
676.000000	23.672459
677.000000	23.487465
678.000000	23.304653
679.000000	23.123326
680.000000	22.941182
681.000000	22.760543
682.000000	22.580097
683.000000	22.399421
684.000000	22.217636
685.000000	22.036163
686.000000	21.854645
687.000000	21.672516
688.000000	21.492582
689.000000	21.311831
690.000000	21.130923
691.000000	20.948388
692.000000	20.766191
693.000000	20.584880
694.000000	20.403081
695.000000	20.223512
696.000000	20.045139
697.000000	19.867609
698.000000	19.691634
699.000000	19.516747
700.000000	19.342531
701.000000	19.169243
702.000000	19.000598
703.000000	18.834321
704.000000	18.670838
705.000000	18.509317
706.000000	18.348425
707.000000	18.191018
708.000000	18.036794
709.000000	17.885252
710.000000	17.735716
711.000000	17.588100
712.000000	17.443936
713.000000	17.302079
714.000000	17.160439
715.000000	17.022499
716.000000	16.885521
717.000000	16.752288
718.000000	16.622747
719.000000	16.497619
720.000000	16.373911
721.000000	16.249922
722.000000	16.130124
723.000000	16.011789
724.000000	15.895771
725.000000	15.780810
726.000000	15.668162
727.000000	15.555689
728.000000	15.444008
729.000000	15.335482
730.000000	15.226996
731.000000	15.118048
732.000000	15.010444
733.000000	14.903543
734.000000	14.798571
735.000000	14.697278
736.000000	14.596832
737.000000	14.493865
738.000000	14.390616
739.000000	14.290066
740.000000	14.191992
741.000000	14.097369
742.000000	14.002077
743.000000	13.906717
744.000000	13.811599
745.000000	13.717155
746.000000	13.625561
747.000000	13.535348
748.000000	13.442342
749.000000	13.352042
750.000000	13.263740
751.000000	13.175116
752.000000	13.086133
753.000000	12.994224
754.000000	12.902989
755.000000	12.816257
756.000000	12.730788
757.000000	12.643741
758.000000	12.557130
759.000000	12.474247
760.000000	12.393914
761.000000	12.313397
762.000000	12.233424
763.000000	12.153015
764.000000	12.072324
765.000000	11.993140
766.000000	11.915437
767.000000	11.838680
768.000000	11.763419
769.000000	11.689800
770.000000	11.615168
771.000000	11.539980
772.000000	11.465425
773.000000	11.391681
774.000000	11.317737
775.000000	11.242435
776.000000	11.168862
777.000000	11.095450
778.000000	11.022480
779.000000	10.950790
780.000000	10.879477
781.000000	10.807847
782.000000	10.738436
783.000000	10.672215
784.000000	10.607492
785.000000	10.542977
786.000000	10.478362
787.000000	10.414279
788.000000	10.358087
789.000000	10.302763
790.000000	10.245411
791.000000	10.187587
792.000000	10.131995
793.000000	10.077122
794.000000	10.024151
795.000000	9.970480
796.000000	9.919650
797.000000	9.871170
798.000000	9.821261
799.000000	9.771186
800.000000	9.722279
801.000000	9.674804
802.000000	9.629670
803.000000	9.585422
804.000000	9.540265
805.000000	9.495555
806.000000	9.452771
807.000000	9.411778
808.000000	9.369548
809.000000	9.324830
810.000000	9.283802
811.000000	9.238494
812.000000	9.198764
813.000000	9.161624
814.000000	9.121873
815.000000	9.083306
816.000000	9.045569
817.000000	9.005062
818.000000	8.969777
819.000000	8.933883
820.000000	8.892876
821.000000	8.855980
822.000000	8.819175
823.000000	8.781301
824.000000	8.748431
825.000000	8.717108
826.000000	8.687281
827.000000	8.650459
828.000000	8.614216
829.000000	8.576851
830.000000	8.545373
831.000000	8.516883
832.000000	8.483242
833.000000	8.454614
834.000000	8.427174
835.000000	8.403881
836.000000	8.383631
837.000000	8.360296
838.000000	8.332309
839.000000	8.309469
840.000000	8.285750
841.000000	8.257698
842.000000	8.236965
843.000000	8.216274
844.000000	8.200110
845.000000	8.176339
846.000000	8.158783
847.000000	8.137714
848.000000	8.118086
849.000000	8.098870
850.000000	8.078710
851.000000	8.053302
852.000000	8.037738
853.000000	8.008911
854.000000	7.991651
855.000000	7.968464
856.000000	7.943202
857.000000	7.928988
858.000000	7.906639
859.000000	7.825856
860.000000	7.751428
861.000000	7.682487
862.000000	7.650709
863.000000	7.601387
864.000000	7.528888
865.000000	7.472543
866.000000	7.435307
867.000000	7.375430
868.000000	7.301720
869.000000	7.252768
870.000000	7.178218
871.000000	7.103045
872.000000	7.052715
873.000000	6.997758
874.000000	6.924222
875.000000	6.830555
876.000000	6.785104
877.000000	6.714377
878.000000	6.641028
879.000000	6.565748
880.000000	6.488032
881.000000	6.429837
882.000000	6.382513
883.000000	6.307097
884.000000	6.231772
885.000000	6.155574
886.000000	6.088550
887.000000	6.019034
888.000000	5.931322
889.000000	5.854945
890.000000	5.785346
891.000000	5.733115
892.000000	5.673111
893.000000	5.603179
894.000000	5.566179
895.000000	5.542159
896.000000	5.513309
897.000000	5.469820
898.000000	5.419271
899.000000	5.383981
900.000000	5.341453
901.000000	5.281010
902.000000	5.250331
903.000000	5.243958
904.000000	5.204693
905.000000	5.169247
906.000000	5.146834
907.000000	5.097483
908.000000	5.052013
909.000000	5.016587
910.000000	4.993952
911.000000	4.958111
912.000000	4.974687
913.000000	4.950315
914.000000	4.920115
915.000000	4.907449
916.000000	4.874109
917.000000	4.816079
918.000000	4.792537
919.000000	4.781601
920.000000	4.760694
921.000000	4.746544
922.000000	4.727315
923.000000	4.720700
924.000000	4.708463
925.000000	4.677778
926.000000	4.625663
927.000000	4.590199
928.000000	4.571730
929.000000	4.571208
930.000000	4.559964
931.000000	4.530539
932.000000	4.495835
933.000000	4.453887
934.000000	4.415101
935.000000	4.387621
936.000000	4.358898
937.000000	4.335096
938.000000	4.299682
939.000000	4.266181
940.000000	4.245533
941.000000	4.212406
942.000000	4.178144
943.000000	4.153342
944.000000	4.117837
945.000000	4.115836
946.000000	4.081550
947.000000	3.990695
948.000000	3.962177
949.000000	3.951781
950.000000	3.920819
951.000000	3.893016
952.000000	3.881684
953.000000	3.865367
954.000000	3.831063
955.000000	3.811622
956.000000	3.759243
957.000000	3.721184
958.000000	3.678661
959.000000	3.633209
960.000000	3.627176
961.000000	3.644988
962.000000	3.611450
963.000000	3.585570
964.000000	3.559126
965.000000	3.496753
966.000000	3.493800
967.000000	3.482541
968.000000	3.478840
969.000000	3.491290
970.000000	3.477114
971.000000	3.464959
972.000000	3.450101
973.000000	3.440968
974.000000	3.413882
975.000000	3.402225
976.000000	3.387875
977.000000	3.375955
978.000000	3.355265
979.000000	3.363946
980.000000	3.337506
981.000000	3.309298
982.000000	3.309105
983.000000	3.292057
984.000000	3.267234
985.000000	3.245846
986.000000	3.226663
987.000000	3.212646
988.000000	3.175639
989.000000	3.131927
990.000000	3.105542
991.000000	3.104412
992.000000	3.081610
993.000000	3.079259
994.000000	3.074597
995.000000	3.050220
996.000000	2.998338
997.000000	2.987853
998.000000	2.939324
999.000000	2.879908
1000.000000	2.883165
1001.000000	2.860044
1002.000000	2.842666
1003.000000	2.837778
1004.000000	2.818594
1005.000000	2.796543
1006.000000	2.785530
1007.000000	2.765960
1008.000000	2.723697
1009.000000	2.719485
1010.000000	2.700231
1011.000000	2.685369
1012.000000	2.670248
1013.000000	2.645487
1014.000000	2.619409
1015.000000	2.604120
1016.000000	2.598396
1017.000000	2.597331
1018.000000	2.594360
1019.000000	2.588590
1020.000000	2.588014
1021.000000	2.550788
1022.000000	2.520852
1023.000000	2.518336
1024.000000	2.533507
1025.000000	2.540266
1026.000000	2.532202
1027.000000	2.501099
1028.000000	2.489880
1029.000000	2.469559
1030.000000	2.440378
1031.000000	2.429928
1032.000000	2.431520
1033.000000	2.461708
1034.000000	2.487248
1035.000000	2.470717
1036.000000	2.430211
1037.000000	2.403172
1038.000000	2.377407
1039.000000	2.346376
1040.000000	2.331379
1041.000000	2.308886
1042.000000	2.281947
1043.000000	2.258588
1044.000000	2.234488
1045.000000	2.235059
1046.000000	2.233219
1047.000000	2.204300
1048.000000	2.204188
1049.000000	2.217515
1050.000000	2.238471
1051.000000	2.236618
1052.000000	2.224074
1053.000000	2.212685
1054.000000	2.194939
1055.000000	2.153061
1056.000000	2.167419
1057.000000	2.167476
1058.000000	2.143868
1059.000000	2.125269
1060.000000	2.095744
1061.000000	2.074500
1062.000000	2.093712
1063.000000	2.100035
1064.000000	2.096542
1065.000000	2.074286
1066.000000	2.051025
1067.000000	2.019778
1068.000000	1.992167
1069.000000	1.987663
1070.000000	1.975000
1071.000000	1.999706
1072.000000	1.991377
1073.000000	2.023282
1074.000000	2.052369
1075.000000	2.061576
1076.000000	2.046489
1077.000000	2.055944
1078.000000	2.071069
1079.000000	2.077808
1080.000000	2.058332
1081.000000	2.027119
1082.000000	2.052408
1083.000000	2.034068
1084.000000	2.008912
1085.000000	1.971223
1086.000000	1.960957
1087.000000	1.942912
1088.000000	1.933990
1089.000000	1.930525
1090.000000	1.936377
1091.000000	1.924782
1092.000000	1.914900
1093.000000	1.927441
1094.000000	1.925111
1095.000000	1.904142
1096.000000	1.906808
1097.000000	1.903871
1098.000000	1.879536
1099.000000	1.853706
1100.000000	1.883569
1101.000000	1.914326
1102.000000	1.918652
1103.000000	1.906226
1104.000000	1.895710
1105.000000	1.908500
1106.000000	1.882047
1107.000000	1.873396
1108.000000	1.840037
1109.000000	1.824130
1110.000000	1.812014
1111.000000	1.797379
1112.000000	1.795346
1113.000000	1.772652
1114.000000	1.796727
1115.000000	1.790653
1116.000000	1.813856
1117.000000	1.783099
1118.000000	1.784940
1119.000000	1.775452
1120.000000	1.779097
1121.000000	1.775416
1122.000000	1.761018
1123.000000	1.733443
1124.000000	1.721298
1125.000000	1.710224
1126.000000	1.732068
1127.000000	1.713785
1128.000000	1.685407
1129.000000	1.664471
1130.000000	1.697697
1131.000000	1.698922
1132.000000	1.698011
1133.000000	1.684031
1134.000000	1.662281
1135.000000	1.678064
1136.000000	1.669541
1137.000000	1.655635
1138.000000	1.641448
1139.000000	1.636815
1140.000000	1.625832
1141.000000	1.638425
1142.000000	1.659939
1143.000000	1.683691
1144.000000	1.677479
1145.000000	1.691821
1146.000000	1.696978
1147.000000	1.686380
1148.000000	1.719780
1149.000000	1.680266
1150.000000	1.699537
1151.000000	1.689186
1152.000000	1.702625
1153.000000	1.678957
1154.000000	1.702585
1155.000000	1.665118
1156.000000	1.660181
1157.000000	1.686965
1158.000000	1.724111
1159.000000	1.737992
1160.000000	1.766907
1161.000000	1.757472
1162.000000	1.793388
1163.000000	1.814052
1164.000000	1.840454
1165.000000	1.841746
1166.000000	1.879756
1167.000000	1.870606
1168.000000	1.883035
1169.000000	1.936753
1170.000000	1.937716
1171.000000	1.940600
1172.000000	1.966652
1173.000000	1.995470
1174.000000	2.010258
1175.000000	2.051359
1176.000000	2.056930
1177.000000	2.059623
1178.000000	2.058153
1179.000000	2.053266
1180.000000	2.049282
1181.000000	2.056242
1182.000000	2.082284
1183.000000	2.069758
1184.000000	2.094272
1185.000000	2.133900
1186.000000	2.146005
1187.000000	2.160565
1188.000000	2.182164
1189.000000	2.167672
1190.000000	2.219565
1191.000000	2.224662
1192.000000	2.205395
1193.000000	2.174629
1194.000000	2.196897
1195.000000	2.219944
1196.000000	2.223421
1197.000000	2.236674
1198.000000	2.279965
1199.000000	2.285581
1200.000000	2.273030
1201.000000	2.226595
1202.000000	2.226341
1203.000000	2.238877
1204.000000	2.232770
1205.000000	2.238925
1206.000000	2.225819
1207.000000	2.224892
1208.000000	2.224877
1209.000000	2.229114
1210.000000	2.195692
1211.000000	2.182855
1212.000000	2.170563
1213.000000	2.150773
1214.000000	2.180038
1215.000000	2.167345
1216.000000	2.183228
1217.000000	2.171183
1218.000000	2.174581
1219.000000	2.166941
1220.000000	2.136964
1221.000000	2.152240
1222.000000	2.132670
1223.000000	2.151345
1224.000000	2.159364
1225.000000	2.147342
1226.000000	2.156252
1227.000000	2.142857
1228.000000	2.137722
1229.000000	2.108379
1230.000000	2.087598
1231.000000	2.078913
1232.000000	2.043268
1233.000000	1.991987
1234.000000	1.983824
1235.000000	1.987865
1236.000000	2.002409
1237.000000	2.012913
1238.000000	2.015902
1239.000000	2.033400
1240.000000	2.018109
1241.000000	2.018737
1242.000000	2.015717
1243.000000	2.023760
1244.000000	2.012261
1245.000000	2.025617
1246.000000	2.039243
1247.000000	2.046886
1248.000000	2.045533
1249.000000	2.004510
1250.000000	1.982581
1251.000000	1.966086
1252.000000	1.961286
1253.000000	1.964505
1254.000000	1.922918
1255.000000	1.869753
1256.000000	1.837846
1257.000000	1.866244
1258.000000	1.870033
1259.000000	1.862438
1260.000000	1.859325
1261.000000	1.848557
1262.000000	1.877723
1263.000000	1.910224
1264.000000	1.911752
1265.000000	1.905816
1266.000000	1.889215
1267.000000	1.896446
1268.000000	1.934486
1269.000000	1.931883
1270.000000	1.924928
1271.000000	1.938434
1272.000000	1.951464
1273.000000	1.936310
1274.000000	1.894075
1275.000000	1.900196
1276.000000	1.931342
1277.000000	1.911426
1278.000000	1.895059
1279.000000	1.898936
1280.000000	1.877837
1281.000000	1.859208
1282.000000	1.853580
1283.000000	1.853047
1284.000000	1.887024
1285.000000	1.922898
1286.000000	1.936087
1287.000000	1.929815
1288.000000	1.915467
1289.000000	1.950565
1290.000000	1.978683
1291.000000	1.987172
1292.000000	1.981545
1293.000000	1.960210
1294.000000	1.951624
1295.000000	1.936732
1296.000000	1.927287
1297.000000	1.925837
1298.000000	1.909946
1299.000000	1.918404
1300.000000	1.914471
1301.000000	1.929086
1302.000000	1.961381
1303.000000	1.965095
1304.000000	1.970404
1305.000000	1.984683
1306.000000	1.965430
1307.000000	1.957184
1308.000000	1.962174
1309.000000	1.976057
1310.000000	1.965900
1311.000000	1.930231
1312.000000	1.939280
1313.000000	1.949306
1314.000000	1.946093
1315.000000	1.959747
1316.000000	1.974802
1317.000000	1.983005
1318.000000	1.980621
1319.000000	1.963970
1320.000000	1.947284
1321.000000	1.908830
1322.000000	1.887928
1323.000000	1.906755
1324.000000	1.915196
1325.000000	1.901430
1326.000000	1.884167
1327.000000	1.868557
1328.000000	1.901824
1329.000000	1.909216
1330.000000	1.941062
1331.000000	1.953273
1332.000000	1.956249
1333.000000	1.968254
1334.000000	1.943860
1335.000000	1.954605
1336.000000	1.972019
1337.000000	1.952960
1338.000000	1.936875
1339.000000	1.933987
1340.000000	1.949435
1341.000000	1.961406
1342.000000	1.965080
1343.000000	2.004453
1344.000000	2.032852
1345.000000	2.024101
1346.000000	2.053918
1347.000000	2.053674
1348.000000	2.068315
1349.000000	2.078166
1350.000000	2.106577
1351.000000	2.149534
1352.000000	2.207521
1353.000000	2.287658
1354.000000	2.276407
1355.000000	2.237492
1356.000000	2.265703
1357.000000	2.279604
1358.000000	2.272769
1359.000000	2.269327
1360.000000	2.231399
1361.000000	2.239870
1362.000000	2.377578
1363.000000	2.412809
1364.000000	2.285242
1365.000000	2.303971
1366.000000	2.245480
1367.000000	2.059001
1368.000000	1.967781
1369.000000	1.948219
1370.000000	1.896827
1371.000000	1.937597
1372.000000	1.981866
1373.000000	2.033927
1374.000000	2.071985
1375.000000	2.091048
1376.000000	2.078170
1377.000000	2.132863
1378.000000	2.067412
1379.000000	2.169006
1380.000000	2.273209
1381.000000	2.333560
1382.000000	2.172266
1383.000000	2.113640
1384.000000	2.044871
1385.000000	2.041568
1386.000000	2.048023
1387.000000	1.919350
1388.000000	1.967395
1389.000000	2.010156
1390.000000	2.060864
1391.000000	2.046787
1392.000000	2.142709
1393.000000	2.211995
1394.000000	2.265119
1395.000000	2.341098
1396.000000	2.478890
1397.000000	2.437589
1398.000000	2.461283
1399.000000	2.598334
1400.000000	2.470322
1401.000000	2.599767
1402.000000	2.865521
1403.000000	3.067954
1404.000000	3.211662
1405.000000	3.425068
1406.000000	3.469364
1407.000000	3.552508
1408.000000	3.615861
1409.000000	3.671733
1410.000000	3.745722
1411.000000	3.872857
1412.000000	3.950764
1413.000000	4.104747
1414.000000	4.062793
1415.000000	4.050708
1416.000000	4.103315
1417.000000	4.387734
1418.000000	4.507074
1419.000000	4.694888
1420.000000	4.764962
1421.000000	4.844887
1422.000000	5.046732
1423.000000	5.023577
1424.000000	5.137992
1425.000000	5.242884
1426.000000	5.412361
1427.000000	5.482195
1428.000000	5.545842
1429.000000	5.629472
1430.000000	5.780179
1431.000000	5.772741
1432.000000	5.824202
1433.000000	5.901481
1434.000000	6.040364
1435.000000	6.311135
1436.000000	6.411733
1437.000000	6.469600
1438.000000	6.510606
1439.000000	6.527554
1440.000000	6.513839
1441.000000	6.552072
1442.000000	6.570119
1443.000000	6.617228
1444.000000	6.700449
1445.000000	6.680566
1446.000000	6.764642
1447.000000	6.793658
1448.000000	6.858900
1449.000000	6.947397
1450.000000	7.007965
1451.000000	7.059239
1452.000000	7.118115
1453.000000	7.202582
1454.000000	7.247439
1455.000000	7.322999
1456.000000	7.359387
1457.000000	7.381251
1458.000000	7.467189
1459.000000	7.519346
1460.000000	7.568934
1461.000000	7.626156
1462.000000	7.653815
1463.000000	7.723479
1464.000000	7.772421
1465.000000	7.781150
1466.000000	7.870338
1467.000000	7.944523
1468.000000	7.990040
1469.000000	8.006633
1470.000000	8.020267
1471.000000	8.052038
1472.000000	8.103880
1473.000000	8.177700
1474.000000	8.276590
1475.000000	8.342349
1476.000000	8.413118
1477.000000	8.472419
1478.000000	8.517936
1479.000000	8.555600
1480.000000	8.666209
1481.000000	8.675033
1482.000000	8.703879
1483.000000	8.719014
1484.000000	8.752254
1485.000000	8.801995
1486.000000	8.816200
1487.000000	8.859271
1488.000000	8.907071
1489.000000	8.926744
1490.000000	8.944220
1491.000000	8.984727
1492.000000	9.030011
1493.000000	9.057081
1494.000000	9.078939
1495.000000	9.120363
1496.000000	9.126962
1497.000000	9.136900
1498.000000	9.132398
1499.000000	9.141130
1500.000000	9.173728
1501.000000	9.170940
1502.000000	9.168911
1503.000000	9.187019
1504.000000	9.223197
1505.000000	9.236250
1506.000000	9.224208
1507.000000	9.212927
1508.000000	9.160077
1509.000000	9.123509
1510.000000	9.089414
1511.000000	9.061097
1512.000000	9.021969
1513.000000	8.987918
1514.000000	8.974251
1515.000000	8.951104
1516.000000	8.914536
1517.000000	8.901583
1518.000000	8.884852
1519.000000	8.855522
1520.000000	8.841215
1521.000000	8.823872
1522.000000	8.791578
1523.000000	8.754688
1524.000000	8.750220
1525.000000	8.756388
1526.000000	8.746369
1527.000000	8.709087
1528.000000	8.682297
1529.000000	8.668025
1530.000000	8.652144
1531.000000	8.612828
1532.000000	8.598171
1533.000000	8.591635
1534.000000	8.572899
1535.000000	8.530529
1536.000000	8.500133
1537.000000	8.470260
1538.000000	8.422854
1539.000000	8.395438
1540.000000	8.368064
1541.000000	8.342296
1542.000000	8.329599
1543.000000	8.333080
1544.000000	8.317362
1545.000000	8.298171
1546.000000	8.281712
1547.000000	8.261558
1548.000000	8.242023
1549.000000	8.211268
1550.000000	8.187198
1551.000000	8.165099
1552.000000	8.115645
1553.000000	8.089742
1554.000000	8.078651
1555.000000	8.046292
1556.000000	8.030999
1557.000000	8.015878
1558.000000	8.007370
1559.000000	7.983617
1560.000000	7.962559
1561.000000	7.931241
1562.000000	7.895767
1563.000000	7.867036
1564.000000	7.810625
1565.000000	7.786573
1566.000000	7.794511
1567.000000	7.774761
1568.000000	7.742855
1569.000000	7.730746
1570.000000	7.732171
1571.000000	7.710017
1572.000000	7.665296
1573.000000	7.648809
1574.000000	7.620689
1575.000000	7.599151
1576.000000	7.610440
1577.000000	7.608646
1578.000000	7.595551
1579.000000	7.564126
1580.000000	7.569234
1581.000000	7.595480
1582.000000	7.623001
1583.000000	7.642905
1584.000000	7.662796
1585.000000	7.672330
1586.000000	7.677916
1587.000000	7.692653
1588.000000	7.694713
1589.000000	7.678760
1590.000000	7.671855
1591.000000	7.671557
1592.000000	7.648833
1593.000000	7.642037
1594.000000	7.628324
1595.000000	7.617619
1596.000000	7.623151
1597.000000	7.629694
1598.000000	7.615187
1599.000000	7.616779
1600.000000	7.588803
1601.000000	7.544819
1602.000000	7.552787
1603.000000	7.543439
1604.000000	7.526350
1605.000000	7.507910
1606.000000	7.493567
1607.000000	7.471328
1608.000000	7.431405
1609.000000	7.422423
1610.000000	7.402609
1611.000000	7.381331
1612.000000	7.376748
1613.000000	7.348659
1614.000000	7.337816
1615.000000	7.291459
1616.000000	7.243891
1617.000000	7.212130
1618.000000	7.175110
1619.000000	7.127844
1620.000000	7.092845
1621.000000	7.066369
1622.000000	7.060279
1623.000000	7.056904
1624.000000	7.086665
1625.000000	7.089509
1626.000000	7.084765
1627.000000	7.071944
1628.000000	7.065662
1629.000000	7.082198
1630.000000	7.056739
1631.000000	7.016782
1632.000000	7.002988
1633.000000	7.024749
1634.000000	7.019344
1635.000000	7.003456
1636.000000	6.979743
1637.000000	6.932192
1638.000000	6.902341
1639.000000	6.905319
1640.000000	6.903509
1641.000000	6.908724
1642.000000	6.917351
1643.000000	6.953035
1644.000000	6.961026
1645.000000	6.963177
1646.000000	6.944921
1647.000000	6.911390
1648.000000	6.901428
1649.000000	6.920824
1650.000000	6.946404
1651.000000	6.925594
1652.000000	6.919286
1653.000000	6.896658
1654.000000	6.924369
1655.000000	6.971053
1656.000000	6.959894
1657.000000	6.949888
1658.000000	6.892391
1659.000000	6.842130
1660.000000	6.829273
1661.000000	6.832645
1662.000000	6.821524
1663.000000	6.816782
1664.000000	6.796983
1665.000000	6.788679
1666.000000	6.804135
1667.000000	6.834399
1668.000000	6.818558
1669.000000	6.846505
1670.000000	6.890647
1671.000000	6.938174
1672.000000	6.966931
1673.000000	7.006819
1674.000000	7.023682
1675.000000	7.069365
1676.000000	7.088227
1677.000000	7.133528
1678.000000	7.144421
1679.000000	7.166329
1680.000000	7.222742
1681.000000	7.248134
1682.000000	7.290931
1683.000000	7.360289
1684.000000	7.380031
1685.000000	7.413643
1686.000000	7.459224
1687.000000	7.485198
1688.000000	7.529437
1689.000000	7.568603
1690.000000	7.547509
1691.000000	7.610728
1692.000000	7.667786
1693.000000	7.753050
1694.000000	7.814485
1695.000000	7.870001
1696.000000	7.902847
1697.000000	7.969286
1698.000000	7.985590
1699.000000	8.025979
1700.000000	8.062918
1701.000000	8.097882
1702.000000	8.133676
1703.000000	8.170885
1704.000000	8.181053
1705.000000	8.184146
1706.000000	8.213575
1707.000000	8.265883
1708.000000	8.294697
1709.000000	8.291403
1710.000000	8.298029
1711.000000	8.332412
1712.000000	8.358977
1713.000000	8.371912
1714.000000	8.402277
1715.000000	8.402623
1716.000000	8.446500
1717.000000	8.457065
1718.000000	8.463304
1719.000000	8.530708
1720.000000	8.568454
1721.000000	8.623428
1722.000000	8.663282
1723.000000	8.694375
1724.000000	8.694537
1725.000000	8.752720
1726.000000	8.803974
1727.000000	8.840203
1728.000000	8.876531
1729.000000	8.919779
1730.000000	8.954160
1731.000000	8.956527
1732.000000	8.972321
1733.000000	9.010698
1734.000000	9.022271
1735.000000	9.052835
1736.000000	9.066930
1737.000000	9.093357
1738.000000	9.132795
1739.000000	9.150313
1740.000000	9.162432
1741.000000	9.176018
1742.000000	9.192859
1743.000000	9.199392
1744.000000	9.235711
1745.000000	9.224231
1746.000000	9.227976
1747.000000	9.220908
1748.000000	9.257016
1749.000000	9.289807
1750.000000	9.308765
1751.000000	9.307489
1752.000000	9.321947
1753.000000	9.298062
1754.000000	9.262406
1755.000000	9.245049
1756.000000	9.204139
1757.000000	9.203253
1758.000000	9.199498
1759.000000	9.197673
1760.000000	9.174278
1761.000000	9.132630
1762.000000	9.097242
1763.000000	9.102240
1764.000000	9.081152
1765.000000	9.058933
1766.000000	9.080389
1767.000000	9.095487
1768.000000	9.097543
1769.000000	9.117413
1770.000000	9.122322
1771.000000	9.128964
1772.000000	9.123963
1773.000000	9.116825
1774.000000	9.133225
1775.000000	9.167375
1776.000000	9.171461
1777.000000	9.137041
1778.000000	9.140551
1779.000000	9.155681
1780.000000	9.168400
1781.000000	9.149142
1782.000000	9.153417
1783.000000	9.138597
1784.000000	9.106494
1785.000000	9.086868
1786.000000	9.079594
1787.000000	9.086268
1788.000000	9.092336
1789.000000	9.080602
1790.000000	9.067964
1791.000000	9.074553
1792.000000	9.061531
1793.000000	9.090589
1794.000000	9.101300
1795.000000	9.119657
1796.000000	9.123477
1797.000000	9.117393
1798.000000	9.087614
1799.000000	9.063473
1800.000000	9.038416
1801.000000	9.009758
1802.000000	8.981085
1803.000000	8.963457
1804.000000	8.911882
1805.000000	8.866532
1806.000000	8.835670
1807.000000	8.821097
1808.000000	8.816738
1809.000000	8.816860
1810.000000	8.786230
1811.000000	8.760864
1812.000000	8.785666
1813.000000	8.777965
1814.000000	8.748309
1815.000000	8.752170
1816.000000	8.745225
1817.000000	8.606441
1818.000000	8.484028
1819.000000	8.406895
1820.000000	8.408662
1821.000000	8.463808
1822.000000	8.485181
1823.000000	8.504905
1824.000000	8.503828
1825.000000	8.342277
1826.000000	8.262727
1827.000000	8.285717
1828.000000	8.263608
1829.000000	8.231911
1830.000000	8.143232
1831.000000	8.126783
1832.000000	8.178224
1833.000000	8.215735
1834.000000	8.215880
1835.000000	8.155055
1836.000000	8.166995
1837.000000	8.202133
1838.000000	8.257435
1839.000000	8.382653
1840.000000	8.535560
1841.000000	8.516622
1842.000000	8.506805
1843.000000	8.526373
1844.000000	8.520791
1845.000000	8.561085
1846.000000	8.516044
1847.000000	8.394720
1848.000000	8.399894
1849.000000	8.438772
1850.000000	8.453764
1851.000000	8.518903
1852.000000	8.659656
1853.000000	8.767844
1854.000000	8.862091
1855.000000	8.882126
1856.000000	8.947122
1857.000000	9.040970
1858.000000	9.108072
1859.000000	9.132227
1860.000000	9.325767
1861.000000	9.438871
1862.000000	9.413004
1863.000000	9.288406
1864.000000	9.294197
1865.000000	9.398308
1866.000000	9.443184
1867.000000	9.389938
1868.000000	9.371360
1869.000000	9.423252
1870.000000	9.408900
1871.000000	9.431237
1872.000000	9.302873
1873.000000	9.289472
1874.000000	9.249489
1875.000000	9.226426
1876.000000	9.201534
1877.000000	9.234915
1878.000000	9.253224
1879.000000	9.305921
1880.000000	9.302232
1881.000000	9.435162
1882.000000	9.616980
1883.000000	9.640194
1884.000000	9.700543
1885.000000	9.777572
1886.000000	9.800721
1887.000000	9.890023
1888.000000	10.007326
1889.000000	10.060110
1890.000000	10.211078
1891.000000	10.189221
1892.000000	10.211289
1893.000000	10.267569
1894.000000	10.393021
1895.000000	10.534117
1896.000000	10.671171
1897.000000	10.818622
1898.000000	11.119894
1899.000000	11.313277
1900.000000	11.497538
1901.000000	11.658027
1902.000000	11.643624
1903.000000	11.830901
1904.000000	12.044060
1905.000000	12.388553
1906.000000	12.573892
1907.000000	12.952066
1908.000000	13.187718
1909.000000	13.440885
1910.000000	13.674145
1911.000000	14.099408
1912.000000	14.426506
1913.000000	14.690277
1914.000000	14.969091
1915.000000	15.293306
1916.000000	15.586374
1917.000000	15.905314
1918.000000	16.278801
1919.000000	16.503394
1920.000000	16.745402
1921.000000	17.107269
1922.000000	17.401685
1923.000000	17.656995
1924.000000	18.048330
1925.000000	18.294106
1926.000000	18.574750
1927.000000	18.879891
1928.000000	19.136012
1929.000000	19.418188
1930.000000	19.667977
1931.000000	19.911928
1932.000000	20.196854
1933.000000	20.421271
1934.000000	20.708067
1935.000000	20.907944
1936.000000	21.142594
1937.000000	21.590187
1938.000000	21.813445
1939.000000	21.987131
1940.000000	22.128582
1941.000000	22.341124
1942.000000	22.490961
1943.000000	22.643216
1944.000000	22.729759
1945.000000	22.815103
1946.000000	22.860707
1947.000000	22.926537
1948.000000	23.043594
1949.000000	23.119877
1950.000000	23.189760
1951.000000	23.234471
1952.000000	23.247356
1953.000000	23.256477
1954.000000	23.362795
1955.000000	23.405763
1956.000000	23.370176
1957.000000	23.389030
1958.000000	23.413961
1959.000000	23.337249
1960.000000	23.311678
1961.000000	23.306910
1962.000000	23.215675
1963.000000	23.189610
1964.000000	23.131378
1965.000000	23.089320
1966.000000	23.078321
1967.000000	23.014228
1968.000000	22.967161
1969.000000	22.850238
1970.000000	22.821295
1971.000000	22.763787
1972.000000	22.712029
1973.000000	22.632272
1974.000000	22.551698
1975.000000	22.499492
1976.000000	22.410954
1977.000000	22.330998
1978.000000	22.263388
1979.000000	22.219498
1980.000000	22.134697
1981.000000	22.041337
1982.000000	21.972318
1983.000000	21.873765
1984.000000	21.778733
1985.000000	21.671144
1986.000000	21.579727
1987.000000	21.497648
1988.000000	21.401812
1989.000000	21.280157
1990.000000	21.232621
1991.000000	21.165365
1992.000000	21.096529
1993.000000	21.026697
1994.000000	20.965660
1995.000000	20.890143
1996.000000	20.807819
1997.000000	20.748787
1998.000000	20.684789
1999.000000	20.648538
2000.000000	20.583302
