PE UV       SUBTECH     SPECTRUM    ASCII       PEDS        4.00        
   -1
NI#0001-TX3.ASC
23/11/30
14:16:12.00
23/11/30
14:16:12.00
Vinicio Soto Monge
NI #001
250,000000
1
Lambda 1050
1050L1511233
PerkinElmer UV WinLab 6.3.2.0749 / 2.02.05 Lambda 900 UV/VIS/NIR, Aug  7 2015 09:38:08

0
0
3350/servo 860,8/2
0
0
UV/VIS
1
1
1
DoubleDePol,CommonBeamDepol,RBeamAtt,SBeamAtt,60mm sphere, WB InGaAs Detector
0
0
0
0
Program
Program
3350/servo 860,8/2
3350/0,4 860,8/0,4
3350/0,4 860,8/0,4
0
20.00
 
 
 
0
 
860,8
319,2
860,8
Front
100
on
S:100 R:100
0
0
0
0
 
0
 
 
 
0
 
 
0
0
0
0
0
 
 
 
 
0
0


0
0
#HDR
-1
-1
#GR
nm
%A
1.0
0.0
2200,000000
-1,000000
1951
8
52,526952
0,335831
#DATA
284.000000	92.109004
285.000000	92.133820
286.000000	92.156914
287.000000	92.177869
288.000000	92.196301
289.000000	92.214457
290.000000	92.231670
291.000000	92.247749
292.000000	92.265091
293.000000	92.281097
294.000000	92.296102
295.000000	92.311340
296.000000	92.323968
297.000000	92.336766
298.000000	92.349941
299.000000	92.362415
300.000000	92.372893
301.000000	92.383544
302.000000	92.392672
303.000000	92.401593
304.000000	92.411512
305.000000	92.420470
306.000000	92.430633
307.000000	92.442794
308.000000	92.450939
309.000000	92.462443
310.000000	92.472346
311.000000	92.483665
312.000000	92.495658
313.000000	92.505856
314.000000	92.516665
315.000000	92.527774
316.000000	92.539940
317.000000	92.552203
318.000000	92.561184
319.000000	92.574173
320.000000	92.582943
321.000000	92.591899
322.000000	92.601503
323.000000	92.615560
324.000000	92.626377
325.000000	92.639787
326.000000	92.652090
327.000000	92.662581
328.000000	92.673271
329.000000	92.685605
330.000000	92.696354
331.000000	92.709069
332.000000	92.721755
333.000000	92.734833
334.000000	92.746220
335.000000	92.762846
336.000000	92.777254
337.000000	92.788815
338.000000	92.802820
339.000000	92.817016
340.000000	92.830728
341.000000	92.843786
342.000000	92.855513
343.000000	92.868385
344.000000	92.877189
345.000000	92.887658
346.000000	92.899269
347.000000	92.910887
348.000000	92.922233
349.000000	92.933035
350.000000	92.942843
351.000000	92.951859
352.000000	92.961489
353.000000	92.971310
354.000000	92.978513
355.000000	92.989097
356.000000	92.999865
357.000000	93.010537
358.000000	93.016681
359.000000	93.024907
360.000000	93.031576
361.000000	93.039862
362.000000	93.049764
363.000000	93.060022
364.000000	93.068636
365.000000	93.077470
366.000000	93.085650
367.000000	93.093751
368.000000	93.099365
369.000000	93.109349
370.000000	93.114976
371.000000	93.121133
372.000000	93.130199
373.000000	93.136373
374.000000	93.143301
375.000000	93.149371
376.000000	93.158872
377.000000	93.170122
378.000000	93.182688
379.000000	93.195479
380.000000	93.208943
381.000000	93.220905
382.000000	93.232652
383.000000	93.245246
384.000000	93.257566
385.000000	93.271424
386.000000	93.285280
387.000000	93.298443
388.000000	93.313112
389.000000	93.326829
390.000000	93.341151
391.000000	93.355423
392.000000	93.369168
393.000000	93.384052
394.000000	93.399117
395.000000	93.412688
396.000000	93.426026
397.000000	93.437786
398.000000	93.449956
399.000000	93.463159
400.000000	93.476463
401.000000	93.489518
402.000000	93.501929
403.000000	93.516384
404.000000	93.527658
405.000000	93.540010
406.000000	93.552957
407.000000	93.566518
408.000000	93.580555
409.000000	93.592713
410.000000	93.605265
411.000000	93.615229
412.000000	93.622369
413.000000	93.629371
414.000000	93.636501
415.000000	93.643398
416.000000	93.649994
417.000000	93.656278
418.000000	93.662528
419.000000	93.668925
420.000000	93.674587
421.000000	93.680259
422.000000	93.685842
423.000000	93.691472
424.000000	93.696827
425.000000	93.701945
426.000000	93.707154
427.000000	93.712227
428.000000	93.717345
429.000000	93.722233
430.000000	93.727126
431.000000	93.731903
432.000000	93.736504
433.000000	93.741010
434.000000	93.745558
435.000000	93.750019
436.000000	93.754411
437.000000	93.758811
438.000000	93.763055
439.000000	93.767369
440.000000	93.771588
441.000000	93.775438
442.000000	93.779243
443.000000	93.783093
444.000000	93.786831
445.000000	93.790778
446.000000	93.794765
447.000000	93.798644
448.000000	93.802263
449.000000	93.806065
450.000000	93.810203
451.000000	93.814195
452.000000	93.817783
453.000000	93.821445
454.000000	93.825181
455.000000	93.829006
456.000000	93.832899
457.000000	93.836780
458.000000	93.840306
459.000000	93.843760
460.000000	93.847217
461.000000	93.850633
462.000000	93.853828
463.000000	93.857028
464.000000	93.860459
465.000000	93.863655
466.000000	93.866819
467.000000	93.870110
468.000000	93.873190
469.000000	93.875985
470.000000	93.878546
471.000000	93.880915
472.000000	93.882980
473.000000	93.884726
474.000000	93.886089
475.000000	93.887552
476.000000	93.889067
477.000000	93.889783
478.000000	93.889832
479.000000	93.889615
480.000000	93.888843
481.000000	93.887437
482.000000	93.885348
483.000000	93.882578
484.000000	93.878998
485.000000	93.874635
486.000000	93.869702
487.000000	93.864097
488.000000	93.857378
489.000000	93.849484
490.000000	93.840698
491.000000	93.831079
492.000000	93.820413
493.000000	93.809087
494.000000	93.796665
495.000000	93.783003
496.000000	93.767803
497.000000	93.751087
498.000000	93.732680
499.000000	93.712322
500.000000	93.690322
501.000000	93.666366
502.000000	93.639855
503.000000	93.610926
504.000000	93.579608
505.000000	93.545496
506.000000	93.508518
507.000000	93.468713
508.000000	93.426333
509.000000	93.381100
510.000000	93.332769
511.000000	93.281119
512.000000	93.226788
513.000000	93.169444
514.000000	93.108801
515.000000	93.044983
516.000000	92.978417
517.000000	92.909183
518.000000	92.836929
519.000000	92.761832
520.000000	92.683840
521.000000	92.602751
522.000000	92.518843
523.000000	92.432227
524.000000	92.342949
525.000000	92.251095
526.000000	92.156613
527.000000	92.059674
528.000000	91.959895
529.000000	91.857820
530.000000	91.753702
531.000000	91.647543
532.000000	91.539511
533.000000	91.430074
534.000000	91.319479
535.000000	91.207837
536.000000	91.095341
537.000000	90.982543
538.000000	90.870262
539.000000	90.758152
540.000000	90.647003
541.000000	90.537166
542.000000	90.428756
543.000000	90.322120
544.000000	90.217894
545.000000	90.116141
546.000000	90.017352
547.000000	89.921599
548.000000	89.829277
549.000000	89.741128
550.000000	89.657010
551.000000	89.576661
552.000000	89.500273
553.000000	89.427927
554.000000	89.359574
555.000000	89.295310
556.000000	89.235061
557.000000	89.178623
558.000000	89.125733
559.000000	89.076356
560.000000	89.030419
561.000000	88.987376
562.000000	88.947267
563.000000	88.910151
564.000000	88.875736
565.000000	88.843888
566.000000	88.814686
567.000000	88.787548
568.000000	88.762625
569.000000	88.739514
570.000000	88.718284
571.000000	88.699124
572.000000	88.681642
573.000000	88.665434
574.000000	88.650614
575.000000	88.637178
576.000000	88.624810
577.000000	88.613576
578.000000	88.603122
579.000000	88.592988
580.000000	88.583818
581.000000	88.575633
582.000000	88.567566
583.000000	88.559845
584.000000	88.551453
585.000000	88.543492
586.000000	88.535155
587.000000	88.526431
588.000000	88.517233
589.000000	88.507761
590.000000	88.498012
591.000000	88.488060
592.000000	88.478060
593.000000	88.468353
594.000000	88.458409
595.000000	88.448321
596.000000	88.438479
597.000000	88.429247
598.000000	88.419992
599.000000	88.411120
600.000000	88.402393
601.000000	88.394290
602.000000	88.385944
603.000000	88.377532
604.000000	88.368991
605.000000	88.360224
606.000000	88.350555
607.000000	88.340126
608.000000	88.328770
609.000000	88.316049
610.000000	88.301847
611.000000	88.285859
612.000000	88.267725
613.000000	88.247555
614.000000	88.225011
615.000000	88.198926
616.000000	88.169848
617.000000	88.137782
618.000000	88.101757
619.000000	88.062866
620.000000	88.019903
621.000000	87.973023
622.000000	87.922146
623.000000	87.867018
624.000000	87.807688
625.000000	87.743793
626.000000	87.675645
627.000000	87.602895
628.000000	87.525042
629.000000	87.443150
630.000000	87.356404
631.000000	87.264653
632.000000	87.168063
633.000000	87.066558
634.000000	86.960191
635.000000	86.849053
636.000000	86.732802
637.000000	86.612467
638.000000	86.487679
639.000000	86.358056
640.000000	86.223745
641.000000	86.085255
642.000000	85.942801
643.000000	85.795360
644.000000	85.644136
645.000000	85.488694
646.000000	85.329288
647.000000	85.166248
648.000000	84.999410
649.000000	84.828371
650.000000	84.653860
651.000000	84.474895
652.000000	84.292347
653.000000	84.106749
654.000000	83.916995
655.000000	83.723850
656.000000	83.527666
657.000000	83.328429
658.000000	83.126504
659.000000	82.921590
660.000000	82.714134
661.000000	82.503667
662.000000	82.290902
663.000000	82.075709
664.000000	81.857408
665.000000	81.636698
666.000000	81.414082
667.000000	81.188861
668.000000	80.961247
669.000000	80.731749
670.000000	80.500204
671.000000	80.266827
672.000000	80.031281
673.000000	79.793613
674.000000	79.554598
675.000000	79.313984
676.000000	79.071590
677.000000	78.828146
678.000000	78.583561
679.000000	78.337061
680.000000	78.088818
681.000000	77.839305
682.000000	77.588084
683.000000	77.334758
684.000000	77.081112
685.000000	76.826970
686.000000	76.571994
687.000000	76.316481
688.000000	76.059943
689.000000	75.802081
690.000000	75.543183
691.000000	75.282435
692.000000	75.021005
693.000000	74.759269
694.000000	74.496180
695.000000	74.232606
696.000000	73.967459
697.000000	73.701487
698.000000	73.435558
699.000000	73.169203
700.000000	72.901722
701.000000	72.633149
702.000000	72.363815
703.000000	72.094991
704.000000	71.825207
705.000000	71.555641
706.000000	71.284635
707.000000	71.013090
708.000000	70.740968
709.000000	70.468504
710.000000	70.195923
711.000000	69.922636
712.000000	69.648089
713.000000	69.373265
714.000000	69.098276
715.000000	68.823996
716.000000	68.549323
717.000000	68.274001
718.000000	67.998923
719.000000	67.723462
720.000000	67.446831
721.000000	67.169543
722.000000	66.892212
723.000000	66.614863
724.000000	66.337527
725.000000	66.061176
726.000000	65.785875
727.000000	65.509311
728.000000	65.231674
729.000000	64.954822
730.000000	64.676802
731.000000	64.399276
732.000000	64.122079
733.000000	63.845074
734.000000	63.569316
735.000000	63.292666
736.000000	63.015877
737.000000	62.739862
738.000000	62.462469
739.000000	62.186012
740.000000	61.909326
741.000000	61.633203
742.000000	61.357555
743.000000	61.081912
744.000000	60.807350
745.000000	60.532569
746.000000	60.257988
747.000000	59.984214
748.000000	59.709130
749.000000	59.434234
750.000000	59.159723
751.000000	58.884867
752.000000	58.610328
753.000000	58.336600
754.000000	58.063910
755.000000	57.791777
756.000000	57.519970
757.000000	57.248459
758.000000	56.977762
759.000000	56.709527
760.000000	56.440698
761.000000	56.170971
762.000000	55.902222
763.000000	55.634046
764.000000	55.365710
765.000000	55.098079
766.000000	54.830814
767.000000	54.564584
768.000000	54.298871
769.000000	54.030659
770.000000	53.765024
771.000000	53.501052
772.000000	53.237342
773.000000	52.974400
774.000000	52.711452
775.000000	52.448869
776.000000	52.186934
777.000000	51.925212
778.000000	51.664856
779.000000	51.405476
780.000000	51.144624
781.000000	50.886207
782.000000	50.627946
783.000000	50.372191
784.000000	50.116795
785.000000	49.860797
786.000000	49.607218
787.000000	49.355631
788.000000	49.105858
789.000000	48.853954
790.000000	48.601946
791.000000	48.350572
792.000000	48.101743
793.000000	47.853470
794.000000	47.604125
795.000000	47.356780
796.000000	47.107738
797.000000	46.860230
798.000000	46.614144
799.000000	46.369033
800.000000	46.124266
801.000000	45.879506
802.000000	45.635362
803.000000	45.391181
804.000000	45.148887
805.000000	44.908976
806.000000	44.668227
807.000000	44.429496
808.000000	44.191569
809.000000	43.954654
810.000000	43.719307
811.000000	43.484301
812.000000	43.249850
813.000000	43.015106
814.000000	42.779542
815.000000	42.546590
816.000000	42.315311
817.000000	42.083499
818.000000	41.852837
819.000000	41.625160
820.000000	41.397332
821.000000	41.168216
822.000000	40.943286
823.000000	40.715779
824.000000	40.493949
825.000000	40.275006
826.000000	40.055732
827.000000	39.834024
828.000000	39.613688
829.000000	39.391768
830.000000	39.169285
831.000000	38.953394
832.000000	38.736862
833.000000	38.521018
834.000000	38.307383
835.000000	38.089178
836.000000	37.878169
837.000000	37.669758
838.000000	37.457645
839.000000	37.247928
840.000000	37.040748
841.000000	36.834523
842.000000	36.632313
843.000000	36.434304
844.000000	36.223738
845.000000	36.014512
846.000000	35.813012
847.000000	35.609903
848.000000	35.411497
849.000000	35.214814
850.000000	35.026320
851.000000	34.829071
852.000000	34.633461
853.000000	34.436575
854.000000	34.245393
855.000000	34.059724
856.000000	33.864799
857.000000	33.671170
858.000000	33.459623
859.000000	33.225511
860.000000	33.006966
861.000000	32.761131
862.000000	32.555260
863.000000	32.360868
864.000000	32.143920
865.000000	31.922301
866.000000	31.727395
867.000000	31.509520
868.000000	31.309219
869.000000	31.109078
870.000000	30.899481
871.000000	30.710142
872.000000	30.513088
873.000000	30.278136
874.000000	30.082782
875.000000	29.877437
876.000000	29.674870
877.000000	29.475148
878.000000	29.267586
879.000000	29.081922
880.000000	28.902239
881.000000	28.703234
882.000000	28.508300
883.000000	28.303978
884.000000	28.096048
885.000000	27.889003
886.000000	27.709860
887.000000	27.516725
888.000000	27.331523
889.000000	27.114981
890.000000	26.930374
891.000000	26.761569
892.000000	26.587305
893.000000	26.417604
894.000000	26.270909
895.000000	26.112546
896.000000	25.980648
897.000000	25.817683
898.000000	25.654393
899.000000	25.525505
900.000000	25.369206
901.000000	25.204146
902.000000	25.058086
903.000000	24.903969
904.000000	24.748385
905.000000	24.618171
906.000000	24.472121
907.000000	24.327884
908.000000	24.209241
909.000000	24.043054
910.000000	23.909519
911.000000	23.773537
912.000000	23.622371
913.000000	23.472762
914.000000	23.291446
915.000000	23.137129
916.000000	22.999221
917.000000	22.868168
918.000000	22.746077
919.000000	22.619575
920.000000	22.487695
921.000000	22.323210
922.000000	22.208653
923.000000	22.081688
924.000000	21.991206
925.000000	21.837627
926.000000	21.681018
927.000000	21.534900
928.000000	21.430683
929.000000	21.326145
930.000000	21.195923
931.000000	21.083520
932.000000	20.980306
933.000000	20.840016
934.000000	20.702384
935.000000	20.596148
936.000000	20.456953
937.000000	20.348722
938.000000	20.244456
939.000000	20.102907
940.000000	19.953234
941.000000	19.812357
942.000000	19.661390
943.000000	19.560572
944.000000	19.455437
945.000000	19.321848
946.000000	19.173630
947.000000	19.043502
948.000000	18.949204
949.000000	18.881280
950.000000	18.775822
951.000000	18.681116
952.000000	18.598925
953.000000	18.476182
954.000000	18.363737
955.000000	18.279238
956.000000	18.192977
957.000000	18.082787
958.000000	17.984043
959.000000	17.862300
960.000000	17.777444
961.000000	17.685164
962.000000	17.571747
963.000000	17.445045
964.000000	17.327150
965.000000	17.218966
966.000000	17.120104
967.000000	17.004088
968.000000	16.926872
969.000000	16.822882
970.000000	16.709645
971.000000	16.634900
972.000000	16.523020
973.000000	16.412850
974.000000	16.348603
975.000000	16.263496
976.000000	16.156662
977.000000	16.073217
978.000000	15.984469
979.000000	15.909223
980.000000	15.839607
981.000000	15.784269
982.000000	15.702289
983.000000	15.601460
984.000000	15.503593
985.000000	15.405768
986.000000	15.285799
987.000000	15.153614
988.000000	15.061098
989.000000	14.974282
990.000000	14.883341
991.000000	14.782868
992.000000	14.664746
993.000000	14.541225
994.000000	14.446540
995.000000	14.343139
996.000000	14.233514
997.000000	14.139742
998.000000	14.046823
999.000000	13.935257
1000.000000	13.825165
1001.000000	13.717822
1002.000000	13.630905
1003.000000	13.534112
1004.000000	13.463498
1005.000000	13.401642
1006.000000	13.325827
1007.000000	13.240256
1008.000000	13.129233
1009.000000	13.037104
1010.000000	12.966149
1011.000000	12.881315
1012.000000	12.816179
1013.000000	12.735707
1014.000000	12.637370
1015.000000	12.546348
1016.000000	12.449245
1017.000000	12.365051
1018.000000	12.274391
1019.000000	12.196669
1020.000000	12.120424
1021.000000	12.061212
1022.000000	12.002981
1023.000000	11.928245
1024.000000	11.836964
1025.000000	11.745542
1026.000000	11.690568
1027.000000	11.630471
1028.000000	11.578728
1029.000000	11.541946
1030.000000	11.466608
1031.000000	11.410864
1032.000000	11.368848
1033.000000	11.313274
1034.000000	11.269766
1035.000000	11.253967
1036.000000	11.197333
1037.000000	11.122656
1038.000000	11.045126
1039.000000	10.948579
1040.000000	10.864979
1041.000000	10.794346
1042.000000	10.723492
1043.000000	10.644512
1044.000000	10.555355
1045.000000	10.475415
1046.000000	10.431060
1047.000000	10.348596
1048.000000	10.241853
1049.000000	10.175473
1050.000000	10.129038
1051.000000	10.093613
1052.000000	10.039327
1053.000000	9.980155
1054.000000	9.911813
1055.000000	9.837112
1056.000000	9.772073
1057.000000	9.705802
1058.000000	9.663742
1059.000000	9.646393
1060.000000	9.597565
1061.000000	9.537078
1062.000000	9.489801
1063.000000	9.452765
1064.000000	9.371963
1065.000000	9.333544
1066.000000	9.281150
1067.000000	9.212204
1068.000000	9.160237
1069.000000	9.088708
1070.000000	8.999598
1071.000000	8.948854
1072.000000	8.917959
1073.000000	8.884980
1074.000000	8.841328
1075.000000	8.792686
1076.000000	8.714490
1077.000000	8.671941
1078.000000	8.661878
1079.000000	8.631232
1080.000000	8.586062
1081.000000	8.544215
1082.000000	8.512027
1083.000000	8.478268
1084.000000	8.420739
1085.000000	8.353061
1086.000000	8.276989
1087.000000	8.247497
1088.000000	8.215590
1089.000000	8.177873
1090.000000	8.142067
1091.000000	8.090514
1092.000000	8.033228
1093.000000	7.962656
1094.000000	7.876293
1095.000000	7.813626
1096.000000	7.755473
1097.000000	7.710358
1098.000000	7.639072
1099.000000	7.584335
1100.000000	7.546044
1101.000000	7.521834
1102.000000	7.473881
1103.000000	7.435547
1104.000000	7.385171
1105.000000	7.380137
1106.000000	7.337987
1107.000000	7.273323
1108.000000	7.217263
1109.000000	7.143888
1110.000000	7.134725
1111.000000	7.117026
1112.000000	7.084471
1113.000000	7.038811
1114.000000	6.997033
1115.000000	6.966151
1116.000000	6.925517
1117.000000	6.895864
1118.000000	6.861397
1119.000000	6.841763
1120.000000	6.794765
1121.000000	6.740864
1122.000000	6.646571
1123.000000	6.551869
1124.000000	6.483760
1125.000000	6.434145
1126.000000	6.417792
1127.000000	6.384966
1128.000000	6.348612
1129.000000	6.300594
1130.000000	6.280492
1131.000000	6.258070
1132.000000	6.234084
1133.000000	6.209318
1134.000000	6.144643
1135.000000	6.099214
1136.000000	6.038853
1137.000000	6.018263
1138.000000	5.960438
1139.000000	5.964617
1140.000000	5.920107
1141.000000	5.891887
1142.000000	5.870344
1143.000000	5.865160
1144.000000	5.869502
1145.000000	5.794439
1146.000000	5.748967
1147.000000	5.728252
1148.000000	5.675682
1149.000000	5.647134
1150.000000	5.631405
1151.000000	5.593888
1152.000000	5.531494
1153.000000	5.525661
1154.000000	5.508904
1155.000000	5.496195
1156.000000	5.467017
1157.000000	5.477607
1158.000000	5.518128
1159.000000	5.566060
1160.000000	5.580725
1161.000000	5.543864
1162.000000	5.530345
1163.000000	5.549164
1164.000000	5.580353
1165.000000	5.550734
1166.000000	5.540956
1167.000000	5.519494
1168.000000	5.554636
1169.000000	5.634241
1170.000000	5.676921
1171.000000	5.679288
1172.000000	5.680813
1173.000000	5.687494
1174.000000	5.648651
1175.000000	5.652337
1176.000000	5.669208
1177.000000	5.667528
1178.000000	5.645755
1179.000000	5.651338
1180.000000	5.646194
1181.000000	5.626879
1182.000000	5.600084
1183.000000	5.614143
1184.000000	5.582216
1185.000000	5.559989
1186.000000	5.583130
1187.000000	5.616394
1188.000000	5.602055
1189.000000	5.605814
1190.000000	5.598748
1191.000000	5.640191
1192.000000	5.655179
1193.000000	5.668109
1194.000000	5.621048
1195.000000	5.601947
1196.000000	5.612188
1197.000000	5.614258
1198.000000	5.568961
1199.000000	5.534485
1200.000000	5.521577
1201.000000	5.499096
1202.000000	5.509887
1203.000000	5.455318
1204.000000	5.407742
1205.000000	5.350356
1206.000000	5.324385
1207.000000	5.302967
1208.000000	5.293147
1209.000000	5.304351
1210.000000	5.280597
1211.000000	5.218942
1212.000000	5.184570
1213.000000	5.155800
1214.000000	5.138598
1215.000000	5.133856
1216.000000	5.131089
1217.000000	5.112664
1218.000000	5.069762
1219.000000	5.085345
1220.000000	5.078894
1221.000000	5.027956
1222.000000	4.975279
1223.000000	4.952175
1224.000000	4.923088
1225.000000	4.911385
1226.000000	4.846757
1227.000000	4.800051
1228.000000	4.748405
1229.000000	4.748217
1230.000000	4.712368
1231.000000	4.664048
1232.000000	4.630504
1233.000000	4.630601
1234.000000	4.617779
1235.000000	4.593280
1236.000000	4.550009
1237.000000	4.479851
1238.000000	4.438288
1239.000000	4.404201
1240.000000	4.368480
1241.000000	4.350748
1242.000000	4.329993
1243.000000	4.301080
1244.000000	4.259916
1245.000000	4.218002
1246.000000	4.207660
1247.000000	4.181459
1248.000000	4.133504
1249.000000	4.099827
1250.000000	4.081151
1251.000000	4.045225
1252.000000	4.021573
1253.000000	4.037380
1254.000000	4.017042
1255.000000	3.978558
1256.000000	3.952030
1257.000000	3.942713
1258.000000	3.924964
1259.000000	3.894613
1260.000000	3.859269
1261.000000	3.888316
1262.000000	3.905719
1263.000000	3.882710
1264.000000	3.850362
1265.000000	3.838090
1266.000000	3.853411
1267.000000	3.857493
1268.000000	3.831456
1269.000000	3.812141
1270.000000	3.803601
1271.000000	3.831212
1272.000000	3.836755
1273.000000	3.813347
1274.000000	3.774332
1275.000000	3.754192
1276.000000	3.745339
1277.000000	3.708731
1278.000000	3.695224
1279.000000	3.686707
1280.000000	3.676665
1281.000000	3.657358
1282.000000	3.652158
1283.000000	3.659948
1284.000000	3.641071
1285.000000	3.610520
1286.000000	3.615673
1287.000000	3.606287
1288.000000	3.578074
1289.000000	3.553351
1290.000000	3.525865
1291.000000	3.516619
1292.000000	3.503991
1293.000000	3.481033
1294.000000	3.481052
1295.000000	3.466132
1296.000000	3.442275
1297.000000	3.414730
1298.000000	3.404287
1299.000000	3.384915
1300.000000	3.370890
1301.000000	3.345435
1302.000000	3.320484
1303.000000	3.303503
1304.000000	3.282656
1305.000000	3.278428
1306.000000	3.221782
1307.000000	3.183821
1308.000000	3.184251
1309.000000	3.172910
1310.000000	3.168486
1311.000000	3.148648
1312.000000	3.131256
1313.000000	3.106692
1314.000000	3.087007
1315.000000	3.079084
1316.000000	3.086973
1317.000000	3.077326
1318.000000	3.088135
1319.000000	3.101501
1320.000000	3.105535
1321.000000	3.072634
1322.000000	3.063047
1323.000000	3.051394
1324.000000	3.032238
1325.000000	3.048666
1326.000000	3.059164
1327.000000	3.056226
1328.000000	3.059829
1329.000000	3.035653
1330.000000	3.025658
1331.000000	3.006568
1332.000000	2.978946
1333.000000	2.941848
1334.000000	2.922665
1335.000000	2.920570
1336.000000	2.891312
1337.000000	2.862956
1338.000000	2.847466
1339.000000	2.849660
1340.000000	2.855622
1341.000000	2.875608
1342.000000	2.867392
1343.000000	2.866120
1344.000000	2.884510
1345.000000	2.897619
1346.000000	2.946456
1347.000000	2.998457
1348.000000	3.029575
1349.000000	3.031781
1350.000000	3.040732
1351.000000	3.099115
1352.000000	3.146330
1353.000000	3.177464
1354.000000	3.145867
1355.000000	3.135403
1356.000000	3.113617
1357.000000	3.111115
1358.000000	3.208089
1359.000000	3.284252
1360.000000	3.240798
1361.000000	3.150181
1362.000000	3.245349
1363.000000	3.330230
1364.000000	3.444708
1365.000000	3.626552
1366.000000	3.649099
1367.000000	3.639884
1368.000000	3.762102
1369.000000	3.729190
1370.000000	3.619198
1371.000000	3.659440
1372.000000	3.739079
1373.000000	3.857269
1374.000000	3.864088
1375.000000	3.894761
1376.000000	3.887188
1377.000000	4.001230
1378.000000	4.069696
1379.000000	4.235308
1380.000000	4.573223
1381.000000	4.755903
1382.000000	4.753576
1383.000000	4.751180
1384.000000	4.663402
1385.000000	4.674808
1386.000000	4.671933
1387.000000	4.499622
1388.000000	4.488051
1389.000000	4.467474
1390.000000	4.484101
1391.000000	4.547332
1392.000000	4.735514
1393.000000	4.719417
1394.000000	4.604713
1395.000000	4.784554
1396.000000	5.151699
1397.000000	5.193740
1398.000000	5.233243
1399.000000	5.226005
1400.000000	5.098849
1401.000000	5.241191
1402.000000	5.362198
1403.000000	5.392048
1404.000000	5.403085
1405.000000	5.617582
1406.000000	5.680472
1407.000000	5.781916
1408.000000	5.777890
1409.000000	5.890061
1410.000000	5.975683
1411.000000	6.117086
1412.000000	6.194657
1413.000000	6.214593
1414.000000	6.121464
1415.000000	5.919550
1416.000000	5.844295
1417.000000	5.914534
1418.000000	5.931273
1419.000000	6.163114
1420.000000	6.276631
1421.000000	6.382908
1422.000000	6.644938
1423.000000	6.717954
1424.000000	6.873461
1425.000000	7.025001
1426.000000	7.172369
1427.000000	7.157111
1428.000000	7.243520
1429.000000	7.444139
1430.000000	7.464245
1431.000000	7.364210
1432.000000	7.447162
1433.000000	7.511169
1434.000000	7.608086
1435.000000	7.733544
1436.000000	7.756260
1437.000000	7.812489
1438.000000	7.845795
1439.000000	8.028229
1440.000000	8.122857
1441.000000	8.231264
1442.000000	8.223770
1443.000000	8.314458
1444.000000	8.393530
1445.000000	8.356497
1446.000000	8.413458
1447.000000	8.456998
1448.000000	8.558232
1449.000000	8.647794
1450.000000	8.683293
1451.000000	8.743832
1452.000000	8.859166
1453.000000	9.022079
1454.000000	9.087409
1455.000000	9.146583
1456.000000	9.153924
1457.000000	9.241637
1458.000000	9.332964
1459.000000	9.436991
1460.000000	9.532145
1461.000000	9.577955
1462.000000	9.648994
1463.000000	9.741553
1464.000000	9.810896
1465.000000	9.869250
1466.000000	9.907031
1467.000000	9.917637
1468.000000	9.927998
1469.000000	9.925691
1470.000000	9.953799
1471.000000	9.989424
1472.000000	10.061055
1473.000000	10.130089
1474.000000	10.215403
1475.000000	10.266201
1476.000000	10.299460
1477.000000	10.377366
1478.000000	10.441112
1479.000000	10.469113
1480.000000	10.589966
1481.000000	10.608904
1482.000000	10.643024
1483.000000	10.694432
1484.000000	10.772033
1485.000000	10.812344
1486.000000	10.828709
1487.000000	10.844640
1488.000000	10.890918
1489.000000	10.897999
1490.000000	10.924648
1491.000000	10.968636
1492.000000	10.968100
1493.000000	11.006770
1494.000000	11.015606
1495.000000	10.992712
1496.000000	11.003978
1497.000000	10.972107
1498.000000	10.930162
1499.000000	10.938323
1500.000000	10.948681
1501.000000	10.942854
1502.000000	10.944059
1503.000000	10.969163
1504.000000	10.964576
1505.000000	10.980373
1506.000000	10.972876
1507.000000	10.960786
1508.000000	10.938027
1509.000000	10.916660
1510.000000	10.892186
1511.000000	10.883926
1512.000000	10.852215
1513.000000	10.814294
1514.000000	10.801260
1515.000000	10.776540
1516.000000	10.756687
1517.000000	10.720612
1518.000000	10.659320
1519.000000	10.574115
1520.000000	10.538504
1521.000000	10.515639
1522.000000	10.480927
1523.000000	10.416832
1524.000000	10.375942
1525.000000	10.346382
1526.000000	10.310652
1527.000000	10.244339
1528.000000	10.162390
1529.000000	10.113200
1530.000000	10.085267
1531.000000	10.049269
1532.000000	10.012730
1533.000000	9.988921
1534.000000	9.957288
1535.000000	9.924007
1536.000000	9.902196
1537.000000	9.856598
1538.000000	9.815211
1539.000000	9.800044
1540.000000	9.769839
1541.000000	9.728246
1542.000000	9.684292
1543.000000	9.666414
1544.000000	9.619803
1545.000000	9.559011
1546.000000	9.517712
1547.000000	9.477786
1548.000000	9.429196
1549.000000	9.389805
1550.000000	9.376577
1551.000000	9.359489
1552.000000	9.309137
1553.000000	9.279579
1554.000000	9.251070
1555.000000	9.197513
1556.000000	9.133381
1557.000000	9.096937
1558.000000	9.083922
1559.000000	9.057264
1560.000000	9.014012
1561.000000	8.982074
1562.000000	8.987257
1563.000000	8.993331
1564.000000	8.981731
1565.000000	8.948132
1566.000000	8.937967
1567.000000	8.929572
1568.000000	8.915788
1569.000000	8.904202
1570.000000	8.901082
1571.000000	8.893917
1572.000000	8.850694
1573.000000	8.806463
1574.000000	8.770178
1575.000000	8.738117
1576.000000	8.744263
1577.000000	8.751307
1578.000000	8.738821
1579.000000	8.728077
1580.000000	8.705801
1581.000000	8.670689
1582.000000	8.651731
1583.000000	8.635529
1584.000000	8.597550
1585.000000	8.574806
1586.000000	8.554215
1587.000000	8.548557
1588.000000	8.540858
1589.000000	8.535395
1590.000000	8.539526
1591.000000	8.555082
1592.000000	8.539475
1593.000000	8.506740
1594.000000	8.499293
1595.000000	8.506239
1596.000000	8.499032
1597.000000	8.478583
1598.000000	8.437428
1599.000000	8.409096
1600.000000	8.388131
1601.000000	8.351064
1602.000000	8.330232
1603.000000	8.269061
1604.000000	8.210663
1605.000000	8.169281
1606.000000	8.126026
1607.000000	8.110105
1608.000000	8.067584
1609.000000	8.050320
1610.000000	8.034739
1611.000000	7.976210
1612.000000	7.947643
1613.000000	7.903131
1614.000000	7.888406
1615.000000	7.857153
1616.000000	7.833220
1617.000000	7.807930
1618.000000	7.786504
1619.000000	7.768435
1620.000000	7.746287
1621.000000	7.720245
1622.000000	7.683997
1623.000000	7.680193
1624.000000	7.685505
1625.000000	7.676752
1626.000000	7.649751
1627.000000	7.632291
1628.000000	7.637729
1629.000000	7.617572
1630.000000	7.576354
1631.000000	7.545548
1632.000000	7.510691
1633.000000	7.497719
1634.000000	7.463939
1635.000000	7.432729
1636.000000	7.398353
1637.000000	7.340903
1638.000000	7.330905
1639.000000	7.328226
1640.000000	7.318791
1641.000000	7.286538
1642.000000	7.261302
1643.000000	7.267664
1644.000000	7.248034
1645.000000	7.247243
1646.000000	7.271012
1647.000000	7.238327
1648.000000	7.203762
1649.000000	7.180952
1650.000000	7.165348
1651.000000	7.141540
1652.000000	7.111933
1653.000000	7.073895
1654.000000	7.053310
1655.000000	7.032832
1656.000000	7.020642
1657.000000	7.040499
1658.000000	7.007245
1659.000000	6.978409
1660.000000	6.974995
1661.000000	6.947383
1662.000000	6.956580
1663.000000	6.900273
1664.000000	6.910156
1665.000000	6.891938
1666.000000	6.903118
1667.000000	6.919224
1668.000000	6.944098
1669.000000	6.976786
1670.000000	7.016311
1671.000000	7.051287
1672.000000	7.141004
1673.000000	7.200039
1674.000000	7.219434
1675.000000	7.250698
1676.000000	7.298118
1677.000000	7.352862
1678.000000	7.394859
1679.000000	7.438325
1680.000000	7.476763
1681.000000	7.505674
1682.000000	7.568290
1683.000000	7.662517
1684.000000	7.720128
1685.000000	7.809219
1686.000000	7.894288
1687.000000	8.005532
1688.000000	8.092880
1689.000000	8.193413
1690.000000	8.266842
1691.000000	8.329443
1692.000000	8.375646
1693.000000	8.465442
1694.000000	8.550615
1695.000000	8.615571
1696.000000	8.686659
1697.000000	8.743326
1698.000000	8.833989
1699.000000	8.879507
1700.000000	8.954808
1701.000000	8.979159
1702.000000	9.038286
1703.000000	9.102812
1704.000000	9.134633
1705.000000	9.177917
1706.000000	9.202815
1707.000000	9.221750
1708.000000	9.265976
1709.000000	9.315901
1710.000000	9.349389
1711.000000	9.373223
1712.000000	9.397164
1713.000000	9.414348
1714.000000	9.470902
1715.000000	9.477478
1716.000000	9.509357
1717.000000	9.553056
1718.000000	9.581417
1719.000000	9.647461
1720.000000	9.686507
1721.000000	9.705631
1722.000000	9.744959
1723.000000	9.776343
1724.000000	9.803303
1725.000000	9.821739
1726.000000	9.860024
1727.000000	9.899930
1728.000000	9.920407
1729.000000	9.933900
1730.000000	9.939487
1731.000000	9.964845
1732.000000	9.998621
1733.000000	10.059830
1734.000000	10.084937
1735.000000	10.135327
1736.000000	10.189355
1737.000000	10.227441
1738.000000	10.211472
1739.000000	10.254394
1740.000000	10.259739
1741.000000	10.328560
1742.000000	10.370063
1743.000000	10.368848
1744.000000	10.378467
1745.000000	10.375148
1746.000000	10.405739
1747.000000	10.411591
1748.000000	10.447944
1749.000000	10.460018
1750.000000	10.487651
1751.000000	10.478374
1752.000000	10.448941
1753.000000	10.449511
1754.000000	10.419420
1755.000000	10.396172
1756.000000	10.380802
1757.000000	10.318893
1758.000000	10.299731
1759.000000	10.260442
1760.000000	10.249768
1761.000000	10.235509
1762.000000	10.207518
1763.000000	10.189334
1764.000000	10.176961
1765.000000	10.150088
1766.000000	10.146667
1767.000000	10.125321
1768.000000	10.064749
1769.000000	10.068535
1770.000000	10.033862
1771.000000	10.006606
1772.000000	9.994330
1773.000000	10.024711
1774.000000	9.968343
1775.000000	9.947837
1776.000000	9.881706
1777.000000	9.830490
1778.000000	9.800774
1779.000000	9.781555
1780.000000	9.763756
1781.000000	9.718666
1782.000000	9.697802
1783.000000	9.663939
1784.000000	9.606693
1785.000000	9.559005
1786.000000	9.538025
1787.000000	9.522343
1788.000000	9.468169
1789.000000	9.438398
1790.000000	9.428217
1791.000000	9.426241
1792.000000	9.434672
1793.000000	9.433362
1794.000000	9.426460
1795.000000	9.404366
1796.000000	9.367359
1797.000000	9.351694
1798.000000	9.316592
1799.000000	9.280285
1800.000000	9.270439
1801.000000	9.244438
1802.000000	9.216380
1803.000000	9.233698
1804.000000	9.204787
1805.000000	9.152831
1806.000000	9.104366
1807.000000	9.051811
1808.000000	9.004626
1809.000000	9.012734
1810.000000	8.994600
1811.000000	9.004372
1812.000000	9.029531
1813.000000	9.084511
1814.000000	9.075048
1815.000000	9.035130
1816.000000	9.082527
1817.000000	9.030280
1818.000000	8.914065
1819.000000	8.824626
1820.000000	8.722271
1821.000000	8.701806
1822.000000	8.703617
1823.000000	8.716926
1824.000000	8.701095
1825.000000	8.579554
1826.000000	8.476539
1827.000000	8.458620
1828.000000	8.459580
1829.000000	8.474502
1830.000000	8.407447
1831.000000	8.326939
1832.000000	8.311907
1833.000000	8.379388
1834.000000	8.418792
1835.000000	8.356260
1836.000000	8.283069
1837.000000	8.281804
1838.000000	8.317011
1839.000000	8.400395
1840.000000	8.507188
1841.000000	8.517789
1842.000000	8.504560
1843.000000	8.509953
1844.000000	8.509333
1845.000000	8.528796
1846.000000	8.497949
1847.000000	8.338370
1848.000000	8.242815
1849.000000	8.227781
1850.000000	8.253357
1851.000000	8.250647
1852.000000	8.330217
1853.000000	8.431746
1854.000000	8.531805
1855.000000	8.540750
1856.000000	8.461787
1857.000000	8.475993
1858.000000	8.486757
1859.000000	8.468008
1860.000000	8.576485
1861.000000	8.672818
1862.000000	8.642529
1863.000000	8.621666
1864.000000	8.670401
1865.000000	8.786886
1866.000000	8.863288
1867.000000	8.910650
1868.000000	8.882825
1869.000000	8.865409
1870.000000	8.861065
1871.000000	8.983939
1872.000000	8.884443
1873.000000	8.815127
1874.000000	8.752097
1875.000000	8.722621
1876.000000	8.724069
1877.000000	8.758005
1878.000000	8.811349
1879.000000	8.851187
1880.000000	8.836468
1881.000000	8.920626
1882.000000	9.120441
1883.000000	9.159430
1884.000000	9.249736
1885.000000	9.385297
1886.000000	9.418515
1887.000000	9.514792
1888.000000	9.655366
1889.000000	9.737988
1890.000000	9.976472
1891.000000	10.159435
1892.000000	10.279690
1893.000000	10.411304
1894.000000	10.598686
1895.000000	10.784619
1896.000000	11.003269
1897.000000	11.251863
1898.000000	11.469313
1899.000000	11.627746
1900.000000	11.829912
1901.000000	12.133022
1902.000000	12.319025
1903.000000	12.618719
1904.000000	12.878894
1905.000000	13.287147
1906.000000	13.566281
1907.000000	14.043199
1908.000000	14.395754
1909.000000	14.741581
1910.000000	15.072715
1911.000000	15.515302
1912.000000	15.898004
1913.000000	16.202993
1914.000000	16.583543
1915.000000	16.958725
1916.000000	17.378134
1917.000000	17.736204
1918.000000	18.217736
1919.000000	18.529712
1920.000000	18.849958
1921.000000	19.248943
1922.000000	19.604036
1923.000000	19.943044
1924.000000	20.339489
1925.000000	20.709009
1926.000000	21.100812
1927.000000	21.496784
1928.000000	21.840770
1929.000000	22.141277
1930.000000	22.424295
1931.000000	22.705182
1932.000000	23.010114
1933.000000	23.258775
1934.000000	23.546148
1935.000000	23.761815
1936.000000	23.993887
1937.000000	24.252750
1938.000000	24.396038
1939.000000	24.652669
1940.000000	24.808018
1941.000000	24.978142
1942.000000	25.077647
1943.000000	25.218478
1944.000000	25.303886
1945.000000	25.415385
1946.000000	25.464554
1947.000000	25.553945
1948.000000	25.656822
1949.000000	25.708833
1950.000000	25.791842
1951.000000	25.788512
1952.000000	25.792470
1953.000000	25.773956
1954.000000	25.879647
1955.000000	25.879279
1956.000000	25.828726
1957.000000	25.805402
1958.000000	25.754533
1959.000000	25.695929
1960.000000	25.593808
1961.000000	25.521308
1962.000000	25.398317
1963.000000	25.342755
1964.000000	25.290533
1965.000000	25.245347
1966.000000	25.131500
1967.000000	25.029628
1968.000000	24.963777
1969.000000	24.840671
1970.000000	24.767164
1971.000000	24.648098
1972.000000	24.567804
1973.000000	24.485916
1974.000000	24.357832
1975.000000	24.238492
1976.000000	24.124508
1977.000000	24.012579
1978.000000	23.914022
1979.000000	23.844341
1980.000000	23.714496
1981.000000	23.606290
1982.000000	23.476459
1983.000000	23.349990
1984.000000	23.228540
1985.000000	23.099786
1986.000000	22.982665
1987.000000	22.874524
1988.000000	22.744266
1989.000000	22.569546
1990.000000	22.443143
1991.000000	22.340623
1992.000000	22.229457
1993.000000	22.148118
1994.000000	22.058705
1995.000000	21.984672
1996.000000	21.890693
1997.000000	21.803985
1998.000000	21.686575
1999.000000	21.596355
2000.000000	21.476077
