PE UV       SUBTECH     SPECTRUM    ASCII       PEDS        4.00        
   -1
C.CHRY.MV84-TX3.ASC
23/11/29
15:25:22.00
23/11/29
15:25:22.00
Vinicio Soto Monge
C. CHRYSARGYREA #84 MV23
250,000000
1
Lambda 1050
1050L1511233
PerkinElmer UV WinLab 6.3.2.0749 / 2.02.05 Lambda 900 UV/VIS/NIR, Aug  7 2015 09:38:08

0
0
3350/servo 860,8/2
0
0
UV/VIS
1
1
1
DoubleDePol,CommonBeamDepol,RBeamAtt,SBeamAtt,60mm sphere, WB InGaAs Detector
0
0
0
0
Program
Program
3350/servo 860,8/2
3350/0,4 860,8/0,4
3350/0,4 860,8/0,4
0
20.00
 
 
 
0
 
860,8
319,2
860,8
Front
100
on
S:100 R:100
0
0
0
0
 
0
 
 
 
0
 
 
0
0
0
0
0
 
 
 
 
0
0


0
0
#HDR
-1
-1
#GR
nm
%A
1.0
0.0
2200,000000
-1,000000
1951
8
82,444112
0,255158
#DATA
284.000000	94.329245
285.000000	94.335690
286.000000	94.342822
287.000000	94.348426
288.000000	94.353857
289.000000	94.359006
290.000000	94.362868
291.000000	94.365524
292.000000	94.368721
293.000000	94.372072
294.000000	94.373279
295.000000	94.372896
296.000000	94.372431
297.000000	94.372088
298.000000	94.371474
299.000000	94.370693
300.000000	94.370104
301.000000	94.368734
302.000000	94.366841
303.000000	94.365174
304.000000	94.364090
305.000000	94.363083
306.000000	94.360930
307.000000	94.357239
308.000000	94.355118
309.000000	94.353762
310.000000	94.352227
311.000000	94.350346
312.000000	94.346724
313.000000	94.343925
314.000000	94.342656
315.000000	94.339387
316.000000	94.337790
317.000000	94.338849
318.000000	94.338097
319.000000	94.340041
320.000000	94.339854
321.000000	94.336565
322.000000	94.334027
323.000000	94.331045
324.000000	94.325304
325.000000	94.320238
326.000000	94.317066
327.000000	94.310103
328.000000	94.299467
329.000000	94.291254
330.000000	94.281082
331.000000	94.267550
332.000000	94.254688
333.000000	94.238952
334.000000	94.219722
335.000000	94.201020
336.000000	94.179880
337.000000	94.156655
338.000000	94.130799
339.000000	94.104172
340.000000	94.075171
341.000000	94.042897
342.000000	94.007193
343.000000	93.967844
344.000000	93.924227
345.000000	93.877377
346.000000	93.826675
347.000000	93.773052
348.000000	93.717234
349.000000	93.654308
350.000000	93.589170
351.000000	93.518342
352.000000	93.437568
353.000000	93.351894
354.000000	93.258613
355.000000	93.158808
356.000000	93.051453
357.000000	92.937060
358.000000	92.812514
359.000000	92.679369
360.000000	92.536410
361.000000	92.382158
362.000000	92.215844
363.000000	92.041015
364.000000	91.849785
365.000000	91.644546
366.000000	91.424255
367.000000	91.186702
368.000000	90.934744
369.000000	90.665704
370.000000	90.376598
371.000000	90.068590
372.000000	89.743352
373.000000	89.398769
374.000000	89.035352
375.000000	88.651168
376.000000	88.246437
377.000000	87.813548
378.000000	87.362922
379.000000	86.892554
380.000000	86.403073
381.000000	85.896860
382.000000	85.374118
383.000000	84.833149
384.000000	84.279023
385.000000	83.709420
386.000000	83.128233
387.000000	82.538131
388.000000	81.938975
389.000000	81.330539
390.000000	80.717721
391.000000	80.101436
392.000000	79.480919
393.000000	78.860316
394.000000	78.239580
395.000000	77.619513
396.000000	77.003099
397.000000	76.393908
398.000000	75.789618
399.000000	75.194722
400.000000	74.610266
401.000000	74.038752
402.000000	73.480722
403.000000	72.936329
404.000000	72.409065
405.000000	71.898436
406.000000	71.407578
407.000000	70.934136
408.000000	70.481272
409.000000	70.046374
410.000000	69.632797
411.000000	69.243569
412.000000	68.886883
413.000000	68.551067
414.000000	68.238567
415.000000	67.950189
416.000000	67.684454
417.000000	67.440804
418.000000	67.219485
419.000000	67.019118
420.000000	66.839759
421.000000	66.680097
422.000000	66.539864
423.000000	66.417833
424.000000	66.314002
425.000000	66.227999
426.000000	66.157149
427.000000	66.100733
428.000000	66.058724
429.000000	66.030436
430.000000	66.013420
431.000000	66.005435
432.000000	66.005628
433.000000	66.011924
434.000000	66.022423
435.000000	66.036326
436.000000	66.051100
437.000000	66.064666
438.000000	66.076322
439.000000	66.085471
440.000000	66.091300
441.000000	66.092003
442.000000	66.088609
443.000000	66.081868
444.000000	66.071055
445.000000	66.056324
446.000000	66.037335
447.000000	66.015229
448.000000	65.990830
449.000000	65.964200
450.000000	65.936300
451.000000	65.907583
452.000000	65.878892
453.000000	65.850391
454.000000	65.823913
455.000000	65.799614
456.000000	65.778497
457.000000	65.759800
458.000000	65.743935
459.000000	65.731238
460.000000	65.721951
461.000000	65.716209
462.000000	65.712914
463.000000	65.710575
464.000000	65.709144
465.000000	65.708124
466.000000	65.706710
467.000000	65.704312
468.000000	65.701093
469.000000	65.695912
470.000000	65.690108
471.000000	65.683840
472.000000	65.676258
473.000000	65.669399
474.000000	65.664471
475.000000	65.661796
476.000000	65.662936
477.000000	65.667629
478.000000	65.676307
479.000000	65.691568
480.000000	65.714460
481.000000	65.745282
482.000000	65.784740
483.000000	65.831960
484.000000	65.885836
485.000000	65.946313
486.000000	66.013006
487.000000	66.084801
488.000000	66.160845
489.000000	66.239438
490.000000	66.318751
491.000000	66.396556
492.000000	66.472266
493.000000	66.544740
494.000000	66.611944
495.000000	66.671906
496.000000	66.725080
497.000000	66.770997
498.000000	66.808855
499.000000	66.838843
500.000000	66.861866
501.000000	66.880109
502.000000	66.895169
503.000000	66.907765
504.000000	66.920228
505.000000	66.933372
506.000000	66.949071
507.000000	66.968497
508.000000	66.991232
509.000000	67.016849
510.000000	67.045566
511.000000	67.076441
512.000000	67.109383
513.000000	67.142309
514.000000	67.172349
515.000000	67.197728
516.000000	67.218781
517.000000	67.232506
518.000000	67.239140
519.000000	67.237214
520.000000	67.223896
521.000000	67.198636
522.000000	67.160349
523.000000	67.108440
524.000000	67.041968
525.000000	66.960770
526.000000	66.864413
527.000000	66.751976
528.000000	66.622962
529.000000	66.477848
530.000000	66.316997
531.000000	66.138806
532.000000	65.944655
533.000000	65.734738
534.000000	65.509374
535.000000	65.267894
536.000000	65.010605
537.000000	64.738317
538.000000	64.450700
539.000000	64.148306
540.000000	63.831372
541.000000	63.500764
542.000000	63.158550
543.000000	62.804661
544.000000	62.440459
545.000000	62.066718
546.000000	61.684105
547.000000	61.293785
548.000000	60.898252
549.000000	60.499148
550.000000	60.097945
551.000000	59.693236
552.000000	59.286808
553.000000	58.878591
554.000000	58.470484
555.000000	58.063980
556.000000	57.658866
557.000000	57.256368
558.000000	56.858481
559.000000	56.464972
560.000000	56.075025
561.000000	55.692012
562.000000	55.317840
563.000000	54.952242
564.000000	54.595922
565.000000	54.250580
566.000000	53.917705
567.000000	53.596758
568.000000	53.290754
569.000000	53.000413
570.000000	52.726776
571.000000	52.470563
572.000000	52.229047
573.000000	52.003168
574.000000	51.792291
575.000000	51.595213
576.000000	51.411503
577.000000	51.238716
578.000000	51.076213
579.000000	50.921421
580.000000	50.774087
581.000000	50.633375
582.000000	50.497675
583.000000	50.364211
584.000000	50.231185
585.000000	50.097048
586.000000	49.961180
587.000000	49.824092
588.000000	49.685431
589.000000	49.544073
590.000000	49.401700
591.000000	49.258343
592.000000	49.114632
593.000000	48.970029
594.000000	48.824397
595.000000	48.681438
596.000000	48.538593
597.000000	48.397160
598.000000	48.258744
599.000000	48.123461
600.000000	47.992829
601.000000	47.866772
602.000000	47.745098
603.000000	47.627391
604.000000	47.512579
605.000000	47.401175
606.000000	47.290919
607.000000	47.183735
608.000000	47.079325
609.000000	46.979674
610.000000	46.882586
611.000000	46.790316
612.000000	46.701295
613.000000	46.618157
614.000000	46.542261
615.000000	46.474235
616.000000	46.414129
617.000000	46.362069
618.000000	46.319078
619.000000	46.285086
620.000000	46.257695
621.000000	46.236112
622.000000	46.217790
623.000000	46.202760
624.000000	46.188961
625.000000	46.173458
626.000000	46.156567
627.000000	46.139153
628.000000	46.121682
629.000000	46.105906
630.000000	46.091150
631.000000	46.078215
632.000000	46.067006
633.000000	46.056920
634.000000	46.049368
635.000000	46.040373
636.000000	46.029045
637.000000	46.017650
638.000000	46.004999
639.000000	45.991380
640.000000	45.975863
641.000000	45.959209
642.000000	45.943549
643.000000	45.926820
644.000000	45.907783
645.000000	45.888955
646.000000	45.866870
647.000000	45.843768
648.000000	45.814559
649.000000	45.779060
650.000000	45.733447
651.000000	45.677954
652.000000	45.611515
653.000000	45.532005
654.000000	45.440035
655.000000	45.339689
656.000000	45.230965
657.000000	45.117782
658.000000	45.002329
659.000000	44.886447
660.000000	44.772327
661.000000	44.660658
662.000000	44.551552
663.000000	44.443993
664.000000	44.336916
665.000000	44.229442
666.000000	44.121245
667.000000	44.008098
668.000000	43.890059
669.000000	43.765731
670.000000	43.637815
671.000000	43.506264
672.000000	43.370002
673.000000	43.228566
674.000000	43.083074
675.000000	42.934105
676.000000	42.782427
677.000000	42.626149
678.000000	42.466891
679.000000	42.304195
680.000000	42.136682
681.000000	41.965365
682.000000	41.789120
683.000000	41.610096
684.000000	41.426513
685.000000	41.239833
686.000000	41.051539
687.000000	40.862656
688.000000	40.674955
689.000000	40.486056
690.000000	40.297940
691.000000	40.111531
692.000000	39.923539
693.000000	39.733524
694.000000	39.542545
695.000000	39.350858
696.000000	39.155386
697.000000	38.957406
698.000000	38.755600
699.000000	38.550177
700.000000	38.340749
701.000000	38.127802
702.000000	37.914311
703.000000	37.699881
704.000000	37.484227
705.000000	37.266290
706.000000	37.046485
707.000000	36.826676
708.000000	36.607576
709.000000	36.388469
710.000000	36.168590
711.000000	35.945294
712.000000	35.722877
713.000000	35.502047
714.000000	35.277706
715.000000	35.052170
716.000000	34.825259
717.000000	34.597782
718.000000	34.371296
719.000000	34.145283
720.000000	33.919217
721.000000	33.692308
722.000000	33.466103
723.000000	33.241103
724.000000	33.018597
725.000000	32.796548
726.000000	32.575365
727.000000	32.356202
728.000000	32.137258
729.000000	31.919196
730.000000	31.699735
731.000000	31.482710
732.000000	31.265906
733.000000	31.050058
734.000000	30.835481
735.000000	30.623368
736.000000	30.412001
737.000000	30.199997
738.000000	29.989768
739.000000	29.782120
740.000000	29.576024
741.000000	29.373310
742.000000	29.171981
743.000000	28.971407
744.000000	28.770730
745.000000	28.572012
746.000000	28.378007
747.000000	28.185582
748.000000	27.991118
749.000000	27.799882
750.000000	27.612122
751.000000	27.427433
752.000000	27.243644
753.000000	27.058517
754.000000	26.877218
755.000000	26.699792
756.000000	26.524339
757.000000	26.353439
758.000000	26.184278
759.000000	26.017976
760.000000	25.853708
761.000000	25.691171
762.000000	25.529947
763.000000	25.371129
764.000000	25.214395
765.000000	25.059683
766.000000	24.905484
767.000000	24.753954
768.000000	24.605954
769.000000	24.459325
770.000000	24.314477
771.000000	24.170519
772.000000	24.028317
773.000000	23.887114
774.000000	23.748201
775.000000	23.612898
776.000000	23.479976
777.000000	23.348899
778.000000	23.217373
779.000000	23.087140
780.000000	22.958977
781.000000	22.832062
782.000000	22.703174
783.000000	22.576121
784.000000	22.450363
785.000000	22.326172
786.000000	22.201749
787.000000	22.079033
788.000000	21.961339
789.000000	21.845400
790.000000	21.729218
791.000000	21.614093
792.000000	21.500105
793.000000	21.388824
794.000000	21.279686
795.000000	21.173371
796.000000	21.067271
797.000000	20.957635
798.000000	20.849365
799.000000	20.741567
800.000000	20.631186
801.000000	20.522101
802.000000	20.413011
803.000000	20.307211
804.000000	20.201020
805.000000	20.097602
806.000000	19.997478
807.000000	19.899599
808.000000	19.800702
809.000000	19.703356
810.000000	19.604818
811.000000	19.504323
812.000000	19.407728
813.000000	19.316374
814.000000	19.228580
815.000000	19.141103
816.000000	19.053156
817.000000	18.965024
818.000000	18.879495
819.000000	18.795121
820.000000	18.707700
821.000000	18.620261
822.000000	18.531287
823.000000	18.440936
824.000000	18.353153
825.000000	18.266920
826.000000	18.186689
827.000000	18.098280
828.000000	18.012127
829.000000	17.925603
830.000000	17.837091
831.000000	17.755749
832.000000	17.671238
833.000000	17.590935
834.000000	17.509885
835.000000	17.437628
836.000000	17.365876
837.000000	17.288397
838.000000	17.201182
839.000000	17.120926
840.000000	17.039120
841.000000	16.962926
842.000000	16.889579
843.000000	16.817941
844.000000	16.738665
845.000000	16.655649
846.000000	16.583736
847.000000	16.504835
848.000000	16.422136
849.000000	16.349701
850.000000	16.274195
851.000000	16.188711
852.000000	16.108182
853.000000	16.032379
854.000000	15.955559
855.000000	15.876753
856.000000	15.794570
857.000000	15.734301
858.000000	15.648311
859.000000	15.557811
860.000000	15.439852
861.000000	15.325372
862.000000	15.228153
863.000000	15.138761
864.000000	15.026530
865.000000	14.938657
866.000000	14.843707
867.000000	14.741271
868.000000	14.604232
869.000000	14.490469
870.000000	14.366135
871.000000	14.239995
872.000000	14.147812
873.000000	14.050141
874.000000	13.943561
875.000000	13.844908
876.000000	13.743361
877.000000	13.632630
878.000000	13.519941
879.000000	13.403733
880.000000	13.297615
881.000000	13.211789
882.000000	13.123505
883.000000	13.017319
884.000000	12.927183
885.000000	12.831957
886.000000	12.715610
887.000000	12.624152
888.000000	12.531423
889.000000	12.440073
890.000000	12.326556
891.000000	12.219027
892.000000	12.113579
893.000000	12.033001
894.000000	11.914177
895.000000	11.856995
896.000000	11.793914
897.000000	11.719154
898.000000	11.612612
899.000000	11.554159
900.000000	11.473455
901.000000	11.417266
902.000000	11.373004
903.000000	11.348688
904.000000	11.308882
905.000000	11.263531
906.000000	11.231645
907.000000	11.155839
908.000000	11.088855
909.000000	11.027733
910.000000	10.975289
911.000000	10.919237
912.000000	10.878309
913.000000	10.816359
914.000000	10.758584
915.000000	10.718403
916.000000	10.655443
917.000000	10.596795
918.000000	10.561316
919.000000	10.524336
920.000000	10.485674
921.000000	10.438100
922.000000	10.396145
923.000000	10.346846
924.000000	10.293467
925.000000	10.274616
926.000000	10.237953
927.000000	10.201091
928.000000	10.166413
929.000000	10.163240
930.000000	10.137282
931.000000	10.095215
932.000000	10.061159
933.000000	10.049324
934.000000	10.021429
935.000000	9.975466
936.000000	9.903295
937.000000	9.861183
938.000000	9.843327
939.000000	9.800638
940.000000	9.760684
941.000000	9.731450
942.000000	9.698093
943.000000	9.672635
944.000000	9.636993
945.000000	9.607729
946.000000	9.593265
947.000000	9.535728
948.000000	9.512175
949.000000	9.518523
950.000000	9.484648
951.000000	9.473618
952.000000	9.473133
953.000000	9.445317
954.000000	9.354886
955.000000	9.318900
956.000000	9.308451
957.000000	9.255320
958.000000	9.206935
959.000000	9.174908
960.000000	9.153550
961.000000	9.157054
962.000000	9.106898
963.000000	9.047153
964.000000	9.016739
965.000000	8.972353
966.000000	8.944926
967.000000	8.928247
968.000000	8.914781
969.000000	8.884712
970.000000	8.865627
971.000000	8.871260
972.000000	8.824494
973.000000	8.788983
974.000000	8.767735
975.000000	8.749081
976.000000	8.706582
977.000000	8.679277
978.000000	8.657474
979.000000	8.634320
980.000000	8.588261
981.000000	8.541869
982.000000	8.544388
983.000000	8.526982
984.000000	8.487956
985.000000	8.450738
986.000000	8.411499
987.000000	8.369692
988.000000	8.346728
989.000000	8.337122
990.000000	8.298360
991.000000	8.266386
992.000000	8.226376
993.000000	8.203359
994.000000	8.175916
995.000000	8.124022
996.000000	8.084365
997.000000	8.083753
998.000000	8.036736
999.000000	7.985711
1000.000000	7.958718
1001.000000	7.930242
1002.000000	7.901635
1003.000000	7.868689
1004.000000	7.816507
1005.000000	7.775099
1006.000000	7.726218
1007.000000	7.712711
1008.000000	7.650945
1009.000000	7.609699
1010.000000	7.588439
1011.000000	7.581522
1012.000000	7.564919
1013.000000	7.524619
1014.000000	7.515479
1015.000000	7.510141
1016.000000	7.463593
1017.000000	7.381156
1018.000000	7.307132
1019.000000	7.266303
1020.000000	7.251946
1021.000000	7.182647
1022.000000	7.117565
1023.000000	7.084600
1024.000000	7.078092
1025.000000	7.047257
1026.000000	7.014814
1027.000000	6.986445
1028.000000	6.946064
1029.000000	6.903995
1030.000000	6.884088
1031.000000	6.849834
1032.000000	6.820350
1033.000000	6.840342
1034.000000	6.827991
1035.000000	6.775365
1036.000000	6.710991
1037.000000	6.645732
1038.000000	6.587523
1039.000000	6.589663
1040.000000	6.583662
1041.000000	6.550312
1042.000000	6.485028
1043.000000	6.424904
1044.000000	6.359204
1045.000000	6.317509
1046.000000	6.262661
1047.000000	6.220457
1048.000000	6.197320
1049.000000	6.164216
1050.000000	6.115987
1051.000000	6.066939
1052.000000	6.069819
1053.000000	6.097483
1054.000000	6.058769
1055.000000	6.002711
1056.000000	6.001619
1057.000000	5.992775
1058.000000	5.967224
1059.000000	5.917225
1060.000000	5.871586
1061.000000	5.851213
1062.000000	5.852281
1063.000000	5.836506
1064.000000	5.820748
1065.000000	5.778915
1066.000000	5.724616
1067.000000	5.646184
1068.000000	5.585352
1069.000000	5.555405
1070.000000	5.533443
1071.000000	5.525912
1072.000000	5.523818
1073.000000	5.523084
1074.000000	5.488931
1075.000000	5.442381
1076.000000	5.418505
1077.000000	5.417296
1078.000000	5.430815
1079.000000	5.446501
1080.000000	5.414318
1081.000000	5.359096
1082.000000	5.335943
1083.000000	5.275971
1084.000000	5.210403
1085.000000	5.192009
1086.000000	5.190478
1087.000000	5.152826
1088.000000	5.094354
1089.000000	5.088214
1090.000000	5.091737
1091.000000	5.070625
1092.000000	5.061380
1093.000000	5.042694
1094.000000	5.009612
1095.000000	4.985061
1096.000000	4.968651
1097.000000	4.907516
1098.000000	4.875314
1099.000000	4.826308
1100.000000	4.804956
1101.000000	4.785244
1102.000000	4.785266
1103.000000	4.789507
1104.000000	4.768434
1105.000000	4.758940
1106.000000	4.753116
1107.000000	4.725587
1108.000000	4.690942
1109.000000	4.648844
1110.000000	4.618415
1111.000000	4.581982
1112.000000	4.550924
1113.000000	4.529630
1114.000000	4.499543
1115.000000	4.508120
1116.000000	4.551676
1117.000000	4.512609
1118.000000	4.497869
1119.000000	4.513271
1120.000000	4.503008
1121.000000	4.495483
1122.000000	4.474149
1123.000000	4.413846
1124.000000	4.363597
1125.000000	4.348878
1126.000000	4.337689
1127.000000	4.272413
1128.000000	4.199125
1129.000000	4.129246
1130.000000	4.136656
1131.000000	4.117930
1132.000000	4.128423
1133.000000	4.103529
1134.000000	4.039020
1135.000000	4.033360
1136.000000	4.012268
1137.000000	3.978937
1138.000000	3.969645
1139.000000	3.950251
1140.000000	3.929039
1141.000000	3.927070
1142.000000	3.906873
1143.000000	3.877296
1144.000000	3.893267
1145.000000	3.890569
1146.000000	3.853550
1147.000000	3.859334
1148.000000	3.836275
1149.000000	3.817302
1150.000000	3.805422
1151.000000	3.772872
1152.000000	3.757458
1153.000000	3.750441
1154.000000	3.752774
1155.000000	3.709780
1156.000000	3.698403
1157.000000	3.692779
1158.000000	3.726733
1159.000000	3.734691
1160.000000	3.731702
1161.000000	3.695806
1162.000000	3.724721
1163.000000	3.749732
1164.000000	3.816253
1165.000000	3.787003
1166.000000	3.770424
1167.000000	3.780510
1168.000000	3.789718
1169.000000	3.882033
1170.000000	3.918757
1171.000000	3.958216
1172.000000	4.008181
1173.000000	3.973474
1174.000000	3.984098
1175.000000	4.041827
1176.000000	4.057429
1177.000000	4.082249
1178.000000	4.114388
1179.000000	4.098558
1180.000000	4.113716
1181.000000	4.160380
1182.000000	4.163283
1183.000000	4.152171
1184.000000	4.149834
1185.000000	4.157124
1186.000000	4.167587
1187.000000	4.202310
1188.000000	4.207761
1189.000000	4.210464
1190.000000	4.246971
1191.000000	4.244244
1192.000000	4.237300
1193.000000	4.237155
1194.000000	4.261955
1195.000000	4.245371
1196.000000	4.245331
1197.000000	4.231460
1198.000000	4.242823
1199.000000	4.238435
1200.000000	4.248634
1201.000000	4.233270
1202.000000	4.212930
1203.000000	4.240189
1204.000000	4.240242
1205.000000	4.188329
1206.000000	4.123390
1207.000000	4.090382
1208.000000	4.098616
1209.000000	4.079624
1210.000000	4.044298
1211.000000	4.001175
1212.000000	3.941333
1213.000000	3.887682
1214.000000	3.881532
1215.000000	3.867101
1216.000000	3.844901
1217.000000	3.815790
1218.000000	3.822993
1219.000000	3.814048
1220.000000	3.799050
1221.000000	3.795234
1222.000000	3.784086
1223.000000	3.784635
1224.000000	3.758039
1225.000000	3.736076
1226.000000	3.727902
1227.000000	3.718248
1228.000000	3.714084
1229.000000	3.689970
1230.000000	3.690364
1231.000000	3.685326
1232.000000	3.657298
1233.000000	3.625446
1234.000000	3.618208
1235.000000	3.611676
1236.000000	3.586117
1237.000000	3.559968
1238.000000	3.514330
1239.000000	3.500233
1240.000000	3.470640
1241.000000	3.468679
1242.000000	3.473567
1243.000000	3.486701
1244.000000	3.488914
1245.000000	3.458991
1246.000000	3.447571
1247.000000	3.470662
1248.000000	3.487168
1249.000000	3.446173
1250.000000	3.406006
1251.000000	3.404557
1252.000000	3.415972
1253.000000	3.428890
1254.000000	3.426707
1255.000000	3.371693
1256.000000	3.306407
1257.000000	3.286756
1258.000000	3.305637
1259.000000	3.297892
1260.000000	3.264201
1261.000000	3.240087
1262.000000	3.246299
1263.000000	3.238868
1264.000000	3.235940
1265.000000	3.220292
1266.000000	3.223588
1267.000000	3.241205
1268.000000	3.230817
1269.000000	3.198006
1270.000000	3.170634
1271.000000	3.202575
1272.000000	3.216475
1273.000000	3.199346
1274.000000	3.152169
1275.000000	3.164840
1276.000000	3.194171
1277.000000	3.156810
1278.000000	3.116568
1279.000000	3.098268
1280.000000	3.088222
1281.000000	3.106464
1282.000000	3.132450
1283.000000	3.120742
1284.000000	3.136149
1285.000000	3.151511
1286.000000	3.133998
1287.000000	3.108691
1288.000000	3.071789
1289.000000	3.055634
1290.000000	3.064311
1291.000000	3.087522
1292.000000	3.102580
1293.000000	3.075618
1294.000000	3.080529
1295.000000	3.109440
1296.000000	3.126694
1297.000000	3.117078
1298.000000	3.108017
1299.000000	3.078288
1300.000000	3.054074
1301.000000	3.043168
1302.000000	3.039136
1303.000000	3.062200
1304.000000	3.066075
1305.000000	3.096014
1306.000000	3.097559
1307.000000	3.087860
1308.000000	3.103364
1309.000000	3.118492
1310.000000	3.120460
1311.000000	3.091098
1312.000000	3.086259
1313.000000	3.094064
1314.000000	3.075491
1315.000000	3.035289
1316.000000	3.002332
1317.000000	2.967675
1318.000000	2.962988
1319.000000	2.979508
1320.000000	2.983123
1321.000000	2.965752
1322.000000	2.972806
1323.000000	3.009566
1324.000000	3.011037
1325.000000	2.982484
1326.000000	2.980481
1327.000000	2.966522
1328.000000	2.967090
1329.000000	2.941650
1330.000000	2.925905
1331.000000	2.907493
1332.000000	2.918468
1333.000000	2.933310
1334.000000	2.940652
1335.000000	2.961219
1336.000000	2.974099
1337.000000	2.977266
1338.000000	2.966150
1339.000000	2.972595
1340.000000	2.974210
1341.000000	2.975694
1342.000000	3.010618
1343.000000	3.046382
1344.000000	3.074339
1345.000000	3.096320
1346.000000	3.154206
1347.000000	3.210078
1348.000000	3.239785
1349.000000	3.250702
1350.000000	3.351750
1351.000000	3.495704
1352.000000	3.557798
1353.000000	3.632771
1354.000000	3.580166
1355.000000	3.608049
1356.000000	3.544570
1357.000000	3.587935
1358.000000	3.667136
1359.000000	3.784261
1360.000000	3.714233
1361.000000	3.734099
1362.000000	3.875442
1363.000000	3.947956
1364.000000	4.138756
1365.000000	4.334255
1366.000000	4.325550
1367.000000	4.256287
1368.000000	4.338269
1369.000000	4.282031
1370.000000	4.091507
1371.000000	4.081433
1372.000000	4.162481
1373.000000	4.285023
1374.000000	4.282758
1375.000000	4.291571
1376.000000	4.274967
1377.000000	4.335754
1378.000000	4.420397
1379.000000	4.587772
1380.000000	5.066627
1381.000000	5.231283
1382.000000	5.293052
1383.000000	5.274554
1384.000000	5.171683
1385.000000	5.142337
1386.000000	5.091296
1387.000000	4.844112
1388.000000	4.807237
1389.000000	4.792816
1390.000000	4.766551
1391.000000	4.989196
1392.000000	5.258196
1393.000000	5.250642
1394.000000	5.098527
1395.000000	5.349010
1396.000000	5.697635
1397.000000	5.705703
1398.000000	5.774542
1399.000000	5.646171
1400.000000	5.496333
1401.000000	5.718050
1402.000000	5.858480
1403.000000	5.910729
1404.000000	5.931804
1405.000000	6.266929
1406.000000	6.313625
1407.000000	6.428040
1408.000000	6.453035
1409.000000	6.632752
1410.000000	6.760782
1411.000000	6.953015
1412.000000	7.039059
1413.000000	7.095406
1414.000000	7.031417
1415.000000	6.679996
1416.000000	6.623673
1417.000000	6.685082
1418.000000	6.698274
1419.000000	6.932022
1420.000000	7.057926
1421.000000	7.153645
1422.000000	7.492537
1423.000000	7.571276
1424.000000	7.768845
1425.000000	7.914517
1426.000000	7.953478
1427.000000	7.824910
1428.000000	7.895038
1429.000000	8.092015
1430.000000	8.122078
1431.000000	7.920264
1432.000000	7.980674
1433.000000	8.041441
1434.000000	8.213102
1435.000000	8.372919
1436.000000	8.384267
1437.000000	8.433280
1438.000000	8.471414
1439.000000	8.694579
1440.000000	8.735967
1441.000000	8.870035
1442.000000	8.819962
1443.000000	8.853469
1444.000000	8.870959
1445.000000	8.793325
1446.000000	8.798046
1447.000000	8.826694
1448.000000	8.858324
1449.000000	8.916627
1450.000000	8.914486
1451.000000	8.989273
1452.000000	9.056320
1453.000000	9.222721
1454.000000	9.324519
1455.000000	9.396127
1456.000000	9.434135
1457.000000	9.497002
1458.000000	9.625938
1459.000000	9.726347
1460.000000	9.809871
1461.000000	9.867787
1462.000000	9.929248
1463.000000	10.018324
1464.000000	10.092804
1465.000000	10.157960
1466.000000	10.219773
1467.000000	10.250480
1468.000000	10.275558
1469.000000	10.230585
1470.000000	10.218009
1471.000000	10.248945
1472.000000	10.368210
1473.000000	10.446334
1474.000000	10.520041
1475.000000	10.544385
1476.000000	10.604724
1477.000000	10.685150
1478.000000	10.767721
1479.000000	10.808204
1480.000000	10.951885
1481.000000	10.981309
1482.000000	11.020988
1483.000000	11.046997
1484.000000	11.099887
1485.000000	11.163933
1486.000000	11.161718
1487.000000	11.168350
1488.000000	11.229910
1489.000000	11.236091
1490.000000	11.243472
1491.000000	11.271139
1492.000000	11.295484
1493.000000	11.313066
1494.000000	11.299647
1495.000000	11.300215
1496.000000	11.304183
1497.000000	11.308364
1498.000000	11.320766
1499.000000	11.346867
1500.000000	11.343442
1501.000000	11.350246
1502.000000	11.345273
1503.000000	11.343996
1504.000000	11.373556
1505.000000	11.399762
1506.000000	11.351262
1507.000000	11.326391
1508.000000	11.278075
1509.000000	11.231928
1510.000000	11.217556
1511.000000	11.185010
1512.000000	11.179717
1513.000000	11.147988
1514.000000	11.145291
1515.000000	11.135644
1516.000000	11.103528
1517.000000	11.053646
1518.000000	11.029986
1519.000000	11.013785
1520.000000	11.020264
1521.000000	10.989538
1522.000000	10.932655
1523.000000	10.865179
1524.000000	10.825437
1525.000000	10.803463
1526.000000	10.783520
1527.000000	10.735305
1528.000000	10.661853
1529.000000	10.627196
1530.000000	10.599331
1531.000000	10.570537
1532.000000	10.513881
1533.000000	10.422590
1534.000000	10.333540
1535.000000	10.287623
1536.000000	10.241605
1537.000000	10.182144
1538.000000	10.143266
1539.000000	10.126476
1540.000000	10.086746
1541.000000	10.067526
1542.000000	10.019415
1543.000000	9.989169
1544.000000	9.955804
1545.000000	9.930015
1546.000000	9.909921
1547.000000	9.877972
1548.000000	9.836004
1549.000000	9.772315
1550.000000	9.729036
1551.000000	9.718436
1552.000000	9.706890
1553.000000	9.684056
1554.000000	9.630604
1555.000000	9.601064
1556.000000	9.604143
1557.000000	9.595693
1558.000000	9.582071
1559.000000	9.573506
1560.000000	9.546795
1561.000000	9.504013
1562.000000	9.497100
1563.000000	9.480445
1564.000000	9.431662
1565.000000	9.414530
1566.000000	9.413099
1567.000000	9.399925
1568.000000	9.418923
1569.000000	9.450836
1570.000000	9.449516
1571.000000	9.451666
1572.000000	9.453927
1573.000000	9.443366
1574.000000	9.424059
1575.000000	9.406956
1576.000000	9.385681
1577.000000	9.391342
1578.000000	9.393028
1579.000000	9.386015
1580.000000	9.382211
1581.000000	9.384404
1582.000000	9.373376
1583.000000	9.355202
1584.000000	9.359793
1585.000000	9.337812
1586.000000	9.307407
1587.000000	9.281269
1588.000000	9.260773
1589.000000	9.250423
1590.000000	9.222760
1591.000000	9.201677
1592.000000	9.197623
1593.000000	9.210301
1594.000000	9.222121
1595.000000	9.219777
1596.000000	9.208876
1597.000000	9.179764
1598.000000	9.164314
1599.000000	9.174043
1600.000000	9.139362
1601.000000	9.105785
1602.000000	9.104077
1603.000000	9.082751
1604.000000	9.023736
1605.000000	8.985358
1606.000000	8.960352
1607.000000	8.919361
1608.000000	8.872967
1609.000000	8.839365
1610.000000	8.833816
1611.000000	8.841836
1612.000000	8.822592
1613.000000	8.791576
1614.000000	8.778972
1615.000000	8.767995
1616.000000	8.718457
1617.000000	8.679670
1618.000000	8.653850
1619.000000	8.639785
1620.000000	8.646289
1621.000000	8.628881
1622.000000	8.603279
1623.000000	8.598070
1624.000000	8.598895
1625.000000	8.567594
1626.000000	8.541481
1627.000000	8.490750
1628.000000	8.469289
1629.000000	8.414533
1630.000000	8.393588
1631.000000	8.379330
1632.000000	8.366192
1633.000000	8.352930
1634.000000	8.331547
1635.000000	8.322965
1636.000000	8.281968
1637.000000	8.257996
1638.000000	8.190505
1639.000000	8.212712
1640.000000	8.207136
1641.000000	8.187567
1642.000000	8.162449
1643.000000	8.190889
1644.000000	8.195409
1645.000000	8.179535
1646.000000	8.135004
1647.000000	8.102862
1648.000000	8.083277
1649.000000	8.050862
1650.000000	8.044528
1651.000000	8.034057
1652.000000	8.057940
1653.000000	8.024455
1654.000000	7.999385
1655.000000	7.970027
1656.000000	7.969008
1657.000000	7.940641
1658.000000	7.919397
1659.000000	7.862754
1660.000000	7.880305
1661.000000	7.877888
1662.000000	7.900234
1663.000000	7.854759
1664.000000	7.852835
1665.000000	7.840725
1666.000000	7.823505
1667.000000	7.804224
1668.000000	7.819146
1669.000000	7.850561
1670.000000	7.858392
1671.000000	7.885151
1672.000000	7.892026
1673.000000	7.956513
1674.000000	7.948794
1675.000000	7.987694
1676.000000	8.027152
1677.000000	8.096170
1678.000000	8.109145
1679.000000	8.120049
1680.000000	8.154888
1681.000000	8.229234
1682.000000	8.328419
1683.000000	8.399146
1684.000000	8.454533
1685.000000	8.477558
1686.000000	8.541269
1687.000000	8.546353
1688.000000	8.618907
1689.000000	8.672762
1690.000000	8.717841
1691.000000	8.782833
1692.000000	8.910842
1693.000000	8.939409
1694.000000	9.029198
1695.000000	9.076155
1696.000000	9.138073
1697.000000	9.199780
1698.000000	9.252017
1699.000000	9.299038
1700.000000	9.327938
1701.000000	9.369961
1702.000000	9.431991
1703.000000	9.471070
1704.000000	9.485534
1705.000000	9.510257
1706.000000	9.519552
1707.000000	9.539010
1708.000000	9.561735
1709.000000	9.623326
1710.000000	9.661056
1711.000000	9.680436
1712.000000	9.703650
1713.000000	9.725653
1714.000000	9.799081
1715.000000	9.801234
1716.000000	9.806099
1717.000000	9.807936
1718.000000	9.822835
1719.000000	9.870688
1720.000000	9.933843
1721.000000	9.949858
1722.000000	9.994506
1723.000000	10.010354
1724.000000	10.014699
1725.000000	10.073403
1726.000000	10.098109
1727.000000	10.092080
1728.000000	10.162868
1729.000000	10.189280
1730.000000	10.233167
1731.000000	10.241766
1732.000000	10.278355
1733.000000	10.332313
1734.000000	10.372210
1735.000000	10.399535
1736.000000	10.414910
1737.000000	10.461603
1738.000000	10.508049
1739.000000	10.512720
1740.000000	10.534702
1741.000000	10.584959
1742.000000	10.620078
1743.000000	10.643862
1744.000000	10.653590
1745.000000	10.633431
1746.000000	10.647553
1747.000000	10.632292
1748.000000	10.644870
1749.000000	10.647398
1750.000000	10.703000
1751.000000	10.716441
1752.000000	10.702953
1753.000000	10.682132
1754.000000	10.663497
1755.000000	10.631826
1756.000000	10.622339
1757.000000	10.616416
1758.000000	10.595505
1759.000000	10.610605
1760.000000	10.595875
1761.000000	10.589140
1762.000000	10.566313
1763.000000	10.550741
1764.000000	10.532068
1765.000000	10.507093
1766.000000	10.505730
1767.000000	10.473796
1768.000000	10.464604
1769.000000	10.481411
1770.000000	10.494833
1771.000000	10.482846
1772.000000	10.447502
1773.000000	10.432384
1774.000000	10.440999
1775.000000	10.454262
1776.000000	10.452844
1777.000000	10.432651
1778.000000	10.416839
1779.000000	10.414780
1780.000000	10.427706
1781.000000	10.400295
1782.000000	10.399453
1783.000000	10.396001
1784.000000	10.372293
1785.000000	10.344499
1786.000000	10.326059
1787.000000	10.301370
1788.000000	10.297449
1789.000000	10.291608
1790.000000	10.268953
1791.000000	10.268610
1792.000000	10.247173
1793.000000	10.281176
1794.000000	10.304465
1795.000000	10.305231
1796.000000	10.297001
1797.000000	10.315727
1798.000000	10.295585
1799.000000	10.287460
1800.000000	10.279139
1801.000000	10.275632
1802.000000	10.254673
1803.000000	10.235310
1804.000000	10.170520
1805.000000	10.110939
1806.000000	10.083137
1807.000000	10.063191
1808.000000	10.066397
1809.000000	10.087109
1810.000000	10.066699
1811.000000	10.065749
1812.000000	10.113024
1813.000000	10.157453
1814.000000	10.116615
1815.000000	10.073160
1816.000000	10.104503
1817.000000	10.009140
1818.000000	9.855801
1819.000000	9.691716
1820.000000	9.544889
1821.000000	9.561409
1822.000000	9.607514
1823.000000	9.634477
1824.000000	9.645184
1825.000000	9.501353
1826.000000	9.380354
1827.000000	9.384623
1828.000000	9.387054
1829.000000	9.379452
1830.000000	9.295935
1831.000000	9.253941
1832.000000	9.262653
1833.000000	9.318619
1834.000000	9.302540
1835.000000	9.112878
1836.000000	8.988798
1837.000000	9.054648
1838.000000	9.169520
1839.000000	9.377784
1840.000000	9.561045
1841.000000	9.606653
1842.000000	9.638267
1843.000000	9.693607
1844.000000	9.766475
1845.000000	9.835593
1846.000000	9.786443
1847.000000	9.608368
1848.000000	9.551631
1849.000000	9.595617
1850.000000	9.655274
1851.000000	9.699454
1852.000000	9.840533
1853.000000	9.991200
1854.000000	10.168689
1855.000000	10.282119
1856.000000	10.279184
1857.000000	10.288275
1858.000000	10.289513
1859.000000	10.255863
1860.000000	10.425173
1861.000000	10.544621
1862.000000	10.539242
1863.000000	10.332509
1864.000000	10.243230
1865.000000	10.325726
1866.000000	10.372572
1867.000000	10.368231
1868.000000	10.344658
1869.000000	10.421703
1870.000000	10.575506
1871.000000	10.796584
1872.000000	10.587757
1873.000000	10.452269
1874.000000	10.313269
1875.000000	10.254964
1876.000000	10.189336
1877.000000	10.191573
1878.000000	10.168567
1879.000000	10.147857
1880.000000	10.118443
1881.000000	10.230541
1882.000000	10.467677
1883.000000	10.468665
1884.000000	10.494132
1885.000000	10.569828
1886.000000	10.600399
1887.000000	10.671262
1888.000000	10.811425
1889.000000	10.826745
1890.000000	11.006735
1891.000000	11.095370
1892.000000	11.215858
1893.000000	11.403081
1894.000000	11.603420
1895.000000	11.769279
1896.000000	11.962799
1897.000000	12.145312
1898.000000	12.506957
1899.000000	12.828369
1900.000000	13.094056
1901.000000	13.335109
1902.000000	13.300022
1903.000000	13.506221
1904.000000	13.676602
1905.000000	13.990297
1906.000000	14.217670
1907.000000	14.736096
1908.000000	15.090703
1909.000000	15.406400
1910.000000	15.693135
1911.000000	16.178351
1912.000000	16.540511
1913.000000	16.862015
1914.000000	17.208493
1915.000000	17.562058
1916.000000	17.929435
1917.000000	18.275381
1918.000000	18.763181
1919.000000	19.116796
1920.000000	19.437486
1921.000000	19.838859
1922.000000	20.184611
1923.000000	20.444906
1924.000000	20.931207
1925.000000	21.252236
1926.000000	21.619732
1927.000000	21.948833
1928.000000	22.211153
1929.000000	22.507047
1930.000000	22.793455
1931.000000	23.091190
1932.000000	23.438656
1933.000000	23.720042
1934.000000	23.997523
1935.000000	24.184931
1936.000000	24.446905
1937.000000	24.952430
1938.000000	25.175919
1939.000000	25.448635
1940.000000	25.656309
1941.000000	25.818985
1942.000000	25.934290
1943.000000	26.079681
1944.000000	26.157308
1945.000000	26.247199
1946.000000	26.280668
1947.000000	26.360550
1948.000000	26.442469
1949.000000	26.479470
1950.000000	26.566444
1951.000000	26.591216
1952.000000	26.581193
1953.000000	26.583281
1954.000000	26.645243
1955.000000	26.681674
1956.000000	26.621179
1957.000000	26.611636
1958.000000	26.632523
1959.000000	26.529497
1960.000000	26.466969
1961.000000	26.412933
1962.000000	26.338249
1963.000000	26.299511
1964.000000	26.223106
1965.000000	26.159874
1966.000000	26.072343
1967.000000	25.911635
1968.000000	25.824708
1969.000000	25.681666
1970.000000	25.603417
1971.000000	25.480216
1972.000000	25.394543
1973.000000	25.326462
1974.000000	25.205946
1975.000000	25.079487
1976.000000	24.958095
1977.000000	24.867771
1978.000000	24.775655
1979.000000	24.705145
1980.000000	24.605036
1981.000000	24.507329
1982.000000	24.410210
1983.000000	24.287309
1984.000000	24.202522
1985.000000	24.092225
1986.000000	23.971287
1987.000000	23.877797
1988.000000	23.734738
1989.000000	23.596168
1990.000000	23.479047
1991.000000	23.388582
1992.000000	23.262461
1993.000000	23.184127
1994.000000	23.092608
1995.000000	22.975821
1996.000000	22.891238
1997.000000	22.797532
1998.000000	22.653036
1999.000000	22.594595
2000.000000	22.506914
