PE UV       SUBTECH     SPECTRUM    ASCII       PEDS        4.00        
   -1
C.RESP.MV23-TX3.ASC
23/11/29
12:37:13.00
23/11/29
12:37:13.00
Vinicio Soto Monge
C. RESPLENDENS
250,000000
1
Lambda 1050
1050L1511233
PerkinElmer UV WinLab 6.3.2.0749 / 2.02.05 Lambda 900 UV/VIS/NIR, Aug  7 2015 09:38:08

0
0
3350/servo 860,8/2
0
0
UV/VIS
1
1
1
DoubleDePol,CommonBeamDepol,RBeamAtt,SBeamAtt,60mm sphere, WB InGaAs Detector
0
0
0
0
Program
Program
3350/servo 860,8/2
3350/0,4 860,8/0,4
3350/0,4 860,8/0,4
0
20.00
 
 
 
0
 
860,8
319,2
860,8
Front
100
on
S:100 R:100
0
0
0
0
 
0
 
 
 
0
 
 
0
0
0
0
0
 
 
 
 
0
0


0
0
#HDR
-1
-1
#GR
nm
%A
1.0
0.0
2200,000000
-1,000000
1951
8
73,589983
0,239045
#DATA
284.000000	93.003163
285.000000	93.015787
286.000000	93.027753
287.000000	93.037732
288.000000	93.047869
289.000000	93.058130
290.000000	93.065032
291.000000	93.073777
292.000000	93.081244
293.000000	93.087568
294.000000	93.095449
295.000000	93.100226
296.000000	93.104861
297.000000	93.112901
298.000000	93.118518
299.000000	93.123912
300.000000	93.128889
301.000000	93.133299
302.000000	93.136539
303.000000	93.143443
304.000000	93.149096
305.000000	93.155388
306.000000	93.159037
307.000000	93.163288
308.000000	93.171363
309.000000	93.176880
310.000000	93.183383
311.000000	93.193255
312.000000	93.202591
313.000000	93.211186
314.000000	93.219986
315.000000	93.228409
316.000000	93.239708
317.000000	93.263658
318.000000	93.286213
319.000000	93.310196
320.000000	93.332261
321.000000	93.351052
322.000000	93.367564
323.000000	93.387182
324.000000	93.407788
325.000000	93.425086
326.000000	93.442354
327.000000	93.458676
328.000000	93.474515
329.000000	93.493859
330.000000	93.514094
331.000000	93.531549
332.000000	93.549170
333.000000	93.567704
334.000000	93.585569
335.000000	93.599849
336.000000	93.612929
337.000000	93.627397
338.000000	93.639025
339.000000	93.652585
340.000000	93.665040
341.000000	93.675827
342.000000	93.687078
343.000000	93.694984
344.000000	93.703940
345.000000	93.711199
346.000000	93.715983
347.000000	93.722079
348.000000	93.727145
349.000000	93.729207
350.000000	93.731248
351.000000	93.728712
352.000000	93.712128
353.000000	93.695167
354.000000	93.676558
355.000000	93.657018
356.000000	93.638881
357.000000	93.621456
358.000000	93.595736
359.000000	93.569669
360.000000	93.543688
361.000000	93.513774
362.000000	93.482262
363.000000	93.448619
364.000000	93.408349
365.000000	93.363684
366.000000	93.318135
367.000000	93.266526
368.000000	93.209535
369.000000	93.149865
370.000000	93.088894
371.000000	93.022917
372.000000	92.949333
373.000000	92.871119
374.000000	92.786691
375.000000	92.694506
376.000000	92.594567
377.000000	92.478525
378.000000	92.356439
379.000000	92.226523
380.000000	92.088319
381.000000	91.941038
382.000000	91.784853
383.000000	91.620142
384.000000	91.448831
385.000000	91.268832
386.000000	91.079823
387.000000	90.883087
388.000000	90.678459
389.000000	90.465983
390.000000	90.246081
391.000000	90.018439
392.000000	89.782739
393.000000	89.540669
394.000000	89.289434
395.000000	89.031761
396.000000	88.768355
397.000000	88.498677
398.000000	88.223271
399.000000	87.940986
400.000000	87.653852
401.000000	87.361659
402.000000	87.064742
403.000000	86.764158
404.000000	86.459922
405.000000	86.151130
406.000000	85.840532
407.000000	85.529831
408.000000	85.216474
409.000000	84.900679
410.000000	84.586351
411.000000	84.276116
412.000000	83.974880
413.000000	83.675254
414.000000	83.377700
415.000000	83.083093
416.000000	82.793005
417.000000	82.507863
418.000000	82.227418
419.000000	81.952647
420.000000	81.685147
421.000000	81.425032
422.000000	81.172589
423.000000	80.929274
424.000000	80.695711
425.000000	80.471845
426.000000	80.258525
427.000000	80.055948
428.000000	79.864570
429.000000	79.684453
430.000000	79.514667
431.000000	79.355136
432.000000	79.206015
433.000000	79.066999
434.000000	78.937035
435.000000	78.814660
436.000000	78.699137
437.000000	78.590599
438.000000	78.487674
439.000000	78.388596
440.000000	78.292603
441.000000	78.198672
442.000000	78.106426
443.000000	78.015128
444.000000	77.924045
445.000000	77.831457
446.000000	77.736793
447.000000	77.639659
448.000000	77.539843
449.000000	77.437570
450.000000	77.332377
451.000000	77.223604
452.000000	77.111978
453.000000	76.997669
454.000000	76.880252
455.000000	76.759726
456.000000	76.637315
457.000000	76.512402
458.000000	76.383813
459.000000	76.250946
460.000000	76.114551
461.000000	75.974328
462.000000	75.829647
463.000000	75.679228
464.000000	75.523382
465.000000	75.362214
466.000000	75.195725
467.000000	75.023310
468.000000	74.844031
469.000000	74.659009
470.000000	74.468390
471.000000	74.272044
472.000000	74.069869
473.000000	73.861191
474.000000	73.646917
475.000000	73.426483
476.000000	73.199237
477.000000	72.965434
478.000000	72.723937
479.000000	72.474108
480.000000	72.217824
481.000000	71.953347
482.000000	71.679478
483.000000	71.394500
484.000000	71.096814
485.000000	70.786222
486.000000	70.461429
487.000000	70.122346
488.000000	69.768423
489.000000	69.399500
490.000000	69.014427
491.000000	68.613074
492.000000	68.194872
493.000000	67.760315
494.000000	67.310890
495.000000	66.845646
496.000000	66.367125
497.000000	65.876244
498.000000	65.371755
499.000000	64.854266
500.000000	64.326495
501.000000	63.788453
502.000000	63.238876
503.000000	62.679591
504.000000	62.111343
505.000000	61.535059
506.000000	60.951373
507.000000	60.360247
508.000000	59.762382
509.000000	59.158744
510.000000	58.549738
511.000000	57.935160
512.000000	57.314178
513.000000	56.689062
514.000000	56.059915
515.000000	55.424535
516.000000	54.785491
517.000000	54.143007
518.000000	53.498536
519.000000	52.853194
520.000000	52.205140
521.000000	51.555256
522.000000	50.903239
523.000000	50.248482
524.000000	49.591192
525.000000	48.931497
526.000000	48.270602
527.000000	47.609740
528.000000	46.947620
529.000000	46.285114
530.000000	45.624243
531.000000	44.962294
532.000000	44.299540
533.000000	43.640329
534.000000	42.984612
535.000000	42.329749
536.000000	41.676630
537.000000	41.027753
538.000000	40.380856
539.000000	39.736524
540.000000	39.096508
541.000000	38.459848
542.000000	37.827077
543.000000	37.200472
544.000000	36.579560
545.000000	35.964762
546.000000	35.357480
547.000000	34.758857
548.000000	34.170434
549.000000	33.592096
550.000000	33.025556
551.000000	32.470573
552.000000	31.930499
553.000000	31.405021
554.000000	30.892027
555.000000	30.397040
556.000000	29.918923
557.000000	29.459649
558.000000	29.019380
559.000000	28.597235
560.000000	28.194519
561.000000	27.809613
562.000000	27.442588
563.000000	27.095254
564.000000	26.766323
565.000000	26.453542
566.000000	26.156858
567.000000	25.875611
568.000000	25.605409
569.000000	25.348175
570.000000	25.104183
571.000000	24.873715
572.000000	24.654401
573.000000	24.446422
574.000000	24.250569
575.000000	24.067168
576.000000	23.895979
577.000000	23.736956
578.000000	23.589149
579.000000	23.455144
580.000000	23.336313
581.000000	23.230025
582.000000	23.140517
583.000000	23.067704
584.000000	23.012897
585.000000	22.973879
586.000000	22.951725
587.000000	22.947284
588.000000	22.961485
589.000000	22.995970
590.000000	23.048756
591.000000	23.120116
592.000000	23.208185
593.000000	23.314211
594.000000	23.438344
595.000000	23.577806
596.000000	23.733296
597.000000	23.904183
598.000000	24.087512
599.000000	24.282265
600.000000	24.489978
601.000000	24.707317
602.000000	24.933542
603.000000	25.168276
604.000000	25.407887
605.000000	25.653342
606.000000	25.901200
607.000000	26.151031
608.000000	26.403225
609.000000	26.654317
610.000000	26.903256
611.000000	27.148044
612.000000	27.387959
613.000000	27.621329
614.000000	27.845513
615.000000	28.057869
616.000000	28.261116
617.000000	28.450084
618.000000	28.622903
619.000000	28.780871
620.000000	28.923959
621.000000	29.052281
622.000000	29.164690
623.000000	29.262197
624.000000	29.345920
625.000000	29.415671
626.000000	29.473709
627.000000	29.520463
628.000000	29.555857
629.000000	29.582487
630.000000	29.602671
631.000000	29.614430
632.000000	29.619155
633.000000	29.619365
634.000000	29.614953
635.000000	29.603839
636.000000	29.587164
637.000000	29.561756
638.000000	29.531721
639.000000	29.496809
640.000000	29.456235
641.000000	29.410754
642.000000	29.359441
643.000000	29.301612
644.000000	29.239363
645.000000	29.170218
646.000000	29.095832
647.000000	29.017494
648.000000	28.936204
649.000000	28.850258
650.000000	28.760500
651.000000	28.667666
652.000000	28.572966
653.000000	28.475035
654.000000	28.372278
655.000000	28.267314
656.000000	28.160527
657.000000	28.048660
658.000000	27.928984
659.000000	27.801129
660.000000	27.663784
661.000000	27.515379
662.000000	27.355608
663.000000	27.184540
664.000000	27.002131
665.000000	26.805479
666.000000	26.595761
667.000000	26.371589
668.000000	26.134826
669.000000	25.884055
670.000000	25.619139
671.000000	25.344740
672.000000	25.063568
673.000000	24.774679
674.000000	24.480121
675.000000	24.181327
676.000000	23.877629
677.000000	23.569447
678.000000	23.260859
679.000000	22.952124
680.000000	22.644361
681.000000	22.337905
682.000000	22.032316
683.000000	21.727948
684.000000	21.426273
685.000000	21.127353
686.000000	20.831519
687.000000	20.538721
688.000000	20.250022
689.000000	19.965992
690.000000	19.686656
691.000000	19.409241
692.000000	19.136342
693.000000	18.871066
694.000000	18.612856
695.000000	18.358950
696.000000	18.111104
697.000000	17.870312
698.000000	17.633160
699.000000	17.396755
700.000000	17.166314
701.000000	16.941729
702.000000	16.722372
703.000000	16.506224
704.000000	16.293939
705.000000	16.085020
706.000000	15.878196
707.000000	15.677428
708.000000	15.480328
709.000000	15.284275
710.000000	15.089072
711.000000	14.895183
712.000000	14.706676
713.000000	14.522582
714.000000	14.341087
715.000000	14.164208
716.000000	13.992727
717.000000	13.823932
718.000000	13.658728
719.000000	13.499480
720.000000	13.346894
721.000000	13.200476
722.000000	13.057932
723.000000	12.918648
724.000000	12.784444
725.000000	12.654193
726.000000	12.529546
727.000000	12.407325
728.000000	12.286021
729.000000	12.168362
730.000000	12.056435
731.000000	11.949513
732.000000	11.844429
733.000000	11.744159
734.000000	11.649848
735.000000	11.559631
736.000000	11.474527
737.000000	11.393261
738.000000	11.315115
739.000000	11.242193
740.000000	11.174743
741.000000	11.111972
742.000000	11.049300
743.000000	10.989287
744.000000	10.936446
745.000000	10.886690
746.000000	10.841169
747.000000	10.798811
748.000000	10.759277
749.000000	10.724306
750.000000	10.692115
751.000000	10.659871
752.000000	10.629299
753.000000	10.600875
754.000000	10.572910
755.000000	10.548741
756.000000	10.525430
757.000000	10.505877
758.000000	10.490253
759.000000	10.474764
760.000000	10.463059
761.000000	10.451709
762.000000	10.443235
763.000000	10.440303
764.000000	10.441457
765.000000	10.444250
766.000000	10.445562
767.000000	10.450453
768.000000	10.461024
769.000000	10.474238
770.000000	10.487626
771.000000	10.502421
772.000000	10.518544
773.000000	10.537814
774.000000	10.559552
775.000000	10.582062
776.000000	10.609657
777.000000	10.640461
778.000000	10.671770
779.000000	10.701633
780.000000	10.737331
781.000000	10.776477
782.000000	10.819141
783.000000	10.864069
784.000000	10.909909
785.000000	10.956152
786.000000	11.004215
787.000000	11.056526
788.000000	11.112539
789.000000	11.173013
790.000000	11.229249
791.000000	11.282936
792.000000	11.337552
793.000000	11.392389
794.000000	11.447651
795.000000	11.502874
796.000000	11.560776
797.000000	11.617896
798.000000	11.672842
799.000000	11.724420
800.000000	11.767992
801.000000	11.814589
802.000000	11.859731
803.000000	11.903081
804.000000	11.946915
805.000000	11.984927
806.000000	12.019393
807.000000	12.050573
808.000000	12.079137
809.000000	12.108307
810.000000	12.133221
811.000000	12.156354
812.000000	12.180975
813.000000	12.204085
814.000000	12.228367
815.000000	12.244464
816.000000	12.256862
817.000000	12.264203
818.000000	12.275958
819.000000	12.285410
820.000000	12.291434
821.000000	12.298640
822.000000	12.300948
823.000000	12.307165
824.000000	12.313323
825.000000	12.318118
826.000000	12.334927
827.000000	12.344207
828.000000	12.356406
829.000000	12.369443
830.000000	12.388357
831.000000	12.399825
832.000000	12.411048
833.000000	12.423622
834.000000	12.433247
835.000000	12.455954
836.000000	12.477442
837.000000	12.501048
838.000000	12.519012
839.000000	12.541169
840.000000	12.560586
841.000000	12.587638
842.000000	12.608143
843.000000	12.632909
844.000000	12.646708
845.000000	12.663178
846.000000	12.680146
847.000000	12.696136
848.000000	12.705125
849.000000	12.715778
850.000000	12.724460
851.000000	12.726379
852.000000	12.744239
853.000000	12.748921
854.000000	12.773264
855.000000	12.776352
856.000000	12.758747
857.000000	12.778602
858.000000	12.795398
859.000000	12.751095
860.000000	12.715007
861.000000	12.658857
862.000000	12.618513
863.000000	12.530123
864.000000	12.421654
865.000000	12.362649
866.000000	12.295601
867.000000	12.208817
868.000000	12.124340
869.000000	12.055288
870.000000	11.939716
871.000000	11.851512
872.000000	11.808098
873.000000	11.739796
874.000000	11.654296
875.000000	11.554703
876.000000	11.439603
877.000000	11.353248
878.000000	11.296232
879.000000	11.252432
880.000000	11.179094
881.000000	11.077961
882.000000	10.963833
883.000000	10.915108
884.000000	10.844418
885.000000	10.785951
886.000000	10.695666
887.000000	10.644167
888.000000	10.572756
889.000000	10.504981
890.000000	10.405046
891.000000	10.330911
892.000000	10.254570
893.000000	10.135344
894.000000	10.077968
895.000000	10.064671
896.000000	10.042789
897.000000	10.025137
898.000000	10.032522
899.000000	10.067222
900.000000	10.058957
901.000000	10.066282
902.000000	10.095953
903.000000	10.091667
904.000000	10.046388
905.000000	10.045086
906.000000	10.049973
907.000000	10.006321
908.000000	9.979318
909.000000	9.965937
910.000000	9.985014
911.000000	10.020610
912.000000	10.033238
913.000000	9.994152
914.000000	9.927453
915.000000	9.919740
916.000000	9.947414
917.000000	9.940963
918.000000	9.872435
919.000000	9.811893
920.000000	9.768916
921.000000	9.761687
922.000000	9.754381
923.000000	9.726918
924.000000	9.672453
925.000000	9.672758
926.000000	9.641951
927.000000	9.613056
928.000000	9.639204
929.000000	9.626492
930.000000	9.588024
931.000000	9.569199
932.000000	9.534511
933.000000	9.487252
934.000000	9.390208
935.000000	9.322721
936.000000	9.264303
937.000000	9.219036
938.000000	9.181915
939.000000	9.180169
940.000000	9.170687
941.000000	9.093599
942.000000	9.028691
943.000000	9.010152
944.000000	8.984844
945.000000	8.961141
946.000000	8.890276
947.000000	8.793474
948.000000	8.753757
949.000000	8.726986
950.000000	8.670438
951.000000	8.617725
952.000000	8.594939
953.000000	8.606291
954.000000	8.617497
955.000000	8.591587
956.000000	8.536406
957.000000	8.434912
958.000000	8.375838
959.000000	8.344731
960.000000	8.336286
961.000000	8.335810
962.000000	8.296280
963.000000	8.238063
964.000000	8.215371
965.000000	8.183116
966.000000	8.158838
967.000000	8.142937
968.000000	8.122675
969.000000	8.146514
970.000000	8.140336
971.000000	8.111610
972.000000	8.046831
973.000000	8.002180
974.000000	7.938920
975.000000	7.902361
976.000000	7.896162
977.000000	7.878394
978.000000	7.845115
979.000000	7.827734
980.000000	7.811362
981.000000	7.816373
982.000000	7.827477
983.000000	7.795670
984.000000	7.768853
985.000000	7.745530
986.000000	7.713816
987.000000	7.688313
988.000000	7.640179
989.000000	7.605012
990.000000	7.580837
991.000000	7.590672
992.000000	7.577015
993.000000	7.559949
994.000000	7.541470
995.000000	7.493802
996.000000	7.447259
997.000000	7.417288
998.000000	7.351709
999.000000	7.282008
1000.000000	7.212605
1001.000000	7.112294
1002.000000	7.044525
1003.000000	7.019714
1004.000000	6.979087
1005.000000	6.920396
1006.000000	6.861039
1007.000000	6.825680
1008.000000	6.790501
1009.000000	6.767751
1010.000000	6.706278
1011.000000	6.656415
1012.000000	6.634475
1013.000000	6.587628
1014.000000	6.516886
1015.000000	6.408036
1016.000000	6.328508
1017.000000	6.297596
1018.000000	6.248749
1019.000000	6.171089
1020.000000	6.135398
1021.000000	6.081018
1022.000000	6.040416
1023.000000	5.988902
1024.000000	5.916229
1025.000000	5.883224
1026.000000	5.845910
1027.000000	5.793821
1028.000000	5.761426
1029.000000	5.715088
1030.000000	5.661613
1031.000000	5.614017
1032.000000	5.568365
1033.000000	5.558097
1034.000000	5.549633
1035.000000	5.512513
1036.000000	5.499932
1037.000000	5.473687
1038.000000	5.441431
1039.000000	5.410038
1040.000000	5.409965
1041.000000	5.389209
1042.000000	5.334833
1043.000000	5.309894
1044.000000	5.296364
1045.000000	5.307936
1046.000000	5.322315
1047.000000	5.280146
1048.000000	5.232137
1049.000000	5.211763
1050.000000	5.201225
1051.000000	5.180288
1052.000000	5.158792
1053.000000	5.148995
1054.000000	5.131509
1055.000000	5.071729
1056.000000	5.051957
1057.000000	5.014040
1058.000000	4.974420
1059.000000	4.991987
1060.000000	4.942488
1061.000000	4.879421
1062.000000	4.853201
1063.000000	4.821949
1064.000000	4.786188
1065.000000	4.762517
1066.000000	4.741579
1067.000000	4.691409
1068.000000	4.663820
1069.000000	4.601619
1070.000000	4.560571
1071.000000	4.524695
1072.000000	4.453105
1073.000000	4.433982
1074.000000	4.431649
1075.000000	4.390724
1076.000000	4.383168
1077.000000	4.366317
1078.000000	4.342382
1079.000000	4.292363
1080.000000	4.250636
1081.000000	4.191175
1082.000000	4.159481
1083.000000	4.089957
1084.000000	4.071572
1085.000000	4.062118
1086.000000	4.043754
1087.000000	3.991406
1088.000000	3.952997
1089.000000	3.984838
1090.000000	3.981278
1091.000000	3.991416
1092.000000	3.993628
1093.000000	3.993533
1094.000000	3.952866
1095.000000	3.922931
1096.000000	3.927972
1097.000000	3.928121
1098.000000	3.886028
1099.000000	3.837464
1100.000000	3.838156
1101.000000	3.792394
1102.000000	3.761591
1103.000000	3.750267
1104.000000	3.778235
1105.000000	3.777358
1106.000000	3.771964
1107.000000	3.763087
1108.000000	3.716997
1109.000000	3.674320
1110.000000	3.627335
1111.000000	3.569805
1112.000000	3.564262
1113.000000	3.514378
1114.000000	3.528807
1115.000000	3.537287
1116.000000	3.556952
1117.000000	3.533357
1118.000000	3.551314
1119.000000	3.523861
1120.000000	3.491694
1121.000000	3.469109
1122.000000	3.434870
1123.000000	3.413712
1124.000000	3.361395
1125.000000	3.333311
1126.000000	3.267609
1127.000000	3.178442
1128.000000	3.153114
1129.000000	3.124306
1130.000000	3.139478
1131.000000	3.118805
1132.000000	3.078326
1133.000000	3.057575
1134.000000	3.074546
1135.000000	3.063262
1136.000000	3.109156
1137.000000	3.105071
1138.000000	3.085910
1139.000000	3.052838
1140.000000	3.083970
1141.000000	3.098059
1142.000000	3.141573
1143.000000	3.185889
1144.000000	3.126947
1145.000000	3.138796
1146.000000	3.158564
1147.000000	3.162211
1148.000000	3.160887
1149.000000	3.117480
1150.000000	3.126712
1151.000000	3.060613
1152.000000	3.045514
1153.000000	3.062684
1154.000000	3.053636
1155.000000	3.027067
1156.000000	3.030257
1157.000000	3.026642
1158.000000	3.036257
1159.000000	3.046119
1160.000000	3.067521
1161.000000	3.102510
1162.000000	3.132864
1163.000000	3.154072
1164.000000	3.157281
1165.000000	3.142123
1166.000000	3.150952
1167.000000	3.140380
1168.000000	3.171243
1169.000000	3.158087
1170.000000	3.144691
1171.000000	3.160822
1172.000000	3.165318
1173.000000	3.169887
1174.000000	3.181439
1175.000000	3.175553
1176.000000	3.183948
1177.000000	3.174254
1178.000000	3.154235
1179.000000	3.183881
1180.000000	3.183896
1181.000000	3.180971
1182.000000	3.189553
1183.000000	3.219830
1184.000000	3.282880
1185.000000	3.286471
1186.000000	3.334557
1187.000000	3.376732
1188.000000	3.358901
1189.000000	3.362725
1190.000000	3.389236
1191.000000	3.406212
1192.000000	3.421112
1193.000000	3.398113
1194.000000	3.397738
1195.000000	3.405544
1196.000000	3.386589
1197.000000	3.379997
1198.000000	3.357569
1199.000000	3.332840
1200.000000	3.330420
1201.000000	3.288550
1202.000000	3.279914
1203.000000	3.290474
1204.000000	3.339066
1205.000000	3.298283
1206.000000	3.255308
1207.000000	3.273923
1208.000000	3.286070
1209.000000	3.279857
1210.000000	3.225202
1211.000000	3.180043
1212.000000	3.126095
1213.000000	3.081736
1214.000000	3.110673
1215.000000	3.089966
1216.000000	3.064726
1217.000000	3.043507
1218.000000	3.031321
1219.000000	2.957394
1220.000000	2.922982
1221.000000	2.910288
1222.000000	2.873721
1223.000000	2.885378
1224.000000	2.875422
1225.000000	2.898942
1226.000000	2.896536
1227.000000	2.871708
1228.000000	2.880526
1229.000000	2.900347
1230.000000	2.867087
1231.000000	2.861553
1232.000000	2.880864
1233.000000	2.854219
1234.000000	2.839365
1235.000000	2.797015
1236.000000	2.824755
1237.000000	2.862874
1238.000000	2.835458
1239.000000	2.796734
1240.000000	2.826188
1241.000000	2.789816
1242.000000	2.754439
1243.000000	2.736321
1244.000000	2.737408
1245.000000	2.751617
1246.000000	2.725866
1247.000000	2.722617
1248.000000	2.712217
1249.000000	2.652566
1250.000000	2.612865
1251.000000	2.604665
1252.000000	2.619664
1253.000000	2.631605
1254.000000	2.628534
1255.000000	2.601099
1256.000000	2.589550
1257.000000	2.586479
1258.000000	2.549091
1259.000000	2.531106
1260.000000	2.467184
1261.000000	2.372763
1262.000000	2.369948
1263.000000	2.353972
1264.000000	2.309542
1265.000000	2.322313
1266.000000	2.306517
1267.000000	2.307764
1268.000000	2.327116
1269.000000	2.366416
1270.000000	2.400014
1271.000000	2.392332
1272.000000	2.387376
1273.000000	2.378382
1274.000000	2.333425
1275.000000	2.321738
1276.000000	2.328508
1277.000000	2.298093
1278.000000	2.244880
1279.000000	2.220015
1280.000000	2.219075
1281.000000	2.253067
1282.000000	2.281219
1283.000000	2.308202
1284.000000	2.330913
1285.000000	2.333694
1286.000000	2.313827
1287.000000	2.260137
1288.000000	2.199271
1289.000000	2.182669
1290.000000	2.147146
1291.000000	2.148064
1292.000000	2.161241
1293.000000	2.164471
1294.000000	2.145859
1295.000000	2.129666
1296.000000	2.179110
1297.000000	2.209411
1298.000000	2.188017
1299.000000	2.165346
1300.000000	2.139902
1301.000000	2.124614
1302.000000	2.126658
1303.000000	2.118549
1304.000000	2.115793
1305.000000	2.129398
1306.000000	2.127557
1307.000000	2.094765
1308.000000	2.092483
1309.000000	2.114829
1310.000000	2.083406
1311.000000	2.052837
1312.000000	2.054864
1313.000000	2.065565
1314.000000	2.037587
1315.000000	1.994152
1316.000000	1.976431
1317.000000	1.970263
1318.000000	1.946792
1319.000000	1.943043
1320.000000	1.975736
1321.000000	1.993291
1322.000000	2.006311
1323.000000	2.049853
1324.000000	2.051343
1325.000000	2.064242
1326.000000	2.038669
1327.000000	2.049318
1328.000000	2.105346
1329.000000	2.127197
1330.000000	2.140041
1331.000000	2.148533
1332.000000	2.124545
1333.000000	2.152337
1334.000000	2.190193
1335.000000	2.197736
1336.000000	2.233303
1337.000000	2.245184
1338.000000	2.262826
1339.000000	2.271359
1340.000000	2.233655
1341.000000	2.206768
1342.000000	2.221820
1343.000000	2.274990
1344.000000	2.317013
1345.000000	2.355431
1346.000000	2.425014
1347.000000	2.492646
1348.000000	2.524325
1349.000000	2.610141
1350.000000	2.705856
1351.000000	2.718781
1352.000000	2.757076
1353.000000	2.803052
1354.000000	2.781973
1355.000000	2.735873
1356.000000	2.695954
1357.000000	2.688464
1358.000000	2.691549
1359.000000	2.718907
1360.000000	2.675397
1361.000000	2.612402
1362.000000	2.665043
1363.000000	2.691419
1364.000000	2.652040
1365.000000	2.724479
1366.000000	2.672398
1367.000000	2.579985
1368.000000	2.484433
1369.000000	2.482980
1370.000000	2.446525
1371.000000	2.501957
1372.000000	2.538931
1373.000000	2.537367
1374.000000	2.513440
1375.000000	2.507716
1376.000000	2.635540
1377.000000	2.725767
1378.000000	2.608916
1379.000000	2.648374
1380.000000	2.356817
1381.000000	2.420154
1382.000000	2.171484
1383.000000	2.158481
1384.000000	2.038534
1385.000000	2.000308
1386.000000	2.057712
1387.000000	1.966461
1388.000000	2.064849
1389.000000	2.113892
1390.000000	2.151542
1391.000000	2.183419
1392.000000	2.302090
1393.000000	2.402059
1394.000000	2.483799
1395.000000	2.595451
1396.000000	2.702843
1397.000000	2.706684
1398.000000	2.738911
1399.000000	2.888887
1400.000000	2.756270
1401.000000	2.862523
1402.000000	3.058074
1403.000000	3.232723
1404.000000	3.279032
1405.000000	3.513334
1406.000000	3.592343
1407.000000	3.663658
1408.000000	3.847681
1409.000000	3.959440
1410.000000	4.138677
1411.000000	4.191833
1412.000000	4.289265
1413.000000	4.476880
1414.000000	4.511655
1415.000000	4.935431
1416.000000	5.021261
1417.000000	5.447117
1418.000000	5.582561
1419.000000	5.874420
1420.000000	5.992319
1421.000000	6.120532
1422.000000	6.347754
1423.000000	6.390072
1424.000000	6.573624
1425.000000	6.790995
1426.000000	7.019013
1427.000000	7.133546
1428.000000	7.245227
1429.000000	7.374953
1430.000000	7.551077
1431.000000	7.714658
1432.000000	7.842989
1433.000000	7.946212
1434.000000	8.057940
1435.000000	8.384693
1436.000000	8.597452
1437.000000	8.759353
1438.000000	8.896378
1439.000000	9.059160
1440.000000	9.104222
1441.000000	9.202677
1442.000000	9.331433
1443.000000	9.415604
1444.000000	9.594527
1445.000000	9.679839
1446.000000	9.760738
1447.000000	9.846530
1448.000000	10.007815
1449.000000	10.160405
1450.000000	10.267795
1451.000000	10.326852
1452.000000	10.344210
1453.000000	10.457052
1454.000000	10.493967
1455.000000	10.634529
1456.000000	10.699390
1457.000000	10.757877
1458.000000	10.874942
1459.000000	10.930706
1460.000000	10.949449
1461.000000	10.996005
1462.000000	11.064733
1463.000000	11.125347
1464.000000	11.196852
1465.000000	11.249257
1466.000000	11.319789
1467.000000	11.398460
1468.000000	11.477776
1469.000000	11.550465
1470.000000	11.613442
1471.000000	11.623947
1472.000000	11.662211
1473.000000	11.771318
1474.000000	11.858473
1475.000000	11.898648
1476.000000	11.938914
1477.000000	11.994438
1478.000000	12.024270
1479.000000	12.042328
1480.000000	12.107157
1481.000000	12.185535
1482.000000	12.209791
1483.000000	12.231445
1484.000000	12.276026
1485.000000	12.330961
1486.000000	12.368593
1487.000000	12.441198
1488.000000	12.509293
1489.000000	12.555989
1490.000000	12.579674
1491.000000	12.605835
1492.000000	12.669763
1493.000000	12.697891
1494.000000	12.726253
1495.000000	12.805176
1496.000000	12.868711
1497.000000	12.889493
1498.000000	12.898940
1499.000000	12.912288
1500.000000	12.960506
1501.000000	12.976117
1502.000000	12.969362
1503.000000	12.978937
1504.000000	12.991106
1505.000000	12.984729
1506.000000	12.984758
1507.000000	12.971113
1508.000000	12.932564
1509.000000	12.942179
1510.000000	12.938871
1511.000000	12.891230
1512.000000	12.828324
1513.000000	12.795372
1514.000000	12.759494
1515.000000	12.713328
1516.000000	12.649252
1517.000000	12.597775
1518.000000	12.552073
1519.000000	12.509647
1520.000000	12.476741
1521.000000	12.464338
1522.000000	12.437956
1523.000000	12.403574
1524.000000	12.403480
1525.000000	12.382115
1526.000000	12.359391
1527.000000	12.334569
1528.000000	12.281941
1529.000000	12.258481
1530.000000	12.224262
1531.000000	12.180052
1532.000000	12.162720
1533.000000	12.142825
1534.000000	12.113995
1535.000000	12.062248
1536.000000	12.061927
1537.000000	12.044388
1538.000000	12.001966
1539.000000	11.974571
1540.000000	11.960179
1541.000000	11.939944
1542.000000	11.916833
1543.000000	11.900354
1544.000000	11.855863
1545.000000	11.863078
1546.000000	11.882430
1547.000000	11.899820
1548.000000	11.885935
1549.000000	11.853834
1550.000000	11.809787
1551.000000	11.782082
1552.000000	11.792093
1553.000000	11.803576
1554.000000	11.785676
1555.000000	11.748913
1556.000000	11.722016
1557.000000	11.718425
1558.000000	11.692767
1559.000000	11.637030
1560.000000	11.613674
1561.000000	11.581273
1562.000000	11.521531
1563.000000	11.491084
1564.000000	11.454550
1565.000000	11.395274
1566.000000	11.381427
1567.000000	11.361015
1568.000000	11.346604
1569.000000	11.314090
1570.000000	11.277850
1571.000000	11.222988
1572.000000	11.181462
1573.000000	11.175811
1574.000000	11.138432
1575.000000	11.121470
1576.000000	11.129976
1577.000000	11.087437
1578.000000	11.056998
1579.000000	11.019900
1580.000000	10.997161
1581.000000	11.011665
1582.000000	11.037060
1583.000000	11.018891
1584.000000	11.019765
1585.000000	11.044595
1586.000000	11.056431
1587.000000	11.050104
1588.000000	11.041197
1589.000000	11.027415
1590.000000	11.022725
1591.000000	11.043839
1592.000000	11.000097
1593.000000	11.014499
1594.000000	11.014596
1595.000000	11.023074
1596.000000	11.069793
1597.000000	11.106137
1598.000000	11.105858
1599.000000	11.139635
1600.000000	11.144273
1601.000000	11.125365
1602.000000	11.112012
1603.000000	11.062437
1604.000000	11.058367
1605.000000	11.096832
1606.000000	11.122559
1607.000000	11.136539
1608.000000	11.101862
1609.000000	11.115064
1610.000000	11.094472
1611.000000	11.083574
1612.000000	11.103633
1613.000000	11.084022
1614.000000	11.054626
1615.000000	11.014059
1616.000000	10.988248
1617.000000	10.935002
1618.000000	10.910565
1619.000000	10.890364
1620.000000	10.850566
1621.000000	10.818095
1622.000000	10.825344
1623.000000	10.840939
1624.000000	10.875817
1625.000000	10.874132
1626.000000	10.840230
1627.000000	10.862308
1628.000000	10.814659
1629.000000	10.802659
1630.000000	10.783315
1631.000000	10.722864
1632.000000	10.705896
1633.000000	10.716122
1634.000000	10.713703
1635.000000	10.679708
1636.000000	10.645046
1637.000000	10.618981
1638.000000	10.633980
1639.000000	10.576763
1640.000000	10.512361
1641.000000	10.510835
1642.000000	10.476485
1643.000000	10.501346
1644.000000	10.448773
1645.000000	10.417738
1646.000000	10.398015
1647.000000	10.363201
1648.000000	10.391794
1649.000000	10.458438
1650.000000	10.458895
1651.000000	10.404737
1652.000000	10.363403
1653.000000	10.361075
1654.000000	10.360681
1655.000000	10.392743
1656.000000	10.374872
1657.000000	10.322856
1658.000000	10.259812
1659.000000	10.164471
1660.000000	10.128711
1661.000000	10.113250
1662.000000	10.094504
1663.000000	10.127744
1664.000000	10.098777
1665.000000	10.082478
1666.000000	10.128108
1667.000000	10.132497
1668.000000	10.061270
1669.000000	10.056595
1670.000000	10.109009
1671.000000	10.194676
1672.000000	10.214349
1673.000000	10.238280
1674.000000	10.340308
1675.000000	10.397753
1676.000000	10.377689
1677.000000	10.415942
1678.000000	10.455946
1679.000000	10.528879
1680.000000	10.540986
1681.000000	10.552232
1682.000000	10.615164
1683.000000	10.620843
1684.000000	10.635686
1685.000000	10.691736
1686.000000	10.732725
1687.000000	10.789829
1688.000000	10.812325
1689.000000	10.884132
1690.000000	10.922505
1691.000000	10.987469
1692.000000	11.076669
1693.000000	11.128718
1694.000000	11.228173
1695.000000	11.298905
1696.000000	11.378438
1697.000000	11.451648
1698.000000	11.467362
1699.000000	11.527040
1700.000000	11.561854
1701.000000	11.599084
1702.000000	11.631963
1703.000000	11.682769
1704.000000	11.664728
1705.000000	11.631890
1706.000000	11.631677
1707.000000	11.642174
1708.000000	11.663168
1709.000000	11.661077
1710.000000	11.683667
1711.000000	11.735644
1712.000000	11.797746
1713.000000	11.835728
1714.000000	11.833613
1715.000000	11.890947
1716.000000	11.951883
1717.000000	12.000882
1718.000000	11.995967
1719.000000	12.009688
1720.000000	12.059967
1721.000000	12.156131
1722.000000	12.217566
1723.000000	12.245914
1724.000000	12.243077
1725.000000	12.271725
1726.000000	12.334696
1727.000000	12.319983
1728.000000	12.381941
1729.000000	12.413532
1730.000000	12.440407
1731.000000	12.440828
1732.000000	12.451800
1733.000000	12.501978
1734.000000	12.549261
1735.000000	12.596905
1736.000000	12.609537
1737.000000	12.651607
1738.000000	12.717691
1739.000000	12.776775
1740.000000	12.847310
1741.000000	12.867235
1742.000000	12.941053
1743.000000	13.003654
1744.000000	13.053887
1745.000000	13.055434
1746.000000	13.066707
1747.000000	13.064992
1748.000000	13.050006
1749.000000	13.053422
1750.000000	13.095678
1751.000000	13.091421
1752.000000	13.079154
1753.000000	13.131136
1754.000000	13.147776
1755.000000	13.106632
1756.000000	13.042889
1757.000000	13.043906
1758.000000	13.099832
1759.000000	13.123220
1760.000000	13.110652
1761.000000	13.077275
1762.000000	13.082333
1763.000000	13.058477
1764.000000	13.057572
1765.000000	13.065930
1766.000000	13.103881
1767.000000	13.113644
1768.000000	13.083960
1769.000000	13.095403
1770.000000	13.127196
1771.000000	13.157202
1772.000000	13.148959
1773.000000	13.141965
1774.000000	13.151145
1775.000000	13.196253
1776.000000	13.218387
1777.000000	13.201697
1778.000000	13.154533
1779.000000	13.123229
1780.000000	13.135131
1781.000000	13.123249
1782.000000	13.104398
1783.000000	13.115373
1784.000000	13.160647
1785.000000	13.133758
1786.000000	13.123970
1787.000000	13.121003
1788.000000	13.105426
1789.000000	13.072792
1790.000000	13.087732
1791.000000	13.076254
1792.000000	13.027824
1793.000000	13.021151
1794.000000	13.015278
1795.000000	13.012767
1796.000000	13.008647
1797.000000	12.981670
1798.000000	12.957652
1799.000000	12.947027
1800.000000	12.944945
1801.000000	12.909764
1802.000000	12.878876
1803.000000	12.885832
1804.000000	12.832754
1805.000000	12.766901
1806.000000	12.704599
1807.000000	12.694560
1808.000000	12.712696
1809.000000	12.683750
1810.000000	12.634009
1811.000000	12.602362
1812.000000	12.597324
1813.000000	12.599170
1814.000000	12.586227
1815.000000	12.572601
1816.000000	12.573079
1817.000000	12.516465
1818.000000	12.452660
1819.000000	12.393128
1820.000000	12.414602
1821.000000	12.454346
1822.000000	12.473505
1823.000000	12.482962
1824.000000	12.482972
1825.000000	12.351293
1826.000000	12.312868
1827.000000	12.327635
1828.000000	12.290015
1829.000000	12.287629
1830.000000	12.241273
1831.000000	12.231058
1832.000000	12.259062
1833.000000	12.286066
1834.000000	12.289232
1835.000000	12.229075
1836.000000	12.179542
1837.000000	12.142475
1838.000000	12.109837
1839.000000	12.092070
1840.000000	12.135241
1841.000000	12.145799
1842.000000	12.110598
1843.000000	12.058880
1844.000000	12.042598
1845.000000	12.046038
1846.000000	11.977428
1847.000000	11.834976
1848.000000	11.829581
1849.000000	11.830134
1850.000000	11.849931
1851.000000	11.892875
1852.000000	11.966987
1853.000000	11.985401
1854.000000	12.002144
1855.000000	11.953341
1856.000000	12.017841
1857.000000	12.115188
1858.000000	12.135164
1859.000000	12.076441
1860.000000	12.188518
1861.000000	12.260844
1862.000000	12.249373
1863.000000	12.138445
1864.000000	12.120851
1865.000000	12.170497
1866.000000	12.173523
1867.000000	12.125582
1868.000000	12.109018
1869.000000	12.100446
1870.000000	12.019673
1871.000000	12.081217
1872.000000	11.983093
1873.000000	12.045365
1874.000000	12.104522
1875.000000	12.162808
1876.000000	12.119735
1877.000000	12.191266
1878.000000	12.292929
1879.000000	12.378683
1880.000000	12.404735
1881.000000	12.538089
1882.000000	12.730509
1883.000000	12.785404
1884.000000	12.910230
1885.000000	13.006512
1886.000000	13.056103
1887.000000	13.166039
1888.000000	13.311204
1889.000000	13.429756
1890.000000	13.636752
1891.000000	13.708139
1892.000000	13.747749
1893.000000	13.923363
1894.000000	14.174981
1895.000000	14.379505
1896.000000	14.618587
1897.000000	14.843011
1898.000000	15.219100
1899.000000	15.484203
1900.000000	15.801548
1901.000000	16.109742
1902.000000	16.361497
1903.000000	16.700502
1904.000000	17.003325
1905.000000	17.469776
1906.000000	17.811554
1907.000000	18.371440
1908.000000	18.712922
1909.000000	19.056819
1910.000000	19.386440
1911.000000	19.925314
1912.000000	20.353836
1913.000000	20.712542
1914.000000	21.120850
1915.000000	21.552373
1916.000000	22.004697
1917.000000	22.458845
1918.000000	22.935773
1919.000000	23.317852
1920.000000	23.689247
1921.000000	24.162948
1922.000000	24.569775
1923.000000	25.004171
1924.000000	25.462384
1925.000000	25.792738
1926.000000	26.128423
1927.000000	26.573562
1928.000000	26.914633
1929.000000	27.336850
1930.000000	27.734718
1931.000000	28.073582
1932.000000	28.362959
1933.000000	28.634811
1934.000000	28.991396
1935.000000	29.241005
1936.000000	29.500459
1937.000000	29.907304
1938.000000	30.160471
1939.000000	30.456137
1940.000000	30.684026
1941.000000	30.888752
1942.000000	31.088291
1943.000000	31.275462
1944.000000	31.498668
1945.000000	31.668138
1946.000000	31.712615
1947.000000	31.794978
1948.000000	31.963940
1949.000000	32.057964
1950.000000	32.167632
1951.000000	32.178390
1952.000000	32.228623
1953.000000	32.250670
1954.000000	32.352018
1955.000000	32.407457
1956.000000	32.387907
1957.000000	32.384453
1958.000000	32.356236
1959.000000	32.322395
1960.000000	32.334735
1961.000000	32.343657
1962.000000	32.243170
1963.000000	32.229643
1964.000000	32.112879
1965.000000	32.024389
1966.000000	31.955332
1967.000000	31.946273
1968.000000	31.913857
1969.000000	31.813230
1970.000000	31.714830
1971.000000	31.638197
1972.000000	31.528905
1973.000000	31.422772
1974.000000	31.321706
1975.000000	31.231960
1976.000000	31.155633
1977.000000	31.025668
1978.000000	30.938042
1979.000000	30.819827
1980.000000	30.696111
1981.000000	30.602917
1982.000000	30.474550
1983.000000	30.350514
1984.000000	30.237748
1985.000000	30.132190
1986.000000	30.024007
1987.000000	29.908088
1988.000000	29.810837
1989.000000	29.661174
1990.000000	29.560952
1991.000000	29.446067
1992.000000	29.368678
1993.000000	29.265074
1994.000000	29.138520
1995.000000	29.017545
1996.000000	28.891224
1997.000000	28.742808
1998.000000	28.608210
1999.000000	28.512296
2000.000000	28.383697
