PE UV       SUBTECH     SPECTRUM    ASCII       PEDS        4.00        
   -1
C.OPTI.8.17-TX3.ASC
23/11/29
14:44:53.00
23/11/29
14:44:53.00
Vinicio Soto Monge
C. OPTIMA #81 7
250,000000
1
Lambda 1050
1050L1511233
PerkinElmer UV WinLab 6.3.2.0749 / 2.02.05 Lambda 900 UV/VIS/NIR, Aug  7 2015 09:38:08

0
0
3350/servo 860,8/2
0
0
UV/VIS
1
1
1
DoubleDePol,CommonBeamDepol,RBeamAtt,SBeamAtt,60mm sphere, WB InGaAs Detector
0
0
0
0
Program
Program
3350/servo 860,8/2
3350/0,4 860,8/0,4
3350/0,4 860,8/0,4
0
20.00
 
 
 
0
 
860,8
319,2
860,8
Front
100
on
S:100 R:100
0
0
0
0
 
0
 
 
 
0
 
 
0
0
0
0
0
 
 
 
 
0
0


0
0
#HDR
-1
-1
#GR
nm
%A
1.0
0.0
2200,000000
-1,000000
1951
8
42,632739
0,179440
#DATA
284.000000	94.067449
285.000000	94.080722
286.000000	94.092998
287.000000	94.102275
288.000000	94.111800
289.000000	94.121085
290.000000	94.127973
291.000000	94.134464
292.000000	94.141322
293.000000	94.148523
294.000000	94.153282
295.000000	94.157036
296.000000	94.161457
297.000000	94.167499
298.000000	94.171867
299.000000	94.176223
300.000000	94.179264
301.000000	94.181360
302.000000	94.184252
303.000000	94.187806
304.000000	94.189846
305.000000	94.193013
306.000000	94.196278
307.000000	94.199005
308.000000	94.203037
309.000000	94.206236
310.000000	94.210242
311.000000	94.213180
312.000000	94.215858
313.000000	94.220597
314.000000	94.225319
315.000000	94.229935
316.000000	94.234002
317.000000	94.245124
318.000000	94.254032
319.000000	94.263118
320.000000	94.268959
321.000000	94.277300
322.000000	94.283944
323.000000	94.291956
324.000000	94.300130
325.000000	94.306904
326.000000	94.314776
327.000000	94.319530
328.000000	94.323375
329.000000	94.329933
330.000000	94.336017
331.000000	94.340607
332.000000	94.342208
333.000000	94.346450
334.000000	94.348011
335.000000	94.348949
336.000000	94.349506
337.000000	94.347535
338.000000	94.344735
339.000000	94.340752
340.000000	94.335941
341.000000	94.327980
342.000000	94.318039
343.000000	94.305187
344.000000	94.292618
345.000000	94.277060
346.000000	94.256685
347.000000	94.235059
348.000000	94.209237
349.000000	94.180503
350.000000	94.147421
351.000000	94.108287
352.000000	94.059759
353.000000	94.007717
354.000000	93.950283
355.000000	93.888968
356.000000	93.817673
357.000000	93.740928
358.000000	93.653010
359.000000	93.555633
360.000000	93.450528
361.000000	93.334073
362.000000	93.206965
363.000000	93.068450
364.000000	92.914093
365.000000	92.745933
366.000000	92.563781
367.000000	92.370155
368.000000	92.158953
369.000000	91.931476
370.000000	91.688819
371.000000	91.428119
372.000000	91.150375
373.000000	90.853377
374.000000	90.540425
375.000000	90.210191
376.000000	89.859830
377.000000	89.480606
378.000000	89.083288
379.000000	88.666437
380.000000	88.232083
381.000000	87.782151
382.000000	87.313032
383.000000	86.827568
384.000000	86.326228
385.000000	85.811173
386.000000	85.283818
387.000000	84.744657
388.000000	84.193151
389.000000	83.632113
390.000000	83.064098
391.000000	82.490451
392.000000	81.911917
393.000000	81.331398
394.000000	80.749095
395.000000	80.167048
396.000000	79.588011
397.000000	79.014362
398.000000	78.444775
399.000000	77.882400
400.000000	77.327891
401.000000	76.783207
402.000000	76.248201
403.000000	75.724454
404.000000	75.213169
405.000000	74.716802
406.000000	74.235856
407.000000	73.771762
408.000000	73.325875
409.000000	72.896509
410.000000	72.484854
411.000000	72.096010
412.000000	71.739011
413.000000	71.403657
414.000000	71.089966
415.000000	70.799460
416.000000	70.532788
417.000000	70.289668
418.000000	70.070202
419.000000	69.874844
420.000000	69.702500
421.000000	69.553494
422.000000	69.428485
423.000000	69.326706
424.000000	69.247883
425.000000	69.191335
426.000000	69.156570
427.000000	69.143818
428.000000	69.152028
429.000000	69.180220
430.000000	69.226928
431.000000	69.290427
432.000000	69.370202
433.000000	69.464768
434.000000	69.573069
435.000000	69.692737
436.000000	69.820423
437.000000	69.954301
438.000000	70.092942
439.000000	70.234598
440.000000	70.374908
441.000000	70.511854
442.000000	70.644220
443.000000	70.770709
444.000000	70.889490
445.000000	70.997895
446.000000	71.095984
447.000000	71.182812
448.000000	71.258734
449.000000	71.323472
450.000000	71.376509
451.000000	71.417593
452.000000	71.446898
453.000000	71.464575
454.000000	71.471017
455.000000	71.466848
456.000000	71.451999
457.000000	71.425505
458.000000	71.387950
459.000000	71.339950
460.000000	71.281161
461.000000	71.211839
462.000000	71.131979
463.000000	71.042134
464.000000	70.943612
465.000000	70.836950
466.000000	70.723392
467.000000	70.603701
468.000000	70.479220
469.000000	70.351211
470.000000	70.221491
471.000000	70.092630
472.000000	69.965810
473.000000	69.842527
474.000000	69.723767
475.000000	69.611103
476.000000	69.505649
477.000000	69.407679
478.000000	69.316709
479.000000	69.233534
480.000000	69.159860
481.000000	69.094331
482.000000	69.036048
483.000000	68.983584
484.000000	68.935913
485.000000	68.892929
486.000000	68.853463
487.000000	68.816635
488.000000	68.782243
489.000000	68.748939
490.000000	68.716208
491.000000	68.684195
492.000000	68.653365
493.000000	68.623420
494.000000	68.593053
495.000000	68.563612
496.000000	68.535672
497.000000	68.509009
498.000000	68.482207
499.000000	68.454737
500.000000	68.426959
501.000000	68.398399
502.000000	68.367970
503.000000	68.335186
504.000000	68.298848
505.000000	68.257764
506.000000	68.211493
507.000000	68.159056
508.000000	68.099235
509.000000	68.030775
510.000000	67.953835
511.000000	67.868287
512.000000	67.772901
513.000000	67.668287
514.000000	67.553745
515.000000	67.427833
516.000000	67.291891
517.000000	67.145683
518.000000	66.990317
519.000000	66.825082
520.000000	66.649280
521.000000	66.463025
522.000000	66.266692
523.000000	66.059175
524.000000	65.841396
525.000000	65.613334
526.000000	65.374690
527.000000	65.124822
528.000000	64.863020
529.000000	64.590821
530.000000	64.307119
531.000000	64.011773
532.000000	63.705280
533.000000	63.389322
534.000000	63.064038
535.000000	62.729874
536.000000	62.386455
537.000000	62.036652
538.000000	61.680816
539.000000	61.320221
540.000000	60.955866
541.000000	60.588726
542.000000	60.220975
543.000000	59.853124
544.000000	59.487179
545.000000	59.123190
546.000000	58.762270
547.000000	58.405788
548.000000	58.055179
549.000000	57.711913
550.000000	57.377444
551.000000	57.049600
552.000000	56.731167
553.000000	56.420716
554.000000	56.119617
555.000000	55.828576
556.000000	55.548178
557.000000	55.278529
558.000000	55.020339
559.000000	54.773304
560.000000	54.534702
561.000000	54.307560
562.000000	54.092235
563.000000	53.887204
564.000000	53.692009
565.000000	53.507387
566.000000	53.331317
567.000000	53.163573
568.000000	53.004030
569.000000	52.851679
570.000000	52.705972
571.000000	52.566352
572.000000	52.430250
573.000000	52.298147
574.000000	52.167346
575.000000	52.039241
576.000000	51.912816
577.000000	51.786579
578.000000	51.661250
579.000000	51.535933
580.000000	51.410868
581.000000	51.288506
582.000000	51.167051
583.000000	51.046698
584.000000	50.926644
585.000000	50.806518
586.000000	50.687418
587.000000	50.571210
588.000000	50.458345
589.000000	50.349669
590.000000	50.245413
591.000000	50.145351
592.000000	50.051188
593.000000	49.963128
594.000000	49.880402
595.000000	49.806799
596.000000	49.739126
597.000000	49.676013
598.000000	49.619969
599.000000	49.570139
600.000000	49.527918
601.000000	49.491946
602.000000	49.463358
603.000000	49.440295
604.000000	49.423129
605.000000	49.412183
606.000000	49.407612
607.000000	49.409415
608.000000	49.416378
609.000000	49.431261
610.000000	49.452631
611.000000	49.481178
612.000000	49.515589
613.000000	49.557121
614.000000	49.605193
615.000000	49.660581
616.000000	49.719430
617.000000	49.783647
618.000000	49.852594
619.000000	49.926333
620.000000	50.003630
621.000000	50.084525
622.000000	50.167173
623.000000	50.251256
624.000000	50.336117
625.000000	50.420675
626.000000	50.504823
627.000000	50.586759
628.000000	50.665839
629.000000	50.741657
630.000000	50.813428
631.000000	50.879998
632.000000	50.943322
633.000000	51.001573
634.000000	51.056075
635.000000	51.103917
636.000000	51.146193
637.000000	51.181553
638.000000	51.211597
639.000000	51.234744
640.000000	51.250652
641.000000	51.258198
642.000000	51.258397
643.000000	51.250848
644.000000	51.235507
645.000000	51.212179
646.000000	51.180236
647.000000	51.141650
648.000000	51.094912
649.000000	51.041269
650.000000	50.979112
651.000000	50.910858
652.000000	50.836507
653.000000	50.755261
654.000000	50.667385
655.000000	50.573727
656.000000	50.475729
657.000000	50.371755
658.000000	50.261780
659.000000	50.145427
660.000000	50.022941
661.000000	49.894983
662.000000	49.761978
663.000000	49.622840
664.000000	49.478836
665.000000	49.330158
666.000000	49.176642
667.000000	49.016651
668.000000	48.851326
669.000000	48.678242
670.000000	48.497661
671.000000	48.311571
672.000000	48.119375
673.000000	47.918755
674.000000	47.712325
675.000000	47.498601
676.000000	47.279987
677.000000	47.055821
678.000000	46.826865
679.000000	46.592285
680.000000	46.351672
681.000000	46.106316
682.000000	45.854933
683.000000	45.598309
684.000000	45.335716
685.000000	45.068576
686.000000	44.796836
687.000000	44.520415
688.000000	44.241068
689.000000	43.956712
690.000000	43.669545
691.000000	43.378062
692.000000	43.083236
693.000000	42.787793
694.000000	42.492084
695.000000	42.196814
696.000000	41.901005
697.000000	41.606390
698.000000	41.313491
699.000000	41.020559
700.000000	40.727609
701.000000	40.436333
702.000000	40.147474
703.000000	39.860971
704.000000	39.576541
705.000000	39.293368
706.000000	39.012339
707.000000	38.733934
708.000000	38.458603
709.000000	38.186954
710.000000	37.919115
711.000000	37.652192
712.000000	37.389010
713.000000	37.130889
714.000000	36.876592
715.000000	36.627415
716.000000	36.382170
717.000000	36.142355
718.000000	35.908021
719.000000	35.680310
720.000000	35.456588
721.000000	35.237222
722.000000	35.023517
723.000000	34.813312
724.000000	34.609650
725.000000	34.409700
726.000000	34.214323
727.000000	34.021748
728.000000	33.831770
729.000000	33.645791
730.000000	33.460946
731.000000	33.279047
732.000000	33.097290
733.000000	32.916612
734.000000	32.739156
735.000000	32.564042
736.000000	32.390511
737.000000	32.217237
738.000000	32.046432
739.000000	31.879892
740.000000	31.717136
741.000000	31.556451
742.000000	31.398679
743.000000	31.244168
744.000000	31.091015
745.000000	30.940348
746.000000	30.794392
747.000000	30.650937
748.000000	30.507054
749.000000	30.364107
750.000000	30.223682
751.000000	30.084598
752.000000	29.944257
753.000000	29.801512
754.000000	29.659356
755.000000	29.518613
756.000000	29.377142
757.000000	29.236830
758.000000	29.098126
759.000000	28.961044
760.000000	28.825947
761.000000	28.690737
762.000000	28.555948
763.000000	28.421537
764.000000	28.285970
765.000000	28.151737
766.000000	28.015618
767.000000	27.882357
768.000000	27.753394
769.000000	27.624735
770.000000	27.495909
771.000000	27.365238
772.000000	27.234932
773.000000	27.106231
774.000000	26.976718
775.000000	26.845283
776.000000	26.715708
777.000000	26.584437
778.000000	26.454112
779.000000	26.325534
780.000000	26.196447
781.000000	26.065368
782.000000	25.934157
783.000000	25.804201
784.000000	25.676220
785.000000	25.547328
786.000000	25.414069
787.000000	25.286208
788.000000	25.164089
789.000000	25.042842
790.000000	24.917639
791.000000	24.791652
792.000000	24.667131
793.000000	24.541352
794.000000	24.416283
795.000000	24.290290
796.000000	24.165661
797.000000	24.040282
798.000000	23.915131
799.000000	23.787735
800.000000	23.660382
801.000000	23.535717
802.000000	23.409434
803.000000	23.281355
804.000000	23.152311
805.000000	23.025158
806.000000	22.900089
807.000000	22.774927
808.000000	22.647520
809.000000	22.519971
810.000000	22.395075
811.000000	22.268196
812.000000	22.144597
813.000000	22.021063
814.000000	21.896855
815.000000	21.774049
816.000000	21.648801
817.000000	21.523581
818.000000	21.398811
819.000000	21.274726
820.000000	21.150370
821.000000	21.027235
822.000000	20.901199
823.000000	20.772263
824.000000	20.645943
825.000000	20.524345
826.000000	20.407349
827.000000	20.283471
828.000000	20.159026
829.000000	20.033554
830.000000	19.911177
831.000000	19.793756
832.000000	19.675539
833.000000	19.555355
834.000000	19.439893
835.000000	19.325169
836.000000	19.216375
837.000000	19.102045
838.000000	18.980497
839.000000	18.864604
840.000000	18.753127
841.000000	18.640277
842.000000	18.529308
843.000000	18.418459
844.000000	18.304274
845.000000	18.194427
846.000000	18.088537
847.000000	17.972947
848.000000	17.867514
849.000000	17.760140
850.000000	17.661246
851.000000	17.552817
852.000000	17.449216
853.000000	17.347568
854.000000	17.247377
855.000000	17.136954
856.000000	17.031660
857.000000	16.939850
858.000000	16.842768
859.000000	16.717990
860.000000	16.574373
861.000000	16.440537
862.000000	16.318988
863.000000	16.209543
864.000000	16.085129
865.000000	15.945506
866.000000	15.846590
867.000000	15.719308
868.000000	15.598687
869.000000	15.486935
870.000000	15.361368
871.000000	15.250210
872.000000	15.139243
873.000000	15.020979
874.000000	14.896326
875.000000	14.793934
876.000000	14.699850
877.000000	14.569431
878.000000	14.434936
879.000000	14.301175
880.000000	14.182343
881.000000	14.058114
882.000000	13.939698
883.000000	13.823141
884.000000	13.706665
885.000000	13.582472
886.000000	13.468573
887.000000	13.359896
888.000000	13.214557
889.000000	13.101990
890.000000	12.983291
891.000000	12.866190
892.000000	12.760126
893.000000	12.657391
894.000000	12.562920
895.000000	12.503267
896.000000	12.419116
897.000000	12.349636
898.000000	12.261266
899.000000	12.170567
900.000000	12.125485
901.000000	12.019134
902.000000	11.947566
903.000000	11.887959
904.000000	11.792388
905.000000	11.711583
906.000000	11.645237
907.000000	11.567003
908.000000	11.507722
909.000000	11.423024
910.000000	11.319278
911.000000	11.230828
912.000000	11.220922
913.000000	11.195194
914.000000	11.140532
915.000000	11.081922
916.000000	11.038891
917.000000	10.967881
918.000000	10.920613
919.000000	10.878443
920.000000	10.830259
921.000000	10.789396
922.000000	10.747719
923.000000	10.718576
924.000000	10.660441
925.000000	10.603236
926.000000	10.560663
927.000000	10.485481
928.000000	10.414650
929.000000	10.381069
930.000000	10.340719
931.000000	10.296869
932.000000	10.242900
933.000000	10.168821
934.000000	10.105672
935.000000	10.047921
936.000000	10.002246
937.000000	9.970409
938.000000	9.914302
939.000000	9.866301
940.000000	9.804687
941.000000	9.732647
942.000000	9.684481
943.000000	9.622631
944.000000	9.575804
945.000000	9.545571
946.000000	9.495134
947.000000	9.374688
948.000000	9.308704
949.000000	9.293310
950.000000	9.242271
951.000000	9.195204
952.000000	9.156648
953.000000	9.083415
954.000000	9.002099
955.000000	8.930977
956.000000	8.844935
957.000000	8.767566
958.000000	8.703456
959.000000	8.652837
960.000000	8.624440
961.000000	8.607387
962.000000	8.559284
963.000000	8.522063
964.000000	8.456337
965.000000	8.375036
966.000000	8.321894
967.000000	8.253139
968.000000	8.216465
969.000000	8.186476
970.000000	8.124634
971.000000	8.068516
972.000000	7.979057
973.000000	7.920325
974.000000	7.869775
975.000000	7.851749
976.000000	7.813890
977.000000	7.751757
978.000000	7.716410
979.000000	7.700954
980.000000	7.631079
981.000000	7.577745
982.000000	7.544696
983.000000	7.486595
984.000000	7.415309
985.000000	7.341209
986.000000	7.268154
987.000000	7.219453
988.000000	7.180592
989.000000	7.134765
990.000000	7.101183
991.000000	7.084757
992.000000	7.015076
993.000000	6.967491
994.000000	6.917003
995.000000	6.853585
996.000000	6.775005
997.000000	6.742561
998.000000	6.673492
999.000000	6.601724
1000.000000	6.547189
1001.000000	6.504819
1002.000000	6.480889
1003.000000	6.448136
1004.000000	6.421125
1005.000000	6.387775
1006.000000	6.357975
1007.000000	6.334444
1008.000000	6.268171
1009.000000	6.234057
1010.000000	6.184651
1011.000000	6.134266
1012.000000	6.110229
1013.000000	6.067702
1014.000000	6.024979
1015.000000	5.998321
1016.000000	5.944320
1017.000000	5.911194
1018.000000	5.871509
1019.000000	5.825102
1020.000000	5.804731
1021.000000	5.747585
1022.000000	5.717843
1023.000000	5.688055
1024.000000	5.660891
1025.000000	5.632556
1026.000000	5.607071
1027.000000	5.580643
1028.000000	5.543170
1029.000000	5.509625
1030.000000	5.484321
1031.000000	5.442973
1032.000000	5.401737
1033.000000	5.386295
1034.000000	5.381245
1035.000000	5.352220
1036.000000	5.288054
1037.000000	5.244448
1038.000000	5.201908
1039.000000	5.149852
1040.000000	5.102814
1041.000000	5.049124
1042.000000	5.004508
1043.000000	4.959719
1044.000000	4.903206
1045.000000	4.872109
1046.000000	4.837827
1047.000000	4.770715
1048.000000	4.725376
1049.000000	4.687914
1050.000000	4.661585
1051.000000	4.644618
1052.000000	4.623210
1053.000000	4.602235
1054.000000	4.585571
1055.000000	4.538980
1056.000000	4.522209
1057.000000	4.493009
1058.000000	4.446123
1059.000000	4.388838
1060.000000	4.306822
1061.000000	4.239510
1062.000000	4.239760
1063.000000	4.222912
1064.000000	4.182093
1065.000000	4.139217
1066.000000	4.093792
1067.000000	4.045352
1068.000000	4.002323
1069.000000	3.949313
1070.000000	3.898744
1071.000000	3.899189
1072.000000	3.859307
1073.000000	3.844994
1074.000000	3.821771
1075.000000	3.811255
1076.000000	3.791355
1077.000000	3.773218
1078.000000	3.795039
1079.000000	3.805649
1080.000000	3.776512
1081.000000	3.725077
1082.000000	3.731083
1083.000000	3.686175
1084.000000	3.646930
1085.000000	3.624288
1086.000000	3.590708
1087.000000	3.536703
1088.000000	3.513184
1089.000000	3.494700
1090.000000	3.493571
1091.000000	3.483906
1092.000000	3.470886
1093.000000	3.456627
1094.000000	3.455567
1095.000000	3.454528
1096.000000	3.443660
1097.000000	3.399488
1098.000000	3.379010
1099.000000	3.357566
1100.000000	3.365683
1101.000000	3.381693
1102.000000	3.367678
1103.000000	3.364831
1104.000000	3.372839
1105.000000	3.402213
1106.000000	3.387834
1107.000000	3.369782
1108.000000	3.348655
1109.000000	3.335710
1110.000000	3.293767
1111.000000	3.263900
1112.000000	3.233983
1113.000000	3.165313
1114.000000	3.130138
1115.000000	3.119066
1116.000000	3.141243
1117.000000	3.078689
1118.000000	3.089284
1119.000000	3.078164
1120.000000	3.069375
1121.000000	3.077263
1122.000000	3.058812
1123.000000	2.996077
1124.000000	2.952631
1125.000000	2.921565
1126.000000	2.925259
1127.000000	2.889501
1128.000000	2.871736
1129.000000	2.841059
1130.000000	2.857695
1131.000000	2.851008
1132.000000	2.840911
1133.000000	2.820277
1134.000000	2.748035
1135.000000	2.735524
1136.000000	2.720716
1137.000000	2.713153
1138.000000	2.694729
1139.000000	2.679946
1140.000000	2.664240
1141.000000	2.679375
1142.000000	2.670287
1143.000000	2.669808
1144.000000	2.684569
1145.000000	2.709413
1146.000000	2.736317
1147.000000	2.748312
1148.000000	2.814793
1149.000000	2.784720
1150.000000	2.805270
1151.000000	2.807624
1152.000000	2.834964
1153.000000	2.824489
1154.000000	2.853387
1155.000000	2.865165
1156.000000	2.864216
1157.000000	2.914399
1158.000000	2.972456
1159.000000	3.022167
1160.000000	3.060357
1161.000000	3.073709
1162.000000	3.117288
1163.000000	3.137840
1164.000000	3.197071
1165.000000	3.206359
1166.000000	3.255105
1167.000000	3.282015
1168.000000	3.317679
1169.000000	3.439399
1170.000000	3.498214
1171.000000	3.532716
1172.000000	3.570857
1173.000000	3.606957
1174.000000	3.637499
1175.000000	3.699629
1176.000000	3.734359
1177.000000	3.775501
1178.000000	3.811602
1179.000000	3.796806
1180.000000	3.811539
1181.000000	3.818260
1182.000000	3.844019
1183.000000	3.835344
1184.000000	3.919840
1185.000000	3.971176
1186.000000	4.001935
1187.000000	4.067232
1188.000000	4.105714
1189.000000	4.101819
1190.000000	4.114394
1191.000000	4.150046
1192.000000	4.145260
1193.000000	4.150016
1194.000000	4.157215
1195.000000	4.181202
1196.000000	4.202214
1197.000000	4.228871
1198.000000	4.248952
1199.000000	4.234226
1200.000000	4.241890
1201.000000	4.212911
1202.000000	4.203170
1203.000000	4.216129
1204.000000	4.203719
1205.000000	4.170054
1206.000000	4.138566
1207.000000	4.145362
1208.000000	4.159152
1209.000000	4.166949
1210.000000	4.120914
1211.000000	4.069975
1212.000000	4.050988
1213.000000	4.016151
1214.000000	4.037475
1215.000000	4.013721
1216.000000	4.011524
1217.000000	4.007636
1218.000000	4.015324
1219.000000	3.980869
1220.000000	3.949199
1221.000000	3.944825
1222.000000	3.900522
1223.000000	3.902251
1224.000000	3.910918
1225.000000	3.915611
1226.000000	3.892324
1227.000000	3.886822
1228.000000	3.857916
1229.000000	3.834538
1230.000000	3.832853
1231.000000	3.805113
1232.000000	3.749773
1233.000000	3.720172
1234.000000	3.708268
1235.000000	3.693489
1236.000000	3.692710
1237.000000	3.699555
1238.000000	3.700811
1239.000000	3.711277
1240.000000	3.692748
1241.000000	3.683834
1242.000000	3.657472
1243.000000	3.610352
1244.000000	3.567763
1245.000000	3.567303
1246.000000	3.543575
1247.000000	3.531405
1248.000000	3.520553
1249.000000	3.476763
1250.000000	3.464398
1251.000000	3.462929
1252.000000	3.468787
1253.000000	3.457457
1254.000000	3.440520
1255.000000	3.380779
1256.000000	3.324280
1257.000000	3.338987
1258.000000	3.327295
1259.000000	3.290748
1260.000000	3.247296
1261.000000	3.224134
1262.000000	3.219561
1263.000000	3.244674
1264.000000	3.245335
1265.000000	3.231308
1266.000000	3.226603
1267.000000	3.243595
1268.000000	3.262834
1269.000000	3.267148
1270.000000	3.255776
1271.000000	3.250006
1272.000000	3.259724
1273.000000	3.232839
1274.000000	3.185584
1275.000000	3.179827
1276.000000	3.199440
1277.000000	3.202784
1278.000000	3.223730
1279.000000	3.237337
1280.000000	3.219705
1281.000000	3.221947
1282.000000	3.219466
1283.000000	3.215804
1284.000000	3.246689
1285.000000	3.248906
1286.000000	3.218737
1287.000000	3.198161
1288.000000	3.171372
1289.000000	3.158141
1290.000000	3.162322
1291.000000	3.178268
1292.000000	3.158478
1293.000000	3.123695
1294.000000	3.119753
1295.000000	3.112299
1296.000000	3.119322
1297.000000	3.126362
1298.000000	3.100560
1299.000000	3.066050
1300.000000	3.024417
1301.000000	3.001901
1302.000000	2.992800
1303.000000	2.991121
1304.000000	2.966030
1305.000000	2.963206
1306.000000	2.947259
1307.000000	2.935948
1308.000000	2.933939
1309.000000	2.941699
1310.000000	2.923913
1311.000000	2.899429
1312.000000	2.883500
1313.000000	2.860742
1314.000000	2.855266
1315.000000	2.857298
1316.000000	2.878613
1317.000000	2.891723
1318.000000	2.894740
1319.000000	2.873757
1320.000000	2.865911
1321.000000	2.868308
1322.000000	2.847103
1323.000000	2.872018
1324.000000	2.901799
1325.000000	2.900134
1326.000000	2.910284
1327.000000	2.915312
1328.000000	2.936816
1329.000000	2.955115
1330.000000	2.989098
1331.000000	2.996755
1332.000000	3.006173
1333.000000	3.038014
1334.000000	3.061512
1335.000000	3.085880
1336.000000	3.118543
1337.000000	3.139349
1338.000000	3.142989
1339.000000	3.187505
1340.000000	3.234516
1341.000000	3.277925
1342.000000	3.304690
1343.000000	3.323236
1344.000000	3.372433
1345.000000	3.430839
1346.000000	3.475728
1347.000000	3.540270
1348.000000	3.600932
1349.000000	3.664537
1350.000000	3.756970
1351.000000	3.875357
1352.000000	3.937730
1353.000000	4.042545
1354.000000	4.058558
1355.000000	4.083671
1356.000000	4.016298
1357.000000	4.055883
1358.000000	4.096891
1359.000000	4.155876
1360.000000	4.118900
1361.000000	4.137353
1362.000000	4.310715
1363.000000	4.424552
1364.000000	4.490192
1365.000000	4.633200
1366.000000	4.592461
1367.000000	4.488670
1368.000000	4.545383
1369.000000	4.513290
1370.000000	4.362045
1371.000000	4.415767
1372.000000	4.552100
1373.000000	4.678869
1374.000000	4.685935
1375.000000	4.716201
1376.000000	4.701591
1377.000000	4.814153
1378.000000	4.851887
1379.000000	5.001739
1380.000000	5.224950
1381.000000	5.400606
1382.000000	5.275360
1383.000000	5.244153
1384.000000	5.087551
1385.000000	5.032008
1386.000000	5.006811
1387.000000	4.826679
1388.000000	4.872116
1389.000000	4.878129
1390.000000	4.927371
1391.000000	5.178143
1392.000000	5.511286
1393.000000	5.642604
1394.000000	5.610959
1395.000000	5.827011
1396.000000	6.134034
1397.000000	6.227244
1398.000000	6.350890
1399.000000	6.376547
1400.000000	6.246590
1401.000000	6.484113
1402.000000	6.759642
1403.000000	6.917078
1404.000000	7.030220
1405.000000	7.452122
1406.000000	7.538519
1407.000000	7.661489
1408.000000	7.780396
1409.000000	7.983250
1410.000000	8.183473
1411.000000	8.449027
1412.000000	8.579838
1413.000000	8.783112
1414.000000	8.824954
1415.000000	8.825101
1416.000000	8.874389
1417.000000	9.242551
1418.000000	9.429403
1419.000000	9.836895
1420.000000	10.091001
1421.000000	10.314169
1422.000000	10.720718
1423.000000	10.844387
1424.000000	11.174688
1425.000000	11.447745
1426.000000	11.631878
1427.000000	11.637047
1428.000000	11.773901
1429.000000	12.046941
1430.000000	12.222836
1431.000000	12.214870
1432.000000	12.289753
1433.000000	12.398512
1434.000000	12.677350
1435.000000	12.990071
1436.000000	13.151388
1437.000000	13.283175
1438.000000	13.417275
1439.000000	13.669143
1440.000000	13.754765
1441.000000	13.967274
1442.000000	14.061123
1443.000000	14.194462
1444.000000	14.333944
1445.000000	14.367287
1446.000000	14.518571
1447.000000	14.609777
1448.000000	14.740196
1449.000000	14.895410
1450.000000	14.983896
1451.000000	15.141288
1452.000000	15.252098
1453.000000	15.434640
1454.000000	15.536188
1455.000000	15.687977
1456.000000	15.771769
1457.000000	15.890712
1458.000000	16.032836
1459.000000	16.124675
1460.000000	16.224332
1461.000000	16.293361
1462.000000	16.368223
1463.000000	16.490909
1464.000000	16.617867
1465.000000	16.729485
1466.000000	16.839244
1467.000000	16.932168
1468.000000	17.023383
1469.000000	17.041110
1470.000000	17.108437
1471.000000	17.172740
1472.000000	17.298331
1473.000000	17.388359
1474.000000	17.518195
1475.000000	17.603073
1476.000000	17.700588
1477.000000	17.816235
1478.000000	17.893522
1479.000000	17.985501
1480.000000	18.139743
1481.000000	18.167894
1482.000000	18.272598
1483.000000	18.328116
1484.000000	18.405497
1485.000000	18.520021
1486.000000	18.554140
1487.000000	18.622207
1488.000000	18.712194
1489.000000	18.766448
1490.000000	18.786669
1491.000000	18.841884
1492.000000	18.904631
1493.000000	18.975985
1494.000000	19.016179
1495.000000	19.041573
1496.000000	19.068599
1497.000000	19.081211
1498.000000	19.083447
1499.000000	19.111433
1500.000000	19.127269
1501.000000	19.152324
1502.000000	19.190232
1503.000000	19.206021
1504.000000	19.249470
1505.000000	19.276955
1506.000000	19.270830
1507.000000	19.252233
1508.000000	19.209953
1509.000000	19.163476
1510.000000	19.142245
1511.000000	19.090003
1512.000000	19.021736
1513.000000	18.970333
1514.000000	18.930487
1515.000000	18.888763
1516.000000	18.821391
1517.000000	18.755836
1518.000000	18.719140
1519.000000	18.653611
1520.000000	18.586582
1521.000000	18.522040
1522.000000	18.421668
1523.000000	18.325672
1524.000000	18.248332
1525.000000	18.188004
1526.000000	18.123968
1527.000000	18.039565
1528.000000	17.946710
1529.000000	17.873040
1530.000000	17.791314
1531.000000	17.720098
1532.000000	17.665355
1533.000000	17.608783
1534.000000	17.525956
1535.000000	17.433835
1536.000000	17.361461
1537.000000	17.267385
1538.000000	17.182365
1539.000000	17.113653
1540.000000	17.035124
1541.000000	16.970997
1542.000000	16.915607
1543.000000	16.889241
1544.000000	16.831441
1545.000000	16.763831
1546.000000	16.700286
1547.000000	16.633394
1548.000000	16.563629
1549.000000	16.473866
1550.000000	16.397117
1551.000000	16.351095
1552.000000	16.292699
1553.000000	16.235016
1554.000000	16.163652
1555.000000	16.089268
1556.000000	16.050007
1557.000000	16.018904
1558.000000	15.970865
1559.000000	15.930670
1560.000000	15.888872
1561.000000	15.841363
1562.000000	15.803467
1563.000000	15.765973
1564.000000	15.696973
1565.000000	15.665404
1566.000000	15.657700
1567.000000	15.620103
1568.000000	15.561091
1569.000000	15.521218
1570.000000	15.492882
1571.000000	15.451993
1572.000000	15.401407
1573.000000	15.369943
1574.000000	15.346309
1575.000000	15.343772
1576.000000	15.339244
1577.000000	15.302703
1578.000000	15.263793
1579.000000	15.246619
1580.000000	15.253883
1581.000000	15.264278
1582.000000	15.255704
1583.000000	15.256585
1584.000000	15.284162
1585.000000	15.284845
1586.000000	15.274846
1587.000000	15.257523
1588.000000	15.248156
1589.000000	15.240627
1590.000000	15.253758
1591.000000	15.246654
1592.000000	15.231312
1593.000000	15.222889
1594.000000	15.215097
1595.000000	15.197585
1596.000000	15.186072
1597.000000	15.154239
1598.000000	15.106602
1599.000000	15.084005
1600.000000	15.050267
1601.000000	14.989976
1602.000000	14.963452
1603.000000	14.948138
1604.000000	14.909414
1605.000000	14.858786
1606.000000	14.819522
1607.000000	14.786757
1608.000000	14.732334
1609.000000	14.686650
1610.000000	14.628219
1611.000000	14.580180
1612.000000	14.534467
1613.000000	14.473934
1614.000000	14.430734
1615.000000	14.347690
1616.000000	14.270523
1617.000000	14.207633
1618.000000	14.133386
1619.000000	14.051263
1620.000000	13.996762
1621.000000	13.940246
1622.000000	13.891826
1623.000000	13.852009
1624.000000	13.837610
1625.000000	13.779624
1626.000000	13.724970
1627.000000	13.681609
1628.000000	13.662798
1629.000000	13.632469
1630.000000	13.580830
1631.000000	13.513761
1632.000000	13.464163
1633.000000	13.447290
1634.000000	13.414415
1635.000000	13.370660
1636.000000	13.307340
1637.000000	13.250777
1638.000000	13.199399
1639.000000	13.173706
1640.000000	13.158827
1641.000000	13.140275
1642.000000	13.111197
1643.000000	13.090990
1644.000000	13.071994
1645.000000	13.031653
1646.000000	12.981459
1647.000000	12.929299
1648.000000	12.916437
1649.000000	12.889751
1650.000000	12.892298
1651.000000	12.856577
1652.000000	12.859953
1653.000000	12.841608
1654.000000	12.862197
1655.000000	12.873485
1656.000000	12.858438
1657.000000	12.861770
1658.000000	12.834206
1659.000000	12.810698
1660.000000	12.812588
1661.000000	12.801489
1662.000000	12.807068
1663.000000	12.802081
1664.000000	12.774659
1665.000000	12.781957
1666.000000	12.806921
1667.000000	12.841234
1668.000000	12.861511
1669.000000	12.923172
1670.000000	12.980746
1671.000000	13.053618
1672.000000	13.064206
1673.000000	13.120840
1674.000000	13.162002
1675.000000	13.234701
1676.000000	13.301911
1677.000000	13.367641
1678.000000	13.451472
1679.000000	13.512794
1680.000000	13.613898
1681.000000	13.717424
1682.000000	13.842860
1683.000000	13.953426
1684.000000	14.035825
1685.000000	14.116553
1686.000000	14.252412
1687.000000	14.334084
1688.000000	14.448609
1689.000000	14.531893
1690.000000	14.604529
1691.000000	14.712777
1692.000000	14.798545
1693.000000	14.857976
1694.000000	14.952075
1695.000000	15.037687
1696.000000	15.138313
1697.000000	15.208029
1698.000000	15.224005
1699.000000	15.266522
1700.000000	15.311196
1701.000000	15.361007
1702.000000	15.408232
1703.000000	15.444495
1704.000000	15.430119
1705.000000	15.458772
1706.000000	15.495271
1707.000000	15.575198
1708.000000	15.621676
1709.000000	15.669515
1710.000000	15.696050
1711.000000	15.689009
1712.000000	15.730094
1713.000000	15.756452
1714.000000	15.813666
1715.000000	15.825900
1716.000000	15.884237
1717.000000	15.934950
1718.000000	15.952153
1719.000000	16.027047
1720.000000	16.099282
1721.000000	16.135842
1722.000000	16.196179
1723.000000	16.252430
1724.000000	16.291098
1725.000000	16.361047
1726.000000	16.424165
1727.000000	16.463690
1728.000000	16.563820
1729.000000	16.612429
1730.000000	16.653979
1731.000000	16.694667
1732.000000	16.758687
1733.000000	16.862019
1734.000000	16.952033
1735.000000	17.022943
1736.000000	17.078186
1737.000000	17.162799
1738.000000	17.239035
1739.000000	17.319733
1740.000000	17.367640
1741.000000	17.425407
1742.000000	17.461362
1743.000000	17.478475
1744.000000	17.513506
1745.000000	17.501975
1746.000000	17.535919
1747.000000	17.531852
1748.000000	17.546971
1749.000000	17.533959
1750.000000	17.550783
1751.000000	17.485616
1752.000000	17.438932
1753.000000	17.421739
1754.000000	17.375475
1755.000000	17.339306
1756.000000	17.299482
1757.000000	17.261911
1758.000000	17.210695
1759.000000	17.193357
1760.000000	17.145318
1761.000000	17.103547
1762.000000	17.104644
1763.000000	17.077359
1764.000000	17.018824
1765.000000	16.987668
1766.000000	16.964029
1767.000000	16.948013
1768.000000	16.918018
1769.000000	16.907125
1770.000000	16.881849
1771.000000	16.879412
1772.000000	16.841714
1773.000000	16.822494
1774.000000	16.796763
1775.000000	16.788427
1776.000000	16.771986
1777.000000	16.758022
1778.000000	16.764921
1779.000000	16.765737
1780.000000	16.784509
1781.000000	16.777955
1782.000000	16.780884
1783.000000	16.755673
1784.000000	16.745024
1785.000000	16.721129
1786.000000	16.742275
1787.000000	16.752836
1788.000000	16.722032
1789.000000	16.703097
1790.000000	16.668999
1791.000000	16.657738
1792.000000	16.629811
1793.000000	16.635315
1794.000000	16.612567
1795.000000	16.600991
1796.000000	16.573954
1797.000000	16.520720
1798.000000	16.479600
1799.000000	16.477407
1800.000000	16.448387
1801.000000	16.396910
1802.000000	16.354211
1803.000000	16.333757
1804.000000	16.286825
1805.000000	16.224921
1806.000000	16.144681
1807.000000	16.117055
1808.000000	16.104208
1809.000000	16.100429
1810.000000	16.056048
1811.000000	16.029216
1812.000000	16.037082
1813.000000	16.018366
1814.000000	15.967102
1815.000000	15.941112
1816.000000	15.913368
1817.000000	15.767254
1818.000000	15.622684
1819.000000	15.473805
1820.000000	15.397075
1821.000000	15.431421
1822.000000	15.455609
1823.000000	15.481405
1824.000000	15.489590
1825.000000	15.324006
1826.000000	15.214976
1827.000000	15.223504
1828.000000	15.215183
1829.000000	15.187280
1830.000000	15.069250
1831.000000	15.040551
1832.000000	15.073808
1833.000000	15.105508
1834.000000	15.115729
1835.000000	14.991577
1836.000000	14.947892
1837.000000	15.015168
1838.000000	15.107013
1839.000000	15.224056
1840.000000	15.385776
1841.000000	15.395307
1842.000000	15.370525
1843.000000	15.384115
1844.000000	15.444400
1845.000000	15.523720
1846.000000	15.435848
1847.000000	15.266787
1848.000000	15.257431
1849.000000	15.304066
1850.000000	15.362715
1851.000000	15.466004
1852.000000	15.623909
1853.000000	15.742273
1854.000000	15.894387
1855.000000	15.944355
1856.000000	15.982590
1857.000000	16.050424
1858.000000	16.092049
1859.000000	16.103453
1860.000000	16.319943
1861.000000	16.452772
1862.000000	16.425631
1863.000000	16.265098
1864.000000	16.243033
1865.000000	16.368794
1866.000000	16.403571
1867.000000	16.364810
1868.000000	16.360185
1869.000000	16.376821
1870.000000	16.413443
1871.000000	16.586447
1872.000000	16.406643
1873.000000	16.347212
1874.000000	16.301331
1875.000000	16.269848
1876.000000	16.230906
1877.000000	16.296322
1878.000000	16.351932
1879.000000	16.395364
1880.000000	16.387588
1881.000000	16.590306
1882.000000	16.875354
1883.000000	16.930476
1884.000000	17.045898
1885.000000	17.151219
1886.000000	17.204473
1887.000000	17.365844
1888.000000	17.608763
1889.000000	17.721828
1890.000000	18.003642
1891.000000	18.117814
1892.000000	18.279370
1893.000000	18.518004
1894.000000	18.816341
1895.000000	19.082123
1896.000000	19.387840
1897.000000	19.736949
1898.000000	20.222188
1899.000000	20.662494
1900.000000	21.082869
1901.000000	21.475747
1902.000000	21.610151
1903.000000	21.980709
1904.000000	22.380682
1905.000000	22.990035
1906.000000	23.382894
1907.000000	24.064257
1908.000000	24.569888
1909.000000	25.073767
1910.000000	25.569272
1911.000000	26.288255
1912.000000	26.852658
1913.000000	27.348542
1914.000000	27.874630
1915.000000	28.425785
1916.000000	29.007051
1917.000000	29.575565
1918.000000	30.223411
1919.000000	30.700178
1920.000000	31.205979
1921.000000	31.819689
1922.000000	32.347127
1923.000000	32.785542
1924.000000	33.393496
1925.000000	33.862956
1926.000000	34.346625
1927.000000	34.833048
1928.000000	35.260664
1929.000000	35.632079
1930.000000	36.053118
1931.000000	36.446843
1932.000000	36.835682
1933.000000	37.169013
1934.000000	37.528344
1935.000000	37.809028
1936.000000	38.152610
1937.000000	38.739874
1938.000000	39.050048
1939.000000	39.367446
1940.000000	39.568273
1941.000000	39.793594
1942.000000	39.961912
1943.000000	40.137117
1944.000000	40.286988
1945.000000	40.416570
1946.000000	40.460925
1947.000000	40.549173
1948.000000	40.670837
1949.000000	40.732601
1950.000000	40.821174
1951.000000	40.776876
1952.000000	40.709125
1953.000000	40.694931
1954.000000	40.742086
1955.000000	40.725575
1956.000000	40.621976
1957.000000	40.571667
1958.000000	40.555740
1959.000000	40.448996
1960.000000	40.377742
1961.000000	40.320213
1962.000000	40.180958
1963.000000	40.082809
1964.000000	39.994697
1965.000000	39.871982
1966.000000	39.748368
1967.000000	39.615360
1968.000000	39.541797
1969.000000	39.357884
1970.000000	39.236849
1971.000000	39.086796
1972.000000	38.979989
1973.000000	38.871820
1974.000000	38.690810
1975.000000	38.587121
1976.000000	38.419093
1977.000000	38.222056
1978.000000	38.077888
1979.000000	37.907068
1980.000000	37.721657
1981.000000	37.567139
1982.000000	37.410985
1983.000000	37.240790
1984.000000	37.080518
1985.000000	36.933462
1986.000000	36.796339
1987.000000	36.671684
1988.000000	36.508733
1989.000000	36.359433
1990.000000	36.235452
1991.000000	36.108857
1992.000000	35.950251
1993.000000	35.823809
1994.000000	35.698570
1995.000000	35.535285
1996.000000	35.403151
1997.000000	35.279020
1998.000000	35.130520
1999.000000	35.028624
2000.000000	34.884237
