PE UV       SUBTECH     SPECTRUM    ASCII       PEDS        4.00        
   -1
C.KALI.LA22-TX3.ASC
23/11/29
12:03:47.00
23/11/29
12:03:47.00
Vinicio Soto Monge
CHRYSINA KALININI LA AMISTAD 2022
250,000000
1
Lambda 1050
1050L1511233
PerkinElmer UV WinLab 6.3.2.0749 / 2.02.05 Lambda 900 UV/VIS/NIR, Aug  7 2015 09:38:08

0
0
3350/servo 860,8/2
0
0
UV/VIS
1
1
1
DoubleDePol,CommonBeamDepol,RBeamAtt,SBeamAtt,60mm sphere, WB InGaAs Detector
0
0
0
0
Program
Program
3350/servo 860,8/2
3350/0,4 860,8/0,4
3350/0,4 860,8/0,4
0
20.00
 
 
 
0
 
860,8
319,2
860,8
Front
100
on
S:100 R:100
0
0
0
0
 
0
 
 
 
0
 
 
0
0
0
0
0
 
 
 
 
0
0


0
0
#HDR
-1
-1
#GR
nm
%A
1.0
0.0
2200,000000
-1,000000
1951
8
69,631353
0,398215
#DATA
284.000000	94.428740
285.000000	94.438949
286.000000	94.446829
287.000000	94.452675
288.000000	94.459562
289.000000	94.464035
290.000000	94.466461
291.000000	94.468567
292.000000	94.470615
293.000000	94.471882
294.000000	94.475977
295.000000	94.476430
296.000000	94.475308
297.000000	94.473993
298.000000	94.475059
299.000000	94.475124
300.000000	94.472280
301.000000	94.468796
302.000000	94.467664
303.000000	94.467871
304.000000	94.464812
305.000000	94.463074
306.000000	94.459313
307.000000	94.455974
308.000000	94.453805
309.000000	94.450302
310.000000	94.449515
311.000000	94.448207
312.000000	94.445710
313.000000	94.443701
314.000000	94.443566
315.000000	94.442544
316.000000	94.443478
317.000000	94.449371
318.000000	94.447120
319.000000	94.448367
320.000000	94.450849
321.000000	94.453670
322.000000	94.455889
323.000000	94.457727
324.000000	94.461955
325.000000	94.462811
326.000000	94.464324
327.000000	94.465560
328.000000	94.466775
329.000000	94.468505
330.000000	94.474646
331.000000	94.478421
332.000000	94.483476
333.000000	94.487276
334.000000	94.492543
335.000000	94.494824
336.000000	94.496004
337.000000	94.497886
338.000000	94.497761
339.000000	94.497756
340.000000	94.500047
341.000000	94.501032
342.000000	94.499986
343.000000	94.498358
344.000000	94.497620
345.000000	94.496240
346.000000	94.493755
347.000000	94.492450
348.000000	94.490626
349.000000	94.486329
350.000000	94.481151
351.000000	94.472984
352.000000	94.459785
353.000000	94.455815
354.000000	94.446383
355.000000	94.435329
356.000000	94.422776
357.000000	94.412032
358.000000	94.400336
359.000000	94.386981
360.000000	94.376012
361.000000	94.364206
362.000000	94.352704
363.000000	94.340690
364.000000	94.324440
365.000000	94.305649
366.000000	94.289971
367.000000	94.269883
368.000000	94.249855
369.000000	94.227658
370.000000	94.210956
371.000000	94.193704
372.000000	94.173650
373.000000	94.154763
374.000000	94.139471
375.000000	94.120649
376.000000	94.103352
377.000000	94.085293
378.000000	94.066332
379.000000	94.045831
380.000000	94.024298
381.000000	94.003531
382.000000	93.980210
383.000000	93.956469
384.000000	93.932888
385.000000	93.910154
386.000000	93.887595
387.000000	93.864075
388.000000	93.839367
389.000000	93.814148
390.000000	93.789028
391.000000	93.764865
392.000000	93.738852
393.000000	93.713414
394.000000	93.687857
395.000000	93.661762
396.000000	93.635807
397.000000	93.608836
398.000000	93.581669
399.000000	93.555593
400.000000	93.528942
401.000000	93.500809
402.000000	93.473266
403.000000	93.445395
404.000000	93.416952
405.000000	93.386753
406.000000	93.356013
407.000000	93.325553
408.000000	93.292511
409.000000	93.255819
410.000000	93.217548
411.000000	93.177144
412.000000	93.136670
413.000000	93.093891
414.000000	93.048955
415.000000	93.001690
416.000000	92.951699
417.000000	92.899094
418.000000	92.842967
419.000000	92.782658
420.000000	92.718053
421.000000	92.648765
422.000000	92.574939
423.000000	92.496637
424.000000	92.412750
425.000000	92.322720
426.000000	92.226592
427.000000	92.123793
428.000000	92.013771
429.000000	91.895928
430.000000	91.769867
431.000000	91.635376
432.000000	91.491846
433.000000	91.339440
434.000000	91.177507
435.000000	91.005237
436.000000	90.822723
437.000000	90.629994
438.000000	90.426786
439.000000	90.212631
440.000000	89.987640
441.000000	89.751427
442.000000	89.504309
443.000000	89.246760
444.000000	88.978946
445.000000	88.700241
446.000000	88.411150
447.000000	88.112536
448.000000	87.804065
449.000000	87.486805
450.000000	87.161405
451.000000	86.827968
452.000000	86.486346
453.000000	86.137399
454.000000	85.782727
455.000000	85.422879
456.000000	85.057990
457.000000	84.688610
458.000000	84.315305
459.000000	83.939086
460.000000	83.561084
461.000000	83.182254
462.000000	82.803085
463.000000	82.423562
464.000000	82.044198
465.000000	81.666137
466.000000	81.290364
467.000000	80.917138
468.000000	80.547147
469.000000	80.181466
470.000000	79.820964
471.000000	79.465617
472.000000	79.115189
473.000000	78.770348
474.000000	78.431457
475.000000	78.098235
476.000000	77.771229
477.000000	77.450886
478.000000	77.137120
479.000000	76.830005
480.000000	76.531209
481.000000	76.240641
482.000000	75.957911
483.000000	75.681898
484.000000	75.411416
485.000000	75.146220
486.000000	74.886342
487.000000	74.631845
488.000000	74.382808
489.000000	74.137305
490.000000	73.895224
491.000000	73.656510
492.000000	73.420558
493.000000	73.187464
494.000000	72.955911
495.000000	72.725415
496.000000	72.495927
497.000000	72.266421
498.000000	72.036880
499.000000	71.807271
500.000000	71.576686
501.000000	71.343105
502.000000	71.107414
503.000000	70.868848
504.000000	70.625827
505.000000	70.378765
506.000000	70.126542
507.000000	69.869740
508.000000	69.606930
509.000000	69.338021
510.000000	69.062070
511.000000	68.779270
512.000000	68.487690
513.000000	68.187492
514.000000	67.877780
515.000000	67.557510
516.000000	67.226367
517.000000	66.883825
518.000000	66.530989
519.000000	66.166408
520.000000	65.789356
521.000000	65.398932
522.000000	64.994798
523.000000	64.575765
524.000000	64.141620
525.000000	63.691421
526.000000	63.225044
527.000000	62.741660
528.000000	62.239441
529.000000	61.718479
530.000000	61.177742
531.000000	60.616179
532.000000	60.035726
533.000000	59.438614
534.000000	58.825241
535.000000	58.196280
536.000000	57.554766
537.000000	56.901205
538.000000	56.236630
539.000000	55.562915
540.000000	54.882272
541.000000	54.196944
542.000000	53.508019
543.000000	52.817484
544.000000	52.125885
545.000000	51.434799
546.000000	50.744101
547.000000	50.055613
548.000000	49.370448
549.000000	48.691453
550.000000	48.019757
551.000000	47.354788
552.000000	46.699213
553.000000	46.050642
554.000000	45.410485
555.000000	44.781955
556.000000	44.164813
557.000000	43.560682
558.000000	42.971903
559.000000	42.399202
560.000000	41.843145
561.000000	41.307670
562.000000	40.794293
563.000000	40.303696
564.000000	39.836456
565.000000	39.394025
566.000000	38.976904
567.000000	38.584628
568.000000	38.216005
569.000000	37.871843
570.000000	37.552672
571.000000	37.257891
572.000000	36.985009
573.000000	36.733955
574.000000	36.503926
575.000000	36.291020
576.000000	36.094773
577.000000	35.914881
578.000000	35.750464
579.000000	35.602266
580.000000	35.469483
581.000000	35.352731
582.000000	35.254098
583.000000	35.173661
584.000000	35.107107
585.000000	35.054941
586.000000	35.017660
587.000000	34.994505
588.000000	34.988476
589.000000	34.999987
590.000000	35.028064
591.000000	35.072495
592.000000	35.132004
593.000000	35.207076
594.000000	35.297356
595.000000	35.403550
596.000000	35.523885
597.000000	35.657723
598.000000	35.804678
599.000000	35.965753
600.000000	36.142404
601.000000	36.333364
602.000000	36.539297
603.000000	36.758001
604.000000	36.988577
605.000000	37.231972
606.000000	37.486307
607.000000	37.752563
608.000000	38.030509
609.000000	38.320441
610.000000	38.622772
611.000000	38.935009
612.000000	39.253446
613.000000	39.577324
614.000000	39.904879
615.000000	40.233306
616.000000	40.561252
617.000000	40.884477
618.000000	41.201342
619.000000	41.512828
620.000000	41.815232
621.000000	42.109310
622.000000	42.394785
623.000000	42.670108
624.000000	42.934029
625.000000	43.184996
626.000000	43.425116
627.000000	43.654632
628.000000	43.871365
629.000000	44.076460
630.000000	44.267398
631.000000	44.440517
632.000000	44.597044
633.000000	44.737848
634.000000	44.859282
635.000000	44.958443
636.000000	45.035795
637.000000	45.087964
638.000000	45.115856
639.000000	45.120762
640.000000	45.100605
641.000000	45.055834
642.000000	44.987533
643.000000	44.896401
644.000000	44.782705
645.000000	44.649490
646.000000	44.497269
647.000000	44.329992
648.000000	44.152236
649.000000	43.963629
650.000000	43.767126
651.000000	43.565323
652.000000	43.360237
653.000000	43.151373
654.000000	42.941056
655.000000	42.730041
656.000000	42.518584
657.000000	42.305963
658.000000	42.091486
659.000000	41.876314
660.000000	41.658625
661.000000	41.437705
662.000000	41.213347
663.000000	40.984612
664.000000	40.751085
665.000000	40.513567
666.000000	40.274453
667.000000	40.031598
668.000000	39.784542
669.000000	39.534930
670.000000	39.282582
671.000000	39.030397
672.000000	38.779516
673.000000	38.530192
674.000000	38.281832
675.000000	38.035505
676.000000	37.790284
677.000000	37.543904
678.000000	37.298136
679.000000	37.050675
680.000000	36.799860
681.000000	36.548221
682.000000	36.292877
683.000000	36.029037
684.000000	35.757762
685.000000	35.479255
686.000000	35.192687
687.000000	34.896340
688.000000	34.592158
689.000000	34.278472
690.000000	33.956284
691.000000	33.624970
692.000000	33.284894
693.000000	32.939945
694.000000	32.588440
695.000000	32.231291
696.000000	31.870172
697.000000	31.505588
698.000000	31.138350
699.000000	30.768007
700.000000	30.396822
701.000000	30.024429
702.000000	29.652172
703.000000	29.281534
704.000000	28.911020
705.000000	28.541556
706.000000	28.171081
707.000000	27.803366
708.000000	27.438865
709.000000	27.073537
710.000000	26.707821
711.000000	26.341813
712.000000	25.977387
713.000000	25.612891
714.000000	25.250331
715.000000	24.891084
716.000000	24.533708
717.000000	24.178651
718.000000	23.827449
719.000000	23.479213
720.000000	23.135306
721.000000	22.798035
722.000000	22.465662
723.000000	22.135374
724.000000	21.810284
725.000000	21.490882
726.000000	21.177743
727.000000	20.870111
728.000000	20.566752
729.000000	20.270207
730.000000	19.980564
731.000000	19.695191
732.000000	19.413123
733.000000	19.138118
734.000000	18.869264
735.000000	18.604868
736.000000	18.345708
737.000000	18.092575
738.000000	17.845408
739.000000	17.604126
740.000000	17.369712
741.000000	17.141827
742.000000	16.917725
743.000000	16.697979
744.000000	16.487188
745.000000	16.284199
746.000000	16.090424
747.000000	15.903846
748.000000	15.722518
749.000000	15.547101
750.000000	15.375823
751.000000	15.207393
752.000000	15.044768
753.000000	14.883956
754.000000	14.729001
755.000000	14.582418
756.000000	14.437496
757.000000	14.297496
758.000000	14.164458
759.000000	14.036509
760.000000	13.913623
761.000000	13.793853
762.000000	13.679007
763.000000	13.569047
764.000000	13.461607
765.000000	13.358201
766.000000	13.259819
767.000000	13.166763
768.000000	13.079092
769.000000	12.995744
770.000000	12.916960
771.000000	12.841987
772.000000	12.770245
773.000000	12.701206
774.000000	12.634977
775.000000	12.571917
776.000000	12.517609
777.000000	12.467757
778.000000	12.419053
779.000000	12.373301
780.000000	12.333701
781.000000	12.294171
782.000000	12.259058
783.000000	12.229110
784.000000	12.204822
785.000000	12.183803
786.000000	12.167464
787.000000	12.153821
788.000000	12.150258
789.000000	12.153801
790.000000	12.152127
791.000000	12.154981
792.000000	12.164440
793.000000	12.177266
794.000000	12.190189
795.000000	12.208870
796.000000	12.230284
797.000000	12.253034
798.000000	12.276395
799.000000	12.304217
800.000000	12.332362
801.000000	12.367397
802.000000	12.403220
803.000000	12.443429
804.000000	12.487719
805.000000	12.530322
806.000000	12.576024
807.000000	12.621234
808.000000	12.666359
809.000000	12.720204
810.000000	12.777064
811.000000	12.832310
812.000000	12.898224
813.000000	12.969502
814.000000	13.038079
815.000000	13.107032
816.000000	13.184838
817.000000	13.259104
818.000000	13.336871
819.000000	13.420469
820.000000	13.499704
821.000000	13.583920
822.000000	13.663833
823.000000	13.750889
824.000000	13.840566
825.000000	13.935139
826.000000	14.033771
827.000000	14.123161
828.000000	14.216544
829.000000	14.314575
830.000000	14.414863
831.000000	14.516904
832.000000	14.616042
833.000000	14.716437
834.000000	14.819836
835.000000	14.927199
836.000000	15.030356
837.000000	15.132619
838.000000	15.228380
839.000000	15.323283
840.000000	15.419395
841.000000	15.518519
842.000000	15.620195
843.000000	15.718372
844.000000	15.803886
845.000000	15.892126
846.000000	15.976504
847.000000	16.049092
848.000000	16.116256
849.000000	16.180010
850.000000	16.251691
851.000000	16.297547
852.000000	16.361757
853.000000	16.405305
854.000000	16.464400
855.000000	16.508548
856.000000	16.541838
857.000000	16.609848
858.000000	16.548914
859.000000	16.542603
860.000000	16.548604
861.000000	16.525470
862.000000	16.523153
863.000000	16.488012
864.000000	16.439060
865.000000	16.418186
866.000000	16.395728
867.000000	16.400246
868.000000	16.357000
869.000000	16.289719
870.000000	16.215920
871.000000	16.170475
872.000000	16.104689
873.000000	16.052001
874.000000	15.987143
875.000000	15.920428
876.000000	15.841710
877.000000	15.767299
878.000000	15.686095
879.000000	15.608386
880.000000	15.542470
881.000000	15.473878
882.000000	15.404882
883.000000	15.344069
884.000000	15.300600
885.000000	15.238370
886.000000	15.180189
887.000000	15.105250
888.000000	15.020868
889.000000	14.929172
890.000000	14.864518
891.000000	14.803345
892.000000	14.741482
893.000000	14.730398
894.000000	14.644275
895.000000	14.585424
896.000000	14.543839
897.000000	14.493259
898.000000	14.457746
899.000000	14.442895
900.000000	14.398102
901.000000	14.334340
902.000000	14.269912
903.000000	14.251484
904.000000	14.203265
905.000000	14.164275
906.000000	14.132287
907.000000	14.110371
908.000000	14.043779
909.000000	14.007520
910.000000	13.963174
911.000000	13.944385
912.000000	13.931021
913.000000	13.910511
914.000000	13.884155
915.000000	13.858485
916.000000	13.834646
917.000000	13.781689
918.000000	13.731742
919.000000	13.666172
920.000000	13.617872
921.000000	13.576589
922.000000	13.558197
923.000000	13.553456
924.000000	13.519865
925.000000	13.468677
926.000000	13.424486
927.000000	13.348236
928.000000	13.349634
929.000000	13.347528
930.000000	13.311760
931.000000	13.287458
932.000000	13.247118
933.000000	13.188461
934.000000	13.136343
935.000000	13.087229
936.000000	13.011872
937.000000	12.952405
938.000000	12.918039
939.000000	12.923922
940.000000	12.889143
941.000000	12.795084
942.000000	12.713636
943.000000	12.693030
944.000000	12.661955
945.000000	12.627570
946.000000	12.559302
947.000000	12.475399
948.000000	12.423389
949.000000	12.355575
950.000000	12.277588
951.000000	12.213233
952.000000	12.165573
953.000000	12.108563
954.000000	12.056028
955.000000	11.975908
956.000000	11.893548
957.000000	11.802104
958.000000	11.722428
959.000000	11.659787
960.000000	11.643418
961.000000	11.618848
962.000000	11.578239
963.000000	11.504729
964.000000	11.428743
965.000000	11.348711
966.000000	11.300572
967.000000	11.295700
968.000000	11.276987
969.000000	11.206195
970.000000	11.117995
971.000000	11.117513
972.000000	11.057878
973.000000	10.970569
974.000000	10.912045
975.000000	10.885710
976.000000	10.881971
977.000000	10.866540
978.000000	10.804321
979.000000	10.762591
980.000000	10.775033
981.000000	10.772935
982.000000	10.750201
983.000000	10.711131
984.000000	10.681281
985.000000	10.648070
986.000000	10.600661
987.000000	10.562549
988.000000	10.523627
989.000000	10.470111
990.000000	10.449361
991.000000	10.458709
992.000000	10.431008
993.000000	10.393637
994.000000	10.366271
995.000000	10.288739
996.000000	10.220099
997.000000	10.180373
998.000000	10.126383
999.000000	10.074813
1000.000000	10.044200
1001.000000	10.004143
1002.000000	9.938881
1003.000000	9.891737
1004.000000	9.880122
1005.000000	9.903415
1006.000000	9.875090
1007.000000	9.848687
1008.000000	9.810242
1009.000000	9.757431
1010.000000	9.721294
1011.000000	9.670432
1012.000000	9.623897
1013.000000	9.585884
1014.000000	9.499918
1015.000000	9.357934
1016.000000	9.257157
1017.000000	9.199414
1018.000000	9.129631
1019.000000	9.072460
1020.000000	9.044226
1021.000000	9.011089
1022.000000	8.974961
1023.000000	8.922897
1024.000000	8.879180
1025.000000	8.849707
1026.000000	8.803429
1027.000000	8.760743
1028.000000	8.723140
1029.000000	8.681867
1030.000000	8.623619
1031.000000	8.550460
1032.000000	8.506985
1033.000000	8.508418
1034.000000	8.511742
1035.000000	8.451957
1036.000000	8.354116
1037.000000	8.314034
1038.000000	8.278584
1039.000000	8.222314
1040.000000	8.156784
1041.000000	8.072029
1042.000000	7.995466
1043.000000	7.948546
1044.000000	7.911062
1045.000000	7.855505
1046.000000	7.796811
1047.000000	7.745446
1048.000000	7.689928
1049.000000	7.696168
1050.000000	7.716049
1051.000000	7.696203
1052.000000	7.683049
1053.000000	7.685258
1054.000000	7.675749
1055.000000	7.609738
1056.000000	7.587301
1057.000000	7.582819
1058.000000	7.582792
1059.000000	7.573762
1060.000000	7.513412
1061.000000	7.438789
1062.000000	7.411043
1063.000000	7.356730
1064.000000	7.290977
1065.000000	7.246609
1066.000000	7.235848
1067.000000	7.185856
1068.000000	7.122648
1069.000000	7.094184
1070.000000	7.098221
1071.000000	7.112921
1072.000000	7.015211
1073.000000	6.982674
1074.000000	6.972669
1075.000000	6.974023
1076.000000	6.983400
1077.000000	6.978718
1078.000000	6.994553
1079.000000	6.974847
1080.000000	6.938440
1081.000000	6.938073
1082.000000	6.952408
1083.000000	6.900307
1084.000000	6.846465
1085.000000	6.827529
1086.000000	6.802606
1087.000000	6.743845
1088.000000	6.678354
1089.000000	6.627622
1090.000000	6.606203
1091.000000	6.519651
1092.000000	6.451874
1093.000000	6.406321
1094.000000	6.360980
1095.000000	6.327150
1096.000000	6.320601
1097.000000	6.291916
1098.000000	6.266768
1099.000000	6.239464
1100.000000	6.227155
1101.000000	6.192072
1102.000000	6.156437
1103.000000	6.132894
1104.000000	6.097029
1105.000000	6.068284
1106.000000	6.044549
1107.000000	6.044980
1108.000000	5.956651
1109.000000	5.882957
1110.000000	5.782489
1111.000000	5.743366
1112.000000	5.693711
1113.000000	5.579372
1114.000000	5.552390
1115.000000	5.532755
1116.000000	5.494128
1117.000000	5.406675
1118.000000	5.405429
1119.000000	5.386212
1120.000000	5.328101
1121.000000	5.322744
1122.000000	5.319922
1123.000000	5.291638
1124.000000	5.263500
1125.000000	5.224836
1126.000000	5.252677
1127.000000	5.195191
1128.000000	5.137447
1129.000000	5.132519
1130.000000	5.126795
1131.000000	5.093329
1132.000000	5.062711
1133.000000	5.048905
1134.000000	5.064998
1135.000000	5.071564
1136.000000	5.054534
1137.000000	5.038352
1138.000000	4.975832
1139.000000	4.960312
1140.000000	4.942726
1141.000000	4.936423
1142.000000	4.914558
1143.000000	4.942842
1144.000000	4.930002
1145.000000	4.964766
1146.000000	4.970824
1147.000000	4.937545
1148.000000	4.979694
1149.000000	4.959354
1150.000000	4.997224
1151.000000	4.969168
1152.000000	4.967108
1153.000000	4.969709
1154.000000	4.943211
1155.000000	4.911493
1156.000000	4.893450
1157.000000	4.844138
1158.000000	4.878262
1159.000000	4.904567
1160.000000	4.913119
1161.000000	4.920894
1162.000000	4.965649
1163.000000	4.995768
1164.000000	4.984659
1165.000000	4.972601
1166.000000	4.997506
1167.000000	4.960588
1168.000000	4.939001
1169.000000	4.933148
1170.000000	4.958806
1171.000000	5.001590
1172.000000	5.018438
1173.000000	5.066587
1174.000000	5.072001
1175.000000	5.088111
1176.000000	5.084826
1177.000000	5.117716
1178.000000	5.149815
1179.000000	5.140574
1180.000000	5.108226
1181.000000	5.058008
1182.000000	5.119905
1183.000000	5.128565
1184.000000	5.154387
1185.000000	5.143323
1186.000000	5.186698
1187.000000	5.227608
1188.000000	5.238348
1189.000000	5.229978
1190.000000	5.252215
1191.000000	5.227487
1192.000000	5.249945
1193.000000	5.210459
1194.000000	5.206129
1195.000000	5.224520
1196.000000	5.192765
1197.000000	5.203495
1198.000000	5.198660
1199.000000	5.177541
1200.000000	5.180339
1201.000000	5.162408
1202.000000	5.168062
1203.000000	5.214587
1204.000000	5.227379
1205.000000	5.170997
1206.000000	5.104167
1207.000000	5.092032
1208.000000	5.126500
1209.000000	5.119263
1210.000000	5.078287
1211.000000	5.023032
1212.000000	4.955974
1213.000000	4.901245
1214.000000	4.917702
1215.000000	4.906572
1216.000000	4.908181
1217.000000	4.853637
1218.000000	4.829587
1219.000000	4.790326
1220.000000	4.756603
1221.000000	4.707353
1222.000000	4.673817
1223.000000	4.634532
1224.000000	4.617464
1225.000000	4.623798
1226.000000	4.636717
1227.000000	4.613703
1228.000000	4.612150
1229.000000	4.592883
1230.000000	4.553421
1231.000000	4.515661
1232.000000	4.472824
1233.000000	4.435959
1234.000000	4.399123
1235.000000	4.345334
1236.000000	4.325617
1237.000000	4.345544
1238.000000	4.316447
1239.000000	4.273615
1240.000000	4.267873
1241.000000	4.255522
1242.000000	4.201193
1243.000000	4.165120
1244.000000	4.149589
1245.000000	4.144484
1246.000000	4.144556
1247.000000	4.166893
1248.000000	4.157881
1249.000000	4.138615
1250.000000	4.114951
1251.000000	4.095133
1252.000000	4.130459
1253.000000	4.132485
1254.000000	4.086716
1255.000000	4.019145
1256.000000	3.982507
1257.000000	3.956926
1258.000000	3.966567
1259.000000	3.979336
1260.000000	3.921878
1261.000000	3.850484
1262.000000	3.837471
1263.000000	3.838064
1264.000000	3.835224
1265.000000	3.849301
1266.000000	3.842346
1267.000000	3.817237
1268.000000	3.825107
1269.000000	3.845979
1270.000000	3.869166
1271.000000	3.843601
1272.000000	3.821070
1273.000000	3.769318
1274.000000	3.717875
1275.000000	3.710904
1276.000000	3.721651
1277.000000	3.709018
1278.000000	3.638186
1279.000000	3.620005
1280.000000	3.609327
1281.000000	3.593717
1282.000000	3.574164
1283.000000	3.577157
1284.000000	3.611561
1285.000000	3.656184
1286.000000	3.654741
1287.000000	3.605678
1288.000000	3.555977
1289.000000	3.550184
1290.000000	3.551304
1291.000000	3.578907
1292.000000	3.589211
1293.000000	3.557569
1294.000000	3.528486
1295.000000	3.532581
1296.000000	3.572454
1297.000000	3.602551
1298.000000	3.598533
1299.000000	3.578459
1300.000000	3.562295
1301.000000	3.581176
1302.000000	3.592623
1303.000000	3.576009
1304.000000	3.585210
1305.000000	3.585330
1306.000000	3.587325
1307.000000	3.579532
1308.000000	3.589709
1309.000000	3.611149
1310.000000	3.585423
1311.000000	3.546719
1312.000000	3.560236
1313.000000	3.589123
1314.000000	3.565221
1315.000000	3.550915
1316.000000	3.568046
1317.000000	3.580237
1318.000000	3.578804
1319.000000	3.534936
1320.000000	3.507471
1321.000000	3.482609
1322.000000	3.482824
1323.000000	3.517885
1324.000000	3.538849
1325.000000	3.549539
1326.000000	3.515105
1327.000000	3.486758
1328.000000	3.530198
1329.000000	3.534607
1330.000000	3.536709
1331.000000	3.564951
1332.000000	3.549868
1333.000000	3.526854
1334.000000	3.488061
1335.000000	3.500677
1336.000000	3.512775
1337.000000	3.527655
1338.000000	3.580903
1339.000000	3.598379
1340.000000	3.630935
1341.000000	3.676601
1342.000000	3.704389
1343.000000	3.722689
1344.000000	3.761640
1345.000000	3.806627
1346.000000	3.863314
1347.000000	3.873096
1348.000000	3.869961
1349.000000	3.960669
1350.000000	4.018353
1351.000000	4.042863
1352.000000	4.076286
1353.000000	4.117518
1354.000000	4.127259
1355.000000	4.121637
1356.000000	4.131090
1357.000000	4.130564
1358.000000	4.085434
1359.000000	4.082517
1360.000000	4.082478
1361.000000	4.077708
1362.000000	4.230700
1363.000000	4.284571
1364.000000	4.263207
1365.000000	4.297426
1366.000000	4.290131
1367.000000	4.207958
1368.000000	4.161961
1369.000000	4.225657
1370.000000	4.229499
1371.000000	4.284960
1372.000000	4.374717
1373.000000	4.408200
1374.000000	4.384571
1375.000000	4.389098
1376.000000	4.423430
1377.000000	4.449455
1378.000000	4.418808
1379.000000	4.505365
1380.000000	4.326000
1381.000000	4.387554
1382.000000	4.197450
1383.000000	4.248540
1384.000000	4.164452
1385.000000	4.169687
1386.000000	4.202665
1387.000000	4.125194
1388.000000	4.214592
1389.000000	4.303640
1390.000000	4.338204
1391.000000	4.285005
1392.000000	4.255711
1393.000000	4.348357
1394.000000	4.483339
1395.000000	4.512005
1396.000000	4.468506
1397.000000	4.371067
1398.000000	4.328977
1399.000000	4.420952
1400.000000	4.434110
1401.000000	4.464153
1402.000000	4.657882
1403.000000	4.795425
1404.000000	4.826833
1405.000000	5.019650
1406.000000	5.103807
1407.000000	5.168491
1408.000000	5.239406
1409.000000	5.367226
1410.000000	5.489863
1411.000000	5.605265
1412.000000	5.745844
1413.000000	5.925646
1414.000000	5.963443
1415.000000	6.287793
1416.000000	6.384172
1417.000000	6.784111
1418.000000	6.903526
1419.000000	7.091331
1420.000000	7.196416
1421.000000	7.319707
1422.000000	7.529493
1423.000000	7.592973
1424.000000	7.754760
1425.000000	7.930278
1426.000000	8.215803
1427.000000	8.464010
1428.000000	8.633506
1429.000000	8.703051
1430.000000	8.916567
1431.000000	9.208555
1432.000000	9.379849
1433.000000	9.555014
1434.000000	9.678968
1435.000000	9.866104
1436.000000	10.078550
1437.000000	10.189957
1438.000000	10.312586
1439.000000	10.458218
1440.000000	10.489440
1441.000000	10.586378
1442.000000	10.669182
1443.000000	10.803565
1444.000000	10.919340
1445.000000	10.978835
1446.000000	11.055317
1447.000000	11.121016
1448.000000	11.241377
1449.000000	11.329607
1450.000000	11.391900
1451.000000	11.466771
1452.000000	11.464095
1453.000000	11.564535
1454.000000	11.652122
1455.000000	11.749534
1456.000000	11.793706
1457.000000	11.859040
1458.000000	11.922957
1459.000000	11.932281
1460.000000	11.932327
1461.000000	11.976869
1462.000000	12.042841
1463.000000	12.080144
1464.000000	12.166919
1465.000000	12.186764
1466.000000	12.214365
1467.000000	12.303606
1468.000000	12.379786
1469.000000	12.478179
1470.000000	12.564866
1471.000000	12.575380
1472.000000	12.605384
1473.000000	12.749729
1474.000000	12.863034
1475.000000	12.912998
1476.000000	12.926468
1477.000000	12.966859
1478.000000	12.995993
1479.000000	13.052327
1480.000000	13.120109
1481.000000	13.153943
1482.000000	13.183994
1483.000000	13.202803
1484.000000	13.275358
1485.000000	13.352733
1486.000000	13.386805
1487.000000	13.493751
1488.000000	13.538495
1489.000000	13.554067
1490.000000	13.566770
1491.000000	13.614679
1492.000000	13.643122
1493.000000	13.694562
1494.000000	13.729917
1495.000000	13.818656
1496.000000	13.848131
1497.000000	13.867900
1498.000000	13.885962
1499.000000	13.883878
1500.000000	13.941224
1501.000000	13.999225
1502.000000	13.987001
1503.000000	13.979163
1504.000000	13.984954
1505.000000	13.958412
1506.000000	13.988597
1507.000000	14.032540
1508.000000	13.961724
1509.000000	13.932773
1510.000000	13.915131
1511.000000	13.874506
1512.000000	13.802914
1513.000000	13.767039
1514.000000	13.730369
1515.000000	13.709518
1516.000000	13.665930
1517.000000	13.613562
1518.000000	13.582775
1519.000000	13.532264
1520.000000	13.492005
1521.000000	13.485517
1522.000000	13.445110
1523.000000	13.398322
1524.000000	13.376598
1525.000000	13.371197
1526.000000	13.362728
1527.000000	13.375685
1528.000000	13.341788
1529.000000	13.318663
1530.000000	13.266105
1531.000000	13.225913
1532.000000	13.219745
1533.000000	13.217895
1534.000000	13.195708
1535.000000	13.141976
1536.000000	13.091110
1537.000000	13.053743
1538.000000	13.006418
1539.000000	12.965611
1540.000000	12.940947
1541.000000	12.875654
1542.000000	12.816017
1543.000000	12.794248
1544.000000	12.755840
1545.000000	12.733048
1546.000000	12.735550
1547.000000	12.762769
1548.000000	12.754791
1549.000000	12.714376
1550.000000	12.668324
1551.000000	12.640688
1552.000000	12.645981
1553.000000	12.626171
1554.000000	12.592119
1555.000000	12.549339
1556.000000	12.488738
1557.000000	12.431915
1558.000000	12.411396
1559.000000	12.395713
1560.000000	12.363399
1561.000000	12.302952
1562.000000	12.229873
1563.000000	12.141199
1564.000000	12.069795
1565.000000	12.039027
1566.000000	12.035367
1567.000000	11.975482
1568.000000	11.921173
1569.000000	11.889493
1570.000000	11.875211
1571.000000	11.864614
1572.000000	11.833213
1573.000000	11.816326
1574.000000	11.805385
1575.000000	11.766812
1576.000000	11.758474
1577.000000	11.718247
1578.000000	11.679676
1579.000000	11.662937
1580.000000	11.642348
1581.000000	11.637129
1582.000000	11.646550
1583.000000	11.637067
1584.000000	11.639004
1585.000000	11.653649
1586.000000	11.665306
1587.000000	11.648076
1588.000000	11.626923
1589.000000	11.634883
1590.000000	11.620417
1591.000000	11.614751
1592.000000	11.591921
1593.000000	11.586526
1594.000000	11.563280
1595.000000	11.554097
1596.000000	11.562381
1597.000000	11.580744
1598.000000	11.606603
1599.000000	11.634640
1600.000000	11.615605
1601.000000	11.578846
1602.000000	11.577224
1603.000000	11.542906
1604.000000	11.541999
1605.000000	11.529640
1606.000000	11.516502
1607.000000	11.506266
1608.000000	11.482311
1609.000000	11.460922
1610.000000	11.454219
1611.000000	11.424493
1612.000000	11.424789
1613.000000	11.405455
1614.000000	11.357423
1615.000000	11.330364
1616.000000	11.342665
1617.000000	11.276448
1618.000000	11.199886
1619.000000	11.154100
1620.000000	11.096462
1621.000000	11.039051
1622.000000	11.027180
1623.000000	11.036414
1624.000000	11.043783
1625.000000	11.033733
1626.000000	11.031129
1627.000000	11.064398
1628.000000	11.041119
1629.000000	11.034510
1630.000000	11.012072
1631.000000	11.026862
1632.000000	10.995026
1633.000000	11.008610
1634.000000	10.959415
1635.000000	10.941811
1636.000000	10.907600
1637.000000	10.895518
1638.000000	10.885461
1639.000000	10.830195
1640.000000	10.778401
1641.000000	10.777785
1642.000000	10.763938
1643.000000	10.792537
1644.000000	10.745745
1645.000000	10.714916
1646.000000	10.720513
1647.000000	10.690839
1648.000000	10.701788
1649.000000	10.733387
1650.000000	10.749062
1651.000000	10.643939
1652.000000	10.608846
1653.000000	10.630407
1654.000000	10.644416
1655.000000	10.667984
1656.000000	10.690388
1657.000000	10.674489
1658.000000	10.634434
1659.000000	10.598810
1660.000000	10.567266
1661.000000	10.546288
1662.000000	10.519688
1663.000000	10.516703
1664.000000	10.446672
1665.000000	10.453748
1666.000000	10.437159
1667.000000	10.457628
1668.000000	10.414389
1669.000000	10.467624
1670.000000	10.530214
1671.000000	10.589001
1672.000000	10.610995
1673.000000	10.653972
1674.000000	10.733553
1675.000000	10.814253
1676.000000	10.793340
1677.000000	10.845622
1678.000000	10.881259
1679.000000	10.957481
1680.000000	11.005674
1681.000000	11.054405
1682.000000	11.114353
1683.000000	11.174943
1684.000000	11.194919
1685.000000	11.204404
1686.000000	11.272262
1687.000000	11.382610
1688.000000	11.406342
1689.000000	11.455189
1690.000000	11.485057
1691.000000	11.547125
1692.000000	11.643635
1693.000000	11.713880
1694.000000	11.755148
1695.000000	11.855582
1696.000000	11.917832
1697.000000	12.012357
1698.000000	12.065439
1699.000000	12.143202
1700.000000	12.183030
1701.000000	12.207490
1702.000000	12.233360
1703.000000	12.303079
1704.000000	12.312275
1705.000000	12.289057
1706.000000	12.329933
1707.000000	12.349046
1708.000000	12.357030
1709.000000	12.325027
1710.000000	12.334384
1711.000000	12.395227
1712.000000	12.403444
1713.000000	12.415481
1714.000000	12.426581
1715.000000	12.437889
1716.000000	12.475810
1717.000000	12.541621
1718.000000	12.537967
1719.000000	12.580003
1720.000000	12.623204
1721.000000	12.749954
1722.000000	12.782615
1723.000000	12.846362
1724.000000	12.880076
1725.000000	12.915047
1726.000000	12.933921
1727.000000	12.930464
1728.000000	12.950208
1729.000000	13.018227
1730.000000	13.032063
1731.000000	13.084238
1732.000000	13.079491
1733.000000	13.066281
1734.000000	13.112052
1735.000000	13.163214
1736.000000	13.203955
1737.000000	13.275672
1738.000000	13.341204
1739.000000	13.386268
1740.000000	13.434007
1741.000000	13.451416
1742.000000	13.490780
1743.000000	13.531156
1744.000000	13.572760
1745.000000	13.556503
1746.000000	13.535047
1747.000000	13.547300
1748.000000	13.554419
1749.000000	13.559359
1750.000000	13.595521
1751.000000	13.589724
1752.000000	13.526311
1753.000000	13.498746
1754.000000	13.486358
1755.000000	13.492982
1756.000000	13.431324
1757.000000	13.424307
1758.000000	13.406347
1759.000000	13.381015
1760.000000	13.381435
1761.000000	13.351568
1762.000000	13.300135
1763.000000	13.277346
1764.000000	13.233543
1765.000000	13.215542
1766.000000	13.184819
1767.000000	13.177232
1768.000000	13.195081
1769.000000	13.202570
1770.000000	13.188945
1771.000000	13.194873
1772.000000	13.156599
1773.000000	13.115793
1774.000000	13.123248
1775.000000	13.136712
1776.000000	13.132768
1777.000000	13.111415
1778.000000	13.083812
1779.000000	13.077999
1780.000000	13.113561
1781.000000	13.134030
1782.000000	13.120808
1783.000000	13.110272
1784.000000	13.134893
1785.000000	13.123494
1786.000000	13.089451
1787.000000	13.096011
1788.000000	13.107388
1789.000000	13.096822
1790.000000	13.068530
1791.000000	13.032467
1792.000000	12.979266
1793.000000	12.980386
1794.000000	13.024265
1795.000000	13.040220
1796.000000	13.031168
1797.000000	13.017403
1798.000000	12.997546
1799.000000	12.973848
1800.000000	12.955422
1801.000000	12.942356
1802.000000	12.933031
1803.000000	12.940746
1804.000000	12.930031
1805.000000	12.897334
1806.000000	12.853314
1807.000000	12.836536
1808.000000	12.811912
1809.000000	12.786349
1810.000000	12.755210
1811.000000	12.737299
1812.000000	12.757710
1813.000000	12.783743
1814.000000	12.818827
1815.000000	12.830427
1816.000000	12.815742
1817.000000	12.781009
1818.000000	12.764146
1819.000000	12.693340
1820.000000	12.694565
1821.000000	12.723962
1822.000000	12.743904
1823.000000	12.755881
1824.000000	12.758537
1825.000000	12.651086
1826.000000	12.622826
1827.000000	12.661297
1828.000000	12.655924
1829.000000	12.609954
1830.000000	12.526242
1831.000000	12.483624
1832.000000	12.497257
1833.000000	12.547600
1834.000000	12.567668
1835.000000	12.532597
1836.000000	12.536433
1837.000000	12.578944
1838.000000	12.611751
1839.000000	12.618298
1840.000000	12.674799
1841.000000	12.696490
1842.000000	12.713711
1843.000000	12.737868
1844.000000	12.754731
1845.000000	12.803642
1846.000000	12.769917
1847.000000	12.592734
1848.000000	12.545291
1849.000000	12.448687
1850.000000	12.364963
1851.000000	12.372565
1852.000000	12.420555
1853.000000	12.417339
1854.000000	12.451068
1855.000000	12.466970
1856.000000	12.553175
1857.000000	12.679519
1858.000000	12.719139
1859.000000	12.664289
1860.000000	12.748712
1861.000000	12.801574
1862.000000	12.789712
1863.000000	12.744084
1864.000000	12.765813
1865.000000	12.858963
1866.000000	12.978930
1867.000000	12.984630
1868.000000	12.973035
1869.000000	12.997613
1870.000000	12.939242
1871.000000	12.966671
1872.000000	12.855390
1873.000000	12.853119
1874.000000	12.896681
1875.000000	12.939559
1876.000000	12.940871
1877.000000	13.001563
1878.000000	13.040833
1879.000000	13.081729
1880.000000	13.073417
1881.000000	13.173165
1882.000000	13.402022
1883.000000	13.501392
1884.000000	13.682473
1885.000000	13.864704
1886.000000	13.957869
1887.000000	14.096993
1888.000000	14.254998
1889.000000	14.389558
1890.000000	14.549598
1891.000000	14.615678
1892.000000	14.689190
1893.000000	14.840905
1894.000000	15.046830
1895.000000	15.265865
1896.000000	15.500603
1897.000000	15.723343
1898.000000	16.039282
1899.000000	16.277239
1900.000000	16.572478
1901.000000	16.792393
1902.000000	16.975319
1903.000000	17.347229
1904.000000	17.694174
1905.000000	18.174939
1906.000000	18.514450
1907.000000	19.008923
1908.000000	19.362993
1909.000000	19.685762
1910.000000	20.005589
1911.000000	20.457571
1912.000000	20.830922
1913.000000	21.212507
1914.000000	21.638559
1915.000000	22.078354
1916.000000	22.498198
1917.000000	22.925896
1918.000000	23.415773
1919.000000	23.802189
1920.000000	24.165892
1921.000000	24.653060
1922.000000	25.035167
1923.000000	25.422813
1924.000000	25.878201
1925.000000	26.214927
1926.000000	26.545710
1927.000000	26.928223
1928.000000	27.273677
1929.000000	27.710210
1930.000000	28.087492
1931.000000	28.430892
1932.000000	28.759429
1933.000000	29.036566
1934.000000	29.401943
1935.000000	29.636244
1936.000000	29.910462
1937.000000	30.323750
1938.000000	30.508506
1939.000000	30.705489
1940.000000	30.913276
1941.000000	31.098853
1942.000000	31.264023
1943.000000	31.437350
1944.000000	31.598573
1945.000000	31.728823
1946.000000	31.803746
1947.000000	31.890417
1948.000000	32.016017
1949.000000	32.097010
1950.000000	32.175840
1951.000000	32.188929
1952.000000	32.195078
1953.000000	32.170240
1954.000000	32.196247
1955.000000	32.183993
1956.000000	32.107528
1957.000000	32.079332
1958.000000	32.020247
1959.000000	31.969951
1960.000000	31.975882
1961.000000	31.986570
1962.000000	31.877069
1963.000000	31.839515
1964.000000	31.729730
1965.000000	31.630593
1966.000000	31.520238
1967.000000	31.387919
1968.000000	31.279142
1969.000000	31.136083
1970.000000	31.059404
1971.000000	30.972952
1972.000000	30.855869
1973.000000	30.741784
1974.000000	30.615933
1975.000000	30.475911
1976.000000	30.365979
1977.000000	30.210090
1978.000000	30.080415
1979.000000	29.994441
1980.000000	29.902468
1981.000000	29.809990
1982.000000	29.738319
1983.000000	29.623033
1984.000000	29.473500
1985.000000	29.337948
1986.000000	29.225399
1987.000000	29.130328
1988.000000	29.002324
1989.000000	28.895195
1990.000000	28.830284
1991.000000	28.743494
1992.000000	28.665656
1993.000000	28.599593
1994.000000	28.454128
1995.000000	28.299645
1996.000000	28.131072
1997.000000	28.000055
1998.000000	27.845147
1999.000000	27.744483
2000.000000	27.613034
