PE UV       SUBTECH     SPECTRUM    ASCII       PEDS        4.00        
   -1
S.SIGN.PREG-TX3.ASC
23/11/30
12:52:28.00
23/11/30
12:52:28.00
Vinicio Soto Monge
STRIGIDIA 2
250,000000
1
Lambda 1050
1050L1511233
PerkinElmer UV WinLab 6.3.2.0749 / 2.02.05 Lambda 900 UV/VIS/NIR, Aug  7 2015 09:38:08

0
0
3350/servo 860,8/2
0
0
UV/VIS
1
1
1
DoubleDePol,CommonBeamDepol,RBeamAtt,SBeamAtt,60mm sphere, WB InGaAs Detector
0
0
0
0
Program
Program
3350/servo 860,8/2
3350/0,4 860,8/0,4
3350/0,4 860,8/0,4
0
20.00
 
 
 
0
 
860,8
319,2
860,8
Front
100
on
S:100 R:100
0
0
0
0
 
0
 
 
 
0
 
 
0
0
0
0
0
 
 
 
 
0
0


0
0
#HDR
-1
-1
#GR
nm
%A
1.0
0.0
2200,000000
-1,000000
1951
8
76,413974
0,594114
#DATA
284.000000	92.422721
285.000000	92.430802
286.000000	92.439270
287.000000	92.445363
288.000000	92.449975
289.000000	92.454605
290.000000	92.458260
291.000000	92.461810
292.000000	92.464863
293.000000	92.467851
294.000000	92.468749
295.000000	92.469702
296.000000	92.468808
297.000000	92.468008
298.000000	92.464022
299.000000	92.459679
300.000000	92.455483
301.000000	92.449921
302.000000	92.443080
303.000000	92.434674
304.000000	92.427077
305.000000	92.420333
306.000000	92.411835
307.000000	92.404282
308.000000	92.396528
309.000000	92.389948
310.000000	92.379756
311.000000	92.370533
312.000000	92.363463
313.000000	92.356114
314.000000	92.347716
315.000000	92.340117
316.000000	92.331848
317.000000	92.321422
318.000000	92.310517
319.000000	92.302723
320.000000	92.291159
321.000000	92.280058
322.000000	92.270037
323.000000	92.262506
324.000000	92.253025
325.000000	92.247039
326.000000	92.239728
327.000000	92.233443
328.000000	92.227388
329.000000	92.224845
330.000000	92.219529
331.000000	92.217980
332.000000	92.217819
333.000000	92.216265
334.000000	92.216835
335.000000	92.217979
336.000000	92.219476
337.000000	92.218893
338.000000	92.217530
339.000000	92.219300
340.000000	92.220191
341.000000	92.222484
342.000000	92.221680
343.000000	92.222123
344.000000	92.220032
345.000000	92.221873
346.000000	92.222084
347.000000	92.220523
348.000000	92.220755
349.000000	92.221459
350.000000	92.221177
351.000000	92.220695
352.000000	92.224701
353.000000	92.229453
354.000000	92.230579
355.000000	92.235712
356.000000	92.239524
357.000000	92.244181
358.000000	92.244962
359.000000	92.245352
360.000000	92.244557
361.000000	92.246325
362.000000	92.247773
363.000000	92.247649
364.000000	92.245914
365.000000	92.246941
366.000000	92.245141
367.000000	92.243037
368.000000	92.243711
369.000000	92.244349
370.000000	92.245133
371.000000	92.245765
372.000000	92.247924
373.000000	92.251320
374.000000	92.251274
375.000000	92.253311
376.000000	92.255961
377.000000	92.259854
378.000000	92.263025
379.000000	92.266865
380.000000	92.269335
381.000000	92.272633
382.000000	92.275978
383.000000	92.279351
384.000000	92.283463
385.000000	92.287988
386.000000	92.292543
387.000000	92.295317
388.000000	92.297789
389.000000	92.301798
390.000000	92.306176
391.000000	92.310188
392.000000	92.313025
393.000000	92.317067
394.000000	92.323133
395.000000	92.327727
396.000000	92.331026
397.000000	92.333462
398.000000	92.337115
399.000000	92.341304
400.000000	92.345018
401.000000	92.347922
402.000000	92.350481
403.000000	92.353205
404.000000	92.354255
405.000000	92.354249
406.000000	92.355345
407.000000	92.356340
408.000000	92.357989
409.000000	92.359834
410.000000	92.359530
411.000000	92.358465
412.000000	92.359227
413.000000	92.359870
414.000000	92.360157
415.000000	92.360541
416.000000	92.361150
417.000000	92.361686
418.000000	92.361944
419.000000	92.361605
420.000000	92.360899
421.000000	92.359999
422.000000	92.359335
423.000000	92.358559
424.000000	92.357461
425.000000	92.356237
426.000000	92.355078
427.000000	92.354170
428.000000	92.352828
429.000000	92.350914
430.000000	92.349365
431.000000	92.347900
432.000000	92.346210
433.000000	92.344104
434.000000	92.341957
435.000000	92.339612
436.000000	92.337544
437.000000	92.335538
438.000000	92.333088
439.000000	92.330341
440.000000	92.327511
441.000000	92.324586
442.000000	92.321892
443.000000	92.319208
444.000000	92.316266
445.000000	92.313253
446.000000	92.309915
447.000000	92.306175
448.000000	92.302145
449.000000	92.298182
450.000000	92.294312
451.000000	92.290101
452.000000	92.285404
453.000000	92.280689
454.000000	92.275990
455.000000	92.271759
456.000000	92.267451
457.000000	92.262843
458.000000	92.257899
459.000000	92.252783
460.000000	92.247570
461.000000	92.242151
462.000000	92.236285
463.000000	92.230392
464.000000	92.224643
465.000000	92.218436
466.000000	92.211941
467.000000	92.205174
468.000000	92.198355
469.000000	92.191000
470.000000	92.183178
471.000000	92.175144
472.000000	92.166658
473.000000	92.157943
474.000000	92.148801
475.000000	92.139219
476.000000	92.128820
477.000000	92.117396
478.000000	92.105219
479.000000	92.092420
480.000000	92.079627
481.000000	92.067297
482.000000	92.055157
483.000000	92.042469
484.000000	92.028899
485.000000	92.014328
486.000000	91.998441
487.000000	91.981264
488.000000	91.962586
489.000000	91.942383
490.000000	91.919990
491.000000	91.895912
492.000000	91.869642
493.000000	91.841091
494.000000	91.810117
495.000000	91.776693
496.000000	91.740590
497.000000	91.702146
498.000000	91.661223
499.000000	91.617792
500.000000	91.572036
501.000000	91.523887
502.000000	91.473269
503.000000	91.419873
504.000000	91.363817
505.000000	91.305110
506.000000	91.243297
507.000000	91.178608
508.000000	91.110616
509.000000	91.039170
510.000000	90.963977
511.000000	90.884865
512.000000	90.801880
513.000000	90.714337
514.000000	90.621535
515.000000	90.522780
516.000000	90.416907
517.000000	90.303581
518.000000	90.182808
519.000000	90.054307
520.000000	89.917599
521.000000	89.771735
522.000000	89.616297
523.000000	89.451435
524.000000	89.277253
525.000000	89.093928
526.000000	88.901487
527.000000	88.700627
528.000000	88.491778
529.000000	88.275541
530.000000	88.052944
531.000000	87.824188
532.000000	87.590113
533.000000	87.352099
534.000000	87.110397
535.000000	86.866156
536.000000	86.619474
537.000000	86.371329
538.000000	86.122884
539.000000	85.874076
540.000000	85.625445
541.000000	85.377255
542.000000	85.129263
543.000000	84.882602
544.000000	84.638177
545.000000	84.395538
546.000000	84.154931
547.000000	83.916358
548.000000	83.680424
549.000000	83.448541
550.000000	83.220510
551.000000	82.996967
552.000000	82.778069
553.000000	82.564647
554.000000	82.356984
555.000000	82.155671
556.000000	81.961557
557.000000	81.775193
558.000000	81.596680
559.000000	81.425018
560.000000	81.259723
561.000000	81.101191
562.000000	80.949258
563.000000	80.803283
564.000000	80.663123
565.000000	80.527131
566.000000	80.394942
567.000000	80.265779
568.000000	80.138169
569.000000	80.012405
570.000000	79.886149
571.000000	79.759743
572.000000	79.632307
573.000000	79.502608
574.000000	79.370262
575.000000	79.234960
576.000000	79.096918
577.000000	78.956174
578.000000	78.811575
579.000000	78.662473
580.000000	78.509831
581.000000	78.353514
582.000000	78.193840
583.000000	78.030414
584.000000	77.862793
585.000000	77.691120
586.000000	77.515689
587.000000	77.336783
588.000000	77.154227
589.000000	76.967924
590.000000	76.778186
591.000000	76.585168
592.000000	76.388991
593.000000	76.189103
594.000000	75.986738
595.000000	75.783222
596.000000	75.577632
597.000000	75.369390
598.000000	75.159368
599.000000	74.947666
600.000000	74.733724
601.000000	74.517839
602.000000	74.299742
603.000000	74.080872
604.000000	73.859248
605.000000	73.636735
606.000000	73.411976
607.000000	73.185843
608.000000	72.958252
609.000000	72.730103
610.000000	72.501243
611.000000	72.270648
612.000000	72.038461
613.000000	71.805376
614.000000	71.571502
615.000000	71.336070
616.000000	71.100591
617.000000	70.864211
618.000000	70.627239
619.000000	70.389854
620.000000	70.151660
621.000000	69.912803
622.000000	69.672018
623.000000	69.430125
624.000000	69.187917
625.000000	68.945318
626.000000	68.701491
627.000000	68.456374
628.000000	68.211559
629.000000	67.965692
630.000000	67.717234
631.000000	67.466699
632.000000	67.215402
633.000000	66.962302
634.000000	66.706741
635.000000	66.450602
636.000000	66.192394
637.000000	65.933243
638.000000	65.671872
639.000000	65.410309
640.000000	65.146250
641.000000	64.880912
642.000000	64.614138
643.000000	64.345434
644.000000	64.074632
645.000000	63.802431
646.000000	63.529581
647.000000	63.254736
648.000000	62.978168
649.000000	62.699626
650.000000	62.420461
651.000000	62.138470
652.000000	61.853280
653.000000	61.565992
654.000000	61.275631
655.000000	60.983494
656.000000	60.690071
657.000000	60.396872
658.000000	60.102347
659.000000	59.805382
660.000000	59.506093
661.000000	59.206409
662.000000	58.906339
663.000000	58.604141
664.000000	58.301238
665.000000	57.998187
666.000000	57.695018
667.000000	57.391642
668.000000	57.086909
669.000000	56.782084
670.000000	56.476261
671.000000	56.171644
672.000000	55.866054
673.000000	55.560498
674.000000	55.254136
675.000000	54.949246
676.000000	54.645489
677.000000	54.341951
678.000000	54.039574
679.000000	53.737862
680.000000	53.435082
681.000000	53.132568
682.000000	52.831822
683.000000	52.533094
684.000000	52.234730
685.000000	51.936708
686.000000	51.641269
687.000000	51.347984
688.000000	51.056514
689.000000	50.766084
690.000000	50.476657
691.000000	50.188438
692.000000	49.899563
693.000000	49.613067
694.000000	49.329595
695.000000	49.047674
696.000000	48.765544
697.000000	48.484383
698.000000	48.205521
699.000000	47.927253
700.000000	47.651110
701.000000	47.376421
702.000000	47.101730
703.000000	46.829871
704.000000	46.558753
705.000000	46.289135
706.000000	46.020746
707.000000	45.753823
708.000000	45.486729
709.000000	45.221470
710.000000	44.957420
711.000000	44.693653
712.000000	44.430040
713.000000	44.168149
714.000000	43.906557
715.000000	43.646588
716.000000	43.387440
717.000000	43.129534
718.000000	42.872501
719.000000	42.618105
720.000000	42.364102
721.000000	42.110667
722.000000	41.859424
723.000000	41.607916
724.000000	41.358516
725.000000	41.111421
726.000000	40.863765
727.000000	40.617997
728.000000	40.372233
729.000000	40.127911
730.000000	39.883624
731.000000	39.639967
732.000000	39.399351
733.000000	39.159316
734.000000	38.920733
735.000000	38.681847
736.000000	38.441640
737.000000	38.203833
738.000000	37.966787
739.000000	37.732268
740.000000	37.498634
741.000000	37.265087
742.000000	37.032158
743.000000	36.800748
744.000000	36.570931
745.000000	36.341705
746.000000	36.114236
747.000000	35.889640
748.000000	35.663301
749.000000	35.438972
750.000000	35.216571
751.000000	34.994414
752.000000	34.775213
753.000000	34.556394
754.000000	34.337386
755.000000	34.117692
756.000000	33.897265
757.000000	33.678157
758.000000	33.461243
759.000000	33.246626
760.000000	33.033066
761.000000	32.820024
762.000000	32.607150
763.000000	32.394511
764.000000	32.180090
765.000000	31.968001
766.000000	31.760225
767.000000	31.553399
768.000000	31.347573
769.000000	31.140955
770.000000	30.936839
771.000000	30.734248
772.000000	30.530514
773.000000	30.328235
774.000000	30.126557
775.000000	29.926051
776.000000	29.725689
777.000000	29.526325
778.000000	29.330852
779.000000	29.137550
780.000000	28.942264
781.000000	28.749584
782.000000	28.555297
783.000000	28.365216
784.000000	28.174673
785.000000	27.979857
786.000000	27.788018
787.000000	27.597109
788.000000	27.409040
789.000000	27.219247
790.000000	27.031863
791.000000	26.845257
792.000000	26.660777
793.000000	26.477785
794.000000	26.292558
795.000000	26.111058
796.000000	25.927216
797.000000	25.743918
798.000000	25.565804
799.000000	25.389352
800.000000	25.214736
801.000000	25.038539
802.000000	24.858765
803.000000	24.679815
804.000000	24.502109
805.000000	24.323346
806.000000	24.151006
807.000000	23.979810
808.000000	23.807750
809.000000	23.634881
810.000000	23.464669
811.000000	23.295668
812.000000	23.127264
813.000000	22.956918
814.000000	22.783463
815.000000	22.617044
816.000000	22.451351
817.000000	22.290094
818.000000	22.122237
819.000000	21.961504
820.000000	21.801902
821.000000	21.640487
822.000000	21.480614
823.000000	21.319783
824.000000	21.165768
825.000000	21.011274
826.000000	20.860620
827.000000	20.705498
828.000000	20.552212
829.000000	20.398108
830.000000	20.245172
831.000000	20.096161
832.000000	19.947137
833.000000	19.792849
834.000000	19.645561
835.000000	19.492588
836.000000	19.347524
837.000000	19.204302
838.000000	19.055341
839.000000	18.909487
840.000000	18.770654
841.000000	18.623564
842.000000	18.482200
843.000000	18.346190
844.000000	18.207849
845.000000	18.061278
846.000000	17.922351
847.000000	17.783155
848.000000	17.651589
849.000000	17.523088
850.000000	17.398985
851.000000	17.264383
852.000000	17.127433
853.000000	16.996598
854.000000	16.873010
855.000000	16.749150
856.000000	16.624512
857.000000	16.503693
858.000000	16.374178
859.000000	16.212783
860.000000	16.053445
861.000000	15.889086
862.000000	15.749757
863.000000	15.624934
864.000000	15.486369
865.000000	15.330362
866.000000	15.205826
867.000000	15.076043
868.000000	14.922674
869.000000	14.807067
870.000000	14.665443
871.000000	14.525318
872.000000	14.370367
873.000000	14.238754
874.000000	14.124681
875.000000	14.000064
876.000000	13.881821
877.000000	13.735193
878.000000	13.583251
879.000000	13.465635
880.000000	13.337848
881.000000	13.187940
882.000000	13.078440
883.000000	12.959408
884.000000	12.809028
885.000000	12.664234
886.000000	12.521760
887.000000	12.398328
888.000000	12.283398
889.000000	12.151668
890.000000	12.045076
891.000000	11.931598
892.000000	11.815155
893.000000	11.701164
894.000000	11.601065
895.000000	11.513530
896.000000	11.419481
897.000000	11.337238
898.000000	11.209854
899.000000	11.114328
900.000000	10.991544
901.000000	10.878861
902.000000	10.777188
903.000000	10.678671
904.000000	10.542507
905.000000	10.472650
906.000000	10.399762
907.000000	10.318559
908.000000	10.224698
909.000000	10.106834
910.000000	10.013585
911.000000	9.919300
912.000000	9.862151
913.000000	9.776253
914.000000	9.665967
915.000000	9.578519
916.000000	9.514513
917.000000	9.437212
918.000000	9.348224
919.000000	9.259052
920.000000	9.196106
921.000000	9.112507
922.000000	9.045653
923.000000	8.962019
924.000000	8.911250
925.000000	8.806180
926.000000	8.727055
927.000000	8.655758
928.000000	8.561745
929.000000	8.513209
930.000000	8.440537
931.000000	8.382293
932.000000	8.311295
933.000000	8.252679
934.000000	8.151614
935.000000	8.113217
936.000000	8.064610
937.000000	7.999275
938.000000	7.975268
939.000000	7.940330
940.000000	7.867478
941.000000	7.766954
942.000000	7.696332
943.000000	7.621023
944.000000	7.564459
945.000000	7.488774
946.000000	7.413962
947.000000	7.340781
948.000000	7.301124
949.000000	7.248526
950.000000	7.205860
951.000000	7.168868
952.000000	7.110614
953.000000	7.038444
954.000000	7.017148
955.000000	6.972749
956.000000	6.945611
957.000000	6.887649
958.000000	6.829025
959.000000	6.737523
960.000000	6.685798
961.000000	6.639511
962.000000	6.574347
963.000000	6.515803
964.000000	6.445926
965.000000	6.368089
966.000000	6.289104
967.000000	6.228483
968.000000	6.207039
969.000000	6.201264
970.000000	6.171734
971.000000	6.102692
972.000000	6.060344
973.000000	6.016381
974.000000	5.965138
975.000000	5.901164
976.000000	5.868699
977.000000	5.813845
978.000000	5.777677
979.000000	5.744073
980.000000	5.703825
981.000000	5.674702
982.000000	5.597026
983.000000	5.531791
984.000000	5.485058
985.000000	5.409421
986.000000	5.336036
987.000000	5.265641
988.000000	5.229165
989.000000	5.178875
990.000000	5.124507
991.000000	5.086678
992.000000	5.032202
993.000000	4.979509
994.000000	4.933879
995.000000	4.889183
996.000000	4.820571
997.000000	4.750076
998.000000	4.725169
999.000000	4.679150
1000.000000	4.655222
1001.000000	4.637281
1002.000000	4.581938
1003.000000	4.521483
1004.000000	4.475050
1005.000000	4.424529
1006.000000	4.393443
1007.000000	4.355446
1008.000000	4.286638
1009.000000	4.219123
1010.000000	4.169743
1011.000000	4.117756
1012.000000	4.090723
1013.000000	4.056554
1014.000000	4.004606
1015.000000	3.950678
1016.000000	3.903555
1017.000000	3.896409
1018.000000	3.869873
1019.000000	3.841394
1020.000000	3.816645
1021.000000	3.788691
1022.000000	3.760080
1023.000000	3.716889
1024.000000	3.672229
1025.000000	3.645332
1026.000000	3.616489
1027.000000	3.559412
1028.000000	3.535141
1029.000000	3.532117
1030.000000	3.507238
1031.000000	3.493465
1032.000000	3.496411
1033.000000	3.490234
1034.000000	3.487534
1035.000000	3.489065
1036.000000	3.475147
1037.000000	3.452066
1038.000000	3.410570
1039.000000	3.368788
1040.000000	3.353089
1041.000000	3.338878
1042.000000	3.314573
1043.000000	3.291569
1044.000000	3.269634
1045.000000	3.263297
1046.000000	3.268108
1047.000000	3.231792
1048.000000	3.196932
1049.000000	3.200980
1050.000000	3.214591
1051.000000	3.210649
1052.000000	3.176330
1053.000000	3.157172
1054.000000	3.142257
1055.000000	3.125615
1056.000000	3.104921
1057.000000	3.099633
1058.000000	3.097270
1059.000000	3.089457
1060.000000	3.047337
1061.000000	3.024205
1062.000000	3.052597
1063.000000	3.052247
1064.000000	3.038226
1065.000000	3.019025
1066.000000	2.995599
1067.000000	2.957612
1068.000000	2.941148
1069.000000	2.901060
1070.000000	2.835108
1071.000000	2.784729
1072.000000	2.793620
1073.000000	2.780947
1074.000000	2.770240
1075.000000	2.754840
1076.000000	2.724741
1077.000000	2.676211
1078.000000	2.664104
1079.000000	2.673627
1080.000000	2.658497
1081.000000	2.605139
1082.000000	2.624988
1083.000000	2.618499
1084.000000	2.576786
1085.000000	2.534138
1086.000000	2.495373
1087.000000	2.505927
1088.000000	2.507687
1089.000000	2.494467
1090.000000	2.477524
1091.000000	2.467834
1092.000000	2.415357
1093.000000	2.380652
1094.000000	2.343660
1095.000000	2.339151
1096.000000	2.308644
1097.000000	2.282605
1098.000000	2.257262
1099.000000	2.207457
1100.000000	2.234167
1101.000000	2.227183
1102.000000	2.212711
1103.000000	2.178784
1104.000000	2.147145
1105.000000	2.168126
1106.000000	2.173158
1107.000000	2.144147
1108.000000	2.136275
1109.000000	2.107938
1110.000000	2.091560
1111.000000	2.083683
1112.000000	2.102984
1113.000000	2.104093
1114.000000	2.076279
1115.000000	2.071717
1116.000000	2.107306
1117.000000	2.090718
1118.000000	2.077896
1119.000000	2.080480
1120.000000	2.098707
1121.000000	2.068767
1122.000000	2.011283
1123.000000	1.947956
1124.000000	1.914923
1125.000000	1.906251
1126.000000	1.911712
1127.000000	1.916630
1128.000000	1.893909
1129.000000	1.890793
1130.000000	1.890086
1131.000000	1.863552
1132.000000	1.846703
1133.000000	1.829848
1134.000000	1.796133
1135.000000	1.755774
1136.000000	1.730298
1137.000000	1.729503
1138.000000	1.706196
1139.000000	1.720395
1140.000000	1.709840
1141.000000	1.720129
1142.000000	1.699755
1143.000000	1.705863
1144.000000	1.708025
1145.000000	1.702820
1146.000000	1.692407
1147.000000	1.688530
1148.000000	1.667934
1149.000000	1.691936
1150.000000	1.690793
1151.000000	1.667220
1152.000000	1.644001
1153.000000	1.658557
1154.000000	1.668961
1155.000000	1.628838
1156.000000	1.639232
1157.000000	1.656965
1158.000000	1.697954
1159.000000	1.740514
1160.000000	1.737622
1161.000000	1.721141
1162.000000	1.745339
1163.000000	1.783795
1164.000000	1.796913
1165.000000	1.791826
1166.000000	1.818789
1167.000000	1.809750
1168.000000	1.833114
1169.000000	1.926560
1170.000000	1.950500
1171.000000	1.983296
1172.000000	2.018187
1173.000000	2.031352
1174.000000	2.050146
1175.000000	2.088773
1176.000000	2.113860
1177.000000	2.137701
1178.000000	2.128419
1179.000000	2.118472
1180.000000	2.093528
1181.000000	2.085131
1182.000000	2.079949
1183.000000	2.087402
1184.000000	2.077581
1185.000000	2.056030
1186.000000	2.091526
1187.000000	2.112607
1188.000000	2.100311
1189.000000	2.119941
1190.000000	2.133904
1191.000000	2.155426
1192.000000	2.150459
1193.000000	2.153730
1194.000000	2.137957
1195.000000	2.175330
1196.000000	2.203018
1197.000000	2.191486
1198.000000	2.172905
1199.000000	2.186846
1200.000000	2.172200
1201.000000	2.189750
1202.000000	2.210634
1203.000000	2.202407
1204.000000	2.189848
1205.000000	2.190327
1206.000000	2.141663
1207.000000	2.138851
1208.000000	2.178248
1209.000000	2.154708
1210.000000	2.102512
1211.000000	2.052812
1212.000000	2.036233
1213.000000	2.026129
1214.000000	2.051301
1215.000000	2.039404
1216.000000	2.041328
1217.000000	2.035100
1218.000000	2.035890
1219.000000	1.986790
1220.000000	1.984728
1221.000000	1.933262
1222.000000	1.900392
1223.000000	1.919638
1224.000000	1.903374
1225.000000	1.914912
1226.000000	1.892701
1227.000000	1.895117
1228.000000	1.890302
1229.000000	1.886545
1230.000000	1.870306
1231.000000	1.826194
1232.000000	1.815588
1233.000000	1.813657
1234.000000	1.810062
1235.000000	1.830824
1236.000000	1.794534
1237.000000	1.776294
1238.000000	1.762580
1239.000000	1.721194
1240.000000	1.684017
1241.000000	1.688832
1242.000000	1.651289
1243.000000	1.596693
1244.000000	1.589134
1245.000000	1.603800
1246.000000	1.594261
1247.000000	1.572188
1248.000000	1.556151
1249.000000	1.535047
1250.000000	1.561305
1251.000000	1.546833
1252.000000	1.549610
1253.000000	1.563085
1254.000000	1.588510
1255.000000	1.577512
1256.000000	1.569488
1257.000000	1.600147
1258.000000	1.580528
1259.000000	1.538121
1260.000000	1.519553
1261.000000	1.529362
1262.000000	1.538362
1263.000000	1.539154
1264.000000	1.561177
1265.000000	1.573383
1266.000000	1.589293
1267.000000	1.602249
1268.000000	1.614134
1269.000000	1.596763
1270.000000	1.567446
1271.000000	1.587049
1272.000000	1.603364
1273.000000	1.596934
1274.000000	1.596451
1275.000000	1.583875
1276.000000	1.598783
1277.000000	1.599759
1278.000000	1.615793
1279.000000	1.622802
1280.000000	1.616724
1281.000000	1.623810
1282.000000	1.636734
1283.000000	1.634022
1284.000000	1.626483
1285.000000	1.613513
1286.000000	1.628288
1287.000000	1.593981
1288.000000	1.545477
1289.000000	1.536158
1290.000000	1.542355
1291.000000	1.560579
1292.000000	1.530953
1293.000000	1.512017
1294.000000	1.528736
1295.000000	1.531904
1296.000000	1.533497
1297.000000	1.532512
1298.000000	1.514914
1299.000000	1.470193
1300.000000	1.432836
1301.000000	1.415963
1302.000000	1.374199
1303.000000	1.355004
1304.000000	1.324035
1305.000000	1.322788
1306.000000	1.308218
1307.000000	1.274416
1308.000000	1.270961
1309.000000	1.280954
1310.000000	1.312393
1311.000000	1.313914
1312.000000	1.293666
1313.000000	1.269900
1314.000000	1.255922
1315.000000	1.245138
1316.000000	1.248923
1317.000000	1.243878
1318.000000	1.263749
1319.000000	1.296112
1320.000000	1.289826
1321.000000	1.268188
1322.000000	1.281666
1323.000000	1.293969
1324.000000	1.297046
1325.000000	1.298411
1326.000000	1.288604
1327.000000	1.291330
1328.000000	1.303322
1329.000000	1.308431
1330.000000	1.307171
1331.000000	1.304672
1332.000000	1.291824
1333.000000	1.293674
1334.000000	1.291433
1335.000000	1.285189
1336.000000	1.287271
1337.000000	1.313468
1338.000000	1.307385
1339.000000	1.324119
1340.000000	1.350692
1341.000000	1.352624
1342.000000	1.374361
1343.000000	1.354319
1344.000000	1.332142
1345.000000	1.311953
1346.000000	1.330024
1347.000000	1.391222
1348.000000	1.411191
1349.000000	1.411763
1350.000000	1.448873
1351.000000	1.513489
1352.000000	1.571336
1353.000000	1.595942
1354.000000	1.544389
1355.000000	1.529034
1356.000000	1.536685
1357.000000	1.499483
1358.000000	1.539558
1359.000000	1.582180
1360.000000	1.558798
1361.000000	1.423493
1362.000000	1.481921
1363.000000	1.562018
1364.000000	1.612040
1365.000000	1.743101
1366.000000	1.755069
1367.000000	1.735582
1368.000000	1.782535
1369.000000	1.739411
1370.000000	1.635641
1371.000000	1.642381
1372.000000	1.675070
1373.000000	1.747590
1374.000000	1.751888
1375.000000	1.759649
1376.000000	1.729693
1377.000000	1.754610
1378.000000	1.815404
1379.000000	1.950101
1380.000000	2.229414
1381.000000	2.399979
1382.000000	2.352221
1383.000000	2.372069
1384.000000	2.286856
1385.000000	2.246108
1386.000000	2.206770
1387.000000	1.963978
1388.000000	1.943903
1389.000000	1.976021
1390.000000	1.963184
1391.000000	1.986323
1392.000000	2.214446
1393.000000	2.250319
1394.000000	2.185900
1395.000000	2.302595
1396.000000	2.689562
1397.000000	2.747397
1398.000000	2.787595
1399.000000	2.777143
1400.000000	2.692697
1401.000000	2.797974
1402.000000	2.875780
1403.000000	2.898669
1404.000000	2.903754
1405.000000	3.117872
1406.000000	3.150822
1407.000000	3.228402
1408.000000	3.276367
1409.000000	3.409229
1410.000000	3.478674
1411.000000	3.612315
1412.000000	3.704578
1413.000000	3.714055
1414.000000	3.650245
1415.000000	3.517110
1416.000000	3.438017
1417.000000	3.514845
1418.000000	3.514258
1419.000000	3.708416
1420.000000	3.815959
1421.000000	3.904148
1422.000000	4.204538
1423.000000	4.267253
1424.000000	4.367033
1425.000000	4.517444
1426.000000	4.611130
1427.000000	4.549058
1428.000000	4.594486
1429.000000	4.721478
1430.000000	4.771832
1431.000000	4.652982
1432.000000	4.676242
1433.000000	4.680521
1434.000000	4.792646
1435.000000	4.877247
1436.000000	4.905072
1437.000000	4.975090
1438.000000	5.001475
1439.000000	5.142703
1440.000000	5.189700
1441.000000	5.275089
1442.000000	5.275456
1443.000000	5.308619
1444.000000	5.335482
1445.000000	5.320565
1446.000000	5.353336
1447.000000	5.410029
1448.000000	5.488400
1449.000000	5.537483
1450.000000	5.504791
1451.000000	5.534153
1452.000000	5.620393
1453.000000	5.755757
1454.000000	5.789563
1455.000000	5.849071
1456.000000	5.871368
1457.000000	5.906038
1458.000000	5.948078
1459.000000	5.994305
1460.000000	6.058137
1461.000000	6.082041
1462.000000	6.109025
1463.000000	6.163297
1464.000000	6.227791
1465.000000	6.273593
1466.000000	6.289826
1467.000000	6.310214
1468.000000	6.332654
1469.000000	6.282223
1470.000000	6.284122
1471.000000	6.277189
1472.000000	6.338698
1473.000000	6.421036
1474.000000	6.488628
1475.000000	6.506878
1476.000000	6.561622
1477.000000	6.606901
1478.000000	6.662149
1479.000000	6.668392
1480.000000	6.747585
1481.000000	6.759717
1482.000000	6.744503
1483.000000	6.779702
1484.000000	6.852009
1485.000000	6.909778
1486.000000	6.921341
1487.000000	6.938017
1488.000000	6.921690
1489.000000	6.955043
1490.000000	6.952238
1491.000000	6.961220
1492.000000	6.952733
1493.000000	6.992209
1494.000000	7.004323
1495.000000	6.975333
1496.000000	6.979178
1497.000000	6.995530
1498.000000	6.981627
1499.000000	6.980962
1500.000000	6.963709
1501.000000	7.003487
1502.000000	7.034674
1503.000000	7.048490
1504.000000	7.084911
1505.000000	7.124150
1506.000000	7.134743
1507.000000	7.124288
1508.000000	7.104462
1509.000000	7.083525
1510.000000	7.089479
1511.000000	7.074398
1512.000000	7.066776
1513.000000	7.020330
1514.000000	7.021163
1515.000000	7.027335
1516.000000	7.017392
1517.000000	6.989356
1518.000000	6.938632
1519.000000	6.864401
1520.000000	6.828170
1521.000000	6.829128
1522.000000	6.810829
1523.000000	6.803697
1524.000000	6.766987
1525.000000	6.752761
1526.000000	6.755342
1527.000000	6.732360
1528.000000	6.694508
1529.000000	6.668554
1530.000000	6.663344
1531.000000	6.649299
1532.000000	6.636410
1533.000000	6.639705
1534.000000	6.607318
1535.000000	6.567656
1536.000000	6.519985
1537.000000	6.477017
1538.000000	6.448110
1539.000000	6.432059
1540.000000	6.394759
1541.000000	6.376749
1542.000000	6.331433
1543.000000	6.293732
1544.000000	6.277828
1545.000000	6.253830
1546.000000	6.248966
1547.000000	6.218820
1548.000000	6.184532
1549.000000	6.149322
1550.000000	6.111838
1551.000000	6.093219
1552.000000	6.072580
1553.000000	6.072069
1554.000000	6.053559
1555.000000	6.027656
1556.000000	6.003911
1557.000000	5.973252
1558.000000	5.968697
1559.000000	5.951409
1560.000000	5.914218
1561.000000	5.896105
1562.000000	5.906614
1563.000000	5.907393
1564.000000	5.891539
1565.000000	5.887601
1566.000000	5.894859
1567.000000	5.860712
1568.000000	5.820103
1569.000000	5.801977
1570.000000	5.794294
1571.000000	5.779113
1572.000000	5.763303
1573.000000	5.756030
1574.000000	5.745065
1575.000000	5.735411
1576.000000	5.748288
1577.000000	5.758648
1578.000000	5.780439
1579.000000	5.768695
1580.000000	5.721792
1581.000000	5.662394
1582.000000	5.661622
1583.000000	5.683847
1584.000000	5.693528
1585.000000	5.673486
1586.000000	5.654009
1587.000000	5.628935
1588.000000	5.622284
1589.000000	5.642168
1590.000000	5.632339
1591.000000	5.602818
1592.000000	5.600910
1593.000000	5.581299
1594.000000	5.576749
1595.000000	5.600276
1596.000000	5.592657
1597.000000	5.585704
1598.000000	5.575258
1599.000000	5.575105
1600.000000	5.544730
1601.000000	5.520741
1602.000000	5.518586
1603.000000	5.498940
1604.000000	5.477609
1605.000000	5.470118
1606.000000	5.433546
1607.000000	5.399572
1608.000000	5.353949
1609.000000	5.314518
1610.000000	5.293541
1611.000000	5.247422
1612.000000	5.213267
1613.000000	5.192328
1614.000000	5.184445
1615.000000	5.170039
1616.000000	5.185761
1617.000000	5.178377
1618.000000	5.156485
1619.000000	5.140754
1620.000000	5.145108
1621.000000	5.141002
1622.000000	5.141259
1623.000000	5.168110
1624.000000	5.183380
1625.000000	5.202333
1626.000000	5.197403
1627.000000	5.191240
1628.000000	5.183319
1629.000000	5.185004
1630.000000	5.170767
1631.000000	5.150393
1632.000000	5.105309
1633.000000	5.110973
1634.000000	5.093743
1635.000000	5.080826
1636.000000	5.047111
1637.000000	5.006668
1638.000000	4.976232
1639.000000	5.016603
1640.000000	5.025210
1641.000000	5.047757
1642.000000	5.058260
1643.000000	5.097671
1644.000000	5.107423
1645.000000	5.126202
1646.000000	5.130975
1647.000000	5.149988
1648.000000	5.132385
1649.000000	5.120092
1650.000000	5.105568
1651.000000	5.075842
1652.000000	5.030324
1653.000000	4.986156
1654.000000	4.937824
1655.000000	4.912847
1656.000000	4.898556
1657.000000	4.907481
1658.000000	4.845393
1659.000000	4.816321
1660.000000	4.787763
1661.000000	4.754679
1662.000000	4.735039
1663.000000	4.728300
1664.000000	4.699980
1665.000000	4.683009
1666.000000	4.691045
1667.000000	4.742100
1668.000000	4.712749
1669.000000	4.699782
1670.000000	4.730749
1671.000000	4.773103
1672.000000	4.842328
1673.000000	4.895177
1674.000000	4.865253
1675.000000	4.911472
1676.000000	4.935933
1677.000000	4.977804
1678.000000	4.966615
1679.000000	4.994877
1680.000000	4.984633
1681.000000	4.992753
1682.000000	4.997133
1683.000000	4.988594
1684.000000	5.015232
1685.000000	5.063831
1686.000000	5.119423
1687.000000	5.175680
1688.000000	5.249639
1689.000000	5.316503
1690.000000	5.379925
1691.000000	5.412115
1692.000000	5.433609
1693.000000	5.501375
1694.000000	5.549350
1695.000000	5.581907
1696.000000	5.666474
1697.000000	5.699015
1698.000000	5.706731
1699.000000	5.751799
1700.000000	5.794711
1701.000000	5.793638
1702.000000	5.779318
1703.000000	5.826341
1704.000000	5.855726
1705.000000	5.870178
1706.000000	5.888689
1707.000000	5.888950
1708.000000	5.904189
1709.000000	5.938617
1710.000000	5.912635
1711.000000	5.932532
1712.000000	5.952384
1713.000000	5.964823
1714.000000	5.983498
1715.000000	6.008395
1716.000000	6.055791
1717.000000	6.102226
1718.000000	6.179422
1719.000000	6.234130
1720.000000	6.283321
1721.000000	6.314104
1722.000000	6.350573
1723.000000	6.368629
1724.000000	6.376606
1725.000000	6.378938
1726.000000	6.413994
1727.000000	6.456482
1728.000000	6.474403
1729.000000	6.474396
1730.000000	6.502735
1731.000000	6.520367
1732.000000	6.577033
1733.000000	6.635629
1734.000000	6.651634
1735.000000	6.664392
1736.000000	6.721822
1737.000000	6.784147
1738.000000	6.817901
1739.000000	6.869813
1740.000000	6.885342
1741.000000	6.932048
1742.000000	6.956762
1743.000000	6.958552
1744.000000	6.986104
1745.000000	7.035338
1746.000000	7.073478
1747.000000	7.064006
1748.000000	7.088315
1749.000000	7.100708
1750.000000	7.118322
1751.000000	7.111999
1752.000000	7.092468
1753.000000	7.089036
1754.000000	7.083031
1755.000000	7.080829
1756.000000	7.063701
1757.000000	7.058366
1758.000000	7.041286
1759.000000	7.059303
1760.000000	7.060209
1761.000000	7.063530
1762.000000	7.066710
1763.000000	7.074988
1764.000000	7.058896
1765.000000	7.046091
1766.000000	7.028168
1767.000000	7.004855
1768.000000	7.005460
1769.000000	7.024416
1770.000000	7.013172
1771.000000	7.010069
1772.000000	7.011356
1773.000000	7.018727
1774.000000	6.980984
1775.000000	6.967299
1776.000000	6.935996
1777.000000	6.908931
1778.000000	6.930254
1779.000000	6.942281
1780.000000	6.900805
1781.000000	6.830972
1782.000000	6.834720
1783.000000	6.837250
1784.000000	6.817214
1785.000000	6.807096
1786.000000	6.815195
1787.000000	6.837498
1788.000000	6.797556
1789.000000	6.775389
1790.000000	6.763862
1791.000000	6.764545
1792.000000	6.770924
1793.000000	6.783083
1794.000000	6.777737
1795.000000	6.760071
1796.000000	6.743209
1797.000000	6.725138
1798.000000	6.696286
1799.000000	6.679973
1800.000000	6.668871
1801.000000	6.673900
1802.000000	6.655991
1803.000000	6.632128
1804.000000	6.608890
1805.000000	6.585019
1806.000000	6.539251
1807.000000	6.503323
1808.000000	6.481186
1809.000000	6.490069
1810.000000	6.479077
1811.000000	6.468388
1812.000000	6.476948
1813.000000	6.501822
1814.000000	6.464033
1815.000000	6.429741
1816.000000	6.491288
1817.000000	6.409511
1818.000000	6.270176
1819.000000	6.194817
1820.000000	6.084150
1821.000000	6.054609
1822.000000	6.025308
1823.000000	6.030378
1824.000000	6.016922
1825.000000	5.941165
1826.000000	5.846183
1827.000000	5.797913
1828.000000	5.775052
1829.000000	5.769782
1830.000000	5.735101
1831.000000	5.696695
1832.000000	5.663740
1833.000000	5.721570
1834.000000	5.770773
1835.000000	5.743864
1836.000000	5.694120
1837.000000	5.704573
1838.000000	5.784404
1839.000000	5.884486
1840.000000	5.960482
1841.000000	5.944901
1842.000000	5.883800
1843.000000	5.853651
1844.000000	5.860580
1845.000000	5.895233
1846.000000	5.884166
1847.000000	5.775779
1848.000000	5.717393
1849.000000	5.749493
1850.000000	5.797055
1851.000000	5.795557
1852.000000	5.861943
1853.000000	5.965595
1854.000000	6.046647
1855.000000	6.130459
1856.000000	6.090175
1857.000000	6.099607
1858.000000	6.128843
1859.000000	6.118765
1860.000000	6.189775
1861.000000	6.289022
1862.000000	6.308459
1863.000000	6.304446
1864.000000	6.340096
1865.000000	6.423740
1866.000000	6.495057
1867.000000	6.549321
1868.000000	6.542674
1869.000000	6.514316
1870.000000	6.477215
1871.000000	6.559778
1872.000000	6.504730
1873.000000	6.427087
1874.000000	6.366573
1875.000000	6.342511
1876.000000	6.356772
1877.000000	6.428091
1878.000000	6.487684
1879.000000	6.520526
1880.000000	6.518335
1881.000000	6.572658
1882.000000	6.737230
1883.000000	6.761816
1884.000000	6.800651
1885.000000	6.865496
1886.000000	6.871401
1887.000000	6.940603
1888.000000	7.067542
1889.000000	7.098368
1890.000000	7.210740
1891.000000	7.313190
1892.000000	7.373772
1893.000000	7.456992
1894.000000	7.594844
1895.000000	7.730769
1896.000000	7.882475
1897.000000	8.042779
1898.000000	8.204141
1899.000000	8.305473
1900.000000	8.450484
1901.000000	8.634979
1902.000000	8.677418
1903.000000	8.844885
1904.000000	9.035532
1905.000000	9.375485
1906.000000	9.585203
1907.000000	9.909029
1908.000000	10.190517
1909.000000	10.433542
1910.000000	10.682386
1911.000000	11.013661
1912.000000	11.315305
1913.000000	11.548035
1914.000000	11.848148
1915.000000	12.129527
1916.000000	12.442896
1917.000000	12.735748
1918.000000	13.112304
1919.000000	13.358893
1920.000000	13.587466
1921.000000	13.879410
1922.000000	14.146091
1923.000000	14.357097
1924.000000	14.678659
1925.000000	14.953735
1926.000000	15.244247
1927.000000	15.538914
1928.000000	15.807945
1929.000000	16.033706
1930.000000	16.234931
1931.000000	16.437656
1932.000000	16.677013
1933.000000	16.867983
1934.000000	17.101856
1935.000000	17.303176
1936.000000	17.486057
1937.000000	17.762152
1938.000000	17.896287
1939.000000	18.065480
1940.000000	18.141417
1941.000000	18.250703
1942.000000	18.326589
1943.000000	18.385544
1944.000000	18.458933
1945.000000	18.533668
1946.000000	18.561852
1947.000000	18.619079
1948.000000	18.708776
1949.000000	18.745815
1950.000000	18.810308
1951.000000	18.799840
1952.000000	18.751023
1953.000000	18.738161
1954.000000	18.795367
1955.000000	18.811822
1956.000000	18.803204
1957.000000	18.805503
1958.000000	18.811419
1959.000000	18.776062
1960.000000	18.728348
1961.000000	18.694254
1962.000000	18.627723
1963.000000	18.565632
1964.000000	18.524806
1965.000000	18.482553
1966.000000	18.423957
1967.000000	18.342205
1968.000000	18.304497
1969.000000	18.215521
1970.000000	18.130705
1971.000000	18.016174
1972.000000	17.989114
1973.000000	17.919049
1974.000000	17.878419
1975.000000	17.818536
1976.000000	17.731510
1977.000000	17.662593
1978.000000	17.607317
1979.000000	17.518395
1980.000000	17.432577
1981.000000	17.387731
1982.000000	17.309583
1983.000000	17.215855
1984.000000	17.085005
1985.000000	16.958983
1986.000000	16.871817
1987.000000	16.818456
1988.000000	16.694725
1989.000000	16.542873
1990.000000	16.453366
1991.000000	16.351275
1992.000000	16.268733
1993.000000	16.197498
1994.000000	16.116004
1995.000000	16.034719
1996.000000	15.970277
1997.000000	15.929744
1998.000000	15.861975
1999.000000	15.793575
2000.000000	15.713225
