PE UV       SUBTECH     SPECTRUM    ASCII       PEDS        4.00        
   -1
BIOUCR0024-3.Sample.ASC
24/02/20
14:02:04.00
24/02/20
14:02:04.00
Vinicio Soto Monge
P. resplendens 18 de Mayo de 1985 R.W. Volcan, Panama
250,000000
1
Lambda 1050
1050L1511233
PerkinElmer UV WinLab 6.3.2.0749 / 2.02.05 Lambda 900 UV/VIS/NIR, Aug  7 2015 09:38:08

0
0
3350/servo 860,8/2
0
0
UV/VIS
1
1
1
DoubleDePol,CommonBeamDepol,RBeamAtt,SBeamAtt,60mm sphere, WB InGaAs Detector
0
0
0
0
Program
Program
3350/servo 860,8/2
3350/0,2 860,8/0,2
3350/0,2 860,8/0,2
0
15.00
 
 
 
0
 
860,8
319,2
860,8
Front
100
on
S:100 R:100
0
0
0
0
 
0
 
 
 
0
 
 
0
0
0
0
0
 
 
 
 
0
0


0
0
#HDR
-1
-1
#GR
nm
%R
1.0
0.0
2500,000000
-1,000000
2251
8
24,512600
1,671100
#DATA

250.000000	nan
251.000000	nan
252.000000	nan
253.000000	nan
254.000000	nan
255.000000	nan
256.000000	nan
257.000000	nan
258.000000	nan
259.000000	1.985916
260.000000	1.980752
261.000000	1.978114
262.000000	1.971737
263.000000	1.965958
264.000000	1.961635
265.000000	1.957879
266.000000	1.953967
267.000000	1.947449
268.000000	1.938845
269.000000	1.933080
270.000000	1.927280
271.000000	1.919330
272.000000	1.916919
273.000000	1.910902
274.000000	1.906026
275.000000	1.901511
276.000000	1.895553
277.000000	1.890936
278.000000	1.888152
279.000000	1.885564
280.000000	1.885275
281.000000	1.883620
282.000000	1.881320
283.000000	1.881605
284.000000	1.879830
285.000000	1.879158
286.000000	1.878903
287.000000	1.879529
288.000000	1.878000
289.000000	1.875206
290.000000	1.872645
291.000000	1.869766
292.000000	1.866132
293.000000	1.863819
294.000000	1.860943
295.000000	1.855817
296.000000	1.854065
297.000000	1.852278
298.000000	1.851117
299.000000	1.853383
300.000000	1.851621
301.000000	1.849257
302.000000	1.845980
303.000000	1.844276
304.000000	1.844369
305.000000	1.846342
306.000000	1.841427
307.000000	1.839375
308.000000	1.837732
309.000000	1.833491
310.000000	1.830863
311.000000	1.829831
312.000000	1.832139
313.000000	1.832438
314.000000	1.830666
315.000000	1.828236
316.000000	1.833176
317.000000	1.861273
318.000000	1.888745
319.000000	1.906580
320.000000	1.939755
321.000000	1.964625
322.000000	1.983161
323.000000	1.990449
324.000000	2.009550
325.000000	2.027925
326.000000	2.046503
327.000000	2.036698
328.000000	2.028130
329.000000	2.024223
330.000000	1.999367
331.000000	1.985943
332.000000	1.978243
333.000000	1.974997
334.000000	1.957476
335.000000	1.948032
336.000000	1.939823
337.000000	1.926694
338.000000	1.914419
339.000000	1.907067
340.000000	1.905555
341.000000	1.903482
342.000000	1.901382
343.000000	1.902918
344.000000	1.905444
345.000000	1.900645
346.000000	1.891217
347.000000	1.888510
348.000000	1.885203
349.000000	1.880095
350.000000	1.880898
351.000000	1.879778
352.000000	1.874551
353.000000	1.866808
354.000000	1.863702
355.000000	1.862446
356.000000	1.866183
357.000000	1.866299
358.000000	1.865688
359.000000	1.868229
360.000000	1.866543
361.000000	1.864519
362.000000	1.864486
363.000000	1.869803
364.000000	1.869211
365.000000	1.864187
366.000000	1.855606
367.000000	1.853487
368.000000	1.852184
369.000000	1.847567
370.000000	1.836111
371.000000	1.824721
372.000000	1.811385
373.000000	1.796008
374.000000	1.785803
375.000000	1.779426
376.000000	1.772255
377.000000	1.755623
378.000000	1.739218
379.000000	1.725496
380.000000	1.719458
381.000000	1.713320
382.000000	1.710822
383.000000	1.711775
384.000000	1.713130
385.000000	1.714850
386.000000	1.717626
387.000000	1.729293
388.000000	1.742002
389.000000	1.755818
390.000000	1.770208
391.000000	1.786427
392.000000	1.803960
393.000000	1.822937
394.000000	1.843517
395.000000	1.865919
396.000000	1.890779
397.000000	1.917357
398.000000	1.945556
399.000000	1.975458
400.000000	2.007527
401.000000	2.041482
402.000000	2.076933
403.000000	2.113794
404.000000	2.152289
405.000000	2.192377
406.000000	2.233286
407.000000	2.275498
408.000000	2.319595
409.000000	2.365012
410.000000	2.411068
411.000000	2.457899
412.000000	2.506206
413.000000	2.555278
414.000000	2.605074
415.000000	2.655318
416.000000	2.706014
417.000000	2.756825
418.000000	2.807579
419.000000	2.858653
420.000000	2.910319
421.000000	2.961990
422.000000	3.012855
423.000000	3.062949
424.000000	3.112763
425.000000	3.161827
426.000000	3.210742
427.000000	3.259552
428.000000	3.307591
429.000000	3.354726
430.000000	3.400739
431.000000	3.445334
432.000000	3.488350
433.000000	3.530479
434.000000	3.570959
435.000000	3.610181
436.000000	3.647447
437.000000	3.682066
438.000000	3.714836
439.000000	3.745343
440.000000	3.773614
441.000000	3.799959
442.000000	3.823573
443.000000	3.844207
444.000000	3.862326
445.000000	3.877535
446.000000	3.890591
447.000000	3.902121
448.000000	3.911207
449.000000	3.917980
450.000000	3.922643
451.000000	3.925416
452.000000	3.927549
453.000000	3.929220
454.000000	3.930809
455.000000	3.932450
456.000000	3.934194
457.000000	3.936653
458.000000	3.941123
459.000000	3.948128
460.000000	3.958019
461.000000	3.971698
462.000000	3.990045
463.000000	4.012907
464.000000	4.040714
465.000000	4.074088
466.000000	4.113509
467.000000	4.159204
468.000000	4.210939
469.000000	4.268720
470.000000	4.332210
471.000000	4.400872
472.000000	4.474024
473.000000	4.551571
474.000000	4.632724
475.000000	4.716723
476.000000	4.802311
477.000000	4.889163
478.000000	4.976592
479.000000	5.063569
480.000000	5.148929
481.000000	5.231079
482.000000	5.309623
483.000000	5.385205
484.000000	5.459331
485.000000	5.531727
486.000000	5.602841
487.000000	5.672597
488.000000	5.741037
489.000000	5.807376
490.000000	5.873311
491.000000	5.940205
492.000000	6.008507
493.000000	6.077850
494.000000	6.146407
495.000000	6.214942
496.000000	6.284322
497.000000	6.354647
498.000000	6.426676
499.000000	6.501675
500.000000	6.580200
501.000000	6.663172
502.000000	6.750036
503.000000	6.840962
504.000000	6.937053
505.000000	7.038188
506.000000	7.144239
507.000000	7.254887
508.000000	7.369530
509.000000	7.487563
510.000000	7.607903
511.000000	7.729981
512.000000	7.853475
513.000000	7.977400
514.000000	8.100690
515.000000	8.222866
516.000000	8.343258
517.000000	8.462424
518.000000	8.579905
519.000000	8.696233
520.000000	8.811828
521.000000	8.926260
522.000000	9.039731
523.000000	9.153974
524.000000	9.269668
525.000000	9.387471
526.000000	9.507571
527.000000	9.629454
528.000000	9.753264
529.000000	9.880277
530.000000	10.009572
531.000000	10.142341
532.000000	10.279962
533.000000	10.420426
534.000000	10.563966
535.000000	10.710599
536.000000	10.860904
537.000000	11.013732
538.000000	11.170312
539.000000	11.330458
540.000000	11.494845
541.000000	11.662987
542.000000	11.833262
543.000000	12.007019
544.000000	12.182428
545.000000	12.358038
546.000000	12.533197
547.000000	12.709415
548.000000	12.885374
549.000000	13.059334
550.000000	13.230969
551.000000	13.399261
552.000000	13.564705
553.000000	13.725411
554.000000	13.881622
555.000000	14.033898
556.000000	14.183425
557.000000	14.329018
558.000000	14.470394
559.000000	14.608214
560.000000	14.701542
561.000000	14.785330
562.000000	14.863692
563.000000	14.938323
564.000000	15.009211
565.000000	15.076871
566.000000	15.138325
567.000000	15.195054
568.000000	15.247671
569.000000	15.295538
570.000000	15.379728
571.000000	15.464693
572.000000	15.544323
573.000000	15.619824
574.000000	15.692058
575.000000	15.759854
576.000000	15.824969
577.000000	15.886072
578.000000	15.942673
579.000000	15.995254
580.000000	16.042963
581.000000	16.085448
582.000000	16.124975
583.000000	16.158742
584.000000	16.187576
585.000000	16.211584
586.000000	16.231526
587.000000	16.247295
588.000000	16.260160
589.000000	16.270825
590.000000	16.279526
591.000000	16.288078
592.000000	16.296667
593.000000	16.305909
594.000000	16.313847
595.000000	16.322530
596.000000	16.330074
597.000000	16.336701
598.000000	16.342850
599.000000	16.345484
600.000000	16.344636
601.000000	16.339502
602.000000	16.328834
603.000000	16.314554
604.000000	16.294341
605.000000	16.269629
606.000000	16.241022
607.000000	16.207411
608.000000	16.168624
609.000000	16.128465
610.000000	16.088778
611.000000	16.050733
612.000000	16.014598
613.000000	15.978877
614.000000	15.947877
615.000000	15.918063
616.000000	15.890952
617.000000	15.867072
618.000000	15.842536
619.000000	15.815052
620.000000	15.784187
621.000000	15.747853
622.000000	15.705981
623.000000	15.656816
624.000000	15.599749
625.000000	15.534985
626.000000	15.460170
627.000000	15.378701
628.000000	15.292948
629.000000	15.204053
630.000000	15.111188
631.000000	15.015329
632.000000	14.919442
633.000000	14.824718
634.000000	14.732757
635.000000	14.644071
636.000000	14.561362
637.000000	14.481506
638.000000	14.406800
639.000000	14.338999
640.000000	14.278294
641.000000	14.226511
642.000000	14.182167
643.000000	14.145902
644.000000	14.117355
645.000000	14.097787
646.000000	14.087129
647.000000	14.086366
648.000000	14.095266
649.000000	14.113353
650.000000	14.139842
651.000000	14.173397
652.000000	14.213008
653.000000	14.261151
654.000000	14.315902
655.000000	14.376092
656.000000	14.439848
657.000000	14.506854
658.000000	14.575772
659.000000	14.643793
660.000000	14.711189
661.000000	14.776604
662.000000	14.839375
663.000000	14.897662
664.000000	14.949919
665.000000	14.996008
666.000000	15.037482
667.000000	15.073001
668.000000	15.102965
669.000000	15.127911
670.000000	15.148114
671.000000	15.166972
672.000000	15.183952
673.000000	15.198701
674.000000	15.214789
675.000000	15.233324
676.000000	15.253419
677.000000	15.275448
678.000000	15.300766
679.000000	15.331131
680.000000	15.367839
681.000000	15.406862
682.000000	15.449720
683.000000	15.497697
684.000000	15.550113
685.000000	15.606823
686.000000	15.667833
687.000000	15.735395
688.000000	15.807465
689.000000	15.882154
690.000000	15.956851
691.000000	16.035941
692.000000	16.118412
693.000000	16.202322
694.000000	16.286335
695.000000	16.369426
696.000000	16.450048
697.000000	16.527041
698.000000	16.600182
699.000000	16.669474
700.000000	16.736851
701.000000	16.798081
702.000000	16.853101
703.000000	16.902378
704.000000	16.946642
705.000000	16.984820
706.000000	17.019796
707.000000	17.051356
708.000000	17.079290
709.000000	17.104333
710.000000	17.126398
711.000000	17.147551
712.000000	17.170060
713.000000	17.194539
714.000000	17.224401
715.000000	17.260502
716.000000	17.302034
717.000000	17.351103
718.000000	17.409676
719.000000	17.478841
720.000000	17.560002
721.000000	17.654457
722.000000	17.760797
723.000000	17.878803
724.000000	18.006819
725.000000	18.146749
726.000000	18.298356
727.000000	18.458871
728.000000	18.629221
729.000000	18.808199
730.000000	18.992805
731.000000	19.182523
732.000000	19.377521
733.000000	19.575631
734.000000	19.776438
735.000000	19.979168
736.000000	20.180841
737.000000	20.382065
738.000000	20.580167
739.000000	20.775865
740.000000	20.968661
741.000000	21.153426
742.000000	21.330834
743.000000	21.502317
744.000000	21.665513
745.000000	21.818588
746.000000	21.963513
747.000000	22.099137
748.000000	22.223221
749.000000	22.335390
750.000000	22.438305
751.000000	22.535934
752.000000	22.627142
753.000000	22.710437
754.000000	22.784464
755.000000	22.853279
756.000000	22.919986
757.000000	22.982179
758.000000	23.040886
759.000000	23.097292
760.000000	23.151968
761.000000	23.205759
762.000000	23.256128
763.000000	23.304575
764.000000	23.353262
765.000000	23.398274
766.000000	23.437893
767.000000	23.476521
768.000000	23.514855
769.000000	23.549194
770.000000	23.577671
771.000000	23.600630
772.000000	23.621139
773.000000	23.638931
774.000000	23.655345
775.000000	23.673423
776.000000	23.687410
777.000000	23.695702
778.000000	23.704171
779.000000	23.711506
780.000000	23.717304
781.000000	23.723061
782.000000	23.729661
783.000000	23.736866
784.000000	23.738697
785.000000	23.734280
786.000000	23.726794
787.000000	23.720445
788.000000	23.713047
789.000000	23.706801
790.000000	23.701958
791.000000	23.694068
792.000000	23.679989
793.000000	23.663917
794.000000	23.651591
795.000000	23.637373
796.000000	23.626781
797.000000	23.614678
798.000000	23.600560
799.000000	23.584333
800.000000	23.567010
801.000000	23.553343
802.000000	23.544714
803.000000	23.535548
804.000000	23.524724
805.000000	23.519537
806.000000	23.516534
807.000000	23.515373
808.000000	23.520360
809.000000	23.529127
810.000000	23.538815
811.000000	23.541712
812.000000	23.544629
813.000000	23.551732
814.000000	23.556630
815.000000	23.555186
816.000000	23.554430
817.000000	23.552080
818.000000	23.542530
819.000000	23.530794
820.000000	23.519665
821.000000	23.512160
822.000000	23.498905
823.000000	23.488541
824.000000	23.477483
825.000000	23.462226
826.000000	23.444198
827.000000	23.425564
828.000000	23.402307
829.000000	23.373443
830.000000	23.334044
831.000000	23.290040
832.000000	23.247999
833.000000	23.195809
834.000000	23.136136
835.000000	23.072993
836.000000	23.004802
837.000000	22.935290
838.000000	22.850919
839.000000	22.771952
840.000000	22.683586
841.000000	22.584803
842.000000	22.490141
843.000000	22.386739
844.000000	22.284510
845.000000	22.179816
846.000000	22.072715
847.000000	21.959637
848.000000	21.844509
849.000000	21.727752
850.000000	21.612612
851.000000	21.500237
852.000000	21.365752
853.000000	21.228533
854.000000	21.093873
855.000000	20.952374
856.000000	20.816695
857.000000	20.697673
858.000000	20.639008
859.000000	20.590316
860.000000	20.552870
861.000000	20.522651
862.000000	20.509981
863.000000	20.511166
864.000000	20.517062
865.000000	20.542141
866.000000	20.565235
867.000000	20.577658
868.000000	20.546010
869.000000	20.502670
870.000000	20.460570
871.000000	20.420957
872.000000	20.380043
873.000000	20.334917
874.000000	20.289490
875.000000	20.242963
876.000000	20.195740
877.000000	20.149660
878.000000	20.107520
879.000000	20.066137
880.000000	20.026560
881.000000	19.988460
882.000000	19.951863
883.000000	19.917810
884.000000	19.885297
885.000000	19.853850
886.000000	19.823120
887.000000	19.793403
888.000000	19.762247
889.000000	19.732790
890.000000	19.707773
891.000000	19.680210
892.000000	19.653870
893.000000	19.628103
894.000000	19.603720
895.000000	19.579140
896.000000	19.557030
897.000000	19.536760
898.000000	19.517813
899.000000	19.498070
900.000000	19.476137
901.000000	19.457467
902.000000	19.439433
903.000000	19.421573
904.000000	19.404703
905.000000	19.390480
906.000000	19.375303
907.000000	19.359553
908.000000	19.344690
909.000000	19.331313
910.000000	19.315050
911.000000	19.300137
912.000000	19.284873
913.000000	19.273803
914.000000	19.258963
915.000000	19.241080
916.000000	19.225403
917.000000	19.210170
918.000000	19.195147
919.000000	19.179297
920.000000	19.166680
921.000000	19.153633
922.000000	19.140947
923.000000	19.124163
924.000000	19.107353
925.000000	19.093060
926.000000	19.077797
927.000000	19.059283
928.000000	19.039967
929.000000	19.018483
930.000000	18.997207
931.000000	18.972613
932.000000	18.949210
933.000000	18.924417
934.000000	18.902633
935.000000	18.882673
936.000000	18.862647
937.000000	18.842700
938.000000	18.823277
939.000000	18.804150
940.000000	18.784250
941.000000	18.765710
942.000000	18.745897
943.000000	18.727197
944.000000	18.706273
945.000000	18.682250
946.000000	18.659330
947.000000	18.638920
948.000000	18.618630
949.000000	18.599917
950.000000	18.581270
951.000000	18.564580
952.000000	18.548217
953.000000	18.534787
954.000000	18.521330
955.000000	18.508437
956.000000	18.496343
957.000000	18.485123
958.000000	18.474180
959.000000	18.465210
960.000000	18.457973
961.000000	18.452000
962.000000	18.446463
963.000000	18.439793
964.000000	18.434860
965.000000	18.431033
966.000000	18.426063
967.000000	18.421710
968.000000	18.419083
969.000000	18.416903
970.000000	18.413660
971.000000	18.408740
972.000000	18.405360
973.000000	18.402253
974.000000	18.399800
975.000000	18.397803
976.000000	18.396923
977.000000	18.395250
978.000000	18.393140
979.000000	18.389740
980.000000	18.388237
981.000000	18.388340
982.000000	18.388167
983.000000	18.388923
984.000000	18.389643
985.000000	18.390250
986.000000	18.391207
987.000000	18.392580
988.000000	18.395033
989.000000	18.398143
990.000000	18.401440
991.000000	18.403263
992.000000	18.403877
993.000000	18.405620
994.000000	18.408927
995.000000	18.412973
996.000000	18.415927
997.000000	18.417700
998.000000	18.420897
999.000000	18.425677
1000.000000	18.429777
1001.000000	18.435943
1002.000000	18.443127
1003.000000	18.449837
1004.000000	18.455660
1005.000000	18.462730
1006.000000	18.471020
1007.000000	18.480660
1008.000000	18.488420
1009.000000	18.496153
1010.000000	18.505633
1011.000000	18.515403
1012.000000	18.525327
1013.000000	18.535117
1014.000000	18.545193
1015.000000	18.554410
1016.000000	18.563323
1017.000000	18.572493
1018.000000	18.582337
1019.000000	18.592127
1020.000000	18.600797
1021.000000	18.609123
1022.000000	18.617963
1023.000000	18.628317
1024.000000	18.639373
1025.000000	18.650207
1026.000000	18.661453
1027.000000	18.672907
1028.000000	18.683610
1029.000000	18.692390
1030.000000	18.699910
1031.000000	18.708010
1032.000000	18.717027
1033.000000	18.725777
1034.000000	18.734553
1035.000000	18.743433
1036.000000	18.751867
1037.000000	18.760577
1038.000000	18.769757
1039.000000	18.780983
1040.000000	18.793007
1041.000000	18.804160
1042.000000	18.814267
1043.000000	18.823100
1044.000000	18.831207
1045.000000	18.839357
1046.000000	18.847527
1047.000000	18.855917
1048.000000	18.864330
1049.000000	18.872793
1050.000000	18.882167
1051.000000	18.892543
1052.000000	18.904037
1053.000000	18.917053
1054.000000	18.930580
1055.000000	18.944800
1056.000000	18.959203
1057.000000	18.973317
1058.000000	18.987650
1059.000000	19.001113
1060.000000	19.014410
1061.000000	19.027200
1062.000000	19.038287
1063.000000	19.049200
1064.000000	19.060613
1065.000000	19.070483
1066.000000	19.079317
1067.000000	19.088217
1068.000000	19.097103
1069.000000	19.106453
1070.000000	19.115333
1071.000000	19.124923
1072.000000	19.135670
1073.000000	19.145707
1074.000000	19.154070
1075.000000	19.163857
1076.000000	19.175130
1077.000000	19.185307
1078.000000	19.194750
1079.000000	19.204170
1080.000000	19.212813
1081.000000	19.218917
1082.000000	19.224733
1083.000000	19.230417
1084.000000	19.236810
1085.000000	19.241523
1086.000000	19.244213
1087.000000	19.248493
1088.000000	19.253293
1089.000000	19.257603
1090.000000	19.261790
1091.000000	19.267403
1092.000000	19.272020
1093.000000	19.276870
1094.000000	19.281797
1095.000000	19.287567
1096.000000	19.294270
1097.000000	19.300867
1098.000000	19.306997
1099.000000	19.313317
1100.000000	19.321180
1101.000000	19.329143
1102.000000	19.336750
1103.000000	19.343803
1104.000000	19.349697
1105.000000	19.356997
1106.000000	19.366203
1107.000000	19.372377
1108.000000	19.378813
1109.000000	19.386100
1110.000000	19.391240
1111.000000	19.395990
1112.000000	19.400503
1113.000000	19.403903
1114.000000	19.408967
1115.000000	19.411677
1116.000000	19.412817
1117.000000	19.416167
1118.000000	19.417837
1119.000000	19.418450
1120.000000	19.419047
1121.000000	19.418717
1122.000000	19.420633
1123.000000	19.423637
1124.000000	19.423950
1125.000000	19.422513
1126.000000	19.420890
1127.000000	19.419127
1128.000000	19.415533
1129.000000	19.410993
1130.000000	19.404930
1131.000000	19.396727
1132.000000	19.383973
1133.000000	19.367247
1134.000000	19.349913
1135.000000	19.336723
1136.000000	19.323593
1137.000000	19.305727
1138.000000	19.286530
1139.000000	19.266153
1140.000000	19.246317
1141.000000	19.226920
1142.000000	19.209190
1143.000000	19.191963
1144.000000	19.175880
1145.000000	19.157757
1146.000000	19.138213
1147.000000	19.122217
1148.000000	19.109667
1149.000000	19.096463
1150.000000	19.083160
1151.000000	19.073110
1152.000000	19.060543
1153.000000	19.050950
1154.000000	19.042037
1155.000000	19.031763
1156.000000	19.021303
1157.000000	19.008637
1158.000000	18.993707
1159.000000	18.977517
1160.000000	18.960380
1161.000000	18.940073
1162.000000	18.920430
1163.000000	18.895893
1164.000000	18.868930
1165.000000	18.840327
1166.000000	18.811050
1167.000000	18.779257
1168.000000	18.748657
1169.000000	18.717777
1170.000000	18.688887
1171.000000	18.659643
1172.000000	18.631420
1173.000000	18.605323
1174.000000	18.580983
1175.000000	18.558233
1176.000000	18.534007
1177.000000	18.515203
1178.000000	18.497423
1179.000000	18.481503
1180.000000	18.463960
1181.000000	18.447537
1182.000000	18.430180
1183.000000	18.415153
1184.000000	18.399607
1185.000000	18.385510
1186.000000	18.374280
1187.000000	18.361893
1188.000000	18.349797
1189.000000	18.339853
1190.000000	18.332473
1191.000000	18.327860
1192.000000	18.326493
1193.000000	18.326030
1194.000000	18.327300
1195.000000	18.330393
1196.000000	18.335050
1197.000000	18.341947
1198.000000	18.349987
1199.000000	18.358503
1200.000000	18.368263
1201.000000	18.378487
1202.000000	18.389440
1203.000000	18.401047
1204.000000	18.413373
1205.000000	18.425997
1206.000000	18.437520
1207.000000	18.449703
1208.000000	18.462513
1209.000000	18.476377
1210.000000	18.491010
1211.000000	18.504397
1212.000000	18.517760
1213.000000	18.532610
1214.000000	18.548177
1215.000000	18.563557
1216.000000	18.579803
1217.000000	18.594487
1218.000000	18.608440
1219.000000	18.622370
1220.000000	18.636200
1221.000000	18.649833
1222.000000	18.663750
1223.000000	18.675957
1224.000000	18.687247
1225.000000	18.696703
1226.000000	18.706613
1227.000000	18.716590
1228.000000	18.725840
1229.000000	18.734050
1230.000000	18.740130
1231.000000	18.746683
1232.000000	18.750983
1233.000000	18.754050
1234.000000	18.756617
1235.000000	18.758833
1236.000000	18.759850
1237.000000	18.761067
1238.000000	18.761633
1239.000000	18.762220
1240.000000	18.762347
1241.000000	18.761230
1242.000000	18.760020
1243.000000	18.760610
1244.000000	18.762450
1245.000000	18.765077
1246.000000	18.767863
1247.000000	18.771523
1248.000000	18.777030
1249.000000	18.783897
1250.000000	18.792930
1251.000000	18.802727
1252.000000	18.813830
1253.000000	18.824573
1254.000000	18.833770
1255.000000	18.843680
1256.000000	18.854683
1257.000000	18.864620
1258.000000	18.874053
1259.000000	18.882910
1260.000000	18.889797
1261.000000	18.895223
1262.000000	18.901550
1263.000000	18.908200
1264.000000	18.914380
1265.000000	18.919497
1266.000000	18.923363
1267.000000	18.925957
1268.000000	18.928090
1269.000000	18.929367
1270.000000	18.930037
1271.000000	18.931627
1272.000000	18.931657
1273.000000	18.929327
1274.000000	18.926870
1275.000000	18.924857
1276.000000	18.922400
1277.000000	18.920337
1278.000000	18.919073
1279.000000	18.917923
1280.000000	18.918020
1281.000000	18.918823
1282.000000	18.920107
1283.000000	18.922310
1284.000000	18.925187
1285.000000	18.928040
1286.000000	18.932723
1287.000000	18.938573
1288.000000	18.944307
1289.000000	18.950023
1290.000000	18.955513
1291.000000	18.961657
1292.000000	18.968780
1293.000000	18.977080
1294.000000	18.985980
1295.000000	18.994707
1296.000000	19.002453
1297.000000	19.010157
1298.000000	19.017680
1299.000000	19.024840
1300.000000	19.032213
1301.000000	19.038493
1302.000000	19.043063
1303.000000	19.046950
1304.000000	19.050450
1305.000000	19.052883
1306.000000	19.054923
1307.000000	19.055697
1308.000000	19.054527
1309.000000	19.053170
1310.000000	19.051973
1311.000000	19.048997
1312.000000	19.043813
1313.000000	19.037477
1314.000000	19.029937
1315.000000	19.021817
1316.000000	19.011803
1317.000000	19.001520
1318.000000	18.991103
1319.000000	18.978293
1320.000000	18.963020
1321.000000	18.946823
1322.000000	18.930587
1323.000000	18.911707
1324.000000	18.891440
1325.000000	18.870687
1326.000000	18.849640
1327.000000	18.826877
1328.000000	18.802950
1329.000000	18.779143
1330.000000	18.754293
1331.000000	18.728793
1332.000000	18.703150
1333.000000	18.678450
1334.000000	18.652887
1335.000000	18.626600
1336.000000	18.599090
1337.000000	18.571280
1338.000000	18.542500
1339.000000	18.511147
1340.000000	18.478823
1341.000000	18.446937
1342.000000	18.414147
1343.000000	18.378667
1344.000000	18.343400
1345.000000	18.305367
1346.000000	18.264257
1347.000000	18.222597
1348.000000	18.182077
1349.000000	18.142357
1350.000000	18.100410
1351.000000	18.056050
1352.000000	18.010360
1353.000000	17.963010
1354.000000	17.915740
1355.000000	17.873997
1356.000000	17.837427
1357.000000	17.801517
1358.000000	17.763427
1359.000000	17.723780
1360.000000	17.683593
1361.000000	17.650257
1362.000000	17.630070
1363.000000	17.613467
1364.000000	17.592800
1365.000000	17.569980
1366.000000	17.542623
1367.000000	17.510667
1368.000000	17.481377
1369.000000	17.451087
1370.000000	17.417297
1371.000000	17.374107
1372.000000	17.315557
1373.000000	17.245093
1374.000000	17.162377
1375.000000	17.063497
1376.000000	16.954607
1377.000000	16.833353
1378.000000	16.696980
1379.000000	16.544710
1380.000000	16.386540
1381.000000	16.228540
1382.000000	16.080187
1383.000000	15.945033
1384.000000	15.827553
1385.000000	15.719617
1386.000000	15.620667
1387.000000	15.538697
1388.000000	15.475650
1389.000000	15.436637
1390.000000	15.409257
1391.000000	15.383533
1392.000000	15.357853
1393.000000	15.334197
1394.000000	15.310003
1395.000000	15.295103
1396.000000	15.295980
1397.000000	15.298463
1398.000000	15.287917
1399.000000	15.266583
1400.000000	15.252260
1401.000000	15.251860
1402.000000	15.242357
1403.000000	15.216273
1404.000000	15.182413
1405.000000	15.147633
1406.000000	15.098157
1407.000000	15.042143
1408.000000	14.988400
1409.000000	14.939967
1410.000000	14.882137
1411.000000	14.807163
1412.000000	14.726057
1413.000000	14.652770
1414.000000	14.584687
1415.000000	14.513560
1416.000000	14.435993
1417.000000	14.355590
1418.000000	14.277280
1419.000000	14.199683
1420.000000	14.125500
1421.000000	14.052527
1422.000000	13.982393
1423.000000	13.916603
1424.000000	13.849777
1425.000000	13.781037
1426.000000	13.716630
1427.000000	13.657087
1428.000000	13.600997
1429.000000	13.545673
1430.000000	13.487783
1431.000000	13.434187
1432.000000	13.389070
1433.000000	13.344467
1434.000000	13.300960
1435.000000	13.259010
1436.000000	13.220443
1437.000000	13.185573
1438.000000	13.152860
1439.000000	13.120520
1440.000000	13.090717
1441.000000	13.060450
1442.000000	13.030567
1443.000000	13.003717
1444.000000	12.976087
1445.000000	12.952093
1446.000000	12.932610
1447.000000	12.914257
1448.000000	12.892533
1449.000000	12.870337
1450.000000	12.851027
1451.000000	12.835717
1452.000000	12.820833
1453.000000	12.802233
1454.000000	12.787003
1455.000000	12.769880
1456.000000	12.750533
1457.000000	12.730707
1458.000000	12.713137
1459.000000	12.695437
1460.000000	12.676153
1461.000000	12.655543
1462.000000	12.633313
1463.000000	12.611900
1464.000000	12.590857
1465.000000	12.570273
1466.000000	12.550567
1467.000000	12.530723
1468.000000	12.509097
1469.000000	12.487260
1470.000000	12.466947
1471.000000	12.448410
1472.000000	12.431183
1473.000000	12.414773
1474.000000	12.397147
1475.000000	12.376877
1476.000000	12.354950
1477.000000	12.335837
1478.000000	12.319743
1479.000000	12.304843
1480.000000	12.289280
1481.000000	12.273247
1482.000000	12.256243
1483.000000	12.240590
1484.000000	12.226100
1485.000000	12.214297
1486.000000	12.204967
1487.000000	12.194090
1488.000000	12.181493
1489.000000	12.169767
1490.000000	12.156753
1491.000000	12.143707
1492.000000	12.132110
1493.000000	12.120837
1494.000000	12.110057
1495.000000	12.100190
1496.000000	12.090887
1497.000000	12.082923
1498.000000	12.077433
1499.000000	12.072750
1500.000000	12.071313
1501.000000	12.070813
1502.000000	12.071633
1503.000000	12.075597
1504.000000	12.081830
1505.000000	12.089450
1506.000000	12.098757
1507.000000	12.109497
1508.000000	12.121773
1509.000000	12.136250
1510.000000	12.151430
1511.000000	12.167883
1512.000000	12.186267
1513.000000	12.203690
1514.000000	12.222147
1515.000000	12.241697
1516.000000	12.261987
1517.000000	12.281353
1518.000000	12.301727
1519.000000	12.321600
1520.000000	12.343180
1521.000000	12.365520
1522.000000	12.386623
1523.000000	12.407427
1524.000000	12.428093
1525.000000	12.448443
1526.000000	12.468300
1527.000000	12.489243
1528.000000	12.509897
1529.000000	12.530170
1530.000000	12.548647
1531.000000	12.567070
1532.000000	12.586577
1533.000000	12.605800
1534.000000	12.624947
1535.000000	12.643867
1536.000000	12.662497
1537.000000	12.680423
1538.000000	12.697847
1539.000000	12.715880
1540.000000	12.734293
1541.000000	12.750817
1542.000000	12.765597
1543.000000	12.781693
1544.000000	12.797857
1545.000000	12.813893
1546.000000	12.830280
1547.000000	12.847343
1548.000000	12.865967
1549.000000	12.885043
1550.000000	12.904993
1551.000000	12.927187
1552.000000	12.950973
1553.000000	12.975053
1554.000000	12.998163
1555.000000	13.021617
1556.000000	13.045273
1557.000000	13.067477
1558.000000	13.087093
1559.000000	13.104903
1560.000000	13.121070
1561.000000	13.135280
1562.000000	13.147717
1563.000000	13.157733
1564.000000	13.165723
1565.000000	13.171807
1566.000000	13.176433
1567.000000	13.178620
1568.000000	13.179783
1569.000000	13.179550
1570.000000	13.178047
1571.000000	13.175757
1572.000000	13.172657
1573.000000	13.169807
1574.000000	13.168193
1575.000000	13.166993
1576.000000	13.164750
1577.000000	13.164757
1578.000000	13.165780
1579.000000	13.167440
1580.000000	13.169903
1581.000000	13.173120
1582.000000	13.178023
1583.000000	13.184220
1584.000000	13.191347
1585.000000	13.198880
1586.000000	13.207290
1587.000000	13.216897
1588.000000	13.227803
1589.000000	13.239003
1590.000000	13.250973
1591.000000	13.263693
1592.000000	13.275373
1593.000000	13.285970
1594.000000	13.297223
1595.000000	13.309263
1596.000000	13.322073
1597.000000	13.333930
1598.000000	13.345353
1599.000000	13.357987
1600.000000	13.371257
1601.000000	13.384533
1602.000000	13.398863
1603.000000	13.414860
1604.000000	13.430320
1605.000000	13.445887
1606.000000	13.461467
1607.000000	13.477033
1608.000000	13.492440
1609.000000	13.507217
1610.000000	13.522083
1611.000000	13.536943
1612.000000	13.549930
1613.000000	13.560940
1614.000000	13.571187
1615.000000	13.580933
1616.000000	13.589823
1617.000000	13.597837
1618.000000	13.605460
1619.000000	13.613040
1620.000000	13.620190
1621.000000	13.625243
1622.000000	13.631200
1623.000000	13.637833
1624.000000	13.644877
1625.000000	13.651810
1626.000000	13.658900
1627.000000	13.666553
1628.000000	13.674067
1629.000000	13.682910
1630.000000	13.690257
1631.000000	13.697923
1632.000000	13.706557
1633.000000	13.715243
1634.000000	13.723077
1635.000000	13.730783
1636.000000	13.737773
1637.000000	13.744170
1638.000000	13.750493
1639.000000	13.755173
1640.000000	13.759377
1641.000000	13.763590
1642.000000	13.766620
1643.000000	13.768963
1644.000000	13.772247
1645.000000	13.775240
1646.000000	13.777897
1647.000000	13.780513
1648.000000	13.782947
1649.000000	13.784703
1650.000000	13.787117
1651.000000	13.789557
1652.000000	13.790170
1653.000000	13.789627
1654.000000	13.786877
1655.000000	13.782310
1656.000000	13.776603
1657.000000	13.769343
1658.000000	13.758080
1659.000000	13.744597
1660.000000	13.729343
1661.000000	13.710540
1662.000000	13.690033
1663.000000	13.666107
1664.000000	13.639663
1665.000000	13.610613
1666.000000	13.579150
1667.000000	13.545210
1668.000000	13.505187
1669.000000	13.462920
1670.000000	13.416413
1671.000000	13.368010
1672.000000	13.317413
1673.000000	13.266110
1674.000000	13.213950
1675.000000	13.160493
1676.000000	13.105560
1677.000000	13.049623
1678.000000	12.999003
1679.000000	12.947937
1680.000000	12.895520
1681.000000	12.842660
1682.000000	12.789383
1683.000000	12.734087
1684.000000	12.676267
1685.000000	12.619137
1686.000000	12.563917
1687.000000	12.509687
1688.000000	12.457547
1689.000000	12.411433
1690.000000	12.374713
1691.000000	12.344473
1692.000000	12.322817
1693.000000	12.310330
1694.000000	12.306703
1695.000000	12.309827
1696.000000	12.316283
1697.000000	12.329180
1698.000000	12.343840
1699.000000	12.356790
1700.000000	12.369037
1701.000000	12.378640
1702.000000	12.385967
1703.000000	12.388753
1704.000000	12.387907
1705.000000	12.382740
1706.000000	12.376160
1707.000000	12.364320
1708.000000	12.349337
1709.000000	12.331337
1710.000000	12.307053
1711.000000	12.279587
1712.000000	12.247263
1713.000000	12.213280
1714.000000	12.173950
1715.000000	12.130220
1716.000000	12.081377
1717.000000	12.027207
1718.000000	11.969520
1719.000000	11.909083
1720.000000	11.847547
1721.000000	11.785590
1722.000000	11.723560
1723.000000	11.662747
1724.000000	11.608183
1725.000000	11.559180
1726.000000	11.518120
1727.000000	11.486020
1728.000000	11.462853
1729.000000	11.447983
1730.000000	11.439597
1731.000000	11.438700
1732.000000	11.442503
1733.000000	11.451103
1734.000000	11.462860
1735.000000	11.476597
1736.000000	11.490433
1737.000000	11.505020
1738.000000	11.519413
1739.000000	11.534810
1740.000000	11.551023
1741.000000	11.568947
1742.000000	11.588993
1743.000000	11.608977
1744.000000	11.628720
1745.000000	11.648983
1746.000000	11.669603
1747.000000	11.690850
1748.000000	11.712567
1749.000000	11.731900
1750.000000	11.749653
1751.000000	11.765677
1752.000000	11.778913
1753.000000	11.790100
1754.000000	11.799413
1755.000000	11.807630
1756.000000	11.812850
1757.000000	11.815753
1758.000000	11.817053
1759.000000	11.818150
1760.000000	11.819157
1761.000000	11.818727
1762.000000	11.818630
1763.000000	11.819470
1764.000000	11.820687
1765.000000	11.822343
1766.000000	11.826800
1767.000000	11.832417
1768.000000	11.838403
1769.000000	11.845127
1770.000000	11.853973
1771.000000	11.864300
1772.000000	11.875177
1773.000000	11.887677
1774.000000	11.901160
1775.000000	11.914507
1776.000000	11.927570
1777.000000	11.940703
1778.000000	11.954180
1779.000000	11.967997
1780.000000	11.980677
1781.000000	11.994213
1782.000000	12.007167
1783.000000	12.017923
1784.000000	12.027070
1785.000000	12.036460
1786.000000	12.045587
1787.000000	12.053930
1788.000000	12.061613
1789.000000	12.067240
1790.000000	12.071940
1791.000000	12.073830
1792.000000	12.076033
1793.000000	12.079463
1794.000000	12.083403
1795.000000	12.086090
1796.000000	12.089800
1797.000000	12.093317
1798.000000	12.095943
1799.000000	12.098247
1800.000000	12.100977
1801.000000	12.107097
1802.000000	12.114763
1803.000000	12.121723
1804.000000	12.126833
1805.000000	12.130977
1806.000000	12.136523
1807.000000	12.144197
1808.000000	12.151200
1809.000000	12.156213
1810.000000	12.160293
1811.000000	12.163203
1812.000000	12.167237
1813.000000	12.171430
1814.000000	12.175303
1815.000000	12.180517
1816.000000	12.183700
1817.000000	12.183210
1818.000000	12.177503
1819.000000	12.170000
1820.000000	12.167873
1821.000000	12.174167
1822.000000	12.184843
1823.000000	12.190723
1824.000000	12.188240
1825.000000	12.179180
1826.000000	12.166757
1827.000000	12.158507
1828.000000	12.159870
1829.000000	12.168353
1830.000000	12.174993
1831.000000	12.174820
1832.000000	12.165750
1833.000000	12.155217
1834.000000	12.148660
1835.000000	12.145687
1836.000000	12.148590
1837.000000	12.155597
1838.000000	12.161387
1839.000000	12.163333
1840.000000	12.164720
1841.000000	12.169817
1842.000000	12.186587
1843.000000	12.209363
1844.000000	12.226477
1845.000000	12.230647
1846.000000	12.221530
1847.000000	12.211623
1848.000000	12.217427
1849.000000	12.237507
1850.000000	12.252883
1851.000000	12.249053
1852.000000	12.226410
1853.000000	12.202167
1854.000000	12.191240
1855.000000	12.197743
1856.000000	12.212270
1857.000000	12.213737
1858.000000	12.193010
1859.000000	12.162983
1860.000000	12.138400
1861.000000	12.126253
1862.000000	12.120977
1863.000000	12.110057
1864.000000	12.086387
1865.000000	12.049483
1866.000000	12.004197
1867.000000	11.957880
1868.000000	11.910237
1869.000000	11.853553
1870.000000	11.795730
1871.000000	11.742207
1872.000000	11.690423
1873.000000	11.646260
1874.000000	11.611710
1875.000000	11.582193
1876.000000	11.557183
1877.000000	11.532017
1878.000000	11.504130
1879.000000	11.471677
1880.000000	11.423640
1881.000000	11.355117
1882.000000	11.273123
1883.000000	11.179870
1884.000000	11.079470
1885.000000	10.975767
1886.000000	10.865073
1887.000000	10.746093
1888.000000	10.617213
1889.000000	10.479900
1890.000000	10.340880
1891.000000	10.204883
1892.000000	10.070347
1893.000000	9.932857
1894.000000	9.786830
1895.000000	9.630780
1896.000000	9.463990
1897.000000	9.292693
1898.000000	9.121877
1899.000000	8.955930
1900.000000	8.795310
1901.000000	8.632840
1902.000000	8.466870
1903.000000	8.297460
1904.000000	8.130470
1905.000000	7.973470
1906.000000	7.830737
1907.000000	7.698880
1908.000000	7.572827
1909.000000	7.446763
1910.000000	7.316757
1911.000000	7.189223
1912.000000	7.068930
1913.000000	6.961230
1914.000000	6.864723
1915.000000	6.770803
1916.000000	6.677190
1917.000000	6.583310
1918.000000	6.492717
1919.000000	6.409207
1920.000000	6.337727
1921.000000	6.274670
1922.000000	6.219160
1923.000000	6.163807
1924.000000	6.108070
1925.000000	6.054143
1926.000000	6.005700
1927.000000	5.964837
1928.000000	5.931130
1929.000000	5.904243
1930.000000	5.879060
1931.000000	5.856333
1932.000000	5.832697
1933.000000	5.810933
1934.000000	5.792760
1935.000000	5.778947
1936.000000	5.767763
1937.000000	5.759600
1938.000000	5.754910
1939.000000	5.753860
1940.000000	5.753577
1941.000000	5.756923
1942.000000	5.761763
1943.000000	5.770660
1944.000000	5.782370
1945.000000	5.796390
1946.000000	5.813297
1947.000000	5.832103
1948.000000	5.851160
1949.000000	5.869727
1950.000000	5.890213
1951.000000	5.910400
1952.000000	5.932410
1953.000000	5.955510
1954.000000	5.979187
1955.000000	6.005830
1956.000000	6.033137
1957.000000	6.060800
1958.000000	6.090237
1959.000000	6.118770
1960.000000	6.147090
1961.000000	6.175313
1962.000000	6.204457
1963.000000	6.234963
1964.000000	6.265990
1965.000000	6.293610
1966.000000	6.323037
1967.000000	6.350533
1968.000000	6.376103
1969.000000	6.401903
1970.000000	6.429340
1971.000000	6.456060
1972.000000	6.483537
1973.000000	6.510133
1974.000000	6.535837
1975.000000	6.564170
1976.000000	6.587920
1977.000000	6.614280
1978.000000	6.640790
1979.000000	6.667043
1980.000000	6.692960
1981.000000	6.722150
1982.000000	6.750757
1983.000000	6.778010
1984.000000	6.803807
1985.000000	6.830773
1986.000000	6.859343
1987.000000	6.887850
1988.000000	6.916933
1989.000000	6.945533
1990.000000	6.974173
1991.000000	6.999247
1992.000000	7.024967
1993.000000	7.049947
1994.000000	7.075887
1995.000000	7.099557
1996.000000	7.123890
1997.000000	7.144860
1998.000000	7.166437
1999.000000	7.187580
2000.000000	7.205997
2001.000000	7.223920
2002.000000	7.239320
2003.000000	7.254563
2004.000000	7.269530
2005.000000	7.283297
2006.000000	7.295183
2007.000000	7.306790
2008.000000	7.314523
2009.000000	7.321063
2010.000000	7.326983
2011.000000	7.330940
2012.000000	7.334327
2013.000000	7.336310
2014.000000	7.335663
2015.000000	7.332373
2016.000000	7.327400
2017.000000	7.321067
2018.000000	7.312747
2019.000000	7.302343
2020.000000	7.290780
2021.000000	7.278323
2022.000000	7.262777
2023.000000	7.245190
2024.000000	7.226733
2025.000000	7.207180
2026.000000	7.186510
2027.000000	7.163023
2028.000000	7.138750
2029.000000	7.114620
2030.000000	7.087427
2031.000000	7.058727
2032.000000	7.028790
2033.000000	6.997900
2034.000000	6.965143
2035.000000	6.931403
2036.000000	6.895337
2037.000000	6.857800
2038.000000	6.820130
2039.000000	6.780053
2040.000000	6.739190
2041.000000	6.696320
2042.000000	6.653497
2043.000000	6.608847
2044.000000	6.562767
2045.000000	6.515323
2046.000000	6.468583
2047.000000	6.423590
2048.000000	6.378693
2049.000000	6.334630
2050.000000	6.292637
2051.000000	6.254070
2052.000000	6.218027
2053.000000	6.186460
2054.000000	6.160077
2055.000000	6.139360
2056.000000	6.123247
2057.000000	6.113113
2058.000000	6.108170
2059.000000	6.108917
2060.000000	6.114823
2061.000000	6.126593
2062.000000	6.143477
2063.000000	6.163507
2064.000000	6.186287
2065.000000	6.210900
2066.000000	6.238307
2067.000000	6.267433
2068.000000	6.297520
2069.000000	6.327883
2070.000000	6.359337
2071.000000	6.390027
2072.000000	6.419547
2073.000000	6.449777
2074.000000	6.479487
2075.000000	6.508587
2076.000000	6.535740
2077.000000	6.560937
2078.000000	6.585243
2079.000000	6.607720
2080.000000	6.627500
2081.000000	6.645060
2082.000000	6.660413
2083.000000	6.672817
2084.000000	6.683090
2085.000000	6.691190
2086.000000	6.697737
2087.000000	6.702233
2088.000000	6.703820
2089.000000	6.704083
2090.000000	6.703543
2091.000000	6.702040
2092.000000	6.699417
2093.000000	6.696213
2094.000000	6.691643
2095.000000	6.686773
2096.000000	6.681533
2097.000000	6.675977
2098.000000	6.671167
2099.000000	6.666813
2100.000000	6.662473
2101.000000	6.657620
2102.000000	6.653227
2103.000000	6.649520
2104.000000	6.647453
2105.000000	6.645737
2106.000000	6.643657
2107.000000	6.641003
2108.000000	6.637417
2109.000000	6.633997
2110.000000	6.630533
2111.000000	6.627970
2112.000000	6.625493
2113.000000	6.621143
2114.000000	6.614613
2115.000000	6.607580
2116.000000	6.600847
2117.000000	6.593707
2118.000000	6.586147
2119.000000	6.577857
2120.000000	6.568460
2121.000000	6.557770
2122.000000	6.546120
2123.000000	6.535237
2124.000000	6.524247
2125.000000	6.511423
2126.000000	6.496257
2127.000000	6.481333
2128.000000	6.466400
2129.000000	6.449707
2130.000000	6.433027
2131.000000	6.415400
2132.000000	6.396303
2133.000000	6.375470
2134.000000	6.354197
2135.000000	6.332927
2136.000000	6.311257
2137.000000	6.287707
2138.000000	6.263927
2139.000000	6.239963
2140.000000	6.214593
2141.000000	6.188397
2142.000000	6.161477
2143.000000	6.133503
2144.000000	6.104187
2145.000000	6.075570
2146.000000	6.046590
2147.000000	6.017503
2148.000000	5.987337
2149.000000	5.956350
2150.000000	5.924267
2151.000000	5.893730
2152.000000	5.863153
2153.000000	5.832233
2154.000000	5.802250
2155.000000	5.771257
2156.000000	5.740963
2157.000000	5.712290
2158.000000	5.684843
2159.000000	5.659053
2160.000000	5.636333
2161.000000	5.612033
2162.000000	5.589817
2163.000000	5.569883
2164.000000	5.551203
2165.000000	5.533553
2166.000000	5.516853
2167.000000	5.501150
2168.000000	5.485850
2169.000000	5.471093
2170.000000	5.455367
2171.000000	5.441047
2172.000000	5.426857
2173.000000	5.413083
2174.000000	5.400007
2175.000000	5.387690
2176.000000	5.375617
2177.000000	5.364290
2178.000000	5.352130
2179.000000	5.338987
2180.000000	5.327207
2181.000000	5.315767
2182.000000	5.302843
2183.000000	5.289500
2184.000000	5.274603
2185.000000	5.257693
2186.000000	5.239353
2187.000000	5.217860
2188.000000	5.193697
2189.000000	5.168003
2190.000000	5.138157
2191.000000	5.105793
2192.000000	5.070330
2193.000000	5.029887
2194.000000	4.985947
2195.000000	4.938560
2196.000000	4.886220
2197.000000	4.831533
2198.000000	4.775190
2199.000000	4.714900
2200.000000	4.654483
2201.000000	4.592473
2202.000000	4.530840
2203.000000	4.471777
2204.000000	4.413083
2205.000000	4.357093
2206.000000	4.307317
2207.000000	4.261397
2208.000000	4.220053
2209.000000	4.186257
2210.000000	4.157030
2211.000000	4.132980
2212.000000	4.117553
2213.000000	4.107010
2214.000000	4.104167
2215.000000	4.108863
2216.000000	4.116263
2217.000000	4.130643
2218.000000	4.149753
2219.000000	4.172990
2220.000000	4.199233
2221.000000	4.228467
2222.000000	4.258553
2223.000000	4.293120
2224.000000	4.325440
2225.000000	4.357093
2226.000000	4.389843
2227.000000	4.420187
2228.000000	4.450070
2229.000000	4.476937
2230.000000	4.502297
2231.000000	4.527700
2232.000000	4.549700
2233.000000	4.565600
2234.000000	4.581887
2235.000000	4.594410
2236.000000	4.604127
2237.000000	4.610427
2238.000000	4.613490
2239.000000	4.615553
2240.000000	4.613480
2241.000000	4.606917
2242.000000	4.598610
2243.000000	4.589547
2244.000000	4.577163
2245.000000	4.564083
2246.000000	4.549677
2247.000000	4.532913
2248.000000	4.516003
2249.000000	4.496033
2250.000000	4.476477
2251.000000	4.454470
2252.000000	4.432743
2253.000000	4.410747
2254.000000	4.387720
2255.000000	4.364323
2256.000000	4.340427
2257.000000	4.318670
2258.000000	4.295850
2259.000000	4.275623
2260.000000	4.255680
2261.000000	4.238987
2262.000000	4.223963
2263.000000	4.209703
2264.000000	4.199083
2265.000000	4.191207
2266.000000	4.184887
2267.000000	4.180150
2268.000000	4.177977
2269.000000	4.176037
2270.000000	4.177663
2271.000000	4.182180
2272.000000	4.186317
2273.000000	4.190970
2274.000000	4.196407
2275.000000	4.202043
2276.000000	4.210083
2277.000000	4.217230
2278.000000	4.224437
2279.000000	4.233337
2280.000000	4.240363
2281.000000	4.246157
2282.000000	4.251447
2283.000000	4.257357
2284.000000	4.263033
2285.000000	4.267413
2286.000000	4.271740
2287.000000	4.276223
2288.000000	4.280810
2289.000000	4.285270
2290.000000	4.289977
2291.000000	4.293870
2292.000000	4.297753
2293.000000	4.301923
2294.000000	4.307363
2295.000000	4.314017
2296.000000	4.319570
2297.000000	4.327027
2298.000000	4.334130
2299.000000	4.340387
2300.000000	4.347717
2301.000000	4.356573
2302.000000	4.366570
2303.000000	4.377747
2304.000000	4.387630
2305.000000	4.399513
2306.000000	4.412443
2307.000000	4.424557
2308.000000	4.438343
2309.000000	4.451797
2310.000000	4.466063
2311.000000	4.480687
2312.000000	4.496083
2313.000000	4.510180
2314.000000	4.525320
2315.000000	4.537503
2316.000000	4.548840
2317.000000	4.560637
2318.000000	4.570430
2319.000000	4.579587
2320.000000	4.587553
2321.000000	4.594217
2322.000000	4.598923
2323.000000	4.602923
2324.000000	4.604293
2325.000000	4.605113
2326.000000	4.604077
2327.000000	4.602147
2328.000000	4.600367
2329.000000	4.598207
2330.000000	4.595043
2331.000000	4.590697
2332.000000	4.586653
2333.000000	4.583000
2334.000000	4.579563
2335.000000	4.578360
2336.000000	4.579030
2337.000000	4.578307
2338.000000	4.578157
2339.000000	4.579627
2340.000000	4.582243
2341.000000	4.586380
2342.000000	4.589697
2343.000000	4.593683
2344.000000	4.599557
2345.000000	4.603753
2346.000000	4.608523
2347.000000	4.614787
2348.000000	4.621113
2349.000000	4.627477
2350.000000	4.633537
2351.000000	4.639777
2352.000000	4.647607
2353.000000	4.655337
2354.000000	4.661960
2355.000000	4.668897
2356.000000	4.675040
2357.000000	4.680640
2358.000000	4.685463
2359.000000	4.689957
2360.000000	4.694070
2361.000000	4.696813
2362.000000	4.697670
2363.000000	4.698393
2364.000000	4.699173
2365.000000	4.699277
2366.000000	4.699730
2367.000000	4.699350
2368.000000	4.698723
2369.000000	4.697777
2370.000000	4.697017
2371.000000	4.696890
2372.000000	4.697907
2373.000000	4.698737
2374.000000	4.699733
2375.000000	4.701253
2376.000000	4.702383
2377.000000	4.704340
2378.000000	4.706587
2379.000000	4.708377
2380.000000	4.710223
2381.000000	4.711867
2382.000000	4.712573
2383.000000	4.713003
2384.000000	4.713710
2385.000000	4.713480
2386.000000	4.712047
2387.000000	4.709363
2388.000000	4.706197
2389.000000	4.702717
2390.000000	4.698350
2391.000000	4.693247
2392.000000	4.688410
2393.000000	4.682233
2394.000000	4.674027
2395.000000	4.666360
2396.000000	4.658013
2397.000000	4.648980
2398.000000	4.640523
2399.000000	4.632250
2400.000000	4.622743
2401.000000	4.612137
2402.000000	4.600687
2403.000000	4.589040
2404.000000	4.577997
2405.000000	4.565373
2406.000000	4.552430
2407.000000	4.538703
2408.000000	4.523950
2409.000000	4.508423
2410.000000	4.493377
2411.000000	4.477190
2412.000000	4.460310
2413.000000	4.443333
2414.000000	4.425197
2415.000000	4.407257
2416.000000	4.388203
2417.000000	4.368667
2418.000000	4.347453
2419.000000	4.325487
2420.000000	4.302047
2421.000000	4.279347
2422.000000	4.255577
2423.000000	4.230257
2424.000000	4.204670
2425.000000	4.177613
2426.000000	4.151100
2427.000000	4.124513
2428.000000	4.098027
2429.000000	4.070343
2430.000000	4.041500
2431.000000	4.012407
2432.000000	3.982510
2433.000000	3.953160
2434.000000	3.923363
2435.000000	3.892853
2436.000000	3.862973
2437.000000	3.834063
2438.000000	3.803537
2439.000000	3.773280
2440.000000	3.743690
2441.000000	3.713783
2442.000000	3.684633
2443.000000	3.654177
2444.000000	3.622653
2445.000000	3.593283
2446.000000	3.563420
2447.000000	3.532640
2448.000000	3.503667
2449.000000	3.474800
2450.000000	3.446033
2451.000000	3.417213
2452.000000	3.390243
2453.000000	3.364820
2454.000000	3.341423
2455.000000	3.315280
2456.000000	3.289527
2457.000000	3.263627
2458.000000	3.239390
2459.000000	3.215197
2460.000000	3.192570
2461.000000	3.168067
2462.000000	3.144353
2463.000000	3.122003
2464.000000	3.099710
2465.000000	3.080770
2466.000000	3.060300
2467.000000	3.043753
2468.000000	3.025843
2469.000000	3.010397
2470.000000	2.995200
2471.000000	2.983247
2472.000000	2.970817
2473.000000	2.958460
2474.000000	2.946253
2475.000000	2.933053
2476.000000	2.920717
2477.000000	2.909000
2478.000000	2.897153
2479.000000	2.885270
2480.000000	2.875693
2481.000000	2.867190
2482.000000	2.856860
2483.000000	2.849857
2484.000000	2.845607
2485.000000	2.841113
2486.000000	2.840323
2487.000000	2.839197
2488.000000	2.844640
2489.000000	2.842963
2490.000000	2.847180
2491.000000	2.849973
2492.000000	2.848310
2493.000000	2.848430
2494.000000	2.849093
2495.000000	2.854930
2496.000000	2.860420
2497.000000	2.856677
2498.000000	2.859683
2499.000000	2.868330
2500.000000	2.871240
