PE UV       SUBTECH     SPECTRUM    ASCII       PEDS        4.00        
   -1
BIOUCR0016-3.Sample.ASC
24/02/19
16:22:16.00
24/02/19
16:22:16.00
Vinicio Soto Monge
P. resplendens (sin datos) Parte inferior de elitros cafe bajo Filtro izq. Plateado bajo filtro derecho
250,000000
1
Lambda 1050
1050L1511233
PerkinElmer UV WinLab 6.3.2.0749 / 2.02.05 Lambda 900 UV/VIS/NIR, Aug  7 2015 09:38:08

0
0
3350/servo 860,8/2
0
0
UV/VIS
1
1
1
DoubleDePol,CommonBeamDepol,RBeamAtt,SBeamAtt,60mm sphere, WB InGaAs Detector
0
0
0
0
Program
Program
3350/servo 860,8/2
3350/0,2 860,8/0,2
3350/0,2 860,8/0,2
0
15.00
 
 
 
0
 
860,8
319,2
860,8
Front
100
on
S:100 R:100
0
0
0
0
 
0
 
 
 
0
 
 
0
0
0
0
0
 
 
 
 
0
0


0
0
#HDR
-1
-1
#GR
nm
%R
1.0
0.0
2500,000000
-1,000000
2251
8
21,302500
1,541000
#DATA

250.000000	nan
251.000000	nan
252.000000	nan
253.000000	nan
254.000000	nan
255.000000	nan
256.000000	nan
257.000000	nan
258.000000	nan
259.000000	2.070952
260.000000	2.066415
261.000000	2.063191
262.000000	2.059830
263.000000	2.054710
264.000000	2.047724
265.000000	2.043892
266.000000	2.038609
267.000000	2.030752
268.000000	2.023813
269.000000	2.017550
270.000000	2.011627
271.000000	2.007391
272.000000	2.001742
273.000000	1.997383
274.000000	1.994275
275.000000	1.989621
276.000000	1.985559
277.000000	1.984714
278.000000	1.983841
279.000000	1.982262
280.000000	1.977323
281.000000	1.971967
282.000000	1.968478
283.000000	1.963459
284.000000	1.958919
285.000000	1.955736
286.000000	1.952510
287.000000	1.948310
288.000000	1.943425
289.000000	1.939197
290.000000	1.937120
291.000000	1.935480
292.000000	1.930755
293.000000	1.926944
294.000000	1.922799
295.000000	1.920185
296.000000	1.915145
297.000000	1.911201
298.000000	1.906220
299.000000	1.901911
300.000000	1.897287
301.000000	1.892294
302.000000	1.890567
303.000000	1.887035
304.000000	1.887031
305.000000	1.881639
306.000000	1.878903
307.000000	1.875662
308.000000	1.876610
309.000000	1.873453
310.000000	1.875123
311.000000	1.873401
312.000000	1.870639
313.000000	1.871391
314.000000	1.868819
315.000000	1.868845
316.000000	1.870038
317.000000	1.897694
318.000000	1.934758
319.000000	1.960668
320.000000	1.992938
321.000000	2.022535
322.000000	2.046267
323.000000	2.066328
324.000000	2.068878
325.000000	2.089607
326.000000	2.109285
327.000000	2.100728
328.000000	2.077229
329.000000	2.070319
330.000000	2.044784
331.000000	2.022790
332.000000	2.003304
333.000000	1.998805
334.000000	2.011127
335.000000	1.996833
336.000000	1.981482
337.000000	1.972468
338.000000	1.961729
339.000000	1.944167
340.000000	1.936517
341.000000	1.932001
342.000000	1.928784
343.000000	1.911075
344.000000	1.896640
345.000000	1.895460
346.000000	1.888904
347.000000	1.884229
348.000000	1.881512
349.000000	1.880776
350.000000	1.886577
351.000000	1.881867
352.000000	1.884309
353.000000	1.887419
354.000000	1.883139
355.000000	1.876125
356.000000	1.873926
357.000000	1.868557
358.000000	1.864088
359.000000	1.859152
360.000000	1.846611
361.000000	1.846887
362.000000	1.836919
363.000000	1.828162
364.000000	1.824778
365.000000	1.817524
366.000000	1.811918
367.000000	1.804944
368.000000	1.800894
369.000000	1.793477
370.000000	1.784095
371.000000	1.775813
372.000000	1.770815
373.000000	1.761055
374.000000	1.747277
375.000000	1.736380
376.000000	1.735174
377.000000	1.718069
378.000000	1.700387
379.000000	1.689453
380.000000	1.682412
381.000000	1.670696
382.000000	1.661002
383.000000	1.657324
384.000000	1.658185
385.000000	1.658851
386.000000	1.651365
387.000000	1.658890
388.000000	1.667012
389.000000	1.675866
390.000000	1.685212
391.000000	1.695278
392.000000	1.706876
393.000000	1.720831
394.000000	1.736268
395.000000	1.752993
396.000000	1.770661
397.000000	1.790264
398.000000	1.811634
399.000000	1.835634
400.000000	1.861792
401.000000	1.890723
402.000000	1.921825
403.000000	1.954261
404.000000	1.989918
405.000000	2.028586
406.000000	2.070036
407.000000	2.113808
408.000000	2.160560
409.000000	2.209564
410.000000	2.261284
411.000000	2.315184
412.000000	2.371825
413.000000	2.431550
414.000000	2.493620
415.000000	2.557316
416.000000	2.623130
417.000000	2.691616
418.000000	2.761594
419.000000	2.832946
420.000000	2.905627
421.000000	2.979579
422.000000	3.054416
423.000000	3.129940
424.000000	3.206027
425.000000	3.282753
426.000000	3.359729
427.000000	3.436825
428.000000	3.514750
429.000000	3.592743
430.000000	3.669818
431.000000	3.747072
432.000000	3.824232
433.000000	3.900603
434.000000	3.976565
435.000000	4.052381
436.000000	4.127942
437.000000	4.202128
438.000000	4.274640
439.000000	4.346498
440.000000	4.418094
441.000000	4.487989
442.000000	4.556606
443.000000	4.624126
444.000000	4.689553
445.000000	4.753462
446.000000	4.815816
447.000000	4.876388
448.000000	4.934338
449.000000	4.988959
450.000000	5.040034
451.000000	5.087699
452.000000	5.131689
453.000000	5.172141
454.000000	5.208982
455.000000	5.240430
456.000000	5.266253
457.000000	5.288353
458.000000	5.307656
459.000000	5.323494
460.000000	5.335870
461.000000	5.344961
462.000000	5.350879
463.000000	5.354496
464.000000	5.357212
465.000000	5.360391
466.000000	5.364091
467.000000	5.367985
468.000000	5.373098
469.000000	5.380762
470.000000	5.392100
471.000000	5.408774
472.000000	5.431460
473.000000	5.460080
474.000000	5.495449
475.000000	5.538015
476.000000	5.589200
477.000000	5.649714
478.000000	5.719297
479.000000	5.798237
480.000000	5.885134
481.000000	5.977061
482.000000	6.073646
483.000000	6.176221
484.000000	6.284464
485.000000	6.398319
486.000000	6.516139
487.000000	6.636043
488.000000	6.756641
489.000000	6.876381
490.000000	6.995330
491.000000	7.114735
492.000000	7.234492
493.000000	7.351476
494.000000	7.463233
495.000000	7.569822
496.000000	7.670577
497.000000	7.764990
498.000000	7.853296
499.000000	7.937297
500.000000	8.018116
501.000000	8.095249
502.000000	8.167410
503.000000	8.235909
504.000000	8.302449
505.000000	8.365312
506.000000	8.425504
507.000000	8.483697
508.000000	8.540623
509.000000	8.595758
510.000000	8.648715
511.000000	8.700252
512.000000	8.751749
513.000000	8.803251
514.000000	8.854212
515.000000	8.906435
516.000000	8.961218
517.000000	9.019395
518.000000	9.081358
519.000000	9.148430
520.000000	9.221078
521.000000	9.299096
522.000000	9.382552
523.000000	9.472183
524.000000	9.568473
525.000000	9.671192
526.000000	9.780136
527.000000	9.896372
528.000000	10.019813
529.000000	10.150642
530.000000	10.289893
531.000000	10.437895
532.000000	10.595845
533.000000	10.764911
534.000000	10.945626
535.000000	11.139059
536.000000	11.346044
537.000000	11.566158
538.000000	11.799399
539.000000	12.043207
540.000000	12.295938
541.000000	12.557135
542.000000	12.824699
543.000000	13.095103
544.000000	13.366414
545.000000	13.636005
546.000000	13.900241
547.000000	14.157721
548.000000	14.406517
549.000000	14.646485
550.000000	14.877384
551.000000	15.097285
552.000000	15.304564
553.000000	15.497671
554.000000	15.675796
555.000000	15.837889
556.000000	15.983355
557.000000	16.109548
558.000000	16.216793
559.000000	16.305574
560.000000	16.333312
561.000000	16.338531
562.000000	16.327760
563.000000	16.306489
564.000000	16.277438
565.000000	16.243087
566.000000	16.206680
567.000000	16.172684
568.000000	16.141078
569.000000	16.114312
570.000000	16.133667
571.000000	16.163112
572.000000	16.196082
573.000000	16.231156
574.000000	16.264360
575.000000	16.294948
576.000000	16.320855
577.000000	16.340973
578.000000	16.353964
579.000000	16.359080
580.000000	16.357700
581.000000	16.348614
582.000000	16.333830
583.000000	16.312082
584.000000	16.287295
585.000000	16.259796
586.000000	16.232916
587.000000	16.207736
588.000000	16.187841
589.000000	16.170425
590.000000	16.157343
591.000000	16.151208
592.000000	16.150674
593.000000	16.154564
594.000000	16.162676
595.000000	16.173082
596.000000	16.183516
597.000000	16.191478
598.000000	16.194102
599.000000	16.190685
600.000000	16.177920
601.000000	16.153517
602.000000	16.118925
603.000000	16.072339
604.000000	16.012347
605.000000	15.940087
606.000000	15.856802
607.000000	15.761730
608.000000	15.657131
609.000000	15.544318
610.000000	15.423763
611.000000	15.297075
612.000000	15.163244
613.000000	15.025063
614.000000	14.881490
615.000000	14.732235
616.000000	14.576678
617.000000	14.415402
618.000000	14.248162
619.000000	14.073994
620.000000	13.890415
621.000000	13.695613
622.000000	13.489467
623.000000	13.271487
624.000000	13.043713
625.000000	12.805987
626.000000	12.559760
627.000000	12.307967
628.000000	12.052567
629.000000	11.798620
630.000000	11.552300
631.000000	11.318015
632.000000	11.101784
633.000000	10.906915
634.000000	10.736717
635.000000	10.593116
636.000000	10.478053
637.000000	10.390724
638.000000	10.330303
639.000000	10.295471
640.000000	10.284708
641.000000	10.296421
642.000000	10.327121
643.000000	10.375638
644.000000	10.440331
645.000000	10.518998
646.000000	10.608825
647.000000	10.707761
648.000000	10.813814
649.000000	10.922185
650.000000	11.031897
651.000000	11.139226
652.000000	11.241129
653.000000	11.335581
654.000000	11.418749
655.000000	11.492057
656.000000	11.553746
657.000000	11.604935
658.000000	11.645349
659.000000	11.677064
660.000000	11.700918
661.000000	11.717331
662.000000	11.729490
663.000000	11.736487
664.000000	11.740675
665.000000	11.742660
666.000000	11.743398
667.000000	11.742050
668.000000	11.739215
669.000000	11.736176
670.000000	11.730794
671.000000	11.724335
672.000000	11.715547
673.000000	11.705315
674.000000	11.693019
675.000000	11.678554
676.000000	11.660729
677.000000	11.640125
678.000000	11.618484
679.000000	11.594795
680.000000	11.571735
681.000000	11.549981
682.000000	11.530028
683.000000	11.513665
684.000000	11.502881
685.000000	11.498409
686.000000	11.504173
687.000000	11.518860
688.000000	11.540852
689.000000	11.575827
690.000000	11.621770
691.000000	11.678113
692.000000	11.746172
693.000000	11.825337
694.000000	11.912477
695.000000	12.006139
696.000000	12.104938
697.000000	12.209003
698.000000	12.318931
699.000000	12.429078
700.000000	12.539599
701.000000	12.649314
702.000000	12.755356
703.000000	12.857309
704.000000	12.954913
705.000000	13.048943
706.000000	13.138936
707.000000	13.223544
708.000000	13.303854
709.000000	13.379903
710.000000	13.451689
711.000000	13.520445
712.000000	13.587143
713.000000	13.652869
714.000000	13.718388
715.000000	13.781736
716.000000	13.842281
717.000000	13.903394
718.000000	13.964063
719.000000	14.023240
720.000000	14.081902
721.000000	14.139926
722.000000	14.197864
723.000000	14.254974
724.000000	14.309844
725.000000	14.362352
726.000000	14.416141
727.000000	14.468788
728.000000	14.517544
729.000000	14.566316
730.000000	14.614233
731.000000	14.661903
732.000000	14.708612
733.000000	14.752114
734.000000	14.795342
735.000000	14.841441
736.000000	14.885461
737.000000	14.928854
738.000000	14.975536
739.000000	15.024601
740.000000	15.073734
741.000000	15.120858
742.000000	15.168316
743.000000	15.217162
744.000000	15.265806
745.000000	15.314174
746.000000	15.363240
747.000000	15.412721
748.000000	15.459242
749.000000	15.503391
750.000000	15.548970
751.000000	15.596246
752.000000	15.641489
753.000000	15.686096
754.000000	15.729463
755.000000	15.771574
756.000000	15.812466
757.000000	15.851236
758.000000	15.890891
759.000000	15.928123
760.000000	15.963242
761.000000	15.999690
762.000000	16.036225
763.000000	16.070025
764.000000	16.103726
765.000000	16.136755
766.000000	16.169540
767.000000	16.202921
768.000000	16.235274
769.000000	16.268565
770.000000	16.299226
771.000000	16.324762
772.000000	16.350837
773.000000	16.377906
774.000000	16.406753
775.000000	16.437519
776.000000	16.467625
777.000000	16.497542
778.000000	16.530575
779.000000	16.564735
780.000000	16.599381
781.000000	16.638127
782.000000	16.676407
783.000000	16.713100
784.000000	16.746592
785.000000	16.781024
786.000000	16.816239
787.000000	16.851353
788.000000	16.884657
789.000000	16.917853
790.000000	16.951651
791.000000	16.983822
792.000000	17.016086
793.000000	17.048905
794.000000	17.086074
795.000000	17.122196
796.000000	17.155956
797.000000	17.189182
798.000000	17.220632
799.000000	17.251151
800.000000	17.278164
801.000000	17.306911
802.000000	17.335318
803.000000	17.365288
804.000000	17.391350
805.000000	17.415421
806.000000	17.443147
807.000000	17.469378
808.000000	17.497766
809.000000	17.527952
810.000000	17.561609
811.000000	17.594120
812.000000	17.627745
813.000000	17.657419
814.000000	17.688910
815.000000	17.718113
816.000000	17.746742
817.000000	17.775525
818.000000	17.797333
819.000000	17.817945
820.000000	17.838968
821.000000	17.855548
822.000000	17.870501
823.000000	17.887050
824.000000	17.902441
825.000000	17.921285
826.000000	17.938003
827.000000	17.951773
828.000000	17.966830
829.000000	17.983306
830.000000	17.997898
831.000000	18.020367
832.000000	18.042815
833.000000	18.065660
834.000000	18.092020
835.000000	18.117600
836.000000	18.143274
837.000000	18.170764
838.000000	18.203995
839.000000	18.232892
840.000000	18.260805
841.000000	18.288772
842.000000	18.307402
843.000000	18.332039
844.000000	18.351152
845.000000	18.369372
846.000000	18.395424
847.000000	18.424257
848.000000	18.440648
849.000000	18.453817
850.000000	18.479999
851.000000	18.495775
852.000000	18.523499
853.000000	18.554543
854.000000	18.572057
855.000000	18.589078
856.000000	18.595404
857.000000	18.617400
858.000000	18.703519
859.000000	18.775434
860.000000	18.835628
861.000000	18.902622
862.000000	18.969687
863.000000	19.029972
864.000000	19.109424
865.000000	19.190940
866.000000	19.277623
867.000000	19.349973
868.000000	19.369453
869.000000	19.407967
870.000000	19.447217
871.000000	19.485837
872.000000	19.522413
873.000000	19.558340
874.000000	19.590400
875.000000	19.622653
876.000000	19.653240
877.000000	19.683943
878.000000	19.712943
879.000000	19.743310
880.000000	19.775150
881.000000	19.806857
882.000000	19.837047
883.000000	19.868980
884.000000	19.901533
885.000000	19.933340
886.000000	19.963810
887.000000	19.995503
888.000000	20.028377
889.000000	20.060290
890.000000	20.090917
891.000000	20.122020
892.000000	20.154413
893.000000	20.184600
894.000000	20.215503
895.000000	20.244890
896.000000	20.277457
897.000000	20.306183
898.000000	20.335180
899.000000	20.364163
900.000000	20.394373
901.000000	20.424633
902.000000	20.454397
903.000000	20.484080
904.000000	20.513403
905.000000	20.544243
906.000000	20.574137
907.000000	20.605687
908.000000	20.638323
909.000000	20.670460
910.000000	20.699790
911.000000	20.729493
912.000000	20.756993
913.000000	20.784863
914.000000	20.812403
915.000000	20.838177
916.000000	20.862750
917.000000	20.885317
918.000000	20.906740
919.000000	20.927537
920.000000	20.948653
921.000000	20.964850
922.000000	20.981433
923.000000	20.996607
924.000000	21.010230
925.000000	21.022487
926.000000	21.031637
927.000000	21.041753
928.000000	21.049627
929.000000	21.058053
930.000000	21.064607
931.000000	21.071093
932.000000	21.077663
933.000000	21.085320
934.000000	21.092613
935.000000	21.101463
936.000000	21.110283
937.000000	21.117817
938.000000	21.124337
939.000000	21.128113
940.000000	21.131993
941.000000	21.132860
942.000000	21.130763
943.000000	21.125847
944.000000	21.118697
945.000000	21.108330
946.000000	21.098103
947.000000	21.085880
948.000000	21.073883
949.000000	21.062367
950.000000	21.051033
951.000000	21.042443
952.000000	21.035897
953.000000	21.027893
954.000000	21.020293
955.000000	21.013170
956.000000	21.003920
957.000000	20.996370
958.000000	20.987900
959.000000	20.975500
960.000000	20.961160
961.000000	20.945213
962.000000	20.927063
963.000000	20.909317
964.000000	20.890337
965.000000	20.870293
966.000000	20.850253
967.000000	20.828020
968.000000	20.806153
969.000000	20.786077
970.000000	20.767880
971.000000	20.751070
972.000000	20.735207
973.000000	20.719087
974.000000	20.704347
975.000000	20.689897
976.000000	20.676507
977.000000	20.664977
978.000000	20.654523
979.000000	20.645310
980.000000	20.634713
981.000000	20.625043
982.000000	20.616690
983.000000	20.609120
984.000000	20.601720
985.000000	20.594920
986.000000	20.587983
987.000000	20.580663
988.000000	20.572123
989.000000	20.564183
990.000000	20.558630
991.000000	20.552460
992.000000	20.546893
993.000000	20.543390
994.000000	20.540380
995.000000	20.537523
996.000000	20.535927
997.000000	20.536473
998.000000	20.538723
999.000000	20.540593
1000.000000	20.541970
1001.000000	20.544977
1002.000000	20.547000
1003.000000	20.547360
1004.000000	20.548410
1005.000000	20.548910
1006.000000	20.549093
1007.000000	20.546487
1008.000000	20.542153
1009.000000	20.538440
1010.000000	20.534073
1011.000000	20.527387
1012.000000	20.519810
1013.000000	20.513103
1014.000000	20.505697
1015.000000	20.499100
1016.000000	20.493277
1017.000000	20.488830
1018.000000	20.484810
1019.000000	20.480040
1020.000000	20.475397
1021.000000	20.472483
1022.000000	20.471420
1023.000000	20.469743
1024.000000	20.467387
1025.000000	20.465760
1026.000000	20.463410
1027.000000	20.460667
1028.000000	20.458833
1029.000000	20.456700
1030.000000	20.454920
1031.000000	20.453330
1032.000000	20.451060
1033.000000	20.449647
1034.000000	20.450003
1035.000000	20.450093
1036.000000	20.450207
1037.000000	20.451633
1038.000000	20.453530
1039.000000	20.456913
1040.000000	20.461770
1041.000000	20.467550
1042.000000	20.474047
1043.000000	20.480223
1044.000000	20.486617
1045.000000	20.494320
1046.000000	20.503117
1047.000000	20.511637
1048.000000	20.520520
1049.000000	20.530873
1050.000000	20.541950
1051.000000	20.552910
1052.000000	20.564353
1053.000000	20.578000
1054.000000	20.592350
1055.000000	20.606907
1056.000000	20.621940
1057.000000	20.637987
1058.000000	20.654590
1059.000000	20.670403
1060.000000	20.685733
1061.000000	20.701160
1062.000000	20.716897
1063.000000	20.732370
1064.000000	20.747323
1065.000000	20.762680
1066.000000	20.778430
1067.000000	20.793223
1068.000000	20.807280
1069.000000	20.822377
1070.000000	20.839123
1071.000000	20.856853
1072.000000	20.875323
1073.000000	20.892727
1074.000000	20.911007
1075.000000	20.929087
1076.000000	20.947010
1077.000000	20.964797
1078.000000	20.982590
1079.000000	21.000650
1080.000000	21.017250
1081.000000	21.032430
1082.000000	21.045673
1083.000000	21.058283
1084.000000	21.068753
1085.000000	21.077547
1086.000000	21.086207
1087.000000	21.094943
1088.000000	21.103813
1089.000000	21.109640
1090.000000	21.113723
1091.000000	21.118393
1092.000000	21.123290
1093.000000	21.128817
1094.000000	21.135043
1095.000000	21.141340
1096.000000	21.146800
1097.000000	21.151060
1098.000000	21.154370
1099.000000	21.158250
1100.000000	21.162750
1101.000000	21.167063
1102.000000	21.171053
1103.000000	21.173917
1104.000000	21.175880
1105.000000	21.178167
1106.000000	21.179910
1107.000000	21.182043
1108.000000	21.182590
1109.000000	21.181067
1110.000000	21.179447
1111.000000	21.177710
1112.000000	21.176490
1113.000000	21.173597
1114.000000	21.171650
1115.000000	21.168590
1116.000000	21.164300
1117.000000	21.159593
1118.000000	21.157007
1119.000000	21.156780
1120.000000	21.156287
1121.000000	21.154283
1122.000000	21.151570
1123.000000	21.150230
1124.000000	21.146877
1125.000000	21.144330
1126.000000	21.143470
1127.000000	21.140727
1128.000000	21.134923
1129.000000	21.127847
1130.000000	21.119420
1131.000000	21.107507
1132.000000	21.090943
1133.000000	21.069857
1134.000000	21.049347
1135.000000	21.030003
1136.000000	21.010573
1137.000000	20.989317
1138.000000	20.966023
1139.000000	20.939713
1140.000000	20.912907
1141.000000	20.888527
1142.000000	20.866650
1143.000000	20.847797
1144.000000	20.827210
1145.000000	20.806420
1146.000000	20.783473
1147.000000	20.765490
1148.000000	20.748823
1149.000000	20.734577
1150.000000	20.720813
1151.000000	20.707413
1152.000000	20.694877
1153.000000	20.685113
1154.000000	20.676363
1155.000000	20.663143
1156.000000	20.648703
1157.000000	20.629860
1158.000000	20.611957
1159.000000	20.590300
1160.000000	20.565333
1161.000000	20.537867
1162.000000	20.505870
1163.000000	20.468263
1164.000000	20.427633
1165.000000	20.386500
1166.000000	20.344667
1167.000000	20.300640
1168.000000	20.255370
1169.000000	20.211083
1170.000000	20.168667
1171.000000	20.127067
1172.000000	20.087983
1173.000000	20.052467
1174.000000	20.018287
1175.000000	19.984600
1176.000000	19.952590
1177.000000	19.925450
1178.000000	19.898983
1179.000000	19.873743
1180.000000	19.849030
1181.000000	19.825033
1182.000000	19.803150
1183.000000	19.781670
1184.000000	19.761913
1185.000000	19.742943
1186.000000	19.726420
1187.000000	19.711390
1188.000000	19.697923
1189.000000	19.688497
1190.000000	19.683677
1191.000000	19.680480
1192.000000	19.680517
1193.000000	19.682257
1194.000000	19.687320
1195.000000	19.696053
1196.000000	19.706650
1197.000000	19.717680
1198.000000	19.730353
1199.000000	19.743360
1200.000000	19.754953
1201.000000	19.769763
1202.000000	19.784420
1203.000000	19.799823
1204.000000	19.816207
1205.000000	19.831393
1206.000000	19.846063
1207.000000	19.859740
1208.000000	19.874833
1209.000000	19.890843
1210.000000	19.907210
1211.000000	19.922057
1212.000000	19.936303
1213.000000	19.951987
1214.000000	19.966170
1215.000000	19.982093
1216.000000	19.996603
1217.000000	20.010577
1218.000000	20.023057
1219.000000	20.035060
1220.000000	20.046723
1221.000000	20.058810
1222.000000	20.070223
1223.000000	20.080823
1224.000000	20.090797
1225.000000	20.098183
1226.000000	20.105893
1227.000000	20.113863
1228.000000	20.122867
1229.000000	20.128867
1230.000000	20.134500
1231.000000	20.139650
1232.000000	20.145153
1233.000000	20.148950
1234.000000	20.151907
1235.000000	20.156100
1236.000000	20.159350
1237.000000	20.163537
1238.000000	20.167193
1239.000000	20.171267
1240.000000	20.175063
1241.000000	20.178150
1242.000000	20.180907
1243.000000	20.184583
1244.000000	20.190197
1245.000000	20.197077
1246.000000	20.205810
1247.000000	20.215220
1248.000000	20.226760
1249.000000	20.241137
1250.000000	20.256293
1251.000000	20.273017
1252.000000	20.290813
1253.000000	20.309173
1254.000000	20.326960
1255.000000	20.345237
1256.000000	20.363917
1257.000000	20.382447
1258.000000	20.397923
1259.000000	20.411473
1260.000000	20.423537
1261.000000	20.434397
1262.000000	20.445777
1263.000000	20.456687
1264.000000	20.467093
1265.000000	20.475917
1266.000000	20.483747
1267.000000	20.490383
1268.000000	20.495923
1269.000000	20.501147
1270.000000	20.506647
1271.000000	20.510093
1272.000000	20.510690
1273.000000	20.509423
1274.000000	20.507910
1275.000000	20.506797
1276.000000	20.504937
1277.000000	20.502037
1278.000000	20.499643
1279.000000	20.497107
1280.000000	20.494827
1281.000000	20.493820
1282.000000	20.493410
1283.000000	20.493200
1284.000000	20.493030
1285.000000	20.493293
1286.000000	20.494167
1287.000000	20.495973
1288.000000	20.498700
1289.000000	20.502963
1290.000000	20.507530
1291.000000	20.512397
1292.000000	20.518027
1293.000000	20.525127
1294.000000	20.532027
1295.000000	20.537423
1296.000000	20.541807
1297.000000	20.546187
1298.000000	20.550407
1299.000000	20.553810
1300.000000	20.556480
1301.000000	20.558423
1302.000000	20.560003
1303.000000	20.560370
1304.000000	20.559517
1305.000000	20.557967
1306.000000	20.556407
1307.000000	20.554680
1308.000000	20.550687
1309.000000	20.544653
1310.000000	20.537517
1311.000000	20.528893
1312.000000	20.519150
1313.000000	20.507953
1314.000000	20.496617
1315.000000	20.484057
1316.000000	20.469080
1317.000000	20.452550
1318.000000	20.436183
1319.000000	20.419467
1320.000000	20.401283
1321.000000	20.382947
1322.000000	20.364150
1323.000000	20.344560
1324.000000	20.323380
1325.000000	20.302093
1326.000000	20.280347
1327.000000	20.256827
1328.000000	20.231610
1329.000000	20.205000
1330.000000	20.179053
1331.000000	20.152347
1332.000000	20.123653
1333.000000	20.094063
1334.000000	20.064010
1335.000000	20.033010
1336.000000	20.001683
1337.000000	19.970800
1338.000000	19.939080
1339.000000	19.905410
1340.000000	19.869617
1341.000000	19.832393
1342.000000	19.793297
1343.000000	19.752473
1344.000000	19.709567
1345.000000	19.663557
1346.000000	19.613890
1347.000000	19.561043
1348.000000	19.508403
1349.000000	19.456253
1350.000000	19.400333
1351.000000	19.340573
1352.000000	19.279647
1353.000000	19.216783
1354.000000	19.154957
1355.000000	19.099893
1356.000000	19.050580
1357.000000	19.001957
1358.000000	18.950587
1359.000000	18.898500
1360.000000	18.847557
1361.000000	18.805930
1362.000000	18.777160
1363.000000	18.752470
1364.000000	18.725423
1365.000000	18.694847
1366.000000	18.659193
1367.000000	18.619817
1368.000000	18.583843
1369.000000	18.548010
1370.000000	18.507250
1371.000000	18.454587
1372.000000	18.386000
1373.000000	18.306260
1374.000000	18.213357
1375.000000	18.103887
1376.000000	17.984073
1377.000000	17.852293
1378.000000	17.705160
1379.000000	17.540680
1380.000000	17.370423
1381.000000	17.199637
1382.000000	17.039443
1383.000000	16.890200
1384.000000	16.758547
1385.000000	16.640000
1386.000000	16.529677
1387.000000	16.437760
1388.000000	16.366440
1389.000000	16.319740
1390.000000	16.285533
1391.000000	16.254030
1392.000000	16.223067
1393.000000	16.195010
1394.000000	16.166283
1395.000000	16.144050
1396.000000	16.139363
1397.000000	16.136067
1398.000000	16.117283
1399.000000	16.086677
1400.000000	16.062947
1401.000000	16.055253
1402.000000	16.036987
1403.000000	16.003813
1404.000000	15.960183
1405.000000	15.915780
1406.000000	15.855440
1407.000000	15.785777
1408.000000	15.722763
1409.000000	15.663017
1410.000000	15.594370
1411.000000	15.506473
1412.000000	15.414127
1413.000000	15.326090
1414.000000	15.247020
1415.000000	15.164580
1416.000000	15.076013
1417.000000	14.984850
1418.000000	14.893137
1419.000000	14.803533
1420.000000	14.716637
1421.000000	14.630097
1422.000000	14.546750
1423.000000	14.467913
1424.000000	14.388593
1425.000000	14.306390
1426.000000	14.228853
1427.000000	14.156833
1428.000000	14.087163
1429.000000	14.016817
1430.000000	13.944603
1431.000000	13.877590
1432.000000	13.818777
1433.000000	13.759847
1434.000000	13.702483
1435.000000	13.647923
1436.000000	13.594977
1437.000000	13.544863
1438.000000	13.498533
1439.000000	13.454923
1440.000000	13.412973
1441.000000	13.372260
1442.000000	13.330123
1443.000000	13.289437
1444.000000	13.248993
1445.000000	13.209220
1446.000000	13.176250
1447.000000	13.143987
1448.000000	13.107733
1449.000000	13.069660
1450.000000	13.034437
1451.000000	13.003457
1452.000000	12.972837
1453.000000	12.943157
1454.000000	12.911923
1455.000000	12.880373
1456.000000	12.845610
1457.000000	12.811323
1458.000000	12.779747
1459.000000	12.749077
1460.000000	12.716570
1461.000000	12.682227
1462.000000	12.647687
1463.000000	12.613193
1464.000000	12.580300
1465.000000	12.548547
1466.000000	12.515797
1467.000000	12.484600
1468.000000	12.452997
1469.000000	12.419917
1470.000000	12.389127
1471.000000	12.360697
1472.000000	12.332230
1473.000000	12.306380
1474.000000	12.279917
1475.000000	12.252423
1476.000000	12.225813
1477.000000	12.199407
1478.000000	12.175850
1479.000000	12.155440
1480.000000	12.135400
1481.000000	12.113780
1482.000000	12.094437
1483.000000	12.075763
1484.000000	12.057327
1485.000000	12.041123
1486.000000	12.029553
1487.000000	12.018437
1488.000000	12.007017
1489.000000	11.996733
1490.000000	11.987467
1491.000000	11.978713
1492.000000	11.969917
1493.000000	11.961163
1494.000000	11.954967
1495.000000	11.949680
1496.000000	11.943787
1497.000000	11.939827
1498.000000	11.937143
1499.000000	11.935757
1500.000000	11.935853
1501.000000	11.938737
1502.000000	11.944497
1503.000000	11.951863
1504.000000	11.962077
1505.000000	11.975310
1506.000000	11.990640
1507.000000	12.007497
1508.000000	12.026310
1509.000000	12.048150
1510.000000	12.071727
1511.000000	12.096083
1512.000000	12.121220
1513.000000	12.147537
1514.000000	12.173713
1515.000000	12.200723
1516.000000	12.228627
1517.000000	12.256427
1518.000000	12.284253
1519.000000	12.311537
1520.000000	12.337503
1521.000000	12.363450
1522.000000	12.388530
1523.000000	12.412833
1524.000000	12.436887
1525.000000	12.459447
1526.000000	12.480860
1527.000000	12.502720
1528.000000	12.523903
1529.000000	12.543890
1530.000000	12.563630
1531.000000	12.583243
1532.000000	12.602493
1533.000000	12.621573
1534.000000	12.640677
1535.000000	12.660207
1536.000000	12.677520
1537.000000	12.693693
1538.000000	12.709563
1539.000000	12.724797
1540.000000	12.739270
1541.000000	12.752480
1542.000000	12.765527
1543.000000	12.777833
1544.000000	12.789400
1545.000000	12.800233
1546.000000	12.811607
1547.000000	12.824157
1548.000000	12.837643
1549.000000	12.852233
1550.000000	12.868207
1551.000000	12.885510
1552.000000	12.902950
1553.000000	12.920883
1554.000000	12.939630
1555.000000	12.958170
1556.000000	12.976567
1557.000000	12.994227
1558.000000	13.010080
1559.000000	13.024280
1560.000000	13.036053
1561.000000	13.044190
1562.000000	13.050860
1563.000000	13.056650
1564.000000	13.059090
1565.000000	13.059340
1566.000000	13.058087
1567.000000	13.053687
1568.000000	13.046783
1569.000000	13.038030
1570.000000	13.028693
1571.000000	13.020350
1572.000000	13.011893
1573.000000	13.002573
1574.000000	12.994050
1575.000000	12.986753
1576.000000	12.979283
1577.000000	12.973227
1578.000000	12.968700
1579.000000	12.965500
1580.000000	12.963487
1581.000000	12.961940
1582.000000	12.960593
1583.000000	12.960150
1584.000000	12.961410
1585.000000	12.964627
1586.000000	12.969510
1587.000000	12.975330
1588.000000	12.982893
1589.000000	12.991740
1590.000000	13.000870
1591.000000	13.010377
1592.000000	13.021120
1593.000000	13.033040
1594.000000	13.044963
1595.000000	13.055690
1596.000000	13.066890
1597.000000	13.079060
1598.000000	13.091177
1599.000000	13.103020
1600.000000	13.115577
1601.000000	13.129533
1602.000000	13.144307
1603.000000	13.159283
1604.000000	13.175360
1605.000000	13.191983
1606.000000	13.209597
1607.000000	13.226993
1608.000000	13.244433
1609.000000	13.261493
1610.000000	13.278653
1611.000000	13.294797
1612.000000	13.310327
1613.000000	13.325277
1614.000000	13.338270
1615.000000	13.349863
1616.000000	13.359990
1617.000000	13.369820
1618.000000	13.378047
1619.000000	13.386597
1620.000000	13.395577
1621.000000	13.403553
1622.000000	13.410717
1623.000000	13.418173
1624.000000	13.425167
1625.000000	13.432983
1626.000000	13.441520
1627.000000	13.450257
1628.000000	13.459333
1629.000000	13.467447
1630.000000	13.475267
1631.000000	13.483643
1632.000000	13.491857
1633.000000	13.499440
1634.000000	13.506990
1635.000000	13.515740
1636.000000	13.524023
1637.000000	13.530907
1638.000000	13.537383
1639.000000	13.544163
1640.000000	13.549057
1641.000000	13.553173
1642.000000	13.557960
1643.000000	13.561340
1644.000000	13.565067
1645.000000	13.566517
1646.000000	13.566887
1647.000000	13.567507
1648.000000	13.568137
1649.000000	13.567730
1650.000000	13.568490
1651.000000	13.569737
1652.000000	13.567957
1653.000000	13.565033
1654.000000	13.560380
1655.000000	13.555420
1656.000000	13.548033
1657.000000	13.537917
1658.000000	13.525837
1659.000000	13.510497
1660.000000	13.490800
1661.000000	13.467090
1662.000000	13.441143
1663.000000	13.411060
1664.000000	13.379117
1665.000000	13.343237
1666.000000	13.303843
1667.000000	13.262483
1668.000000	13.211720
1669.000000	13.159963
1670.000000	13.105643
1671.000000	13.048793
1672.000000	12.990497
1673.000000	12.933790
1674.000000	12.875353
1675.000000	12.815493
1676.000000	12.756393
1677.000000	12.695020
1678.000000	12.640613
1679.000000	12.584277
1680.000000	12.528250
1681.000000	12.470297
1682.000000	12.411063
1683.000000	12.349337
1684.000000	12.287570
1685.000000	12.225647
1686.000000	12.165667
1687.000000	12.109350
1688.000000	12.053957
1689.000000	12.006010
1690.000000	11.965157
1691.000000	11.934933
1692.000000	11.914537
1693.000000	11.905510
1694.000000	11.905513
1695.000000	11.912463
1696.000000	11.925367
1697.000000	11.940530
1698.000000	11.960733
1699.000000	11.981200
1700.000000	12.000537
1701.000000	12.018237
1702.000000	12.032257
1703.000000	12.040343
1704.000000	12.044493
1705.000000	12.045140
1706.000000	12.042453
1707.000000	12.036810
1708.000000	12.025973
1709.000000	12.011820
1710.000000	11.993463
1711.000000	11.969673
1712.000000	11.942523
1713.000000	11.909953
1714.000000	11.872530
1715.000000	11.831147
1716.000000	11.782920
1717.000000	11.730407
1718.000000	11.674773
1719.000000	11.612913
1720.000000	11.548427
1721.000000	11.484947
1722.000000	11.421750
1723.000000	11.362403
1724.000000	11.308637
1725.000000	11.262347
1726.000000	11.224720
1727.000000	11.195703
1728.000000	11.175007
1729.000000	11.164443
1730.000000	11.161870
1731.000000	11.165843
1732.000000	11.175233
1733.000000	11.190190
1734.000000	11.206163
1735.000000	11.222053
1736.000000	11.239927
1737.000000	11.260473
1738.000000	11.280380
1739.000000	11.301807
1740.000000	11.323927
1741.000000	11.348457
1742.000000	11.372687
1743.000000	11.397863
1744.000000	11.423780
1745.000000	11.452530
1746.000000	11.480067
1747.000000	11.506457
1748.000000	11.532197
1749.000000	11.556310
1750.000000	11.580343
1751.000000	11.599530
1752.000000	11.617457
1753.000000	11.631710
1754.000000	11.643923
1755.000000	11.653297
1756.000000	11.661110
1757.000000	11.666170
1758.000000	11.670297
1759.000000	11.673620
1760.000000	11.675507
1761.000000	11.676437
1762.000000	11.678103
1763.000000	11.679500
1764.000000	11.680973
1765.000000	11.682973
1766.000000	11.685737
1767.000000	11.689867
1768.000000	11.695877
1769.000000	11.703007
1770.000000	11.710197
1771.000000	11.720547
1772.000000	11.731887
1773.000000	11.745343
1774.000000	11.759223
1775.000000	11.772403
1776.000000	11.786120
1777.000000	11.801003
1778.000000	11.816257
1779.000000	11.830933
1780.000000	11.846170
1781.000000	11.860203
1782.000000	11.872997
1783.000000	11.883833
1784.000000	11.894137
1785.000000	11.903837
1786.000000	11.911957
1787.000000	11.919277
1788.000000	11.924460
1789.000000	11.927223
1790.000000	11.928217
1791.000000	11.927593
1792.000000	11.927260
1793.000000	11.927713
1794.000000	11.928447
1795.000000	11.928750
1796.000000	11.929227
1797.000000	11.929023
1798.000000	11.928470
1799.000000	11.927810
1800.000000	11.928023
1801.000000	11.930903
1802.000000	11.935713
1803.000000	11.939820
1804.000000	11.941037
1805.000000	11.942393
1806.000000	11.944410
1807.000000	11.948850
1808.000000	11.954060
1809.000000	11.957340
1810.000000	11.958190
1811.000000	11.958820
1812.000000	11.959680
1813.000000	11.961213
1814.000000	11.963930
1815.000000	11.966570
1816.000000	11.969530
1817.000000	11.968410
1818.000000	11.961223
1819.000000	11.952600
1820.000000	11.950480
1821.000000	11.955660
1822.000000	11.963473
1823.000000	11.967500
1824.000000	11.963820
1825.000000	11.955050
1826.000000	11.944203
1827.000000	11.936437
1828.000000	11.937350
1829.000000	11.944463
1830.000000	11.949940
1831.000000	11.950533
1832.000000	11.944463
1833.000000	11.935373
1834.000000	11.929093
1835.000000	11.926633
1836.000000	11.927930
1837.000000	11.933770
1838.000000	11.940843
1839.000000	11.946160
1840.000000	11.950613
1841.000000	11.957547
1842.000000	11.975397
1843.000000	12.001723
1844.000000	12.024010
1845.000000	12.033020
1846.000000	12.029297
1847.000000	12.024120
1848.000000	12.032367
1849.000000	12.054583
1850.000000	12.073347
1851.000000	12.073890
1852.000000	12.055563
1853.000000	12.032303
1854.000000	12.020817
1855.000000	12.026690
1856.000000	12.041703
1857.000000	12.045347
1858.000000	12.026557
1859.000000	11.997677
1860.000000	11.975837
1861.000000	11.966460
1862.000000	11.963867
1863.000000	11.957373
1864.000000	11.937953
1865.000000	11.905230
1866.000000	11.863900
1867.000000	11.820630
1868.000000	11.777807
1869.000000	11.725610
1870.000000	11.669087
1871.000000	11.617287
1872.000000	11.568133
1873.000000	11.526603
1874.000000	11.495270
1875.000000	11.469850
1876.000000	11.447823
1877.000000	11.425113
1878.000000	11.398450
1879.000000	11.367723
1880.000000	11.322723
1881.000000	11.256783
1882.000000	11.178067
1883.000000	11.087267
1884.000000	10.988820
1885.000000	10.884427
1886.000000	10.774030
1887.000000	10.657247
1888.000000	10.530867
1889.000000	10.394393
1890.000000	10.256987
1891.000000	10.121233
1892.000000	9.984773
1893.000000	9.845640
1894.000000	9.697753
1895.000000	9.539833
1896.000000	9.372020
1897.000000	9.198977
1898.000000	9.026067
1899.000000	8.857830
1900.000000	8.693617
1901.000000	8.528833
1902.000000	8.360827
1903.000000	8.189673
1904.000000	8.021210
1905.000000	7.862643
1906.000000	7.720377
1907.000000	7.588317
1908.000000	7.461470
1909.000000	7.336867
1910.000000	7.208043
1911.000000	7.080143
1912.000000	6.958790
1913.000000	6.850547
1914.000000	6.754013
1915.000000	6.661807
1916.000000	6.568807
1917.000000	6.475803
1918.000000	6.386073
1919.000000	6.301620
1920.000000	6.228217
1921.000000	6.165783
1922.000000	6.111427
1923.000000	6.057760
1924.000000	6.003710
1925.000000	5.950600
1926.000000	5.900043
1927.000000	5.857320
1928.000000	5.823007
1929.000000	5.795993
1930.000000	5.772037
1931.000000	5.749683
1932.000000	5.726887
1933.000000	5.704327
1934.000000	5.685133
1935.000000	5.669407
1936.000000	5.657247
1937.000000	5.648040
1938.000000	5.641873
1939.000000	5.637767
1940.000000	5.636053
1941.000000	5.635157
1942.000000	5.637630
1943.000000	5.642230
1944.000000	5.647127
1945.000000	5.657817
1946.000000	5.669343
1947.000000	5.682600
1948.000000	5.696830
1949.000000	5.711193
1950.000000	5.724420
1951.000000	5.738560
1952.000000	5.753340
1953.000000	5.771190
1954.000000	5.791703
1955.000000	5.811223
1956.000000	5.832123
1957.000000	5.852563
1958.000000	5.874137
1959.000000	5.894780
1960.000000	5.917797
1961.000000	5.941060
1962.000000	5.964523
1963.000000	5.988337
1964.000000	6.012433
1965.000000	6.035837
1966.000000	6.059313
1967.000000	6.083187
1968.000000	6.103910
1969.000000	6.126687
1970.000000	6.146523
1971.000000	6.167660
1972.000000	6.189603
1973.000000	6.210490
1974.000000	6.230807
1975.000000	6.250750
1976.000000	6.271063
1977.000000	6.291873
1978.000000	6.313580
1979.000000	6.334843
1980.000000	6.359053
1981.000000	6.381813
1982.000000	6.401773
1983.000000	6.423863
1984.000000	6.445607
1985.000000	6.468457
1986.000000	6.490940
1987.000000	6.512347
1988.000000	6.534543
1989.000000	6.556710
1990.000000	6.579633
1991.000000	6.600400
1992.000000	6.623913
1993.000000	6.646607
1994.000000	6.668417
1995.000000	6.689623
1996.000000	6.710050
1997.000000	6.731817
1998.000000	6.752410
1999.000000	6.770637
2000.000000	6.785893
2001.000000	6.802807
2002.000000	6.817887
2003.000000	6.831653
2004.000000	6.845147
2005.000000	6.856500
2006.000000	6.865750
2007.000000	6.873517
2008.000000	6.881407
2009.000000	6.888943
2010.000000	6.894597
2011.000000	6.898597
2012.000000	6.900857
2013.000000	6.900433
2014.000000	6.898213
2015.000000	6.895963
2016.000000	6.893127
2017.000000	6.888217
2018.000000	6.879287
2019.000000	6.868930
2020.000000	6.857777
2021.000000	6.845330
2022.000000	6.831527
2023.000000	6.816690
2024.000000	6.800357
2025.000000	6.781067
2026.000000	6.759390
2027.000000	6.736160
2028.000000	6.713103
2029.000000	6.688387
2030.000000	6.662380
2031.000000	6.635040
2032.000000	6.606367
2033.000000	6.576350
2034.000000	6.544460
2035.000000	6.510107
2036.000000	6.475420
2037.000000	6.438967
2038.000000	6.400633
2039.000000	6.360460
2040.000000	6.318863
2041.000000	6.276923
2042.000000	6.232840
2043.000000	6.187217
2044.000000	6.141753
2045.000000	6.097900
2046.000000	6.052410
2047.000000	6.006737
2048.000000	5.962280
2049.000000	5.919910
2050.000000	5.879217
2051.000000	5.839667
2052.000000	5.803803
2053.000000	5.770937
2054.000000	5.742677
2055.000000	5.718107
2056.000000	5.698483
2057.000000	5.684340
2058.000000	5.675627
2059.000000	5.671363
2060.000000	5.670680
2061.000000	5.673683
2062.000000	5.681223
2063.000000	5.693583
2064.000000	5.707550
2065.000000	5.724563
2066.000000	5.744443
2067.000000	5.765917
2068.000000	5.788473
2069.000000	5.811780
2070.000000	5.836187
2071.000000	5.861560
2072.000000	5.886310
2073.000000	5.910030
2074.000000	5.932857
2075.000000	5.954680
2076.000000	5.975530
2077.000000	5.994740
2078.000000	6.012100
2079.000000	6.028513
2080.000000	6.042990
2081.000000	6.055313
2082.000000	6.065120
2083.000000	6.072537
2084.000000	6.078503
2085.000000	6.082137
2086.000000	6.083983
2087.000000	6.085117
2088.000000	6.084100
2089.000000	6.081020
2090.000000	6.076783
2091.000000	6.069880
2092.000000	6.062403
2093.000000	6.057127
2094.000000	6.050577
2095.000000	6.041937
2096.000000	6.033000
2097.000000	6.023593
2098.000000	6.014767
2099.000000	6.006030
2100.000000	5.997110
2101.000000	5.990467
2102.000000	5.984213
2103.000000	5.975157
2104.000000	5.967097
2105.000000	5.961537
2106.000000	5.955440
2107.000000	5.948477
2108.000000	5.941627
2109.000000	5.934887
2110.000000	5.927917
2111.000000	5.921317
2112.000000	5.914517
2113.000000	5.906880
2114.000000	5.898480
2115.000000	5.889767
2116.000000	5.881287
2117.000000	5.872243
2118.000000	5.861543
2119.000000	5.850363
2120.000000	5.838927
2121.000000	5.825433
2122.000000	5.810460
2123.000000	5.796193
2124.000000	5.781740
2125.000000	5.765927
2126.000000	5.748897
2127.000000	5.731990
2128.000000	5.715450
2129.000000	5.697867
2130.000000	5.679793
2131.000000	5.661343
2132.000000	5.642897
2133.000000	5.622650
2134.000000	5.601483
2135.000000	5.580013
2136.000000	5.557897
2137.000000	5.535050
2138.000000	5.511290
2139.000000	5.487470
2140.000000	5.463417
2141.000000	5.438563
2142.000000	5.412360
2143.000000	5.386157
2144.000000	5.360243
2145.000000	5.333037
2146.000000	5.305400
2147.000000	5.277353
2148.000000	5.248797
2149.000000	5.219633
2150.000000	5.190713
2151.000000	5.161453
2152.000000	5.133573
2153.000000	5.106243
2154.000000	5.077727
2155.000000	5.050447
2156.000000	5.025093
2157.000000	4.999850
2158.000000	4.975603
2159.000000	4.952657
2160.000000	4.929203
2161.000000	4.908770
2162.000000	4.888323
2163.000000	4.869397
2164.000000	4.852777
2165.000000	4.837443
2166.000000	4.823130
2167.000000	4.809293
2168.000000	4.795483
2169.000000	4.781907
2170.000000	4.771003
2171.000000	4.759750
2172.000000	4.749873
2173.000000	4.740093
2174.000000	4.729203
2175.000000	4.719833
2176.000000	4.710843
2177.000000	4.702650
2178.000000	4.694240
2179.000000	4.685343
2180.000000	4.674793
2181.000000	4.664030
2182.000000	4.653060
2183.000000	4.640653
2184.000000	4.629807
2185.000000	4.615027
2186.000000	4.597923
2187.000000	4.578707
2188.000000	4.558883
2189.000000	4.537413
2190.000000	4.512823
2191.000000	4.484920
2192.000000	4.453083
2193.000000	4.419157
2194.000000	4.381277
2195.000000	4.341020
2196.000000	4.297513
2197.000000	4.251350
2198.000000	4.202817
2199.000000	4.151360
2200.000000	4.099873
2201.000000	4.047560
2202.000000	3.995943
2203.000000	3.944633
2204.000000	3.893983
2205.000000	3.845723
2206.000000	3.802110
2207.000000	3.762260
2208.000000	3.725977
2209.000000	3.695360
2210.000000	3.670777
2211.000000	3.652673
2212.000000	3.639307
2213.000000	3.631630
2214.000000	3.631010
2215.000000	3.635780
2216.000000	3.645063
2217.000000	3.659193
2218.000000	3.677413
2219.000000	3.701427
2220.000000	3.726073
2221.000000	3.752040
2222.000000	3.780983
2223.000000	3.811560
2224.000000	3.841653
2225.000000	3.871410
2226.000000	3.900847
2227.000000	3.929850
2228.000000	3.957300
2229.000000	3.980830
2230.000000	4.005177
2231.000000	4.027077
2232.000000	4.045707
2233.000000	4.061020
2234.000000	4.075007
2235.000000	4.086733
2236.000000	4.094060
2237.000000	4.098947
2238.000000	4.101903
2239.000000	4.102137
2240.000000	4.099297
2241.000000	4.094487
2242.000000	4.088653
2243.000000	4.079417
2244.000000	4.067223
2245.000000	4.053820
2246.000000	4.039850
2247.000000	4.025373
2248.000000	4.007773
2249.000000	3.989830
2250.000000	3.970373
2251.000000	3.950727
2252.000000	3.929127
2253.000000	3.909157
2254.000000	3.887247
2255.000000	3.865293
2256.000000	3.844373
2257.000000	3.822633
2258.000000	3.803953
2259.000000	3.784657
2260.000000	3.767533
2261.000000	3.751287
2262.000000	3.737107
2263.000000	3.724867
2264.000000	3.714807
2265.000000	3.707197
2266.000000	3.699653
2267.000000	3.694197
2268.000000	3.689383
2269.000000	3.688877
2270.000000	3.686590
2271.000000	3.687140
2272.000000	3.688043
2273.000000	3.690523
2274.000000	3.695367
2275.000000	3.698863
2276.000000	3.703467
2277.000000	3.707857
2278.000000	3.713027
2279.000000	3.715993
2280.000000	3.721267
2281.000000	3.726737
2282.000000	3.731257
2283.000000	3.734527
2284.000000	3.736557
2285.000000	3.740087
2286.000000	3.744270
2287.000000	3.747780
2288.000000	3.749627
2289.000000	3.753220
2290.000000	3.756070
2291.000000	3.757500
2292.000000	3.759497
2293.000000	3.762953
2294.000000	3.766123
2295.000000	3.770283
2296.000000	3.773547
2297.000000	3.777027
2298.000000	3.781720
2299.000000	3.784737
2300.000000	3.788763
2301.000000	3.793820
2302.000000	3.800437
2303.000000	3.805180
2304.000000	3.812033
2305.000000	3.818487
2306.000000	3.826227
2307.000000	3.835187
2308.000000	3.844583
2309.000000	3.855130
2310.000000	3.865780
2311.000000	3.874887
2312.000000	3.885597
2313.000000	3.897827
2314.000000	3.907440
2315.000000	3.917657
2316.000000	3.927933
2317.000000	3.936480
2318.000000	3.944797
2319.000000	3.952180
2320.000000	3.957810
2321.000000	3.963603
2322.000000	3.966790
2323.000000	3.968710
2324.000000	3.971117
2325.000000	3.970253
2326.000000	3.968147
2327.000000	3.965987
2328.000000	3.963020
2329.000000	3.959740
2330.000000	3.957100
2331.000000	3.954187
2332.000000	3.951860
2333.000000	3.950003
2334.000000	3.947630
2335.000000	3.946740
2336.000000	3.946293
2337.000000	3.946440
2338.000000	3.947077
2339.000000	3.948843
2340.000000	3.951000
2341.000000	3.953537
2342.000000	3.955857
2343.000000	3.959100
2344.000000	3.963780
2345.000000	3.968383
2346.000000	3.972390
2347.000000	3.976510
2348.000000	3.982293
2349.000000	3.988220
2350.000000	3.993480
2351.000000	4.000007
2352.000000	4.006510
2353.000000	4.011413
2354.000000	4.016583
2355.000000	4.022553
2356.000000	4.028520
2357.000000	4.034867
2358.000000	4.039900
2359.000000	4.043703
2360.000000	4.047427
2361.000000	4.049180
2362.000000	4.050800
2363.000000	4.053337
2364.000000	4.055253
2365.000000	4.055880
2366.000000	4.056320
2367.000000	4.056170
2368.000000	4.055970
2369.000000	4.056843
2370.000000	4.057690
2371.000000	4.059060
2372.000000	4.061177
2373.000000	4.062437
2374.000000	4.064570
2375.000000	4.067660
2376.000000	4.070330
2377.000000	4.073627
2378.000000	4.076780
2379.000000	4.078843
2380.000000	4.080223
2381.000000	4.081223
2382.000000	4.082653
2383.000000	4.084017
2384.000000	4.084567
2385.000000	4.083780
2386.000000	4.082860
2387.000000	4.080773
2388.000000	4.077773
2389.000000	4.075187
2390.000000	4.072293
2391.000000	4.068863
2392.000000	4.063943
2393.000000	4.058183
2394.000000	4.050863
2395.000000	4.043423
2396.000000	4.036727
2397.000000	4.029560
2398.000000	4.022180
2399.000000	4.013533
2400.000000	4.005457
2401.000000	3.996970
2402.000000	3.987310
2403.000000	3.977280
2404.000000	3.968127
2405.000000	3.958857
2406.000000	3.948670
2407.000000	3.937440
2408.000000	3.925797
2409.000000	3.914223
2410.000000	3.901513
2411.000000	3.889600
2412.000000	3.877080
2413.000000	3.864113
2414.000000	3.849877
2415.000000	3.835373
2416.000000	3.819467
2417.000000	3.803123
2418.000000	3.786187
2419.000000	3.767670
2420.000000	3.749193
2421.000000	3.728870
2422.000000	3.707440
2423.000000	3.684860
2424.000000	3.661913
2425.000000	3.638497
2426.000000	3.615427
2427.000000	3.592003
2428.000000	3.568413
2429.000000	3.544750
2430.000000	3.519747
2431.000000	3.494210
2432.000000	3.469763
2433.000000	3.446260
2434.000000	3.422633
2435.000000	3.397167
2436.000000	3.371153
2437.000000	3.345650
2438.000000	3.319743
2439.000000	3.294173
2440.000000	3.268563
2441.000000	3.243443
2442.000000	3.217617
2443.000000	3.190310
2444.000000	3.162563
2445.000000	3.135833
2446.000000	3.110820
2447.000000	3.085360
2448.000000	3.059677
2449.000000	3.034163
2450.000000	3.009343
2451.000000	2.985487
2452.000000	2.962387
2453.000000	2.939937
2454.000000	2.918767
2455.000000	2.897660
2456.000000	2.874603
2457.000000	2.853293
2458.000000	2.834933
2459.000000	2.815757
2460.000000	2.797350
2461.000000	2.777860
2462.000000	2.758627
2463.000000	2.740857
2464.000000	2.723863
2465.000000	2.707787
2466.000000	2.693213
2467.000000	2.677743
2468.000000	2.661100
2469.000000	2.647287
2470.000000	2.635803
2471.000000	2.624997
2472.000000	2.615203
2473.000000	2.606737
2474.000000	2.601527
2475.000000	2.593093
2476.000000	2.587123
2477.000000	2.581670
2478.000000	2.577430
2479.000000	2.569073
2480.000000	2.561853
2481.000000	2.557937
2482.000000	2.554913
2483.000000	2.549847
2484.000000	2.543283
2485.000000	2.542063
2486.000000	2.537480
2487.000000	2.535883
2488.000000	2.532030
2489.000000	2.537080
2490.000000	2.545317
2491.000000	2.546357
2492.000000	2.547193
2493.000000	2.547180
2494.000000	2.549730
2495.000000	2.559123
2496.000000	2.570990
2497.000000	2.581923
2498.000000	2.599287
2499.000000	2.606357
2500.000000	2.606187
