PE UV       SUBTECH     SPECTRUM    ASCII       PEDS        4.00        
   -1
BIOUCR0003-3.Sample.ASC
24/02/19
11:51:08.00
24/02/19
11:51:08.00
Vinicio Soto Monge
P. cupreomarginata (sin datos) Monteverde(dudoso) 
250,000000
1
Lambda 1050
1050L1511233
PerkinElmer UV WinLab 6.3.2.0749 / 2.02.05 Lambda 900 UV/VIS/NIR, Aug  7 2015 09:38:08

0
0
3350/servo 860,8/2
0
0
UV/VIS
1
1
1
DoubleDePol,CommonBeamDepol,RBeamAtt,SBeamAtt,60mm sphere, WB InGaAs Detector
0
0
0
0
Program
Program
3350/servo 860,8/2
3350/0,2 860,8/0,2
3350/0,2 860,8/0,2
0
15.00
 
 
 
0
 
860,8
319,2
860,8
Front
100
on
S:100 R:100
0
0
0
0
 
0
 
 
 
0
 
 
0
0
0
0
0
 
 
 
 
0
0


0
0
#HDR
-1
-1
#GR
nm
%R
1.0
0.0
2500,000000
-1,000000
2251
8
21,834900
1,499300
#DATA

250.000000	nan
251.000000	nan
252.000000	nan
253.000000	nan
254.000000	nan
255.000000	nan
256.000000	nan
257.000000	nan
258.000000	nan
259.000000	2.024426
260.000000	2.019867
261.000000	2.015677
262.000000	2.012006
263.000000	2.006889
264.000000	2.000910
265.000000	1.996206
266.000000	1.990931
267.000000	1.986180
268.000000	1.981234
269.000000	1.976287
270.000000	1.971424
271.000000	1.964731
272.000000	1.958390
273.000000	1.952887
274.000000	1.948276
275.000000	1.941901
276.000000	1.937704
277.000000	1.933151
278.000000	1.929613
279.000000	1.926289
280.000000	1.923304
281.000000	1.921611
282.000000	1.920175
283.000000	1.918183
284.000000	1.915940
285.000000	1.915965
286.000000	1.914401
287.000000	1.913270
288.000000	1.909882
289.000000	1.906541
290.000000	1.902599
291.000000	1.899797
292.000000	1.895386
293.000000	1.891507
294.000000	1.888135
295.000000	1.885531
296.000000	1.882156
297.000000	1.879246
298.000000	1.876933
299.000000	1.875061
300.000000	1.873241
301.000000	1.870600
302.000000	1.868757
303.000000	1.868511
304.000000	1.867507
305.000000	1.863697
306.000000	1.859556
307.000000	1.857630
308.000000	1.856627
309.000000	1.854106
310.000000	1.852766
311.000000	1.851914
312.000000	1.849804
313.000000	1.845247
314.000000	1.841650
315.000000	1.840762
316.000000	1.842407
317.000000	1.849526
318.000000	1.856869
319.000000	1.861403
320.000000	1.866760
321.000000	1.871935
322.000000	1.880411
323.000000	1.887512
324.000000	1.893119
325.000000	1.898402
326.000000	1.901264
327.000000	1.897672
328.000000	1.890488
329.000000	1.886600
330.000000	1.879593
331.000000	1.873237
332.000000	1.868535
333.000000	1.861896
334.000000	1.856052
335.000000	1.852123
336.000000	1.846979
337.000000	1.839890
338.000000	1.839426
339.000000	1.837257
340.000000	1.839114
341.000000	1.837472
342.000000	1.828030
343.000000	1.826287
344.000000	1.826640
345.000000	1.823156
346.000000	1.821120
347.000000	1.818364
348.000000	1.810859
349.000000	1.808319
350.000000	1.803512
351.000000	1.801218
352.000000	1.801492
353.000000	1.799231
354.000000	1.794704
355.000000	1.790932
356.000000	1.788208
357.000000	1.787135
358.000000	1.787635
359.000000	1.785736
360.000000	1.783665
361.000000	1.783440
362.000000	1.784386
363.000000	1.780324
364.000000	1.778142
365.000000	1.776868
366.000000	1.778934
367.000000	1.777248
368.000000	1.775737
369.000000	1.773445
370.000000	1.772417
371.000000	1.770542
372.000000	1.766561
373.000000	1.767439
374.000000	1.765228
375.000000	1.763332
376.000000	1.752020
377.000000	1.730718
378.000000	1.710526
379.000000	1.691034
380.000000	1.670729
381.000000	1.650223
382.000000	1.632018
383.000000	1.614380
384.000000	1.598527
385.000000	1.582048
386.000000	1.572448
387.000000	1.576631
388.000000	1.581796
389.000000	1.586957
390.000000	1.592395
391.000000	1.598651
392.000000	1.606521
393.000000	1.614139
394.000000	1.622155
395.000000	1.631877
396.000000	1.642792
397.000000	1.654517
398.000000	1.667179
399.000000	1.681248
400.000000	1.697450
401.000000	1.715246
402.000000	1.734488
403.000000	1.756220
404.000000	1.780236
405.000000	1.806259
406.000000	1.833632
407.000000	1.863379
408.000000	1.895368
409.000000	1.929624
410.000000	1.966015
411.000000	2.004459
412.000000	2.044954
413.000000	2.087762
414.000000	2.132880
415.000000	2.179398
416.000000	2.228016
417.000000	2.278698
418.000000	2.330852
419.000000	2.384122
420.000000	2.438523
421.000000	2.494460
422.000000	2.551706
423.000000	2.609735
424.000000	2.667994
425.000000	2.727074
426.000000	2.786750
427.000000	2.846214
428.000000	2.904786
429.000000	2.962760
430.000000	3.020513
431.000000	3.077451
432.000000	3.133693
433.000000	3.189290
434.000000	3.244637
435.000000	3.299125
436.000000	3.352578
437.000000	3.404851
438.000000	3.456735
439.000000	3.508701
440.000000	3.559477
441.000000	3.608798
442.000000	3.656627
443.000000	3.702621
444.000000	3.746376
445.000000	3.788280
446.000000	3.828525
447.000000	3.867128
448.000000	3.903965
449.000000	3.938445
450.000000	3.970821
451.000000	4.001339
452.000000	4.030057
453.000000	4.057041
454.000000	4.081827
455.000000	4.104282
456.000000	4.124462
457.000000	4.142003
458.000000	4.156596
459.000000	4.168799
460.000000	4.179144
461.000000	4.187306
462.000000	4.193273
463.000000	4.197220
464.000000	4.200058
465.000000	4.202211
466.000000	4.203360
467.000000	4.204627
468.000000	4.207098
469.000000	4.210840
470.000000	4.215348
471.000000	4.221653
472.000000	4.230672
473.000000	4.243459
474.000000	4.260125
475.000000	4.280563
476.000000	4.305697
477.000000	4.336137
478.000000	4.372099
479.000000	4.413661
480.000000	4.461541
481.000000	4.515375
482.000000	4.574662
483.000000	4.639939
484.000000	4.712053
485.000000	4.791287
486.000000	4.877211
487.000000	4.968137
488.000000	5.062263
489.000000	5.158494
490.000000	5.256612
491.000000	5.355961
492.000000	5.455035
493.000000	5.552318
494.000000	5.646210
495.000000	5.736385
496.000000	5.822430
497.000000	5.904438
498.000000	5.983651
499.000000	6.060985
500.000000	6.136138
501.000000	6.209857
502.000000	6.283739
503.000000	6.358576
504.000000	6.434859
505.000000	6.512512
506.000000	6.592787
507.000000	6.676739
508.000000	6.764372
509.000000	6.856355
510.000000	6.953492
511.000000	7.055783
512.000000	7.163468
513.000000	7.276827
514.000000	7.395767
515.000000	7.520461
516.000000	7.650475
517.000000	7.785508
518.000000	7.925628
519.000000	8.070828
520.000000	8.221148
521.000000	8.376712
522.000000	8.537125
523.000000	8.701482
524.000000	8.870977
525.000000	9.045552
526.000000	9.224654
527.000000	9.407227
528.000000	9.592176
529.000000	9.779009
530.000000	9.966893
531.000000	10.156885
532.000000	10.348776
533.000000	10.543283
534.000000	10.739898
535.000000	10.938317
536.000000	11.138839
537.000000	11.341645
538.000000	11.546635
539.000000	11.754024
540.000000	11.964894
541.000000	12.177518
542.000000	12.390142
543.000000	12.601132
544.000000	12.809672
545.000000	13.015873
546.000000	13.216673
547.000000	13.411872
548.000000	13.600671
549.000000	13.781683
550.000000	13.955837
551.000000	14.123244
552.000000	14.284666
553.000000	14.440636
554.000000	14.592387
555.000000	14.739094
556.000000	14.881381
557.000000	15.021164
558.000000	15.159109
559.000000	15.295561
560.000000	15.390170
561.000000	15.473986
562.000000	15.554373
563.000000	15.630005
564.000000	15.699731
565.000000	15.763779
566.000000	15.821302
567.000000	15.870380
568.000000	15.912117
569.000000	15.945339
570.000000	16.007895
571.000000	16.071065
572.000000	16.127137
573.000000	16.177819
574.000000	16.224471
575.000000	16.267248
576.000000	16.308289
577.000000	16.348723
578.000000	16.387005
579.000000	16.424259
580.000000	16.460792
581.000000	16.495625
582.000000	16.527206
583.000000	16.557604
584.000000	16.584185
585.000000	16.607469
586.000000	16.625647
587.000000	16.637714
588.000000	16.643286
589.000000	16.639757
590.000000	16.627596
591.000000	16.604914
592.000000	16.574073
593.000000	16.531461
594.000000	16.479586
595.000000	16.420420
596.000000	16.356513
597.000000	16.287928
598.000000	16.216794
599.000000	16.146423
600.000000	16.076077
601.000000	16.007694
602.000000	15.940193
603.000000	15.874710
604.000000	15.811192
605.000000	15.746422
606.000000	15.681950
607.000000	15.618036
608.000000	15.551761
609.000000	15.485491
610.000000	15.419162
611.000000	15.351294
612.000000	15.282507
613.000000	15.213646
614.000000	15.142675
615.000000	15.071141
616.000000	14.996368
617.000000	14.919392
618.000000	14.841515
619.000000	14.760594
620.000000	14.676576
621.000000	14.587425
622.000000	14.493333
623.000000	14.394070
624.000000	14.290500
625.000000	14.180856
626.000000	14.066875
627.000000	13.948625
628.000000	13.829449
629.000000	13.708433
630.000000	13.589034
631.000000	13.475927
632.000000	13.371533
633.000000	13.278656
634.000000	13.199779
635.000000	13.138998
636.000000	13.098037
637.000000	13.077837
638.000000	13.078251
639.000000	13.099897
640.000000	13.141693
641.000000	13.201796
642.000000	13.276990
643.000000	13.366498
644.000000	13.466920
645.000000	13.574971
646.000000	13.686288
647.000000	13.799494
648.000000	13.911609
649.000000	14.021808
650.000000	14.128621
651.000000	14.230734
652.000000	14.328889
653.000000	14.420894
654.000000	14.508692
655.000000	14.591352
656.000000	14.669065
657.000000	14.742251
658.000000	14.812867
659.000000	14.881165
660.000000	14.945782
661.000000	15.007844
662.000000	15.068309
663.000000	15.126022
664.000000	15.179023
665.000000	15.229164
666.000000	15.280982
667.000000	15.334117
668.000000	15.386995
669.000000	15.442201
670.000000	15.502594
671.000000	15.568377
672.000000	15.639370
673.000000	15.717494
674.000000	15.805185
675.000000	15.902174
676.000000	16.005213
677.000000	16.114760
678.000000	16.233116
679.000000	16.356220
680.000000	16.482150
681.000000	16.608899
682.000000	16.735162
683.000000	16.859464
684.000000	16.979482
685.000000	17.092485
686.000000	17.198448
687.000000	17.294926
688.000000	17.378726
689.000000	17.452654
690.000000	17.515515
691.000000	17.566937
692.000000	17.609168
693.000000	17.642606
694.000000	17.666859
695.000000	17.683989
696.000000	17.694991
697.000000	17.702733
698.000000	17.708878
699.000000	17.714217
700.000000	17.720006
701.000000	17.729174
702.000000	17.742329
703.000000	17.758927
704.000000	17.781327
705.000000	17.813042
706.000000	17.852382
707.000000	17.900572
708.000000	17.962224
709.000000	18.034245
710.000000	18.118124
711.000000	18.213825
712.000000	18.320968
713.000000	18.440929
714.000000	18.573733
715.000000	18.715990
716.000000	18.869424
717.000000	19.032814
718.000000	19.201363
719.000000	19.374382
720.000000	19.551678
721.000000	19.730345
722.000000	19.907763
723.000000	20.084583
724.000000	20.259474
725.000000	20.431106
726.000000	20.596493
727.000000	20.753604
728.000000	20.903102
729.000000	21.044681
730.000000	21.175933
731.000000	21.299149
732.000000	21.414659
733.000000	21.519580
734.000000	21.613906
735.000000	21.699578
736.000000	21.778842
737.000000	21.850753
738.000000	21.913625
739.000000	21.970004
740.000000	22.020455
741.000000	22.065894
742.000000	22.107907
743.000000	22.145583
744.000000	22.179899
745.000000	22.211059
746.000000	22.241240
747.000000	22.273287
748.000000	22.303875
749.000000	22.332141
750.000000	22.360294
751.000000	22.388024
752.000000	22.415692
753.000000	22.443297
754.000000	22.470057
755.000000	22.494047
756.000000	22.513663
757.000000	22.528817
758.000000	22.543955
759.000000	22.560627
760.000000	22.578010
761.000000	22.596380
762.000000	22.612746
763.000000	22.626956
764.000000	22.643580
765.000000	22.664282
766.000000	22.686122
767.000000	22.708092
768.000000	22.728382
769.000000	22.747139
770.000000	22.762649
771.000000	22.774176
772.000000	22.784445
773.000000	22.793853
774.000000	22.795728
775.000000	22.793038
776.000000	22.791651
777.000000	22.787564
778.000000	22.781284
779.000000	22.773451
780.000000	22.763719
781.000000	22.752242
782.000000	22.739216
783.000000	22.723990
784.000000	22.710630
785.000000	22.695980
786.000000	22.674290
787.000000	22.649567
788.000000	22.623837
789.000000	22.598613
790.000000	22.574918
791.000000	22.548798
792.000000	22.520471
793.000000	22.490528
794.000000	22.458582
795.000000	22.425040
796.000000	22.391397
797.000000	22.358740
798.000000	22.327459
799.000000	22.293742
800.000000	22.255604
801.000000	22.218945
802.000000	22.182374
803.000000	22.148873
804.000000	22.114657
805.000000	22.076221
806.000000	22.038716
807.000000	22.002304
808.000000	21.973512
809.000000	21.941062
810.000000	21.906667
811.000000	21.873224
812.000000	21.839547
813.000000	21.802418
814.000000	21.766123
815.000000	21.732150
816.000000	21.693574
817.000000	21.657375
818.000000	21.608219
819.000000	21.562705
820.000000	21.519984
821.000000	21.471767
822.000000	21.418507
823.000000	21.363386
824.000000	21.307761
825.000000	21.252400
826.000000	21.196871
827.000000	21.133942
828.000000	21.069591
829.000000	20.996595
830.000000	20.921605
831.000000	20.847767
832.000000	20.767580
833.000000	20.684969
834.000000	20.597010
835.000000	20.504254
836.000000	20.409718
837.000000	20.315137
838.000000	20.216310
839.000000	20.118741
840.000000	20.016381
841.000000	19.912428
842.000000	19.808985
843.000000	19.701302
844.000000	19.591246
845.000000	19.488543
846.000000	19.391332
847.000000	19.291367
848.000000	19.191905
849.000000	19.093673
850.000000	19.007796
851.000000	18.917752
852.000000	18.825210
853.000000	18.755719
854.000000	18.684358
855.000000	18.596171
856.000000	18.525824
857.000000	18.459141
858.000000	18.451425
859.000000	18.446986
860.000000	18.438269
861.000000	18.440719
862.000000	18.459302
863.000000	18.469510
864.000000	18.493108
865.000000	18.534861
866.000000	18.562597
867.000000	18.596788
868.000000	18.583510
869.000000	18.574853
870.000000	18.568600
871.000000	18.561830
872.000000	18.554963
873.000000	18.548080
874.000000	18.540067
875.000000	18.534760
876.000000	18.530677
877.000000	18.527800
878.000000	18.527517
879.000000	18.529407
880.000000	18.533483
881.000000	18.541990
882.000000	18.553980
883.000000	18.566613
884.000000	18.582693
885.000000	18.599647
886.000000	18.617997
887.000000	18.636013
888.000000	18.656730
889.000000	18.680260
890.000000	18.705247
891.000000	18.729563
892.000000	18.753220
893.000000	18.778637
894.000000	18.805230
895.000000	18.833140
896.000000	18.861733
897.000000	18.893883
898.000000	18.927030
899.000000	18.960160
900.000000	18.995747
901.000000	19.035313
902.000000	19.075540
903.000000	19.118553
904.000000	19.163867
905.000000	19.208900
906.000000	19.257897
907.000000	19.306337
908.000000	19.353713
909.000000	19.403663
910.000000	19.451267
911.000000	19.496097
912.000000	19.541780
913.000000	19.589363
914.000000	19.635357
915.000000	19.681243
916.000000	19.724483
917.000000	19.766650
918.000000	19.808700
919.000000	19.847307
920.000000	19.886987
921.000000	19.927220
922.000000	19.968000
923.000000	20.004950
924.000000	20.039940
925.000000	20.072740
926.000000	20.105030
927.000000	20.136640
928.000000	20.165683
929.000000	20.193593
930.000000	20.218987
931.000000	20.242200
932.000000	20.261713
933.000000	20.281190
934.000000	20.302830
935.000000	20.325070
936.000000	20.345543
937.000000	20.367187
938.000000	20.390153
939.000000	20.412777
940.000000	20.435453
941.000000	20.455670
942.000000	20.475463
943.000000	20.495997
944.000000	20.514517
945.000000	20.534533
946.000000	20.554897
947.000000	20.574223
948.000000	20.593510
949.000000	20.613020
950.000000	20.632320
951.000000	20.654623
952.000000	20.679423
953.000000	20.701767
954.000000	20.723463
955.000000	20.743567
956.000000	20.763540
957.000000	20.783580
958.000000	20.802413
959.000000	20.819843
960.000000	20.838063
961.000000	20.852997
962.000000	20.866480
963.000000	20.878890
964.000000	20.891217
965.000000	20.902240
966.000000	20.912437
967.000000	20.920127
968.000000	20.927117
969.000000	20.934560
970.000000	20.941087
971.000000	20.947233
972.000000	20.952860
973.000000	20.957070
974.000000	20.960353
975.000000	20.965153
976.000000	20.968690
977.000000	20.972913
978.000000	20.977957
979.000000	20.982047
980.000000	20.983387
981.000000	20.985330
982.000000	20.987577
983.000000	20.991763
984.000000	20.994567
985.000000	20.995533
986.000000	20.998033
987.000000	21.000830
988.000000	21.001907
989.000000	21.003033
990.000000	21.006207
991.000000	21.010453
992.000000	21.013723
993.000000	21.015163
994.000000	21.018010
995.000000	21.021350
996.000000	21.024887
997.000000	21.028190
998.000000	21.032277
999.000000	21.037587
1000.000000	21.042037
1001.000000	21.046250
1002.000000	21.050883
1003.000000	21.056760
1004.000000	21.061627
1005.000000	21.065547
1006.000000	21.067960
1007.000000	21.069370
1008.000000	21.070160
1009.000000	21.070133
1010.000000	21.070747
1011.000000	21.070353
1012.000000	21.068803
1013.000000	21.066140
1014.000000	21.063437
1015.000000	21.061257
1016.000000	21.059513
1017.000000	21.058187
1018.000000	21.057270
1019.000000	21.056920
1020.000000	21.056123
1021.000000	21.055643
1022.000000	21.055570
1023.000000	21.055633
1024.000000	21.058017
1025.000000	21.060833
1026.000000	21.063073
1027.000000	21.067110
1028.000000	21.071723
1029.000000	21.075543
1030.000000	21.079543
1031.000000	21.085423
1032.000000	21.091263
1033.000000	21.096343
1034.000000	21.100697
1035.000000	21.104957
1036.000000	21.110223
1037.000000	21.114783
1038.000000	21.118833
1039.000000	21.123157
1040.000000	21.128863
1041.000000	21.133970
1042.000000	21.138580
1043.000000	21.143650
1044.000000	21.149487
1045.000000	21.156213
1046.000000	21.162170
1047.000000	21.167510
1048.000000	21.173593
1049.000000	21.179837
1050.000000	21.185117
1051.000000	21.189793
1052.000000	21.196447
1053.000000	21.204003
1054.000000	21.209843
1055.000000	21.214197
1056.000000	21.218587
1057.000000	21.224187
1058.000000	21.229553
1059.000000	21.234447
1060.000000	21.239280
1061.000000	21.243977
1062.000000	21.248670
1063.000000	21.254630
1064.000000	21.261637
1065.000000	21.268593
1066.000000	21.276130
1067.000000	21.283063
1068.000000	21.290053
1069.000000	21.298990
1070.000000	21.309407
1071.000000	21.319617
1072.000000	21.329830
1073.000000	21.338593
1074.000000	21.346807
1075.000000	21.356167
1076.000000	21.367013
1077.000000	21.377870
1078.000000	21.387797
1079.000000	21.397383
1080.000000	21.405737
1081.000000	21.413590
1082.000000	21.420383
1083.000000	21.427530
1084.000000	21.434440
1085.000000	21.441217
1086.000000	21.447657
1087.000000	21.453893
1088.000000	21.460193
1089.000000	21.465463
1090.000000	21.471450
1091.000000	21.478193
1092.000000	21.484647
1093.000000	21.490800
1094.000000	21.496343
1095.000000	21.501270
1096.000000	21.505100
1097.000000	21.507480
1098.000000	21.509153
1099.000000	21.511347
1100.000000	21.513113
1101.000000	21.513393
1102.000000	21.513940
1103.000000	21.514070
1104.000000	21.513930
1105.000000	21.515920
1106.000000	21.517037
1107.000000	21.519433
1108.000000	21.521743
1109.000000	21.523090
1110.000000	21.523687
1111.000000	21.525780
1112.000000	21.527760
1113.000000	21.528510
1114.000000	21.528797
1115.000000	21.526603
1116.000000	21.524263
1117.000000	21.521280
1118.000000	21.519313
1119.000000	21.516680
1120.000000	21.513440
1121.000000	21.509350
1122.000000	21.505153
1123.000000	21.502407
1124.000000	21.499353
1125.000000	21.494300
1126.000000	21.487790
1127.000000	21.479613
1128.000000	21.469887
1129.000000	21.459170
1130.000000	21.446467
1131.000000	21.428267
1132.000000	21.402463
1133.000000	21.372520
1134.000000	21.343563
1135.000000	21.316513
1136.000000	21.286793
1137.000000	21.252477
1138.000000	21.215463
1139.000000	21.177397
1140.000000	21.138263
1141.000000	21.101417
1142.000000	21.068113
1143.000000	21.034857
1144.000000	21.001070
1145.000000	20.965197
1146.000000	20.932550
1147.000000	20.902420
1148.000000	20.875513
1149.000000	20.847983
1150.000000	20.820420
1151.000000	20.794187
1152.000000	20.770010
1153.000000	20.746583
1154.000000	20.721840
1155.000000	20.696697
1156.000000	20.667440
1157.000000	20.638230
1158.000000	20.604237
1159.000000	20.567387
1160.000000	20.528203
1161.000000	20.485613
1162.000000	20.437967
1163.000000	20.388197
1164.000000	20.334607
1165.000000	20.278220
1166.000000	20.221083
1167.000000	20.162957
1168.000000	20.104543
1169.000000	20.048650
1170.000000	19.993800
1171.000000	19.941500
1172.000000	19.893527
1173.000000	19.847893
1174.000000	19.806547
1175.000000	19.767747
1176.000000	19.734930
1177.000000	19.705560
1178.000000	19.678987
1179.000000	19.652630
1180.000000	19.629413
1181.000000	19.605890
1182.000000	19.583597
1183.000000	19.564237
1184.000000	19.546063
1185.000000	19.529380
1186.000000	19.514217
1187.000000	19.500767
1188.000000	19.489787
1189.000000	19.482447
1190.000000	19.478327
1191.000000	19.480010
1192.000000	19.487583
1193.000000	19.496653
1194.000000	19.509133
1195.000000	19.525563
1196.000000	19.543117
1197.000000	19.561610
1198.000000	19.583047
1199.000000	19.607303
1200.000000	19.632617
1201.000000	19.656413
1202.000000	19.676913
1203.000000	19.697577
1204.000000	19.717530
1205.000000	19.738123
1206.000000	19.758013
1207.000000	19.779390
1208.000000	19.800997
1209.000000	19.820817
1210.000000	19.840463
1211.000000	19.860153
1212.000000	19.879883
1213.000000	19.899530
1214.000000	19.919380
1215.000000	19.938243
1216.000000	19.957100
1217.000000	19.973027
1218.000000	19.987107
1219.000000	20.001053
1220.000000	20.011997
1221.000000	20.024053
1222.000000	20.036357
1223.000000	20.048713
1224.000000	20.058393
1225.000000	20.066437
1226.000000	20.073130
1227.000000	20.080390
1228.000000	20.086973
1229.000000	20.092973
1230.000000	20.100330
1231.000000	20.105573
1232.000000	20.109787
1233.000000	20.112097
1234.000000	20.115927
1235.000000	20.120727
1236.000000	20.125977
1237.000000	20.130270
1238.000000	20.135697
1239.000000	20.140867
1240.000000	20.145677
1241.000000	20.152047
1242.000000	20.158687
1243.000000	20.167387
1244.000000	20.177063
1245.000000	20.187373
1246.000000	20.198313
1247.000000	20.211400
1248.000000	20.224120
1249.000000	20.239450
1250.000000	20.256453
1251.000000	20.274087
1252.000000	20.291997
1253.000000	20.308813
1254.000000	20.325750
1255.000000	20.342680
1256.000000	20.358633
1257.000000	20.373500
1258.000000	20.387327
1259.000000	20.398387
1260.000000	20.408147
1261.000000	20.416177
1262.000000	20.423837
1263.000000	20.430023
1264.000000	20.433570
1265.000000	20.435980
1266.000000	20.437493
1267.000000	20.438567
1268.000000	20.439513
1269.000000	20.439947
1270.000000	20.439990
1271.000000	20.438263
1272.000000	20.434880
1273.000000	20.432787
1274.000000	20.430913
1275.000000	20.428027
1276.000000	20.425807
1277.000000	20.423047
1278.000000	20.419833
1279.000000	20.416780
1280.000000	20.413443
1281.000000	20.412713
1282.000000	20.413770
1283.000000	20.414947
1284.000000	20.417883
1285.000000	20.422277
1286.000000	20.427930
1287.000000	20.435130
1288.000000	20.443110
1289.000000	20.453123
1290.000000	20.464517
1291.000000	20.474990
1292.000000	20.484737
1293.000000	20.494430
1294.000000	20.504013
1295.000000	20.513887
1296.000000	20.523130
1297.000000	20.532413
1298.000000	20.542083
1299.000000	20.550057
1300.000000	20.556740
1301.000000	20.563287
1302.000000	20.569417
1303.000000	20.575343
1304.000000	20.580750
1305.000000	20.583827
1306.000000	20.584820
1307.000000	20.583223
1308.000000	20.579233
1309.000000	20.574297
1310.000000	20.567957
1311.000000	20.559053
1312.000000	20.549010
1313.000000	20.537883
1314.000000	20.524163
1315.000000	20.508980
1316.000000	20.493093
1317.000000	20.475197
1318.000000	20.456030
1319.000000	20.435263
1320.000000	20.413260
1321.000000	20.392487
1322.000000	20.371223
1323.000000	20.347583
1324.000000	20.322867
1325.000000	20.297730
1326.000000	20.271080
1327.000000	20.243510
1328.000000	20.215083
1329.000000	20.184700
1330.000000	20.152770
1331.000000	20.117613
1332.000000	20.080320
1333.000000	20.041703
1334.000000	20.001183
1335.000000	19.958517
1336.000000	19.914293
1337.000000	19.868307
1338.000000	19.820850
1339.000000	19.772270
1340.000000	19.722453
1341.000000	19.670893
1342.000000	19.616347
1343.000000	19.561160
1344.000000	19.503073
1345.000000	19.440113
1346.000000	19.373057
1347.000000	19.306343
1348.000000	19.239080
1349.000000	19.168563
1350.000000	19.093490
1351.000000	19.015490
1352.000000	18.936333
1353.000000	18.855387
1354.000000	18.777923
1355.000000	18.708973
1356.000000	18.645453
1357.000000	18.580067
1358.000000	18.514690
1359.000000	18.450867
1360.000000	18.392053
1361.000000	18.345860
1362.000000	18.311277
1363.000000	18.278847
1364.000000	18.245043
1365.000000	18.209793
1366.000000	18.170083
1367.000000	18.129227
1368.000000	18.089597
1369.000000	18.047183
1370.000000	17.998163
1371.000000	17.936883
1372.000000	17.860413
1373.000000	17.770817
1374.000000	17.666380
1375.000000	17.546230
1376.000000	17.414030
1377.000000	17.269387
1378.000000	17.109130
1379.000000	16.936857
1380.000000	16.760847
1381.000000	16.584733
1382.000000	16.419120
1383.000000	16.268497
1384.000000	16.130340
1385.000000	16.002013
1386.000000	15.886133
1387.000000	15.787523
1388.000000	15.708613
1389.000000	15.648083
1390.000000	15.591417
1391.000000	15.537747
1392.000000	15.483570
1393.000000	15.428297
1394.000000	15.374460
1395.000000	15.330277
1396.000000	15.295043
1397.000000	15.254830
1398.000000	15.199877
1399.000000	15.139933
1400.000000	15.092057
1401.000000	15.046183
1402.000000	14.988567
1403.000000	14.917620
1404.000000	14.840720
1405.000000	14.755177
1406.000000	14.657660
1407.000000	14.557657
1408.000000	14.462037
1409.000000	14.365870
1410.000000	14.256943
1411.000000	14.137283
1412.000000	14.017727
1413.000000	13.904907
1414.000000	13.798103
1415.000000	13.689943
1416.000000	13.577533
1417.000000	13.465183
1418.000000	13.356387
1419.000000	13.250343
1420.000000	13.147387
1421.000000	13.049183
1422.000000	12.955303
1423.000000	12.866337
1424.000000	12.778513
1425.000000	12.691580
1426.000000	12.612147
1427.000000	12.537867
1428.000000	12.465020
1429.000000	12.393857
1430.000000	12.325723
1431.000000	12.262290
1432.000000	12.205317
1433.000000	12.151473
1434.000000	12.096970
1435.000000	12.047477
1436.000000	12.001380
1437.000000	11.958940
1438.000000	11.919377
1439.000000	11.881490
1440.000000	11.847147
1441.000000	11.814653
1442.000000	11.781897
1443.000000	11.749223
1444.000000	11.718630
1445.000000	11.688710
1446.000000	11.663820
1447.000000	11.637963
1448.000000	11.609990
1449.000000	11.584630
1450.000000	11.559917
1451.000000	11.537500
1452.000000	11.515820
1453.000000	11.493123
1454.000000	11.471517
1455.000000	11.449267
1456.000000	11.424320
1457.000000	11.399067
1458.000000	11.376530
1459.000000	11.351923
1460.000000	11.327047
1461.000000	11.299913
1462.000000	11.271997
1463.000000	11.244253
1464.000000	11.215657
1465.000000	11.188383
1466.000000	11.159977
1467.000000	11.132163
1468.000000	11.103697
1469.000000	11.075310
1470.000000	11.046820
1471.000000	11.019303
1472.000000	10.992093
1473.000000	10.965047
1474.000000	10.940067
1475.000000	10.914190
1476.000000	10.887370
1477.000000	10.861113
1478.000000	10.837663
1479.000000	10.814087
1480.000000	10.791357
1481.000000	10.769110
1482.000000	10.747807
1483.000000	10.727980
1484.000000	10.708597
1485.000000	10.690030
1486.000000	10.674630
1487.000000	10.659183
1488.000000	10.643427
1489.000000	10.629027
1490.000000	10.615057
1491.000000	10.600887
1492.000000	10.587820
1493.000000	10.576207
1494.000000	10.565800
1495.000000	10.557453
1496.000000	10.549697
1497.000000	10.544627
1498.000000	10.541030
1499.000000	10.539327
1500.000000	10.540240
1501.000000	10.544910
1502.000000	10.552253
1503.000000	10.561097
1504.000000	10.573290
1505.000000	10.586927
1506.000000	10.602757
1507.000000	10.621323
1508.000000	10.643653
1509.000000	10.668650
1510.000000	10.694930
1511.000000	10.722430
1512.000000	10.750503
1513.000000	10.780640
1514.000000	10.810397
1515.000000	10.841427
1516.000000	10.871950
1517.000000	10.902303
1518.000000	10.932163
1519.000000	10.961663
1520.000000	10.991647
1521.000000	11.021790
1522.000000	11.051983
1523.000000	11.081137
1524.000000	11.110070
1525.000000	11.139307
1526.000000	11.168817
1527.000000	11.197923
1528.000000	11.226767
1529.000000	11.256193
1530.000000	11.284357
1531.000000	11.311560
1532.000000	11.338183
1533.000000	11.364950
1534.000000	11.391917
1535.000000	11.418640
1536.000000	11.444887
1537.000000	11.470697
1538.000000	11.494233
1539.000000	11.516203
1540.000000	11.537763
1541.000000	11.558597
1542.000000	11.580130
1543.000000	11.601613
1544.000000	11.621590
1545.000000	11.640787
1546.000000	11.661720
1547.000000	11.684007
1548.000000	11.708167
1549.000000	11.733420
1550.000000	11.759907
1551.000000	11.787867
1552.000000	11.815787
1553.000000	11.843837
1554.000000	11.872920
1555.000000	11.902057
1556.000000	11.929800
1557.000000	11.955603
1558.000000	11.979310
1559.000000	12.000563
1560.000000	12.018527
1561.000000	12.033513
1562.000000	12.045480
1563.000000	12.054383
1564.000000	12.060680
1565.000000	12.064257
1566.000000	12.065290
1567.000000	12.064653
1568.000000	12.061867
1569.000000	12.057427
1570.000000	12.052103
1571.000000	12.045473
1572.000000	12.039587
1573.000000	12.034823
1574.000000	12.029843
1575.000000	12.024890
1576.000000	12.020350
1577.000000	12.017010
1578.000000	12.015173
1579.000000	12.014430
1580.000000	12.015587
1581.000000	12.018480
1582.000000	12.022193
1583.000000	12.026430
1584.000000	12.032963
1585.000000	12.041380
1586.000000	12.050910
1587.000000	12.062027
1588.000000	12.074633
1589.000000	12.087780
1590.000000	12.101240
1591.000000	12.115763
1592.000000	12.131170
1593.000000	12.146837
1594.000000	12.161233
1595.000000	12.176360
1596.000000	12.193273
1597.000000	12.210530
1598.000000	12.228313
1599.000000	12.247127
1600.000000	12.266953
1601.000000	12.288147
1602.000000	12.310520
1603.000000	12.334760
1604.000000	12.359963
1605.000000	12.384570
1606.000000	12.409210
1607.000000	12.434557
1608.000000	12.459100
1609.000000	12.483873
1610.000000	12.508453
1611.000000	12.531723
1612.000000	12.552830
1613.000000	12.572673
1614.000000	12.592620
1615.000000	12.612747
1616.000000	12.631020
1617.000000	12.647897
1618.000000	12.664310
1619.000000	12.679970
1620.000000	12.694943
1621.000000	12.710083
1622.000000	12.725847
1623.000000	12.741800
1624.000000	12.758330
1625.000000	12.774117
1626.000000	12.790170
1627.000000	12.806370
1628.000000	12.821723
1629.000000	12.838200
1630.000000	12.854530
1631.000000	12.869870
1632.000000	12.884570
1633.000000	12.898470
1634.000000	12.910867
1635.000000	12.923550
1636.000000	12.936087
1637.000000	12.947397
1638.000000	12.959143
1639.000000	12.968930
1640.000000	12.977063
1641.000000	12.986203
1642.000000	12.994140
1643.000000	13.000463
1644.000000	13.005640
1645.000000	13.009400
1646.000000	13.013303
1647.000000	13.015867
1648.000000	13.017557
1649.000000	13.018790
1650.000000	13.019753
1651.000000	13.017387
1652.000000	13.013363
1653.000000	13.006853
1654.000000	12.998117
1655.000000	12.987550
1656.000000	12.972490
1657.000000	12.955227
1658.000000	12.934503
1659.000000	12.909533
1660.000000	12.880760
1661.000000	12.848143
1662.000000	12.812050
1663.000000	12.773123
1664.000000	12.730223
1665.000000	12.683453
1666.000000	12.633750
1667.000000	12.580463
1668.000000	12.518680
1669.000000	12.452663
1670.000000	12.384997
1671.000000	12.316717
1672.000000	12.247197
1673.000000	12.175837
1674.000000	12.105713
1675.000000	12.035250
1676.000000	11.966680
1677.000000	11.897693
1678.000000	11.832967
1679.000000	11.769403
1680.000000	11.703213
1681.000000	11.634773
1682.000000	11.566513
1683.000000	11.496287
1684.000000	11.423227
1685.000000	11.350450
1686.000000	11.276900
1687.000000	11.207147
1688.000000	11.145293
1689.000000	11.092153
1690.000000	11.051690
1691.000000	11.023720
1692.000000	11.006213
1693.000000	11.002400
1694.000000	11.011503
1695.000000	11.027490
1696.000000	11.052043
1697.000000	11.080083
1698.000000	11.108737
1699.000000	11.134967
1700.000000	11.157267
1701.000000	11.175367
1702.000000	11.187860
1703.000000	11.194603
1704.000000	11.194390
1705.000000	11.190597
1706.000000	11.180673
1707.000000	11.167040
1708.000000	11.147857
1709.000000	11.122593
1710.000000	11.093283
1711.000000	11.058413
1712.000000	11.017990
1713.000000	10.971433
1714.000000	10.918483
1715.000000	10.858577
1716.000000	10.792600
1717.000000	10.719780
1718.000000	10.643350
1719.000000	10.565703
1720.000000	10.484937
1721.000000	10.402877
1722.000000	10.324240
1723.000000	10.250023
1724.000000	10.184700
1725.000000	10.131157
1726.000000	10.087153
1727.000000	10.055127
1728.000000	10.033900
1729.000000	10.023613
1730.000000	10.023083
1731.000000	10.032990
1732.000000	10.048450
1733.000000	10.069417
1734.000000	10.093473
1735.000000	10.117203
1736.000000	10.143467
1737.000000	10.170657
1738.000000	10.199407
1739.000000	10.230193
1740.000000	10.262030
1741.000000	10.293140
1742.000000	10.326550
1743.000000	10.361487
1744.000000	10.396480
1745.000000	10.432850
1746.000000	10.468980
1747.000000	10.504960
1748.000000	10.538730
1749.000000	10.570333
1750.000000	10.599387
1751.000000	10.626417
1752.000000	10.650007
1753.000000	10.670657
1754.000000	10.686923
1755.000000	10.699437
1756.000000	10.709817
1757.000000	10.717950
1758.000000	10.724720
1759.000000	10.729217
1760.000000	10.730923
1761.000000	10.733080
1762.000000	10.735247
1763.000000	10.735873
1764.000000	10.738233
1765.000000	10.741293
1766.000000	10.745957
1767.000000	10.751893
1768.000000	10.757700
1769.000000	10.765560
1770.000000	10.777027
1771.000000	10.789493
1772.000000	10.803813
1773.000000	10.820480
1774.000000	10.837023
1775.000000	10.855817
1776.000000	10.874203
1777.000000	10.891997
1778.000000	10.911227
1779.000000	10.930297
1780.000000	10.949350
1781.000000	10.967420
1782.000000	10.983240
1783.000000	10.996590
1784.000000	11.009237
1785.000000	11.019580
1786.000000	11.029293
1787.000000	11.036980
1788.000000	11.042497
1789.000000	11.045177
1790.000000	11.045430
1791.000000	11.044697
1792.000000	11.043860
1793.000000	11.044377
1794.000000	11.045470
1795.000000	11.047463
1796.000000	11.048363
1797.000000	11.049690
1798.000000	11.051443
1799.000000	11.053167
1800.000000	11.056660
1801.000000	11.061400
1802.000000	11.067440
1803.000000	11.072383
1804.000000	11.075243
1805.000000	11.076740
1806.000000	11.079090
1807.000000	11.083350
1808.000000	11.086000
1809.000000	11.087387
1810.000000	11.087287
1811.000000	11.088437
1812.000000	11.089637
1813.000000	11.089817
1814.000000	11.090117
1815.000000	11.091997
1816.000000	11.091823
1817.000000	11.086527
1818.000000	11.078043
1819.000000	11.069817
1820.000000	11.067223
1821.000000	11.070070
1822.000000	11.073977
1823.000000	11.073640
1824.000000	11.065940
1825.000000	11.052037
1826.000000	11.038930
1827.000000	11.032057
1828.000000	11.031890
1829.000000	11.034820
1830.000000	11.035220
1831.000000	11.029657
1832.000000	11.018993
1833.000000	11.008290
1834.000000	11.000897
1835.000000	10.997133
1836.000000	10.997557
1837.000000	11.001247
1838.000000	11.005860
1839.000000	11.009720
1840.000000	11.014783
1841.000000	11.025670
1842.000000	11.044913
1843.000000	11.067353
1844.000000	11.084157
1845.000000	11.089587
1846.000000	11.087517
1847.000000	11.089057
1848.000000	11.101370
1849.000000	11.120733
1850.000000	11.131453
1851.000000	11.123330
1852.000000	11.103530
1853.000000	11.086590
1854.000000	11.082327
1855.000000	11.090353
1856.000000	11.099283
1857.000000	11.092740
1858.000000	11.069450
1859.000000	11.041783
1860.000000	11.021790
1861.000000	11.011117
1862.000000	11.002097
1863.000000	10.985387
1864.000000	10.955967
1865.000000	10.915527
1866.000000	10.868673
1867.000000	10.820857
1868.000000	10.769043
1869.000000	10.708840
1870.000000	10.647017
1871.000000	10.587850
1872.000000	10.531767
1873.000000	10.481053
1874.000000	10.436583
1875.000000	10.395953
1876.000000	10.358123
1877.000000	10.316327
1878.000000	10.270180
1879.000000	10.216847
1880.000000	10.147677
1881.000000	10.062010
1882.000000	9.963527
1883.000000	9.853770
1884.000000	9.735643
1885.000000	9.611203
1886.000000	9.477153
1887.000000	9.334317
1888.000000	9.182653
1889.000000	9.024217
1890.000000	8.863043
1891.000000	8.701643
1892.000000	8.536977
1893.000000	8.368487
1894.000000	8.194240
1895.000000	8.011953
1896.000000	7.823493
1897.000000	7.633957
1898.000000	7.446187
1899.000000	7.262763
1900.000000	7.082437
1901.000000	6.903213
1902.000000	6.724597
1903.000000	6.548437
1904.000000	6.378253
1905.000000	6.219763
1906.000000	6.074640
1907.000000	5.939853
1908.000000	5.812587
1909.000000	5.688407
1910.000000	5.566813
1911.000000	5.450487
1912.000000	5.343100
1913.000000	5.245753
1914.000000	5.157733
1915.000000	5.073473
1916.000000	4.992110
1917.000000	4.913997
1918.000000	4.839523
1919.000000	4.772533
1920.000000	4.714660
1921.000000	4.663850
1922.000000	4.619153
1923.000000	4.575817
1924.000000	4.532437
1925.000000	4.492173
1926.000000	4.454693
1927.000000	4.422463
1928.000000	4.397760
1929.000000	4.375397
1930.000000	4.356167
1931.000000	4.339073
1932.000000	4.322137
1933.000000	4.307910
1934.000000	4.296093
1935.000000	4.287560
1936.000000	4.281187
1937.000000	4.277893
1938.000000	4.275763
1939.000000	4.277933
1940.000000	4.281817
1941.000000	4.286580
1942.000000	4.291947
1943.000000	4.300087
1944.000000	4.310043
1945.000000	4.321750
1946.000000	4.336567
1947.000000	4.353453
1948.000000	4.370783
1949.000000	4.387480
1950.000000	4.403217
1951.000000	4.420370
1952.000000	4.439757
1953.000000	4.460483
1954.000000	4.481840
1955.000000	4.503050
1956.000000	4.525763
1957.000000	4.546187
1958.000000	4.568880
1959.000000	4.590623
1960.000000	4.612920
1961.000000	4.633867
1962.000000	4.656713
1963.000000	4.679380
1964.000000	4.704353
1965.000000	4.727073
1966.000000	4.748530
1967.000000	4.771450
1968.000000	4.792643
1969.000000	4.813933
1970.000000	4.834820
1971.000000	4.856590
1972.000000	4.878267
1973.000000	4.897997
1974.000000	4.915933
1975.000000	4.936573
1976.000000	4.956970
1977.000000	4.978430
1978.000000	4.999893
1979.000000	5.022323
1980.000000	5.045897
1981.000000	5.069613
1982.000000	5.092683
1983.000000	5.116723
1984.000000	5.141230
1985.000000	5.166603
1986.000000	5.191207
1987.000000	5.214040
1988.000000	5.237900
1989.000000	5.262810
1990.000000	5.286137
1991.000000	5.309483
1992.000000	5.333000
1993.000000	5.356277
1994.000000	5.379867
1995.000000	5.402253
1996.000000	5.424227
1997.000000	5.445923
1998.000000	5.465027
1999.000000	5.483840
2000.000000	5.501497
2001.000000	5.519073
2002.000000	5.534160
2003.000000	5.548783
2004.000000	5.561543
2005.000000	5.572943
2006.000000	5.582930
2007.000000	5.592230
2008.000000	5.600750
2009.000000	5.605897
2010.000000	5.610980
2011.000000	5.614003
2012.000000	5.613730
2013.000000	5.612817
2014.000000	5.611460
2015.000000	5.607217
2016.000000	5.600893
2017.000000	5.593350
2018.000000	5.584683
2019.000000	5.574427
2020.000000	5.561753
2021.000000	5.547133
2022.000000	5.533433
2023.000000	5.516110
2024.000000	5.494930
2025.000000	5.473597
2026.000000	5.452120
2027.000000	5.428307
2028.000000	5.403970
2029.000000	5.378460
2030.000000	5.351150
2031.000000	5.323413
2032.000000	5.294033
2033.000000	5.263387
2034.000000	5.231963
2035.000000	5.199307
2036.000000	5.165603
2037.000000	5.130613
2038.000000	5.092880
2039.000000	5.056117
2040.000000	5.019000
2041.000000	4.979010
2042.000000	4.938007
2043.000000	4.896667
2044.000000	4.856757
2045.000000	4.817107
2046.000000	4.777383
2047.000000	4.738293
2048.000000	4.700273
2049.000000	4.662110
2050.000000	4.627223
2051.000000	4.596373
2052.000000	4.571093
2053.000000	4.548980
2054.000000	4.529767
2055.000000	4.515797
2056.000000	4.506483
2057.000000	4.502937
2058.000000	4.505107
2059.000000	4.512827
2060.000000	4.523913
2061.000000	4.538813
2062.000000	4.556403
2063.000000	4.578407
2064.000000	4.603890
2065.000000	4.630097
2066.000000	4.659193
2067.000000	4.690290
2068.000000	4.721860
2069.000000	4.753080
2070.000000	4.784860
2071.000000	4.816497
2072.000000	4.847010
2073.000000	4.877400
2074.000000	4.906537
2075.000000	4.934720
2076.000000	4.960217
2077.000000	4.982480
2078.000000	5.003600
2079.000000	5.023630
2080.000000	5.041107
2081.000000	5.056170
2082.000000	5.069147
2083.000000	5.078800
2084.000000	5.086163
2085.000000	5.091623
2086.000000	5.095473
2087.000000	5.097110
2088.000000	5.096133
2089.000000	5.093900
2090.000000	5.090483
2091.000000	5.085563
2092.000000	5.080193
2093.000000	5.073767
2094.000000	5.065227
2095.000000	5.056267
2096.000000	5.047583
2097.000000	5.040363
2098.000000	5.033637
2099.000000	5.025853
2100.000000	5.018150
2101.000000	5.010323
2102.000000	5.001657
2103.000000	4.994003
2104.000000	4.987797
2105.000000	4.981747
2106.000000	4.974713
2107.000000	4.966380
2108.000000	4.958040
2109.000000	4.949717
2110.000000	4.941763
2111.000000	4.934470
2112.000000	4.926407
2113.000000	4.917093
2114.000000	4.907390
2115.000000	4.897423
2116.000000	4.887103
2117.000000	4.875787
2118.000000	4.863723
2119.000000	4.851157
2120.000000	4.836977
2121.000000	4.822137
2122.000000	4.806153
2123.000000	4.789043
2124.000000	4.771420
2125.000000	4.750960
2126.000000	4.729767
2127.000000	4.709620
2128.000000	4.687600
2129.000000	4.665250
2130.000000	4.642350
2131.000000	4.617907
2132.000000	4.593987
2133.000000	4.569570
2134.000000	4.543557
2135.000000	4.518577
2136.000000	4.493470
2137.000000	4.466443
2138.000000	4.439247
2139.000000	4.410400
2140.000000	4.380883
2141.000000	4.351300
2142.000000	4.321040
2143.000000	4.290583
2144.000000	4.260040
2145.000000	4.228433
2146.000000	4.195660
2147.000000	4.162870
2148.000000	4.130980
2149.000000	4.099530
2150.000000	4.068460
2151.000000	4.037273
2152.000000	4.005943
2153.000000	3.975070
2154.000000	3.945283
2155.000000	3.916390
2156.000000	3.889343
2157.000000	3.862640
2158.000000	3.836003
2159.000000	3.811587
2160.000000	3.788983
2161.000000	3.767867
2162.000000	3.749257
2163.000000	3.731907
2164.000000	3.715983
2165.000000	3.701523
2166.000000	3.687250
2167.000000	3.674390
2168.000000	3.663170
2169.000000	3.650877
2170.000000	3.638880
2171.000000	3.629470
2172.000000	3.619177
2173.000000	3.609717
2174.000000	3.600760
2175.000000	3.592723
2176.000000	3.585913
2177.000000	3.579157
2178.000000	3.573227
2179.000000	3.567610
2180.000000	3.562317
2181.000000	3.556837
2182.000000	3.550930
2183.000000	3.544580
2184.000000	3.538107
2185.000000	3.529610
2186.000000	3.518410
2187.000000	3.506540
2188.000000	3.493960
2189.000000	3.479320
2190.000000	3.461823
2191.000000	3.441810
2192.000000	3.420480
2193.000000	3.395793
2194.000000	3.368157
2195.000000	3.338873
2196.000000	3.308743
2197.000000	3.275460
2198.000000	3.239030
2199.000000	3.202203
2200.000000	3.165210
2201.000000	3.126567
2202.000000	3.087010
2203.000000	3.050737
2204.000000	3.015090
2205.000000	2.980993
2206.000000	2.950350
2207.000000	2.923927
2208.000000	2.899960
2209.000000	2.880153
2210.000000	2.864893
2211.000000	2.853717
2212.000000	2.848843
2213.000000	2.848140
2214.000000	2.852387
2215.000000	2.861010
2216.000000	2.872570
2217.000000	2.888683
2218.000000	2.908260
2219.000000	2.931483
2220.000000	2.956223
2221.000000	2.982320
2222.000000	3.009597
2223.000000	3.037147
2224.000000	3.064113
2225.000000	3.091897
2226.000000	3.119057
2227.000000	3.144007
2228.000000	3.168570
2229.000000	3.190230
2230.000000	3.211287
2231.000000	3.231530
2232.000000	3.249607
2233.000000	3.263740
2234.000000	3.277683
2235.000000	3.287483
2236.000000	3.295300
2237.000000	3.301023
2238.000000	3.303457
2239.000000	3.304063
2240.000000	3.302757
2241.000000	3.297760
2242.000000	3.289343
2243.000000	3.280850
2244.000000	3.269270
2245.000000	3.258270
2246.000000	3.243017
2247.000000	3.225523
2248.000000	3.209073
2249.000000	3.190923
2250.000000	3.169533
2251.000000	3.148180
2252.000000	3.127060
2253.000000	3.105093
2254.000000	3.082150
2255.000000	3.058580
2256.000000	3.035603
2257.000000	3.015347
2258.000000	2.993353
2259.000000	2.972093
2260.000000	2.953337
2261.000000	2.936770
2262.000000	2.922087
2263.000000	2.907950
2264.000000	2.896613
2265.000000	2.886043
2266.000000	2.879157
2267.000000	2.873443
2268.000000	2.870083
2269.000000	2.869120
2270.000000	2.869693
2271.000000	2.870430
2272.000000	2.871573
2273.000000	2.874120
2274.000000	2.878213
2275.000000	2.882063
2276.000000	2.887863
2277.000000	2.891890
2278.000000	2.895893
2279.000000	2.900523
2280.000000	2.905193
2281.000000	2.909343
2282.000000	2.912960
2283.000000	2.916447
2284.000000	2.918117
2285.000000	2.920727
2286.000000	2.921993
2287.000000	2.923733
2288.000000	2.925627
2289.000000	2.925820
2290.000000	2.924757
2291.000000	2.924507
2292.000000	2.924900
2293.000000	2.924760
2294.000000	2.925107
2295.000000	2.925853
2296.000000	2.925190
2297.000000	2.924987
2298.000000	2.923463
2299.000000	2.923160
2300.000000	2.924487
2301.000000	2.926100
2302.000000	2.928047
2303.000000	2.930930
2304.000000	2.934653
2305.000000	2.938713
2306.000000	2.943720
2307.000000	2.949113
2308.000000	2.955783
2309.000000	2.962577
2310.000000	2.969727
2311.000000	2.977890
2312.000000	2.984557
2313.000000	2.991210
2314.000000	2.997590
2315.000000	3.003303
2316.000000	3.007573
2317.000000	3.011467
2318.000000	3.016043
2319.000000	3.019623
2320.000000	3.020110
2321.000000	3.019407
2322.000000	3.018750
2323.000000	3.016687
2324.000000	3.012353
2325.000000	3.007610
2326.000000	3.003610
2327.000000	2.998357
2328.000000	2.992067
2329.000000	2.984900
2330.000000	2.978307
2331.000000	2.971067
2332.000000	2.964573
2333.000000	2.958800
2334.000000	2.953513
2335.000000	2.949140
2336.000000	2.945777
2337.000000	2.942837
2338.000000	2.940723
2339.000000	2.939753
2340.000000	2.939793
2341.000000	2.941133
2342.000000	2.942780
2343.000000	2.944860
2344.000000	2.948390
2345.000000	2.951700
2346.000000	2.954883
2347.000000	2.958843
2348.000000	2.962617
2349.000000	2.966980
2350.000000	2.971813
2351.000000	2.976323
2352.000000	2.981027
2353.000000	2.985210
2354.000000	2.988890
2355.000000	2.992747
2356.000000	2.996320
2357.000000	2.999943
2358.000000	3.002217
2359.000000	3.003527
2360.000000	3.005733
2361.000000	3.007010
2362.000000	3.006527
2363.000000	3.006477
2364.000000	3.006657
2365.000000	3.006013
2366.000000	3.004800
2367.000000	3.004153
2368.000000	3.004373
2369.000000	3.004327
2370.000000	3.002940
2371.000000	3.002693
2372.000000	3.004060
2373.000000	3.004980
2374.000000	3.006117
2375.000000	3.007717
2376.000000	3.009737
2377.000000	3.010333
2378.000000	3.010940
2379.000000	3.013463
2380.000000	3.016423
2381.000000	3.018367
2382.000000	3.019800
2383.000000	3.021693
2384.000000	3.022483
2385.000000	3.022757
2386.000000	3.022343
2387.000000	3.022007
2388.000000	3.020933
2389.000000	3.017620
2390.000000	3.013517
2391.000000	3.009300
2392.000000	3.004920
2393.000000	2.999767
2394.000000	2.995130
2395.000000	2.990867
2396.000000	2.985573
2397.000000	2.979740
2398.000000	2.974147
2399.000000	2.969403
2400.000000	2.963610
2401.000000	2.957437
2402.000000	2.950700
2403.000000	2.943960
2404.000000	2.936777
2405.000000	2.928637
2406.000000	2.920777
2407.000000	2.911640
2408.000000	2.901510
2409.000000	2.890827
2410.000000	2.880023
2411.000000	2.869853
2412.000000	2.859687
2413.000000	2.848290
2414.000000	2.835670
2415.000000	2.822707
2416.000000	2.808837
2417.000000	2.795587
2418.000000	2.782010
2419.000000	2.766987
2420.000000	2.751873
2421.000000	2.735433
2422.000000	2.718723
2423.000000	2.700647
2424.000000	2.680740
2425.000000	2.660903
2426.000000	2.641793
2427.000000	2.622617
2428.000000	2.602987
2429.000000	2.583913
2430.000000	2.564157
2431.000000	2.544067
2432.000000	2.522183
2433.000000	2.500953
2434.000000	2.481350
2435.000000	2.461670
2436.000000	2.441163
2437.000000	2.420950
2438.000000	2.401117
2439.000000	2.380500
2440.000000	2.359917
2441.000000	2.339923
2442.000000	2.320933
2443.000000	2.303493
2444.000000	2.284790
2445.000000	2.265010
2446.000000	2.245380
2447.000000	2.226193
2448.000000	2.208023
2449.000000	2.191297
2450.000000	2.174217
2451.000000	2.156773
2452.000000	2.139837
2453.000000	2.122127
2454.000000	2.104940
2455.000000	2.089807
2456.000000	2.075587
2457.000000	2.061523
2458.000000	2.044560
2459.000000	2.029043
2460.000000	2.014803
2461.000000	2.000637
2462.000000	1.987340
2463.000000	1.973427
2464.000000	1.962140
2465.000000	1.950773
2466.000000	1.939850
2467.000000	1.928077
2468.000000	1.921300
2469.000000	1.912197
2470.000000	1.903137
2471.000000	1.894140
2472.000000	1.887800
2473.000000	1.881293
2474.000000	1.876197
2475.000000	1.871600
2476.000000	1.864307
2477.000000	1.859763
2478.000000	1.855430
2479.000000	1.855010
2480.000000	1.854073
2481.000000	1.855423
2482.000000	1.851093
2483.000000	1.854853
2484.000000	1.854257
2485.000000	1.853800
2486.000000	1.855480
2487.000000	1.857147
2488.000000	1.860473
2489.000000	1.859143
2490.000000	1.861837
2491.000000	1.864363
2492.000000	1.870153
2493.000000	1.871873
2494.000000	1.883253
2495.000000	1.891390
2496.000000	1.898517
2497.000000	1.904797
2498.000000	1.914220
2499.000000	1.926810
2500.000000	1.940040
