PE UV       SUBTECH     SPECTRUM    ASCII       PEDS        4.00        
   -1
BIOUCR0002-3.Sample.ASC
24/02/19
11:37:44.00
24/02/19
11:37:44.00
Vinicio Soto Monge
P. cupreomarginata (sin datos) Monteverde(dudoso) Filtro Der: Menos cafe
250,000000
1
Lambda 1050
1050L1511233
PerkinElmer UV WinLab 6.3.2.0749 / 2.02.05 Lambda 900 UV/VIS/NIR, Aug  7 2015 09:38:08

0
0
3350/servo 860,8/2
0
0
UV/VIS
1
1
1
DoubleDePol,CommonBeamDepol,RBeamAtt,SBeamAtt,60mm sphere, WB InGaAs Detector
0
0
0
0
Program
Program
3350/servo 860,8/2
3350/0,2 860,8/0,2
3350/0,2 860,8/0,2
0
15.00
 
 
 
0
 
860,8
319,2
860,8
Front
100
on
S:100 R:100
0
0
0
0
 
0
 
 
 
0
 
 
0
0
0
0
0
 
 
 
 
0
0


0
0
#HDR
-1
-1
#GR
nm
%R
1.0
0.0
2500,000000
-1,000000
2251
8
21,126100
1,559200
#DATA

250.000000	nan
251.000000	nan
252.000000	nan
253.000000	nan
254.000000	nan
255.000000	nan
256.000000	nan
257.000000	nan
258.000000	nan
259.000000	2.037435
260.000000	2.034133
261.000000	2.031212
262.000000	2.027082
263.000000	2.023781
264.000000	2.018507
265.000000	2.014008
266.000000	2.009004
267.000000	2.002742
268.000000	1.998031
269.000000	1.993841
270.000000	1.988353
271.000000	1.982480
272.000000	1.977605
273.000000	1.973565
274.000000	1.970281
275.000000	1.967302
276.000000	1.964432
277.000000	1.962359
278.000000	1.960633
279.000000	1.958684
280.000000	1.957559
281.000000	1.956626
282.000000	1.954541
283.000000	1.951783
284.000000	1.948348
285.000000	1.945287
286.000000	1.941796
287.000000	1.939372
288.000000	1.935958
289.000000	1.932516
290.000000	1.928670
291.000000	1.925861
292.000000	1.925080
293.000000	1.922415
294.000000	1.921377
295.000000	1.918318
296.000000	1.916549
297.000000	1.913992
298.000000	1.911574
299.000000	1.910606
300.000000	1.908620
301.000000	1.904238
302.000000	1.899705
303.000000	1.899090
304.000000	1.896859
305.000000	1.895160
306.000000	1.893313
307.000000	1.893201
308.000000	1.892340
309.000000	1.889498
310.000000	1.888621
311.000000	1.888806
312.000000	1.888086
313.000000	1.886858
314.000000	1.885949
315.000000	1.884641
316.000000	1.884258
317.000000	1.889968
318.000000	1.893814
319.000000	1.901453
320.000000	1.908196
321.000000	1.913096
322.000000	1.917956
323.000000	1.917031
324.000000	1.917325
325.000000	1.921041
326.000000	1.924003
327.000000	1.915949
328.000000	1.909147
329.000000	1.902268
330.000000	1.899270
331.000000	1.893390
332.000000	1.888297
333.000000	1.888866
334.000000	1.886632
335.000000	1.880540
336.000000	1.875680
337.000000	1.874643
338.000000	1.873045
339.000000	1.873251
340.000000	1.870663
341.000000	1.870704
342.000000	1.868366
343.000000	1.869303
344.000000	1.871095
345.000000	1.873272
346.000000	1.874268
347.000000	1.875368
348.000000	1.877453
349.000000	1.875468
350.000000	1.873696
351.000000	1.875850
352.000000	1.877993
353.000000	1.878104
354.000000	1.880363
355.000000	1.879861
356.000000	1.879562
357.000000	1.879602
358.000000	1.882352
359.000000	1.886962
360.000000	1.890848
361.000000	1.891813
362.000000	1.895431
363.000000	1.896133
364.000000	1.896866
365.000000	1.903244
366.000000	1.911088
367.000000	1.918195
368.000000	1.921428
369.000000	1.921495
370.000000	1.919416
371.000000	1.919508
372.000000	1.920899
373.000000	1.923669
374.000000	1.924594
375.000000	1.925877
376.000000	1.919734
377.000000	1.899276
378.000000	1.881786
379.000000	1.866164
380.000000	1.852211
381.000000	1.837842
382.000000	1.822578
383.000000	1.808124
384.000000	1.795313
385.000000	1.780329
386.000000	1.772156
387.000000	1.780091
388.000000	1.787718
389.000000	1.795622
390.000000	1.804295
391.000000	1.814070
392.000000	1.824115
393.000000	1.834055
394.000000	1.844568
395.000000	1.856504
396.000000	1.868577
397.000000	1.880980
398.000000	1.894374
399.000000	1.908851
400.000000	1.924487
401.000000	1.941077
402.000000	1.959289
403.000000	1.979871
404.000000	2.002897
405.000000	2.027710
406.000000	2.055127
407.000000	2.085103
408.000000	2.118372
409.000000	2.155161
410.000000	2.195647
411.000000	2.239907
412.000000	2.288708
413.000000	2.341909
414.000000	2.399231
415.000000	2.461359
416.000000	2.528748
417.000000	2.602196
418.000000	2.680445
419.000000	2.763633
420.000000	2.852597
421.000000	2.946839
422.000000	3.045691
423.000000	3.149381
424.000000	3.257835
425.000000	3.371241
426.000000	3.489111
427.000000	3.610653
428.000000	3.735810
429.000000	3.863589
430.000000	3.993260
431.000000	4.125609
432.000000	4.259284
433.000000	4.393633
434.000000	4.528904
435.000000	4.664193
436.000000	4.798759
437.000000	4.930993
438.000000	5.061233
439.000000	5.190421
440.000000	5.317708
441.000000	5.442047
442.000000	5.563529
443.000000	5.682126
444.000000	5.797365
445.000000	5.909165
446.000000	6.017615
447.000000	6.123648
448.000000	6.227233
449.000000	6.326524
450.000000	6.422360
451.000000	6.514910
452.000000	6.604775
453.000000	6.692184
454.000000	6.776230
455.000000	6.857278
456.000000	6.935805
457.000000	7.011587
458.000000	7.084672
459.000000	7.156383
460.000000	7.226285
461.000000	7.294528
462.000000	7.361141
463.000000	7.425116
464.000000	7.487191
465.000000	7.546930
466.000000	7.603820
467.000000	7.657933
468.000000	7.708795
469.000000	7.755898
470.000000	7.798996
471.000000	7.837903
472.000000	7.871728
473.000000	7.900482
474.000000	7.923492
475.000000	7.940330
476.000000	7.951305
477.000000	7.956023
478.000000	7.954050
479.000000	7.945497
480.000000	7.929248
481.000000	7.903877
482.000000	7.871146
483.000000	7.833517
484.000000	7.793128
485.000000	7.751377
486.000000	7.708507
487.000000	7.665745
488.000000	7.624197
489.000000	7.585577
490.000000	7.551512
491.000000	7.524513
492.000000	7.505051
493.000000	7.493010
494.000000	7.488926
495.000000	7.494084
496.000000	7.510484
497.000000	7.539207
498.000000	7.582682
499.000000	7.641295
500.000000	7.715722
501.000000	7.807729
502.000000	7.918832
503.000000	8.049584
504.000000	8.198930
505.000000	8.366152
506.000000	8.550258
507.000000	8.751720
508.000000	8.967683
509.000000	9.196925
510.000000	9.439482
511.000000	9.692247
512.000000	9.952912
513.000000	10.218872
514.000000	10.488580
515.000000	10.760703
516.000000	11.034546
517.000000	11.307431
518.000000	11.579593
519.000000	11.851541
520.000000	12.122325
521.000000	12.393450
522.000000	12.664241
523.000000	12.934944
524.000000	13.207893
525.000000	13.482517
526.000000	13.758403
527.000000	14.036819
528.000000	14.317457
529.000000	14.599756
530.000000	14.884171
531.000000	15.170723
532.000000	15.459334
533.000000	15.750912
534.000000	16.043502
535.000000	16.337940
536.000000	16.633651
537.000000	16.930105
538.000000	17.227312
539.000000	17.523600
540.000000	17.817500
541.000000	18.107588
542.000000	18.393202
543.000000	18.672485
544.000000	18.945684
545.000000	19.210966
546.000000	19.467508
547.000000	19.714604
548.000000	19.951391
549.000000	20.178670
550.000000	20.395397
551.000000	20.601561
552.000000	20.797755
553.000000	20.982784
554.000000	21.157152
555.000000	21.320666
556.000000	21.474732
557.000000	21.618337
558.000000	21.753430
559.000000	21.879161
560.000000	21.943959
561.000000	21.993133
562.000000	22.033660
563.000000	22.067125
564.000000	22.093757
565.000000	22.115268
566.000000	22.132009
567.000000	22.145404
568.000000	22.153985
569.000000	22.158802
570.000000	22.212875
571.000000	22.271571
572.000000	22.326425
573.000000	22.380181
574.000000	22.433212
575.000000	22.482593
576.000000	22.529779
577.000000	22.573625
578.000000	22.613574
579.000000	22.650763
580.000000	22.685893
581.000000	22.716917
582.000000	22.746255
583.000000	22.771418
584.000000	22.792982
585.000000	22.810771
586.000000	22.825118
587.000000	22.834556
588.000000	22.841684
589.000000	22.845057
590.000000	22.842522
591.000000	22.837798
592.000000	22.827022
593.000000	22.811552
594.000000	22.789799
595.000000	22.765639
596.000000	22.735832
597.000000	22.701660
598.000000	22.662235
599.000000	22.616876
600.000000	22.565527
601.000000	22.506090
602.000000	22.441716
603.000000	22.368716
604.000000	22.286558
605.000000	22.194586
606.000000	22.094385
607.000000	21.987353
608.000000	21.868534
609.000000	21.742084
610.000000	21.606926
611.000000	21.464193
612.000000	21.311576
613.000000	21.152831
614.000000	20.987433
615.000000	20.813936
616.000000	20.631790
617.000000	20.437968
618.000000	20.237767
619.000000	20.025941
620.000000	19.804477
621.000000	19.570752
622.000000	19.329867
623.000000	19.080732
624.000000	18.824037
625.000000	18.563693
626.000000	18.300355
627.000000	18.037753
628.000000	17.775009
629.000000	17.515527
630.000000	17.260751
631.000000	17.011300
632.000000	16.765469
633.000000	16.523700
634.000000	16.286166
635.000000	16.048566
636.000000	15.812190
637.000000	15.577547
638.000000	15.346275
639.000000	15.119111
640.000000	14.898762
641.000000	14.687814
642.000000	14.489997
643.000000	14.308474
644.000000	14.146003
645.000000	14.007921
646.000000	13.895695
647.000000	13.809606
648.000000	13.751721
649.000000	13.722358
650.000000	13.721561
651.000000	13.747763
652.000000	13.796124
653.000000	13.866411
654.000000	13.957744
655.000000	14.066606
656.000000	14.189520
657.000000	14.328895
658.000000	14.480553
659.000000	14.641165
660.000000	14.810543
661.000000	14.989547
662.000000	15.178656
663.000000	15.376366
664.000000	15.578575
665.000000	15.785978
666.000000	15.998568
667.000000	16.212214
668.000000	16.425201
669.000000	16.639829
670.000000	16.850304
671.000000	17.055777
672.000000	17.252302
673.000000	17.438514
674.000000	17.613836
675.000000	17.777934
676.000000	17.930091
677.000000	18.068132
678.000000	18.194723
679.000000	18.308191
680.000000	18.411599
681.000000	18.504184
682.000000	18.588367
683.000000	18.664349
684.000000	18.735011
685.000000	18.800350
686.000000	18.860903
687.000000	18.919360
688.000000	18.973177
689.000000	19.025296
690.000000	19.073794
691.000000	19.118136
692.000000	19.159680
693.000000	19.199401
694.000000	19.237093
695.000000	19.271449
696.000000	19.302822
697.000000	19.331658
698.000000	19.358594
699.000000	19.381896
700.000000	19.402730
701.000000	19.423909
702.000000	19.447376
703.000000	19.469349
704.000000	19.489814
705.000000	19.510418
706.000000	19.533451
707.000000	19.557120
708.000000	19.583523
709.000000	19.613132
710.000000	19.645784
711.000000	19.679140
712.000000	19.712311
713.000000	19.749004
714.000000	19.791833
715.000000	19.838366
716.000000	19.885187
717.000000	19.934874
718.000000	19.987299
719.000000	20.041463
720.000000	20.096711
721.000000	20.157366
722.000000	20.220179
723.000000	20.283768
724.000000	20.345552
725.000000	20.408452
726.000000	20.475106
727.000000	20.545302
728.000000	20.619377
729.000000	20.693491
730.000000	20.770689
731.000000	20.849238
732.000000	20.931359
733.000000	21.016666
734.000000	21.105762
735.000000	21.197419
736.000000	21.287886
737.000000	21.375968
738.000000	21.462023
739.000000	21.549767
740.000000	21.634996
741.000000	21.715407
742.000000	21.792200
743.000000	21.865711
744.000000	21.933040
745.000000	21.995436
746.000000	22.056430
747.000000	22.111688
748.000000	22.161006
749.000000	22.207069
750.000000	22.249828
751.000000	22.287854
752.000000	22.319665
753.000000	22.346189
754.000000	22.369299
755.000000	22.386520
756.000000	22.396712
757.000000	22.404959
758.000000	22.407483
759.000000	22.400116
760.000000	22.389439
761.000000	22.379238
762.000000	22.366589
763.000000	22.351013
764.000000	22.334963
765.000000	22.320461
766.000000	22.306507
767.000000	22.293982
768.000000	22.286324
769.000000	22.284463
770.000000	22.287923
771.000000	22.291924
772.000000	22.300432
773.000000	22.311198
774.000000	22.323530
775.000000	22.336973
776.000000	22.353668
777.000000	22.374040
778.000000	22.393086
779.000000	22.410405
780.000000	22.424261
781.000000	22.432984
782.000000	22.439809
783.000000	22.446601
784.000000	22.450285
785.000000	22.445482
786.000000	22.434789
787.000000	22.417973
788.000000	22.397131
789.000000	22.373872
790.000000	22.344044
791.000000	22.311668
792.000000	22.273402
793.000000	22.228633
794.000000	22.181729
795.000000	22.133467
796.000000	22.079367
797.000000	22.018884
798.000000	21.953490
799.000000	21.885595
800.000000	21.816940
801.000000	21.751339
802.000000	21.684399
803.000000	21.620161
804.000000	21.557169
805.000000	21.497338
806.000000	21.446326
807.000000	21.402379
808.000000	21.373396
809.000000	21.354741
810.000000	21.339628
811.000000	21.328086
812.000000	21.324142
813.000000	21.325075
814.000000	21.327305
815.000000	21.332494
816.000000	21.342213
817.000000	21.352982
818.000000	21.356877
819.000000	21.352243
820.000000	21.348431
821.000000	21.343026
822.000000	21.328209
823.000000	21.313064
824.000000	21.296482
825.000000	21.274909
826.000000	21.243448
827.000000	21.206074
828.000000	21.158796
829.000000	21.107581
830.000000	21.054228
831.000000	20.990626
832.000000	20.923378
833.000000	20.842950
834.000000	20.753296
835.000000	20.665287
836.000000	20.569585
837.000000	20.466064
838.000000	20.362308
839.000000	20.259828
840.000000	20.147047
841.000000	20.036703
842.000000	19.922728
843.000000	19.815144
844.000000	19.710264
845.000000	19.602708
846.000000	19.509108
847.000000	19.412419
848.000000	19.321942
849.000000	19.223113
850.000000	19.141412
851.000000	19.062009
852.000000	18.994582
853.000000	18.936308
854.000000	18.879751
855.000000	18.821757
856.000000	18.767614
857.000000	18.744235
858.000000	18.797674
859.000000	18.834490
860.000000	18.869108
861.000000	18.916855
862.000000	18.976152
863.000000	19.039860
864.000000	19.116010
865.000000	19.208141
866.000000	19.298775
867.000000	19.378847
868.000000	19.389090
869.000000	19.433223
870.000000	19.477617
871.000000	19.517827
872.000000	19.550523
873.000000	19.578410
874.000000	19.602297
875.000000	19.619333
876.000000	19.634920
877.000000	19.646117
878.000000	19.657280
879.000000	19.664500
880.000000	19.670903
881.000000	19.675543
882.000000	19.679853
883.000000	19.680053
884.000000	19.677343
885.000000	19.676507
886.000000	19.672563
887.000000	19.668463
888.000000	19.657957
889.000000	19.649363
890.000000	19.637217
891.000000	19.623103
892.000000	19.605633
893.000000	19.588123
894.000000	19.568983
895.000000	19.547933
896.000000	19.527283
897.000000	19.504197
898.000000	19.484217
899.000000	19.463807
900.000000	19.447150
901.000000	19.429837
902.000000	19.416527
903.000000	19.403323
904.000000	19.392963
905.000000	19.382627
906.000000	19.373667
907.000000	19.367147
908.000000	19.361427
909.000000	19.357153
910.000000	19.352457
911.000000	19.351280
912.000000	19.346863
913.000000	19.344837
914.000000	19.343507
915.000000	19.343820
916.000000	19.343243
917.000000	19.342553
918.000000	19.339283
919.000000	19.335603
920.000000	19.332760
921.000000	19.327993
922.000000	19.325157
923.000000	19.318970
924.000000	19.314083
925.000000	19.306453
926.000000	19.298393
927.000000	19.287863
928.000000	19.278637
929.000000	19.267050
930.000000	19.252943
931.000000	19.237393
932.000000	19.221427
933.000000	19.205713
934.000000	19.186563
935.000000	19.169317
936.000000	19.150457
937.000000	19.132673
938.000000	19.113070
939.000000	19.091557
940.000000	19.070093
941.000000	19.047287
942.000000	19.022667
943.000000	18.997243
944.000000	18.970930
945.000000	18.943380
946.000000	18.914710
947.000000	18.885990
948.000000	18.858267
949.000000	18.832277
950.000000	18.803480
951.000000	18.774930
952.000000	18.746483
953.000000	18.716690
954.000000	18.687450
955.000000	18.657223
956.000000	18.626917
957.000000	18.596120
958.000000	18.565563
959.000000	18.532447
960.000000	18.500347
961.000000	18.468567
962.000000	18.436427
963.000000	18.406527
964.000000	18.376557
965.000000	18.345897
966.000000	18.316580
967.000000	18.285907
968.000000	18.256167
969.000000	18.228027
970.000000	18.200650
971.000000	18.172740
972.000000	18.147647
973.000000	18.121497
974.000000	18.096750
975.000000	18.074483
976.000000	18.052983
977.000000	18.034727
978.000000	18.016930
979.000000	18.000690
980.000000	17.987320
981.000000	17.976353
982.000000	17.965063
983.000000	17.957063
984.000000	17.950463
985.000000	17.943360
986.000000	17.938943
987.000000	17.935490
988.000000	17.931870
989.000000	17.929900
990.000000	17.927897
991.000000	17.927607
992.000000	17.928813
993.000000	17.929287
994.000000	17.930110
995.000000	17.931950
996.000000	17.933107
997.000000	17.934407
998.000000	17.936143
999.000000	17.936543
1000.000000	17.937090
1001.000000	17.936283
1002.000000	17.933960
1003.000000	17.932130
1004.000000	17.930023
1005.000000	17.926553
1006.000000	17.922393
1007.000000	17.917170
1008.000000	17.911647
1009.000000	17.906980
1010.000000	17.902310
1011.000000	17.897053
1012.000000	17.892203
1013.000000	17.887143
1014.000000	17.881527
1015.000000	17.875970
1016.000000	17.869967
1017.000000	17.864897
1018.000000	17.860750
1019.000000	17.855767
1020.000000	17.849567
1021.000000	17.843913
1022.000000	17.839343
1023.000000	17.835070
1024.000000	17.831517
1025.000000	17.828777
1026.000000	17.826343
1027.000000	17.825163
1028.000000	17.825167
1029.000000	17.826053
1030.000000	17.828940
1031.000000	17.833617
1032.000000	17.838433
1033.000000	17.843913
1034.000000	17.851020
1035.000000	17.859657
1036.000000	17.869470
1037.000000	17.880200
1038.000000	17.891877
1039.000000	17.904980
1040.000000	17.919423
1041.000000	17.934157
1042.000000	17.949597
1043.000000	17.965543
1044.000000	17.981187
1045.000000	17.998577
1046.000000	18.017537
1047.000000	18.035387
1048.000000	18.053217
1049.000000	18.071397
1050.000000	18.088687
1051.000000	18.106230
1052.000000	18.124980
1053.000000	18.144727
1054.000000	18.165550
1055.000000	18.185283
1056.000000	18.204240
1057.000000	18.224080
1058.000000	18.244030
1059.000000	18.263523
1060.000000	18.283010
1061.000000	18.303230
1062.000000	18.323357
1063.000000	18.343550
1064.000000	18.361770
1065.000000	18.378500
1066.000000	18.395773
1067.000000	18.413273
1068.000000	18.429787
1069.000000	18.446143
1070.000000	18.463470
1071.000000	18.480170
1072.000000	18.495667
1073.000000	18.510590
1074.000000	18.527113
1075.000000	18.544417
1076.000000	18.561763
1077.000000	18.578497
1078.000000	18.594623
1079.000000	18.609637
1080.000000	18.623450
1081.000000	18.637287
1082.000000	18.650620
1083.000000	18.662473
1084.000000	18.672697
1085.000000	18.684017
1086.000000	18.694557
1087.000000	18.704723
1088.000000	18.713997
1089.000000	18.723357
1090.000000	18.733347
1091.000000	18.743183
1092.000000	18.753520
1093.000000	18.764353
1094.000000	18.775550
1095.000000	18.785223
1096.000000	18.794783
1097.000000	18.804457
1098.000000	18.815217
1099.000000	18.827207
1100.000000	18.839580
1101.000000	18.851283
1102.000000	18.862010
1103.000000	18.872620
1104.000000	18.884823
1105.000000	18.896263
1106.000000	18.907513
1107.000000	18.918200
1108.000000	18.930260
1109.000000	18.942643
1110.000000	18.953163
1111.000000	18.963283
1112.000000	18.974860
1113.000000	18.985357
1114.000000	18.993263
1115.000000	19.002727
1116.000000	19.012000
1117.000000	19.022270
1118.000000	19.031687
1119.000000	19.039543
1120.000000	19.046890
1121.000000	19.055573
1122.000000	19.063563
1123.000000	19.072237
1124.000000	19.080067
1125.000000	19.088017
1126.000000	19.095217
1127.000000	19.099733
1128.000000	19.102277
1129.000000	19.106123
1130.000000	19.109697
1131.000000	19.108053
1132.000000	19.101257
1133.000000	19.093130
1134.000000	19.087597
1135.000000	19.083590
1136.000000	19.079083
1137.000000	19.071663
1138.000000	19.063227
1139.000000	19.051663
1140.000000	19.039197
1141.000000	19.030100
1142.000000	19.023327
1143.000000	19.018060
1144.000000	19.009953
1145.000000	19.000123
1146.000000	18.990447
1147.000000	18.984743
1148.000000	18.979600
1149.000000	18.974683
1150.000000	18.971680
1151.000000	18.967380
1152.000000	18.964607
1153.000000	18.960710
1154.000000	18.956550
1155.000000	18.949567
1156.000000	18.940673
1157.000000	18.928320
1158.000000	18.915993
1159.000000	18.902740
1160.000000	18.884257
1161.000000	18.865060
1162.000000	18.843147
1163.000000	18.818407
1164.000000	18.792567
1165.000000	18.764210
1166.000000	18.734500
1167.000000	18.706387
1168.000000	18.675797
1169.000000	18.645533
1170.000000	18.617493
1171.000000	18.589107
1172.000000	18.562463
1173.000000	18.537500
1174.000000	18.513897
1175.000000	18.493667
1176.000000	18.476953
1177.000000	18.460133
1178.000000	18.446000
1179.000000	18.432063
1180.000000	18.420440
1181.000000	18.410950
1182.000000	18.403150
1183.000000	18.396583
1184.000000	18.390210
1185.000000	18.384840
1186.000000	18.379573
1187.000000	18.376360
1188.000000	18.371810
1189.000000	18.370820
1190.000000	18.371753
1191.000000	18.373810
1192.000000	18.378017
1193.000000	18.384363
1194.000000	18.393297
1195.000000	18.403853
1196.000000	18.416873
1197.000000	18.430967
1198.000000	18.449630
1199.000000	18.467687
1200.000000	18.485957
1201.000000	18.504943
1202.000000	18.523307
1203.000000	18.540907
1204.000000	18.558427
1205.000000	18.577093
1206.000000	18.593960
1207.000000	18.612773
1208.000000	18.630307
1209.000000	18.647987
1210.000000	18.666043
1211.000000	18.684957
1212.000000	18.704007
1213.000000	18.723307
1214.000000	18.741927
1215.000000	18.758780
1216.000000	18.777520
1217.000000	18.794427
1218.000000	18.811670
1219.000000	18.829157
1220.000000	18.845807
1221.000000	18.861403
1222.000000	18.875223
1223.000000	18.890117
1224.000000	18.904917
1225.000000	18.919707
1226.000000	18.932580
1227.000000	18.944557
1228.000000	18.954810
1229.000000	18.965687
1230.000000	18.976507
1231.000000	18.985883
1232.000000	18.995727
1233.000000	19.003510
1234.000000	19.011327
1235.000000	19.017620
1236.000000	19.024187
1237.000000	19.030680
1238.000000	19.038440
1239.000000	19.044720
1240.000000	19.050290
1241.000000	19.057410
1242.000000	19.064793
1243.000000	19.073120
1244.000000	19.080987
1245.000000	19.090593
1246.000000	19.101137
1247.000000	19.113187
1248.000000	19.125937
1249.000000	19.139890
1250.000000	19.155873
1251.000000	19.172703
1252.000000	19.189937
1253.000000	19.207760
1254.000000	19.226410
1255.000000	19.244390
1256.000000	19.262163
1257.000000	19.279170
1258.000000	19.295240
1259.000000	19.310137
1260.000000	19.324970
1261.000000	19.338733
1262.000000	19.351027
1263.000000	19.362660
1264.000000	19.373117
1265.000000	19.383190
1266.000000	19.393100
1267.000000	19.401463
1268.000000	19.408857
1269.000000	19.416510
1270.000000	19.422123
1271.000000	19.426493
1272.000000	19.430900
1273.000000	19.434473
1274.000000	19.438847
1275.000000	19.443633
1276.000000	19.447190
1277.000000	19.451067
1278.000000	19.454917
1279.000000	19.458230
1280.000000	19.462160
1281.000000	19.466700
1282.000000	19.471887
1283.000000	19.478790
1284.000000	19.485943
1285.000000	19.491937
1286.000000	19.499173
1287.000000	19.508377
1288.000000	19.518843
1289.000000	19.529727
1290.000000	19.539723
1291.000000	19.549417
1292.000000	19.559640
1293.000000	19.569073
1294.000000	19.579003
1295.000000	19.589857
1296.000000	19.599647
1297.000000	19.607987
1298.000000	19.615297
1299.000000	19.621997
1300.000000	19.629790
1301.000000	19.638737
1302.000000	19.646180
1303.000000	19.652050
1304.000000	19.656560
1305.000000	19.660877
1306.000000	19.665137
1307.000000	19.668583
1308.000000	19.672020
1309.000000	19.674803
1310.000000	19.675730
1311.000000	19.674013
1312.000000	19.671283
1313.000000	19.668480
1314.000000	19.664783
1315.000000	19.658723
1316.000000	19.651227
1317.000000	19.642197
1318.000000	19.631463
1319.000000	19.619913
1320.000000	19.607133
1321.000000	19.594380
1322.000000	19.581543
1323.000000	19.566870
1324.000000	19.550930
1325.000000	19.534750
1326.000000	19.516830
1327.000000	19.499080
1328.000000	19.480500
1329.000000	19.459977
1330.000000	19.439650
1331.000000	19.418210
1332.000000	19.395150
1333.000000	19.371467
1334.000000	19.347073
1335.000000	19.321863
1336.000000	19.296660
1337.000000	19.270017
1338.000000	19.241617
1339.000000	19.211857
1340.000000	19.180357
1341.000000	19.146867
1342.000000	19.111167
1343.000000	19.074660
1344.000000	19.035813
1345.000000	18.994117
1346.000000	18.948993
1347.000000	18.903460
1348.000000	18.858990
1349.000000	18.813030
1350.000000	18.763303
1351.000000	18.711787
1352.000000	18.658677
1353.000000	18.604573
1354.000000	18.554483
1355.000000	18.508913
1356.000000	18.467783
1357.000000	18.425203
1358.000000	18.380647
1359.000000	18.336297
1360.000000	18.294200
1361.000000	18.262520
1362.000000	18.242320
1363.000000	18.220410
1364.000000	18.194283
1365.000000	18.167247
1366.000000	18.134830
1367.000000	18.100763
1368.000000	18.068317
1369.000000	18.032710
1370.000000	17.990570
1371.000000	17.936880
1372.000000	17.867600
1373.000000	17.787687
1374.000000	17.693153
1375.000000	17.582083
1376.000000	17.460887
1377.000000	17.327390
1378.000000	17.176037
1379.000000	17.014657
1380.000000	16.849537
1381.000000	16.684533
1382.000000	16.530257
1383.000000	16.391723
1384.000000	16.267297
1385.000000	16.154267
1386.000000	16.052583
1387.000000	15.967773
1388.000000	15.906207
1389.000000	15.861823
1390.000000	15.825713
1391.000000	15.793570
1392.000000	15.763653
1393.000000	15.734037
1394.000000	15.706873
1395.000000	15.688397
1396.000000	15.682330
1397.000000	15.672900
1398.000000	15.648873
1399.000000	15.618937
1400.000000	15.601013
1401.000000	15.588683
1402.000000	15.561633
1403.000000	15.520890
1404.000000	15.475413
1405.000000	15.424683
1406.000000	15.360163
1407.000000	15.291363
1408.000000	15.225583
1409.000000	15.161513
1410.000000	15.084173
1411.000000	14.990530
1412.000000	14.898037
1413.000000	14.810903
1414.000000	14.728067
1415.000000	14.641993
1416.000000	14.550767
1417.000000	14.459293
1418.000000	14.371400
1419.000000	14.284893
1420.000000	14.199530
1421.000000	14.116653
1422.000000	14.036640
1423.000000	13.960967
1424.000000	13.883793
1425.000000	13.807860
1426.000000	13.735453
1427.000000	13.666413
1428.000000	13.599230
1429.000000	13.531327
1430.000000	13.464613
1431.000000	13.404233
1432.000000	13.350533
1433.000000	13.297400
1434.000000	13.246533
1435.000000	13.194310
1436.000000	13.148027
1437.000000	13.104427
1438.000000	13.063843
1439.000000	13.025317
1440.000000	12.988110
1441.000000	12.953653
1442.000000	12.917310
1443.000000	12.881943
1444.000000	12.846263
1445.000000	12.817033
1446.000000	12.790820
1447.000000	12.764420
1448.000000	12.734530
1449.000000	12.704500
1450.000000	12.679230
1451.000000	12.655490
1452.000000	12.630983
1453.000000	12.607407
1454.000000	12.583840
1455.000000	12.558733
1456.000000	12.530010
1457.000000	12.503910
1458.000000	12.478997
1459.000000	12.454473
1460.000000	12.427523
1461.000000	12.398400
1462.000000	12.372080
1463.000000	12.345027
1464.000000	12.318373
1465.000000	12.292297
1466.000000	12.267010
1467.000000	12.240097
1468.000000	12.213793
1469.000000	12.188000
1470.000000	12.162263
1471.000000	12.137790
1472.000000	12.111587
1473.000000	12.087373
1474.000000	12.063733
1475.000000	12.038277
1476.000000	12.013413
1477.000000	11.991170
1478.000000	11.969893
1479.000000	11.949213
1480.000000	11.930387
1481.000000	11.912607
1482.000000	11.897580
1483.000000	11.883033
1484.000000	11.868980
1485.000000	11.855867
1486.000000	11.844727
1487.000000	11.833320
1488.000000	11.823313
1489.000000	11.814530
1490.000000	11.804083
1491.000000	11.793380
1492.000000	11.783023
1493.000000	11.772330
1494.000000	11.763023
1495.000000	11.755543
1496.000000	11.749650
1497.000000	11.744293
1498.000000	11.740383
1499.000000	11.738020
1500.000000	11.738777
1501.000000	11.742933
1502.000000	11.748370
1503.000000	11.757083
1504.000000	11.767493
1505.000000	11.781290
1506.000000	11.795740
1507.000000	11.813333
1508.000000	11.831530
1509.000000	11.850657
1510.000000	11.871290
1511.000000	11.891460
1512.000000	11.913810
1513.000000	11.936200
1514.000000	11.959420
1515.000000	11.981777
1516.000000	12.005273
1517.000000	12.029123
1518.000000	12.052947
1519.000000	12.076677
1520.000000	12.099610
1521.000000	12.122187
1522.000000	12.144323
1523.000000	12.166553
1524.000000	12.189180
1525.000000	12.212083
1526.000000	12.234663
1527.000000	12.256063
1528.000000	12.276037
1529.000000	12.296657
1530.000000	12.317507
1531.000000	12.338583
1532.000000	12.359810
1533.000000	12.380367
1534.000000	12.399340
1535.000000	12.417940
1536.000000	12.434203
1537.000000	12.449653
1538.000000	12.466657
1539.000000	12.482320
1540.000000	12.496833
1541.000000	12.510123
1542.000000	12.521957
1543.000000	12.533790
1544.000000	12.545627
1545.000000	12.557807
1546.000000	12.572007
1547.000000	12.586693
1548.000000	12.601987
1549.000000	12.618450
1550.000000	12.636117
1551.000000	12.655220
1552.000000	12.674443
1553.000000	12.694270
1554.000000	12.715523
1555.000000	12.736167
1556.000000	12.755897
1557.000000	12.774557
1558.000000	12.792147
1559.000000	12.808567
1560.000000	12.822913
1561.000000	12.835447
1562.000000	12.846310
1563.000000	12.854780
1564.000000	12.860533
1565.000000	12.863800
1566.000000	12.866127
1567.000000	12.866880
1568.000000	12.864867
1569.000000	12.861713
1570.000000	12.857933
1571.000000	12.854093
1572.000000	12.850223
1573.000000	12.845393
1574.000000	12.840733
1575.000000	12.837507
1576.000000	12.833990
1577.000000	12.831473
1578.000000	12.831220
1579.000000	12.831260
1580.000000	12.832153
1581.000000	12.833720
1582.000000	12.837303
1583.000000	12.843420
1584.000000	12.850967
1585.000000	12.859707
1586.000000	12.869347
1587.000000	12.879953
1588.000000	12.891447
1589.000000	12.903767
1590.000000	12.917350
1591.000000	12.931587
1592.000000	12.945133
1593.000000	12.959393
1594.000000	12.974957
1595.000000	12.990560
1596.000000	13.005977
1597.000000	13.021627
1598.000000	13.037373
1599.000000	13.053853
1600.000000	13.071347
1601.000000	13.088620
1602.000000	13.107353
1603.000000	13.125787
1604.000000	13.144143
1605.000000	13.162890
1606.000000	13.181097
1607.000000	13.199740
1608.000000	13.218440
1609.000000	13.236853
1610.000000	13.253783
1611.000000	13.270760
1612.000000	13.286257
1613.000000	13.300950
1614.000000	13.314377
1615.000000	13.326157
1616.000000	13.338073
1617.000000	13.348940
1618.000000	13.358693
1619.000000	13.367713
1620.000000	13.375893
1621.000000	13.384277
1622.000000	13.393023
1623.000000	13.401090
1624.000000	13.408780
1625.000000	13.416527
1626.000000	13.425257
1627.000000	13.434890
1628.000000	13.445227
1629.000000	13.454920
1630.000000	13.464443
1631.000000	13.472790
1632.000000	13.481030
1633.000000	13.490140
1634.000000	13.497527
1635.000000	13.504353
1636.000000	13.510070
1637.000000	13.515023
1638.000000	13.518403
1639.000000	13.522590
1640.000000	13.525887
1641.000000	13.529233
1642.000000	13.531097
1643.000000	13.532220
1644.000000	13.532860
1645.000000	13.533733
1646.000000	13.535030
1647.000000	13.535313
1648.000000	13.535297
1649.000000	13.533443
1650.000000	13.532290
1651.000000	13.530213
1652.000000	13.527000
1653.000000	13.522443
1654.000000	13.517793
1655.000000	13.510627
1656.000000	13.499510
1657.000000	13.486460
1658.000000	13.472593
1659.000000	13.456080
1660.000000	13.436357
1661.000000	13.413207
1662.000000	13.385713
1663.000000	13.354960
1664.000000	13.322110
1665.000000	13.287470
1666.000000	13.250587
1667.000000	13.211070
1668.000000	13.163107
1669.000000	13.113440
1670.000000	13.061967
1671.000000	13.008477
1672.000000	12.956607
1673.000000	12.903540
1674.000000	12.847877
1675.000000	12.791813
1676.000000	12.736780
1677.000000	12.682167
1678.000000	12.630210
1679.000000	12.576223
1680.000000	12.521650
1681.000000	12.464860
1682.000000	12.405293
1683.000000	12.343533
1684.000000	12.280637
1685.000000	12.218823
1686.000000	12.156463
1687.000000	12.096540
1688.000000	12.041820
1689.000000	11.995537
1690.000000	11.955703
1691.000000	11.927037
1692.000000	11.907693
1693.000000	11.897790
1694.000000	11.897347
1695.000000	11.903693
1696.000000	11.915760
1697.000000	11.929570
1698.000000	11.946323
1699.000000	11.961673
1700.000000	11.974537
1701.000000	11.986047
1702.000000	11.993983
1703.000000	11.998567
1704.000000	11.999480
1705.000000	11.994330
1706.000000	11.986660
1707.000000	11.977080
1708.000000	11.962987
1709.000000	11.944703
1710.000000	11.923243
1711.000000	11.894403
1712.000000	11.862777
1713.000000	11.826587
1714.000000	11.785320
1715.000000	11.741280
1716.000000	11.692013
1717.000000	11.637560
1718.000000	11.579477
1719.000000	11.519610
1720.000000	11.458947
1721.000000	11.399510
1722.000000	11.339750
1723.000000	11.284377
1724.000000	11.235367
1725.000000	11.191880
1726.000000	11.157130
1727.000000	11.131190
1728.000000	11.114480
1729.000000	11.106110
1730.000000	11.106287
1731.000000	11.112100
1732.000000	11.124027
1733.000000	11.139457
1734.000000	11.157233
1735.000000	11.176413
1736.000000	11.196287
1737.000000	11.217260
1738.000000	11.238467
1739.000000	11.259270
1740.000000	11.281153
1741.000000	11.304180
1742.000000	11.329040
1743.000000	11.354917
1744.000000	11.380723
1745.000000	11.406463
1746.000000	11.431660
1747.000000	11.455400
1748.000000	11.479513
1749.000000	11.502730
1750.000000	11.522380
1751.000000	11.539657
1752.000000	11.554267
1753.000000	11.566430
1754.000000	11.576183
1755.000000	11.584653
1756.000000	11.590830
1757.000000	11.595667
1758.000000	11.596987
1759.000000	11.597207
1760.000000	11.597587
1761.000000	11.597680
1762.000000	11.596830
1763.000000	11.596007
1764.000000	11.596010
1765.000000	11.596300
1766.000000	11.597807
1767.000000	11.601193
1768.000000	11.606783
1769.000000	11.614353
1770.000000	11.623053
1771.000000	11.632347
1772.000000	11.643640
1773.000000	11.655487
1774.000000	11.668080
1775.000000	11.681553
1776.000000	11.696033
1777.000000	11.711557
1778.000000	11.727283
1779.000000	11.742823
1780.000000	11.757713
1781.000000	11.772893
1782.000000	11.787320
1783.000000	11.800833
1784.000000	11.812593
1785.000000	11.825117
1786.000000	11.836123
1787.000000	11.843500
1788.000000	11.849113
1789.000000	11.852000
1790.000000	11.852950
1791.000000	11.855083
1792.000000	11.856403
1793.000000	11.858690
1794.000000	11.861917
1795.000000	11.863043
1796.000000	11.863470
1797.000000	11.864993
1798.000000	11.865867
1799.000000	11.867313
1800.000000	11.871330
1801.000000	11.876370
1802.000000	11.882407
1803.000000	11.885920
1804.000000	11.887597
1805.000000	11.890723
1806.000000	11.897190
1807.000000	11.905170
1808.000000	11.911910
1809.000000	11.916237
1810.000000	11.919020
1811.000000	11.922180
1812.000000	11.926760
1813.000000	11.931733
1814.000000	11.936927
1815.000000	11.941267
1816.000000	11.942473
1817.000000	11.939127
1818.000000	11.931940
1819.000000	11.926203
1820.000000	11.927813
1821.000000	11.936573
1822.000000	11.945620
1823.000000	11.948637
1824.000000	11.944087
1825.000000	11.935493
1826.000000	11.927407
1827.000000	11.924607
1828.000000	11.930097
1829.000000	11.940187
1830.000000	11.946723
1831.000000	11.944510
1832.000000	11.935810
1833.000000	11.928190
1834.000000	11.924257
1835.000000	11.923953
1836.000000	11.928533
1837.000000	11.936583
1838.000000	11.943713
1839.000000	11.948193
1840.000000	11.953487
1841.000000	11.965133
1842.000000	11.987053
1843.000000	12.012107
1844.000000	12.028923
1845.000000	12.032223
1846.000000	12.026760
1847.000000	12.025830
1848.000000	12.040567
1849.000000	12.062947
1850.000000	12.074283
1851.000000	12.066150
1852.000000	12.043633
1853.000000	12.023897
1854.000000	12.020213
1855.000000	12.031513
1856.000000	12.043117
1857.000000	12.038073
1858.000000	12.014603
1859.000000	11.987363
1860.000000	11.968687
1861.000000	11.961357
1862.000000	11.957873
1863.000000	11.945440
1864.000000	11.918723
1865.000000	11.880177
1866.000000	11.837107
1867.000000	11.793557
1868.000000	11.745973
1869.000000	11.691250
1870.000000	11.636793
1871.000000	11.585877
1872.000000	11.539087
1873.000000	11.500640
1874.000000	11.470717
1875.000000	11.445930
1876.000000	11.421353
1877.000000	11.394937
1878.000000	11.363900
1879.000000	11.324097
1880.000000	11.267557
1881.000000	11.192620
1882.000000	11.105100
1883.000000	11.008423
1884.000000	10.904857
1885.000000	10.793710
1886.000000	10.677010
1887.000000	10.552210
1888.000000	10.417547
1889.000000	10.275677
1890.000000	10.133810
1891.000000	9.993900
1892.000000	9.853077
1893.000000	9.706723
1894.000000	9.550987
1895.000000	9.385960
1896.000000	9.211497
1897.000000	9.033500
1898.000000	8.858267
1899.000000	8.688697
1900.000000	8.520117
1901.000000	8.348893
1902.000000	8.174330
1903.000000	7.999153
1904.000000	7.829823
1905.000000	7.672820
1906.000000	7.529233
1907.000000	7.393853
1908.000000	7.263673
1909.000000	7.131220
1910.000000	6.998023
1911.000000	6.869063
1912.000000	6.750490
1913.000000	6.644537
1914.000000	6.546613
1915.000000	6.450310
1916.000000	6.353610
1917.000000	6.259070
1918.000000	6.168420
1919.000000	6.088063
1920.000000	6.019177
1921.000000	5.959367
1922.000000	5.903840
1923.000000	5.846517
1924.000000	5.789197
1925.000000	5.734620
1926.000000	5.687640
1927.000000	5.649470
1928.000000	5.618110
1929.000000	5.591153
1930.000000	5.567240
1931.000000	5.543657
1932.000000	5.519440
1933.000000	5.500033
1934.000000	5.484210
1935.000000	5.474077
1936.000000	5.465193
1937.000000	5.458650
1938.000000	5.454483
1939.000000	5.452593
1940.000000	5.452757
1941.000000	5.455407
1942.000000	5.461977
1943.000000	5.469283
1944.000000	5.479547
1945.000000	5.490780
1946.000000	5.506047
1947.000000	5.522153
1948.000000	5.539853
1949.000000	5.557277
1950.000000	5.573727
1951.000000	5.591950
1952.000000	5.611773
1953.000000	5.633523
1954.000000	5.656730
1955.000000	5.682547
1956.000000	5.707630
1957.000000	5.731960
1958.000000	5.757773
1959.000000	5.784563
1960.000000	5.810793
1961.000000	5.838383
1962.000000	5.864897
1963.000000	5.892603
1964.000000	5.920827
1965.000000	5.946603
1966.000000	5.971910
1967.000000	5.998813
1968.000000	6.023423
1969.000000	6.048070
1970.000000	6.074110
1971.000000	6.099460
1972.000000	6.123770
1973.000000	6.146920
1974.000000	6.170517
1975.000000	6.195137
1976.000000	6.220857
1977.000000	6.245473
1978.000000	6.269957
1979.000000	6.295130
1980.000000	6.321000
1981.000000	6.346337
1982.000000	6.373770
1983.000000	6.401150
1984.000000	6.428413
1985.000000	6.454147
1986.000000	6.480367
1987.000000	6.507497
1988.000000	6.534530
1989.000000	6.561183
1990.000000	6.586963
1991.000000	6.613133
1992.000000	6.638023
1993.000000	6.662497
1994.000000	6.684897
1995.000000	6.709060
1996.000000	6.731220
1997.000000	6.752157
1998.000000	6.772417
1999.000000	6.792130
2000.000000	6.812660
2001.000000	6.830423
2002.000000	6.847557
2003.000000	6.864820
2004.000000	6.881523
2005.000000	6.896580
2006.000000	6.909557
2007.000000	6.921517
2008.000000	6.934123
2009.000000	6.943797
2010.000000	6.949567
2011.000000	6.954593
2012.000000	6.958650
2013.000000	6.959577
2014.000000	6.958413
2015.000000	6.953170
2016.000000	6.948070
2017.000000	6.942090
2018.000000	6.932640
2019.000000	6.921323
2020.000000	6.910313
2021.000000	6.898737
2022.000000	6.883960
2023.000000	6.866670
2024.000000	6.848540
2025.000000	6.831740
2026.000000	6.812377
2027.000000	6.789547
2028.000000	6.764220
2029.000000	6.739430
2030.000000	6.712157
2031.000000	6.681620
2032.000000	6.650630
2033.000000	6.619000
2034.000000	6.585683
2035.000000	6.550857
2036.000000	6.514400
2037.000000	6.476753
2038.000000	6.438390
2039.000000	6.398267
2040.000000	6.357080
2041.000000	6.315867
2042.000000	6.272977
2043.000000	6.228547
2044.000000	6.184007
2045.000000	6.138047
2046.000000	6.092590
2047.000000	6.048093
2048.000000	6.004747
2049.000000	5.963130
2050.000000	5.923177
2051.000000	5.885663
2052.000000	5.852013
2053.000000	5.823377
2054.000000	5.797997
2055.000000	5.777810
2056.000000	5.763273
2057.000000	5.753720
2058.000000	5.750063
2059.000000	5.750863
2060.000000	5.755793
2061.000000	5.765703
2062.000000	5.779137
2063.000000	5.795840
2064.000000	5.815793
2065.000000	5.837510
2066.000000	5.860143
2067.000000	5.885380
2068.000000	5.911210
2069.000000	5.936973
2070.000000	5.963857
2071.000000	5.990257
2072.000000	6.015553
2073.000000	6.040843
2074.000000	6.065513
2075.000000	6.088533
2076.000000	6.110263
2077.000000	6.129667
2078.000000	6.147277
2079.000000	6.163563
2080.000000	6.177647
2081.000000	6.188753
2082.000000	6.197657
2083.000000	6.204530
2084.000000	6.209287
2085.000000	6.212703
2086.000000	6.214400
2087.000000	6.214673
2088.000000	6.213123
2089.000000	6.208730
2090.000000	6.202147
2091.000000	6.194983
2092.000000	6.187477
2093.000000	6.178760
2094.000000	6.169167
2095.000000	6.159753
2096.000000	6.150147
2097.000000	6.140000
2098.000000	6.129673
2099.000000	6.120353
2100.000000	6.111897
2101.000000	6.104140
2102.000000	6.097147
2103.000000	6.090030
2104.000000	6.082290
2105.000000	6.075053
2106.000000	6.067890
2107.000000	6.060000
2108.000000	6.052623
2109.000000	6.045533
2110.000000	6.038727
2111.000000	6.031533
2112.000000	6.022643
2113.000000	6.014077
2114.000000	6.005577
2115.000000	5.995637
2116.000000	5.984807
2117.000000	5.974227
2118.000000	5.963157
2119.000000	5.950613
2120.000000	5.936983
2121.000000	5.922970
2122.000000	5.909657
2123.000000	5.895747
2124.000000	5.880553
2125.000000	5.864233
2126.000000	5.848340
2127.000000	5.832107
2128.000000	5.813827
2129.000000	5.795627
2130.000000	5.777427
2131.000000	5.757150
2132.000000	5.735233
2133.000000	5.711957
2134.000000	5.689443
2135.000000	5.666943
2136.000000	5.642417
2137.000000	5.616917
2138.000000	5.591987
2139.000000	5.566127
2140.000000	5.539523
2141.000000	5.512143
2142.000000	5.484573
2143.000000	5.456933
2144.000000	5.428260
2145.000000	5.398963
2146.000000	5.369733
2147.000000	5.339873
2148.000000	5.309737
2149.000000	5.279993
2150.000000	5.250193
2151.000000	5.219830
2152.000000	5.189147
2153.000000	5.159873
2154.000000	5.131183
2155.000000	5.103383
2156.000000	5.076580
2157.000000	5.051773
2158.000000	5.027413
2159.000000	5.003540
2160.000000	4.979037
2161.000000	4.958657
2162.000000	4.941140
2163.000000	4.924313
2164.000000	4.908113
2165.000000	4.893227
2166.000000	4.879307
2167.000000	4.865307
2168.000000	4.852627
2169.000000	4.839797
2170.000000	4.829100
2171.000000	4.818127
2172.000000	4.806443
2173.000000	4.794157
2174.000000	4.784127
2175.000000	4.775110
2176.000000	4.766107
2177.000000	4.756773
2178.000000	4.747557
2179.000000	4.739540
2180.000000	4.731347
2181.000000	4.722527
2182.000000	4.713167
2183.000000	4.703273
2184.000000	4.690970
2185.000000	4.676580
2186.000000	4.660737
2187.000000	4.644173
2188.000000	4.623763
2189.000000	4.601523
2190.000000	4.577000
2191.000000	4.548987
2192.000000	4.517113
2193.000000	4.482353
2194.000000	4.444847
2195.000000	4.405293
2196.000000	4.361273
2197.000000	4.314020
2198.000000	4.266027
2199.000000	4.215060
2200.000000	4.163523
2201.000000	4.111100
2202.000000	4.059213
2203.000000	4.009460
2204.000000	3.959990
2205.000000	3.912990
2206.000000	3.870017
2207.000000	3.831590
2208.000000	3.797747
2209.000000	3.769967
2210.000000	3.746240
2211.000000	3.729543
2212.000000	3.720343
2213.000000	3.716270
2214.000000	3.717747
2215.000000	3.724417
2216.000000	3.735867
2217.000000	3.751030
2218.000000	3.772593
2219.000000	3.797450
2220.000000	3.824050
2221.000000	3.853440
2222.000000	3.883720
2223.000000	3.914780
2224.000000	3.947130
2225.000000	3.978890
2226.000000	4.011790
2227.000000	4.043737
2228.000000	4.071257
2229.000000	4.095970
2230.000000	4.120397
2231.000000	4.142013
2232.000000	4.161860
2233.000000	4.177717
2234.000000	4.190950
2235.000000	4.199350
2236.000000	4.205633
2237.000000	4.210513
2238.000000	4.213207
2239.000000	4.213693
2240.000000	4.212667
2241.000000	4.207423
2242.000000	4.200740
2243.000000	4.191143
2244.000000	4.180230
2245.000000	4.168260
2246.000000	4.152583
2247.000000	4.134890
2248.000000	4.116057
2249.000000	4.096327
2250.000000	4.074120
2251.000000	4.051300
2252.000000	4.026850
2253.000000	4.004100
2254.000000	3.980170
2255.000000	3.956287
2256.000000	3.933917
2257.000000	3.910767
2258.000000	3.888540
2259.000000	3.867447
2260.000000	3.846797
2261.000000	3.829863
2262.000000	3.813600
2263.000000	3.798470
2264.000000	3.785913
2265.000000	3.775740
2266.000000	3.767163
2267.000000	3.762353
2268.000000	3.759227
2269.000000	3.756670
2270.000000	3.756680
2271.000000	3.757347
2272.000000	3.758327
2273.000000	3.760950
2274.000000	3.765527
2275.000000	3.770427
2276.000000	3.775627
2277.000000	3.779603
2278.000000	3.784107
2279.000000	3.790017
2280.000000	3.796717
2281.000000	3.802760
2282.000000	3.808350
2283.000000	3.813293
2284.000000	3.816543
2285.000000	3.819400
2286.000000	3.822957
2287.000000	3.825827
2288.000000	3.827570
2289.000000	3.828550
2290.000000	3.827863
2291.000000	3.827107
2292.000000	3.827440
2293.000000	3.827437
2294.000000	3.827643
2295.000000	3.829057
2296.000000	3.829650
2297.000000	3.831080
2298.000000	3.833667
2299.000000	3.836223
2300.000000	3.839707
2301.000000	3.843810
2302.000000	3.848703
2303.000000	3.853563
2304.000000	3.859430
2305.000000	3.866460
2306.000000	3.873127
2307.000000	3.880677
2308.000000	3.889623
2309.000000	3.899277
2310.000000	3.909403
2311.000000	3.919803
2312.000000	3.930250
2313.000000	3.941787
2314.000000	3.953060
2315.000000	3.963483
2316.000000	3.973427
2317.000000	3.982043
2318.000000	3.988367
2319.000000	3.994847
2320.000000	4.000500
2321.000000	4.004677
2322.000000	4.006887
2323.000000	4.008670
2324.000000	4.008200
2325.000000	4.006120
2326.000000	4.003260
2327.000000	4.000333
2328.000000	3.997147
2329.000000	3.992157
2330.000000	3.986077
2331.000000	3.979753
2332.000000	3.975007
2333.000000	3.970347
2334.000000	3.966307
2335.000000	3.962417
2336.000000	3.959887
2337.000000	3.957480
2338.000000	3.955437
2339.000000	3.954347
2340.000000	3.955550
2341.000000	3.958133
2342.000000	3.960190
2343.000000	3.961783
2344.000000	3.964860
2345.000000	3.969147
2346.000000	3.973727
2347.000000	3.979263
2348.000000	3.985080
2349.000000	3.992057
2350.000000	3.997547
2351.000000	4.002257
2352.000000	4.007820
2353.000000	4.014010
2354.000000	4.019747
2355.000000	4.025023
2356.000000	4.029653
2357.000000	4.033000
2358.000000	4.036557
2359.000000	4.038973
2360.000000	4.041537
2361.000000	4.045307
2362.000000	4.047967
2363.000000	4.049777
2364.000000	4.051523
2365.000000	4.052767
2366.000000	4.053560
2367.000000	4.055143
2368.000000	4.055983
2369.000000	4.056807
2370.000000	4.058043
2371.000000	4.058743
2372.000000	4.059987
2373.000000	4.060830
2374.000000	4.061960
2375.000000	4.063847
2376.000000	4.066140
2377.000000	4.068547
2378.000000	4.070800
2379.000000	4.072837
2380.000000	4.074583
2381.000000	4.076013
2382.000000	4.076793
2383.000000	4.077550
2384.000000	4.077447
2385.000000	4.076640
2386.000000	4.075553
2387.000000	4.073210
2388.000000	4.071580
2389.000000	4.069537
2390.000000	4.066537
2391.000000	4.063257
2392.000000	4.059310
2393.000000	4.054440
2394.000000	4.049477
2395.000000	4.043130
2396.000000	4.036057
2397.000000	4.028893
2398.000000	4.021037
2399.000000	4.012100
2400.000000	4.001560
2401.000000	3.991233
2402.000000	3.981693
2403.000000	3.972030
2404.000000	3.960570
2405.000000	3.949790
2406.000000	3.939037
2407.000000	3.927883
2408.000000	3.915887
2409.000000	3.904103
2410.000000	3.892653
2411.000000	3.879340
2412.000000	3.863800
2413.000000	3.847043
2414.000000	3.832197
2415.000000	3.816363
2416.000000	3.800027
2417.000000	3.781590
2418.000000	3.760603
2419.000000	3.739100
2420.000000	3.717143
2421.000000	3.694837
2422.000000	3.672057
2423.000000	3.649453
2424.000000	3.625197
2425.000000	3.600360
2426.000000	3.574780
2427.000000	3.549727
2428.000000	3.525587
2429.000000	3.500750
2430.000000	3.476387
2431.000000	3.451003
2432.000000	3.425267
2433.000000	3.398140
2434.000000	3.370447
2435.000000	3.344010
2436.000000	3.317617
2437.000000	3.291060
2438.000000	3.264720
2439.000000	3.238680
2440.000000	3.211497
2441.000000	3.184073
2442.000000	3.157643
2443.000000	3.132033
2444.000000	3.105977
2445.000000	3.078640
2446.000000	3.050873
2447.000000	3.023187
2448.000000	2.995947
2449.000000	2.968583
2450.000000	2.943307
2451.000000	2.919653
2452.000000	2.895593
2453.000000	2.871690
2454.000000	2.850303
2455.000000	2.828627
2456.000000	2.808370
2457.000000	2.788337
2458.000000	2.768050
2459.000000	2.750003
2460.000000	2.732260
2461.000000	2.710353
2462.000000	2.691817
2463.000000	2.675870
2464.000000	2.658233
2465.000000	2.640520
2466.000000	2.624143
2467.000000	2.609967
2468.000000	2.594643
2469.000000	2.581470
2470.000000	2.566817
2471.000000	2.555747
2472.000000	2.544480
2473.000000	2.532337
2474.000000	2.523957
2475.000000	2.519570
2476.000000	2.510627
2477.000000	2.502530
2478.000000	2.497570
2479.000000	2.490617
2480.000000	2.487473
2481.000000	2.485277
2482.000000	2.480037
2483.000000	2.475370
2484.000000	2.475263
2485.000000	2.466397
2486.000000	2.467767
2487.000000	2.466110
2488.000000	2.463690
2489.000000	2.462420
2490.000000	2.459343
2491.000000	2.460230
2492.000000	2.469300
2493.000000	2.478343
2494.000000	2.476273
2495.000000	2.486913
2496.000000	2.492203
2497.000000	2.501393
2498.000000	2.509550
2499.000000	2.515377
2500.000000	2.524597
