PE UV       SUBTECH     SPECTRUM    ASCII       PEDS        4.00        
   -1
BIOUCR0022-3.Sample.ASC
24/02/20
13:36:20.00
24/02/20
13:36:20.00
Vinicio Soto Monge
P. resplendens 18 de Mayo de 1985 R.W. Volcan, Panama
250,000000
1
Lambda 1050
1050L1511233
PerkinElmer UV WinLab 6.3.2.0749 / 2.02.05 Lambda 900 UV/VIS/NIR, Aug  7 2015 09:38:08

0
0
3350/servo 860,8/2
0
0
UV/VIS
1
1
1
DoubleDePol,CommonBeamDepol,RBeamAtt,SBeamAtt,60mm sphere, WB InGaAs Detector
0
0
0
0
Program
Program
3350/servo 860,8/2
3350/0,2 860,8/0,2
3350/0,2 860,8/0,2
0
15.00
 
 
 
0
 
860,8
319,2
860,8
Front
100
on
S:100 R:100
0
0
0
0
 
0
 
 
 
0
 
 
0
0
0
0
0
 
 
 
 
0
0


0
0
#HDR
-1
-1
#GR
nm
%R
1.0
0.0
2500,000000
-1,000000
2251
8
20,738200
1,664100
#DATA

250.000000	nan
251.000000	nan
252.000000	nan
253.000000	nan
254.000000	nan
255.000000	nan
256.000000	nan
257.000000	nan
258.000000	nan
259.000000	2.073574
260.000000	2.071409
261.000000	2.066780
262.000000	2.061122
263.000000	2.056904
264.000000	2.051274
265.000000	2.045076
266.000000	2.040894
267.000000	2.035442
268.000000	2.027682
269.000000	2.018485
270.000000	2.007530
271.000000	2.001554
272.000000	1.998854
273.000000	1.990672
274.000000	1.987519
275.000000	1.982919
276.000000	1.976367
277.000000	1.972751
278.000000	1.967618
279.000000	1.964060
280.000000	1.963259
281.000000	1.960118
282.000000	1.955398
283.000000	1.955728
284.000000	1.948305
285.000000	1.943124
286.000000	1.941599
287.000000	1.935503
288.000000	1.933392
289.000000	1.929661
290.000000	1.924536
291.000000	1.921557
292.000000	1.918043
293.000000	1.913531
294.000000	1.912503
295.000000	1.910489
296.000000	1.904243
297.000000	1.901412
298.000000	1.902228
299.000000	1.905604
300.000000	1.900433
301.000000	1.898788
302.000000	1.894658
303.000000	1.890391
304.000000	1.888430
305.000000	1.885023
306.000000	1.885289
307.000000	1.883593
308.000000	1.877047
309.000000	1.869236
310.000000	1.871102
311.000000	1.867895
312.000000	1.867822
313.000000	1.865183
314.000000	1.863300
315.000000	1.862167
316.000000	1.863786
317.000000	1.910464
318.000000	1.937264
319.000000	1.949576
320.000000	1.965952
321.000000	2.014110
322.000000	2.043215
323.000000	2.087419
324.000000	2.107114
325.000000	2.132998
326.000000	2.144064
327.000000	2.113896
328.000000	2.101031
329.000000	2.102735
330.000000	2.094341
331.000000	2.057975
332.000000	2.035734
333.000000	1.997184
334.000000	1.985955
335.000000	1.969984
336.000000	1.964053
337.000000	1.956280
338.000000	1.953847
339.000000	1.945346
340.000000	1.938111
341.000000	1.929680
342.000000	1.926436
343.000000	1.931706
344.000000	1.926701
345.000000	1.923900
346.000000	1.919817
347.000000	1.914935
348.000000	1.909508
349.000000	1.907178
350.000000	1.912732
351.000000	1.917491
352.000000	1.921727
353.000000	1.914724
354.000000	1.916475
355.000000	1.912571
356.000000	1.911957
357.000000	1.910791
358.000000	1.906994
359.000000	1.903475
360.000000	1.899163
361.000000	1.891675
362.000000	1.884532
363.000000	1.886801
364.000000	1.882399
365.000000	1.883214
366.000000	1.877077
367.000000	1.873865
368.000000	1.867121
369.000000	1.863641
370.000000	1.856845
371.000000	1.850057
372.000000	1.840252
373.000000	1.825258
374.000000	1.805823
375.000000	1.795051
376.000000	1.795565
377.000000	1.780665
378.000000	1.770304
379.000000	1.758763
380.000000	1.748432
381.000000	1.740979
382.000000	1.737183
383.000000	1.736605
384.000000	1.744865
385.000000	1.744463
386.000000	1.739727
387.000000	1.749546
388.000000	1.759913
389.000000	1.771189
390.000000	1.784380
391.000000	1.798571
392.000000	1.814223
393.000000	1.831429
394.000000	1.850051
395.000000	1.870331
396.000000	1.890982
397.000000	1.913755
398.000000	1.938491
399.000000	1.965336
400.000000	1.993474
401.000000	2.022738
402.000000	2.053342
403.000000	2.086278
404.000000	2.121017
405.000000	2.157076
406.000000	2.195270
407.000000	2.234815
408.000000	2.275799
409.000000	2.318537
410.000000	2.362527
411.000000	2.408934
412.000000	2.457007
413.000000	2.505652
414.000000	2.555276
415.000000	2.606435
416.000000	2.659189
417.000000	2.712791
418.000000	2.766961
419.000000	2.822163
420.000000	2.878083
421.000000	2.933917
422.000000	2.989594
423.000000	3.045518
424.000000	3.102770
425.000000	3.159331
426.000000	3.214572
427.000000	3.270645
428.000000	3.326602
429.000000	3.381178
430.000000	3.434751
431.000000	3.487922
432.000000	3.540881
433.000000	3.592661
434.000000	3.642443
435.000000	3.691374
436.000000	3.739341
437.000000	3.784781
438.000000	3.828650
439.000000	3.871617
440.000000	3.913228
441.000000	3.952928
442.000000	3.990437
443.000000	4.025749
444.000000	4.058559
445.000000	4.089241
446.000000	4.118747
447.000000	4.146445
448.000000	4.171591
449.000000	4.194889
450.000000	4.216260
451.000000	4.235374
452.000000	4.252689
453.000000	4.269536
454.000000	4.286449
455.000000	4.303115
456.000000	4.319491
457.000000	4.336405
458.000000	4.354857
459.000000	4.374448
460.000000	4.396704
461.000000	4.422531
462.000000	4.451776
463.000000	4.483905
464.000000	4.518906
465.000000	4.557667
466.000000	4.599980
467.000000	4.645975
468.000000	4.695484
469.000000	4.748307
470.000000	4.804000
471.000000	4.862161
472.000000	4.922740
473.000000	4.985427
474.000000	5.049842
475.000000	5.115500
476.000000	5.182342
477.000000	5.249984
478.000000	5.318243
479.000000	5.386727
480.000000	5.454133
481.000000	5.519259
482.000000	5.582470
483.000000	5.645313
484.000000	5.708905
485.000000	5.772857
486.000000	5.836421
487.000000	5.899772
488.000000	5.963815
489.000000	6.027960
490.000000	6.092308
491.000000	6.158390
492.000000	6.225685
493.000000	6.292887
494.000000	6.358930
495.000000	6.424891
496.000000	6.491306
497.000000	6.558041
498.000000	6.624221
499.000000	6.691310
500.000000	6.760045
501.000000	6.830210
502.000000	6.903441
503.000000	6.979564
504.000000	7.060061
505.000000	7.144182
506.000000	7.232147
507.000000	7.324260
508.000000	7.422600
509.000000	7.527487
510.000000	7.640424
511.000000	7.762546
512.000000	7.893210
513.000000	8.034121
514.000000	8.185066
515.000000	8.348038
516.000000	8.524058
517.000000	8.714870
518.000000	8.919853
519.000000	9.139404
520.000000	9.373492
521.000000	9.622932
522.000000	9.886704
523.000000	10.164455
524.000000	10.455570
525.000000	10.758553
526.000000	11.071860
527.000000	11.393268
528.000000	11.720085
529.000000	12.050562
530.000000	12.382160
531.000000	12.711768
532.000000	13.039133
533.000000	13.360965
534.000000	13.675695
535.000000	13.981587
536.000000	14.276909
537.000000	14.560100
538.000000	14.830281
539.000000	15.087588
540.000000	15.330655
541.000000	15.561407
542.000000	15.777878
543.000000	15.980919
544.000000	16.169881
545.000000	16.345555
546.000000	16.507978
547.000000	16.658743
548.000000	16.799630
549.000000	16.929461
550.000000	17.050051
551.000000	17.159443
552.000000	17.259498
553.000000	17.349849
554.000000	17.431902
555.000000	17.505677
556.000000	17.571675
557.000000	17.630839
558.000000	17.682517
559.000000	17.727642
560.000000	17.720404
561.000000	17.700866
562.000000	17.675702
563.000000	17.646271
564.000000	17.614288
565.000000	17.578578
566.000000	17.540992
567.000000	17.500138
568.000000	17.457693
569.000000	17.412833
570.000000	17.411506
571.000000	17.415101
572.000000	17.416004
573.000000	17.415641
574.000000	17.411241
575.000000	17.404718
576.000000	17.394191
577.000000	17.382159
578.000000	17.367466
579.000000	17.349633
580.000000	17.329651
581.000000	17.306756
582.000000	17.281864
583.000000	17.254217
584.000000	17.223097
585.000000	17.189180
586.000000	17.152220
587.000000	17.108924
588.000000	17.058958
589.000000	17.004338
590.000000	16.944816
591.000000	16.878336
592.000000	16.805240
593.000000	16.722058
594.000000	16.631257
595.000000	16.529972
596.000000	16.419536
597.000000	16.299388
598.000000	16.171708
599.000000	16.034450
600.000000	15.885638
601.000000	15.726105
602.000000	15.555110
603.000000	15.375265
604.000000	15.184317
605.000000	14.983606
606.000000	14.773158
607.000000	14.554096
608.000000	14.325869
609.000000	14.089795
610.000000	13.849197
611.000000	13.604930
612.000000	13.360513
613.000000	13.118279
614.000000	12.880589
615.000000	12.651753
616.000000	12.434452
617.000000	12.232762
618.000000	12.048222
619.000000	11.883964
620.000000	11.740447
621.000000	11.621818
622.000000	11.527002
623.000000	11.456158
624.000000	11.411161
625.000000	11.388876
626.000000	11.389013
627.000000	11.409345
628.000000	11.446895
629.000000	11.500173
630.000000	11.565603
631.000000	11.640316
632.000000	11.722738
633.000000	11.810222
634.000000	11.899441
635.000000	11.988640
636.000000	12.075315
637.000000	12.157455
638.000000	12.235000
639.000000	12.305061
640.000000	12.370386
641.000000	12.427300
642.000000	12.476613
643.000000	12.518374
644.000000	12.551060
645.000000	12.576151
646.000000	12.594669
647.000000	12.606416
648.000000	12.611606
649.000000	12.612357
650.000000	12.605466
651.000000	12.595160
652.000000	12.580287
653.000000	12.559908
654.000000	12.537127
655.000000	12.510775
656.000000	12.480187
657.000000	12.447607
658.000000	12.413252
659.000000	12.377746
660.000000	12.343034
661.000000	12.307610
662.000000	12.272938
663.000000	12.241366
664.000000	12.212860
665.000000	12.187898
666.000000	12.168074
667.000000	12.153669
668.000000	12.142948
669.000000	12.136725
670.000000	12.137435
671.000000	12.145053
672.000000	12.158812
673.000000	12.178743
674.000000	12.204708
675.000000	12.237172
676.000000	12.275001
677.000000	12.317117
678.000000	12.366801
679.000000	12.420937
680.000000	12.478364
681.000000	12.538671
682.000000	12.602779
683.000000	12.669544
684.000000	12.738029
685.000000	12.807721
686.000000	12.878823
687.000000	12.950669
688.000000	13.020920
689.000000	13.092839
690.000000	13.165073
691.000000	13.236280
692.000000	13.305290
693.000000	13.372411
694.000000	13.439103
695.000000	13.505452
696.000000	13.569958
697.000000	13.631185
698.000000	13.690444
699.000000	13.746871
700.000000	13.799425
701.000000	13.849363
702.000000	13.896512
703.000000	13.940619
704.000000	13.981656
705.000000	14.018696
706.000000	14.052776
707.000000	14.085656
708.000000	14.117591
709.000000	14.146657
710.000000	14.174491
711.000000	14.201616
712.000000	14.227711
713.000000	14.253055
714.000000	14.275197
715.000000	14.296694
716.000000	14.317150
717.000000	14.337357
718.000000	14.357385
719.000000	14.379585
720.000000	14.402432
721.000000	14.424926
722.000000	14.448963
723.000000	14.473598
724.000000	14.499789
725.000000	14.525626
726.000000	14.552262
727.000000	14.579402
728.000000	14.606745
729.000000	14.632297
730.000000	14.655791
731.000000	14.680673
732.000000	14.705755
733.000000	14.730943
734.000000	14.758049
735.000000	14.787398
736.000000	14.817230
737.000000	14.847159
738.000000	14.877728
739.000000	14.909641
740.000000	14.945064
741.000000	14.979988
742.000000	15.016000
743.000000	15.053580
744.000000	15.088363
745.000000	15.123560
746.000000	15.160838
747.000000	15.199325
748.000000	15.237677
749.000000	15.275140
750.000000	15.312628
751.000000	15.351747
752.000000	15.389819
753.000000	15.427742
754.000000	15.468600
755.000000	15.509739
756.000000	15.547935
757.000000	15.584968
758.000000	15.622692
759.000000	15.659968
760.000000	15.697145
761.000000	15.735397
762.000000	15.775452
763.000000	15.816233
764.000000	15.856057
765.000000	15.895764
766.000000	15.936571
767.000000	15.976723
768.000000	16.018217
769.000000	16.062971
770.000000	16.105580
771.000000	16.146592
772.000000	16.186878
773.000000	16.226444
774.000000	16.266115
775.000000	16.303451
776.000000	16.342492
777.000000	16.383341
778.000000	16.420454
779.000000	16.454473
780.000000	16.490521
781.000000	16.526721
782.000000	16.560606
783.000000	16.592395
784.000000	16.624123
785.000000	16.655962
786.000000	16.686627
787.000000	16.716982
788.000000	16.750025
789.000000	16.782241
790.000000	16.812793
791.000000	16.842503
792.000000	16.873173
793.000000	16.902969
794.000000	16.931907
795.000000	16.960529
796.000000	16.989143
797.000000	17.015549
798.000000	17.038721
799.000000	17.063848
800.000000	17.090675
801.000000	17.117972
802.000000	17.147266
803.000000	17.173837
804.000000	17.201416
805.000000	17.229983
806.000000	17.260715
807.000000	17.293351
808.000000	17.329492
809.000000	17.367670
810.000000	17.405299
811.000000	17.440022
812.000000	17.468241
813.000000	17.501210
814.000000	17.534467
815.000000	17.565730
816.000000	17.594552
817.000000	17.621450
818.000000	17.648129
819.000000	17.669342
820.000000	17.689398
821.000000	17.712648
822.000000	17.734962
823.000000	17.756787
824.000000	17.777007
825.000000	17.798743
826.000000	17.817591
827.000000	17.839405
828.000000	17.852558
829.000000	17.866247
830.000000	17.877724
831.000000	17.888673
832.000000	17.900731
833.000000	17.910150
834.000000	17.917162
835.000000	17.923281
836.000000	17.925588
837.000000	17.923894
838.000000	17.927888
839.000000	17.933293
840.000000	17.936415
841.000000	17.939485
842.000000	17.946259
843.000000	17.958166
844.000000	17.961813
845.000000	17.966430
846.000000	17.967459
847.000000	17.967219
848.000000	17.954873
849.000000	17.956578
850.000000	17.954488
851.000000	17.942584
852.000000	17.914569
853.000000	17.893906
854.000000	17.873947
855.000000	17.850907
856.000000	17.836005
857.000000	17.848659
858.000000	17.901076
859.000000	17.945297
860.000000	17.995135
861.000000	18.051705
862.000000	18.124727
863.000000	18.189687
864.000000	18.263844
865.000000	18.341934
866.000000	18.421992
867.000000	18.477239
868.000000	18.504490
869.000000	18.524273
870.000000	18.545460
871.000000	18.567080
872.000000	18.586800
873.000000	18.603383
874.000000	18.619033
875.000000	18.632657
876.000000	18.644620
877.000000	18.656503
878.000000	18.669860
879.000000	18.682520
880.000000	18.695367
881.000000	18.710943
882.000000	18.726307
883.000000	18.742323
884.000000	18.760827
885.000000	18.780100
886.000000	18.801210
887.000000	18.821870
888.000000	18.841627
889.000000	18.864443
890.000000	18.886033
891.000000	18.906523
892.000000	18.928097
893.000000	18.950037
894.000000	18.971150
895.000000	18.993993
896.000000	19.014833
897.000000	19.037640
898.000000	19.061170
899.000000	19.082323
900.000000	19.106027
901.000000	19.129473
902.000000	19.155523
903.000000	19.180873
904.000000	19.207327
905.000000	19.231363
906.000000	19.255547
907.000000	19.279577
908.000000	19.301373
909.000000	19.324477
910.000000	19.345833
911.000000	19.368923
912.000000	19.387377
913.000000	19.403877
914.000000	19.420873
915.000000	19.437643
916.000000	19.454327
917.000000	19.467730
918.000000	19.482787
919.000000	19.495553
920.000000	19.508700
921.000000	19.517917
922.000000	19.527653
923.000000	19.537580
924.000000	19.545207
925.000000	19.551297
926.000000	19.554080
927.000000	19.559050
928.000000	19.562067
929.000000	19.565407
930.000000	19.567730
931.000000	19.570147
932.000000	19.572197
933.000000	19.575090
934.000000	19.578500
935.000000	19.583263
936.000000	19.591670
937.000000	19.598373
938.000000	19.606370
939.000000	19.614293
940.000000	19.620037
941.000000	19.625200
942.000000	19.629910
943.000000	19.635137
944.000000	19.638803
945.000000	19.642137
946.000000	19.643853
947.000000	19.644863
948.000000	19.644657
949.000000	19.645563
950.000000	19.647387
951.000000	19.648727
952.000000	19.652750
953.000000	19.653890
954.000000	19.654433
955.000000	19.656287
956.000000	19.656317
957.000000	19.655693
958.000000	19.656117
959.000000	19.655543
960.000000	19.655937
961.000000	19.655880
962.000000	19.652630
963.000000	19.650393
964.000000	19.647120
965.000000	19.642270
966.000000	19.638157
967.000000	19.634830
968.000000	19.630627
969.000000	19.625433
970.000000	19.620560
971.000000	19.615837
972.000000	19.610487
973.000000	19.605187
974.000000	19.601433
975.000000	19.598180
976.000000	19.595503
977.000000	19.592463
978.000000	19.589407
979.000000	19.586893
980.000000	19.583483
981.000000	19.580883
982.000000	19.579667
983.000000	19.579440
984.000000	19.579463
985.000000	19.579270
986.000000	19.578873
987.000000	19.580920
988.000000	19.583687
989.000000	19.586740
990.000000	19.589893
991.000000	19.593473
992.000000	19.597970
993.000000	19.604167
994.000000	19.609903
995.000000	19.615640
996.000000	19.623217
997.000000	19.629477
998.000000	19.635787
999.000000	19.642553
1000.000000	19.649523
1001.000000	19.658337
1002.000000	19.667863
1003.000000	19.676030
1004.000000	19.685123
1005.000000	19.694420
1006.000000	19.702750
1007.000000	19.711307
1008.000000	19.719330
1009.000000	19.726903
1010.000000	19.734913
1011.000000	19.742390
1012.000000	19.750363
1013.000000	19.758967
1014.000000	19.766997
1015.000000	19.774900
1016.000000	19.783883
1017.000000	19.791857
1018.000000	19.799800
1019.000000	19.810513
1020.000000	19.821507
1021.000000	19.831873
1022.000000	19.841323
1023.000000	19.849967
1024.000000	19.860010
1025.000000	19.870210
1026.000000	19.878597
1027.000000	19.887040
1028.000000	19.895560
1029.000000	19.902093
1030.000000	19.909227
1031.000000	19.916910
1032.000000	19.923400
1033.000000	19.930280
1034.000000	19.937333
1035.000000	19.944573
1036.000000	19.952403
1037.000000	19.961187
1038.000000	19.970277
1039.000000	19.978733
1040.000000	19.986780
1041.000000	19.994473
1042.000000	20.003780
1043.000000	20.013960
1044.000000	20.022357
1045.000000	20.030020
1046.000000	20.038227
1047.000000	20.045840
1048.000000	20.053530
1049.000000	20.062473
1050.000000	20.071470
1051.000000	20.080210
1052.000000	20.088107
1053.000000	20.095127
1054.000000	20.101847
1055.000000	20.109170
1056.000000	20.116957
1057.000000	20.125967
1058.000000	20.136147
1059.000000	20.145447
1060.000000	20.153900
1061.000000	20.161847
1062.000000	20.170993
1063.000000	20.181417
1064.000000	20.192300
1065.000000	20.202030
1066.000000	20.212077
1067.000000	20.222360
1068.000000	20.232403
1069.000000	20.243773
1070.000000	20.255447
1071.000000	20.269457
1072.000000	20.283627
1073.000000	20.296350
1074.000000	20.309513
1075.000000	20.324523
1076.000000	20.338780
1077.000000	20.352777
1078.000000	20.365167
1079.000000	20.376330
1080.000000	20.388643
1081.000000	20.399963
1082.000000	20.410837
1083.000000	20.422360
1084.000000	20.435080
1085.000000	20.447203
1086.000000	20.459600
1087.000000	20.470563
1088.000000	20.482627
1089.000000	20.495287
1090.000000	20.507363
1091.000000	20.519330
1092.000000	20.530353
1093.000000	20.541477
1094.000000	20.550293
1095.000000	20.559510
1096.000000	20.568317
1097.000000	20.576667
1098.000000	20.585747
1099.000000	20.593743
1100.000000	20.599153
1101.000000	20.603950
1102.000000	20.610170
1103.000000	20.614237
1104.000000	20.619163
1105.000000	20.622737
1106.000000	20.625743
1107.000000	20.629193
1108.000000	20.631847
1109.000000	20.634873
1110.000000	20.638717
1111.000000	20.642847
1112.000000	20.644807
1113.000000	20.646197
1114.000000	20.646553
1115.000000	20.646720
1116.000000	20.647567
1117.000000	20.649710
1118.000000	20.650653
1119.000000	20.650213
1120.000000	20.649397
1121.000000	20.646713
1122.000000	20.644267
1123.000000	20.642987
1124.000000	20.642547
1125.000000	20.641410
1126.000000	20.638363
1127.000000	20.632357
1128.000000	20.625713
1129.000000	20.620767
1130.000000	20.614723
1131.000000	20.607127
1132.000000	20.596280
1133.000000	20.582053
1134.000000	20.566757
1135.000000	20.554677
1136.000000	20.545133
1137.000000	20.534907
1138.000000	20.520647
1139.000000	20.502737
1140.000000	20.483887
1141.000000	20.466910
1142.000000	20.451227
1143.000000	20.437173
1144.000000	20.422250
1145.000000	20.405683
1146.000000	20.387067
1147.000000	20.371087
1148.000000	20.357410
1149.000000	20.344767
1150.000000	20.333877
1151.000000	20.322550
1152.000000	20.312920
1153.000000	20.304247
1154.000000	20.296303
1155.000000	20.286600
1156.000000	20.274857
1157.000000	20.258867
1158.000000	20.243890
1159.000000	20.229477
1160.000000	20.213133
1161.000000	20.194097
1162.000000	20.172327
1163.000000	20.149570
1164.000000	20.122850
1165.000000	20.094110
1166.000000	20.066640
1167.000000	20.038740
1168.000000	20.010450
1169.000000	19.978687
1170.000000	19.947883
1171.000000	19.918893
1172.000000	19.892143
1173.000000	19.866313
1174.000000	19.843577
1175.000000	19.824510
1176.000000	19.805737
1177.000000	19.788547
1178.000000	19.772137
1179.000000	19.758583
1180.000000	19.746997
1181.000000	19.735293
1182.000000	19.723917
1183.000000	19.712770
1184.000000	19.702080
1185.000000	19.690267
1186.000000	19.680090
1187.000000	19.674283
1188.000000	19.668020
1189.000000	19.663950
1190.000000	19.660387
1191.000000	19.660837
1192.000000	19.663197
1193.000000	19.665747
1194.000000	19.671270
1195.000000	19.678530
1196.000000	19.686690
1197.000000	19.693727
1198.000000	19.704300
1199.000000	19.715713
1200.000000	19.727310
1201.000000	19.736733
1202.000000	19.745770
1203.000000	19.756413
1204.000000	19.766830
1205.000000	19.775627
1206.000000	19.783423
1207.000000	19.792790
1208.000000	19.800947
1209.000000	19.810327
1210.000000	19.820137
1211.000000	19.831613
1212.000000	19.841503
1213.000000	19.850437
1214.000000	19.859143
1215.000000	19.867987
1216.000000	19.876993
1217.000000	19.885090
1218.000000	19.892837
1219.000000	19.898523
1220.000000	19.903757
1221.000000	19.906940
1222.000000	19.910767
1223.000000	19.913113
1224.000000	19.915020
1225.000000	19.916423
1226.000000	19.917503
1227.000000	19.918430
1228.000000	19.917857
1229.000000	19.916147
1230.000000	19.912553
1231.000000	19.910567
1232.000000	19.908460
1233.000000	19.906503
1234.000000	19.902843
1235.000000	19.899430
1236.000000	19.896113
1237.000000	19.890483
1238.000000	19.884833
1239.000000	19.878947
1240.000000	19.874853
1241.000000	19.870303
1242.000000	19.865833
1243.000000	19.863537
1244.000000	19.862520
1245.000000	19.862963
1246.000000	19.864637
1247.000000	19.869323
1248.000000	19.875743
1249.000000	19.883713
1250.000000	19.892547
1251.000000	19.902700
1252.000000	19.913187
1253.000000	19.924100
1254.000000	19.937230
1255.000000	19.950550
1256.000000	19.962767
1257.000000	19.974197
1258.000000	19.986440
1259.000000	19.998470
1260.000000	20.010523
1261.000000	20.021847
1262.000000	20.033067
1263.000000	20.043323
1264.000000	20.051207
1265.000000	20.057933
1266.000000	20.064810
1267.000000	20.071660
1268.000000	20.077397
1269.000000	20.082877
1270.000000	20.087747
1271.000000	20.091620
1272.000000	20.094937
1273.000000	20.097693
1274.000000	20.100317
1275.000000	20.102290
1276.000000	20.103770
1277.000000	20.104807
1278.000000	20.104720
1279.000000	20.103563
1280.000000	20.102183
1281.000000	20.101440
1282.000000	20.101033
1283.000000	20.101173
1284.000000	20.101470
1285.000000	20.103537
1286.000000	20.106633
1287.000000	20.109400
1288.000000	20.114333
1289.000000	20.121357
1290.000000	20.127893
1291.000000	20.133157
1292.000000	20.138767
1293.000000	20.145037
1294.000000	20.151063
1295.000000	20.155810
1296.000000	20.159737
1297.000000	20.164253
1298.000000	20.167920
1299.000000	20.171003
1300.000000	20.174393
1301.000000	20.178267
1302.000000	20.181687
1303.000000	20.183830
1304.000000	20.185267
1305.000000	20.186640
1306.000000	20.186837
1307.000000	20.185910
1308.000000	20.184800
1309.000000	20.182537
1310.000000	20.179023
1311.000000	20.174537
1312.000000	20.168737
1313.000000	20.161380
1314.000000	20.152230
1315.000000	20.140633
1316.000000	20.128637
1317.000000	20.116883
1318.000000	20.103273
1319.000000	20.089023
1320.000000	20.074183
1321.000000	20.058260
1322.000000	20.040950
1323.000000	20.022817
1324.000000	20.005183
1325.000000	19.987960
1326.000000	19.969610
1327.000000	19.949077
1328.000000	19.928243
1329.000000	19.906537
1330.000000	19.883850
1331.000000	19.860827
1332.000000	19.837267
1333.000000	19.813110
1334.000000	19.788287
1335.000000	19.763463
1336.000000	19.738350
1337.000000	19.713033
1338.000000	19.685987
1339.000000	19.656633
1340.000000	19.626830
1341.000000	19.596930
1342.000000	19.565607
1343.000000	19.532617
1344.000000	19.498177
1345.000000	19.461463
1346.000000	19.421227
1347.000000	19.379800
1348.000000	19.339863
1349.000000	19.300370
1350.000000	19.257310
1351.000000	19.210320
1352.000000	19.163520
1353.000000	19.115857
1354.000000	19.068877
1355.000000	19.026827
1356.000000	18.990097
1357.000000	18.953690
1358.000000	18.913593
1359.000000	18.872427
1360.000000	18.830893
1361.000000	18.796100
1362.000000	18.773260
1363.000000	18.755780
1364.000000	18.734390
1365.000000	18.710213
1366.000000	18.681957
1367.000000	18.648240
1368.000000	18.617873
1369.000000	18.587920
1370.000000	18.553913
1371.000000	18.510343
1372.000000	18.451513
1373.000000	18.377650
1374.000000	18.291910
1375.000000	18.189953
1376.000000	18.076873
1377.000000	17.951620
1378.000000	17.809837
1379.000000	17.651113
1380.000000	17.487933
1381.000000	17.324357
1382.000000	17.169120
1383.000000	17.027463
1384.000000	16.904663
1385.000000	16.793357
1386.000000	16.693197
1387.000000	16.610097
1388.000000	16.549713
1389.000000	16.512547
1390.000000	16.488040
1391.000000	16.466937
1392.000000	16.449860
1393.000000	16.435170
1394.000000	16.418623
1395.000000	16.409667
1396.000000	16.416570
1397.000000	16.428680
1398.000000	16.425833
1399.000000	16.411950
1400.000000	16.403370
1401.000000	16.410467
1402.000000	16.406853
1403.000000	16.388640
1404.000000	16.361937
1405.000000	16.335620
1406.000000	16.293147
1407.000000	16.241490
1408.000000	16.193383
1409.000000	16.149857
1410.000000	16.098650
1411.000000	16.028203
1412.000000	15.949407
1413.000000	15.875877
1414.000000	15.808983
1415.000000	15.738663
1416.000000	15.663273
1417.000000	15.582810
1418.000000	15.503347
1419.000000	15.425063
1420.000000	15.348183
1421.000000	15.273393
1422.000000	15.201670
1423.000000	15.133080
1424.000000	15.066537
1425.000000	14.995790
1426.000000	14.928070
1427.000000	14.867177
1428.000000	14.808620
1429.000000	14.748613
1430.000000	14.686620
1431.000000	14.626083
1432.000000	14.575180
1433.000000	14.526640
1434.000000	14.475877
1435.000000	14.426393
1436.000000	14.379107
1437.000000	14.334120
1438.000000	14.292973
1439.000000	14.252760
1440.000000	14.215377
1441.000000	14.180753
1442.000000	14.144327
1443.000000	14.108080
1444.000000	14.072263
1445.000000	14.038630
1446.000000	14.011187
1447.000000	13.983813
1448.000000	13.952533
1449.000000	13.920723
1450.000000	13.889500
1451.000000	13.861577
1452.000000	13.835797
1453.000000	13.807887
1454.000000	13.781340
1455.000000	13.755113
1456.000000	13.724097
1457.000000	13.693323
1458.000000	13.663073
1459.000000	13.635980
1460.000000	13.606227
1461.000000	13.574583
1462.000000	13.542747
1463.000000	13.511537
1464.000000	13.479590
1465.000000	13.448197
1466.000000	13.416377
1467.000000	13.386727
1468.000000	13.358133
1469.000000	13.326440
1470.000000	13.298867
1471.000000	13.272160
1472.000000	13.244740
1473.000000	13.219240
1474.000000	13.194163
1475.000000	13.167757
1476.000000	13.142693
1477.000000	13.117283
1478.000000	13.094173
1479.000000	13.073877
1480.000000	13.052667
1481.000000	13.032157
1482.000000	13.012893
1483.000000	12.993690
1484.000000	12.974890
1485.000000	12.958347
1486.000000	12.945060
1487.000000	12.933267
1488.000000	12.920007
1489.000000	12.907267
1490.000000	12.895213
1491.000000	12.882987
1492.000000	12.870783
1493.000000	12.861360
1494.000000	12.853460
1495.000000	12.846423
1496.000000	12.840160
1497.000000	12.834647
1498.000000	12.831997
1499.000000	12.831630
1500.000000	12.833447
1501.000000	12.837263
1502.000000	12.844653
1503.000000	12.854173
1504.000000	12.866150
1505.000000	12.880810
1506.000000	12.896340
1507.000000	12.914007
1508.000000	12.933693
1509.000000	12.955787
1510.000000	12.979943
1511.000000	13.005100
1512.000000	13.030460
1513.000000	13.057493
1514.000000	13.085740
1515.000000	13.113327
1516.000000	13.141623
1517.000000	13.170180
1518.000000	13.198320
1519.000000	13.226927
1520.000000	13.254297
1521.000000	13.281657
1522.000000	13.309433
1523.000000	13.336130
1524.000000	13.361610
1525.000000	13.387097
1526.000000	13.412340
1527.000000	13.437447
1528.000000	13.462360
1529.000000	13.485197
1530.000000	13.508317
1531.000000	13.530927
1532.000000	13.552270
1533.000000	13.573573
1534.000000	13.596013
1535.000000	13.618497
1536.000000	13.639047
1537.000000	13.658733
1538.000000	13.678313
1539.000000	13.697567
1540.000000	13.715510
1541.000000	13.732887
1542.000000	13.749353
1543.000000	13.764870
1544.000000	13.780053
1545.000000	13.794973
1546.000000	13.810920
1547.000000	13.827667
1548.000000	13.844050
1549.000000	13.861593
1550.000000	13.880983
1551.000000	13.901423
1552.000000	13.923217
1553.000000	13.945877
1554.000000	13.967467
1555.000000	13.989373
1556.000000	14.011223
1557.000000	14.031833
1558.000000	14.051350
1559.000000	14.068210
1560.000000	14.082490
1561.000000	14.094940
1562.000000	14.104893
1563.000000	14.111367
1564.000000	14.116127
1565.000000	14.119040
1566.000000	14.119180
1567.000000	14.116910
1568.000000	14.113337
1569.000000	14.109683
1570.000000	14.105643
1571.000000	14.100637
1572.000000	14.095907
1573.000000	14.091920
1574.000000	14.087703
1575.000000	14.083520
1576.000000	14.080830
1577.000000	14.080030
1578.000000	14.079497
1579.000000	14.079623
1580.000000	14.080657
1581.000000	14.083170
1582.000000	14.087213
1583.000000	14.092007
1584.000000	14.097390
1585.000000	14.105077
1586.000000	14.114020
1587.000000	14.123303
1588.000000	14.135180
1589.000000	14.147123
1590.000000	14.158897
1591.000000	14.171787
1592.000000	14.184133
1593.000000	14.197377
1594.000000	14.212287
1595.000000	14.226050
1596.000000	14.239467
1597.000000	14.254007
1598.000000	14.268110
1599.000000	14.282590
1600.000000	14.297880
1601.000000	14.313237
1602.000000	14.329800
1603.000000	14.346880
1604.000000	14.363897
1605.000000	14.382010
1606.000000	14.401510
1607.000000	14.419743
1608.000000	14.437917
1609.000000	14.456703
1610.000000	14.474997
1611.000000	14.492890
1612.000000	14.509300
1613.000000	14.524617
1614.000000	14.539100
1615.000000	14.552627
1616.000000	14.564817
1617.000000	14.576883
1618.000000	14.586883
1619.000000	14.596747
1620.000000	14.606487
1621.000000	14.614947
1622.000000	14.622277
1623.000000	14.629617
1624.000000	14.637420
1625.000000	14.645053
1626.000000	14.651970
1627.000000	14.659010
1628.000000	14.667113
1629.000000	14.675227
1630.000000	14.683627
1631.000000	14.692683
1632.000000	14.701473
1633.000000	14.709890
1634.000000	14.718303
1635.000000	14.727017
1636.000000	14.734097
1637.000000	14.739430
1638.000000	14.744560
1639.000000	14.749073
1640.000000	14.753260
1641.000000	14.756820
1642.000000	14.759853
1643.000000	14.762730
1644.000000	14.765593
1645.000000	14.767437
1646.000000	14.769870
1647.000000	14.772970
1648.000000	14.775217
1649.000000	14.776627
1650.000000	14.776560
1651.000000	14.775730
1652.000000	14.775203
1653.000000	14.773703
1654.000000	14.770250
1655.000000	14.765637
1656.000000	14.759523
1657.000000	14.751493
1658.000000	14.740220
1659.000000	14.727197
1660.000000	14.712140
1661.000000	14.694247
1662.000000	14.673647
1663.000000	14.651437
1664.000000	14.624660
1665.000000	14.593990
1666.000000	14.560567
1667.000000	14.525373
1668.000000	14.482260
1669.000000	14.434007
1670.000000	14.384397
1671.000000	14.333450
1672.000000	14.279690
1673.000000	14.222257
1674.000000	14.165493
1675.000000	14.108443
1676.000000	14.052097
1677.000000	13.993130
1678.000000	13.939023
1679.000000	13.885350
1680.000000	13.828593
1681.000000	13.769563
1682.000000	13.709793
1683.000000	13.648273
1684.000000	13.584823
1685.000000	13.519560
1686.000000	13.456217
1687.000000	13.394110
1688.000000	13.336203
1689.000000	13.285523
1690.000000	13.242680
1691.000000	13.210227
1692.000000	13.187000
1693.000000	13.175730
1694.000000	13.172757
1695.000000	13.178427
1696.000000	13.189363
1697.000000	13.206913
1698.000000	13.227240
1699.000000	13.246353
1700.000000	13.266150
1701.000000	13.282003
1702.000000	13.294293
1703.000000	13.300780
1704.000000	13.305253
1705.000000	13.307173
1706.000000	13.304360
1707.000000	13.296857
1708.000000	13.285627
1709.000000	13.271203
1710.000000	13.251780
1711.000000	13.228790
1712.000000	13.201337
1713.000000	13.170317
1714.000000	13.133553
1715.000000	13.090833
1716.000000	13.041710
1717.000000	12.988623
1718.000000	12.931953
1719.000000	12.871040
1720.000000	12.809557
1721.000000	12.744870
1722.000000	12.684210
1723.000000	12.626557
1724.000000	12.572400
1725.000000	12.525517
1726.000000	12.488460
1727.000000	12.459390
1728.000000	12.439127
1729.000000	12.429617
1730.000000	12.425827
1731.000000	12.430423
1732.000000	12.439090
1733.000000	12.452320
1734.000000	12.470343
1735.000000	12.489240
1736.000000	12.508470
1737.000000	12.528707
1738.000000	12.551163
1739.000000	12.573113
1740.000000	12.596927
1741.000000	12.622793
1742.000000	12.649657
1743.000000	12.675427
1744.000000	12.702083
1745.000000	12.729920
1746.000000	12.758140
1747.000000	12.786280
1748.000000	12.811303
1749.000000	12.836267
1750.000000	12.858883
1751.000000	12.879013
1752.000000	12.896183
1753.000000	12.911820
1754.000000	12.924773
1755.000000	12.934447
1756.000000	12.941293
1757.000000	12.947653
1758.000000	12.951420
1759.000000	12.952657
1760.000000	12.954040
1761.000000	12.954227
1762.000000	12.954950
1763.000000	12.955637
1764.000000	12.955937
1765.000000	12.957240
1766.000000	12.960213
1767.000000	12.962900
1768.000000	12.968447
1769.000000	12.976437
1770.000000	12.985017
1771.000000	12.994750
1772.000000	13.003517
1773.000000	13.013280
1774.000000	13.024660
1775.000000	13.038823
1776.000000	13.051617
1777.000000	13.065417
1778.000000	13.079243
1779.000000	13.092247
1780.000000	13.105687
1781.000000	13.119153
1782.000000	13.132870
1783.000000	13.144527
1784.000000	13.154677
1785.000000	13.162130
1786.000000	13.170190
1787.000000	13.176863
1788.000000	13.181680
1789.000000	13.183223
1790.000000	13.181360
1791.000000	13.179337
1792.000000	13.177547
1793.000000	13.176533
1794.000000	13.175287
1795.000000	13.175040
1796.000000	13.174637
1797.000000	13.173010
1798.000000	13.170527
1799.000000	13.168240
1800.000000	13.168517
1801.000000	13.170820
1802.000000	13.174990
1803.000000	13.179213
1804.000000	13.181047
1805.000000	13.180760
1806.000000	13.182190
1807.000000	13.186610
1808.000000	13.191717
1809.000000	13.195203
1810.000000	13.194970
1811.000000	13.194460
1812.000000	13.194613
1813.000000	13.195383
1814.000000	13.197660
1815.000000	13.201163
1816.000000	13.203063
1817.000000	13.199510
1818.000000	13.190390
1819.000000	13.179890
1820.000000	13.174997
1821.000000	13.177743
1822.000000	13.186130
1823.000000	13.191037
1824.000000	13.185610
1825.000000	13.173163
1826.000000	13.158487
1827.000000	13.149113
1828.000000	13.148670
1829.000000	13.154137
1830.000000	13.158623
1831.000000	13.157360
1832.000000	13.147297
1833.000000	13.135357
1834.000000	13.128153
1835.000000	13.124160
1836.000000	13.124883
1837.000000	13.129687
1838.000000	13.135840
1839.000000	13.140460
1840.000000	13.144443
1841.000000	13.151050
1842.000000	13.168973
1843.000000	13.193873
1844.000000	13.213980
1845.000000	13.221460
1846.000000	13.215403
1847.000000	13.208483
1848.000000	13.215473
1849.000000	13.236727
1850.000000	13.255650
1851.000000	13.256343
1852.000000	13.235823
1853.000000	13.210903
1854.000000	13.199393
1855.000000	13.205713
1856.000000	13.221880
1857.000000	13.226253
1858.000000	13.207623
1859.000000	13.178497
1860.000000	13.154337
1861.000000	13.142020
1862.000000	13.137657
1863.000000	13.129510
1864.000000	13.108487
1865.000000	13.074010
1866.000000	13.029637
1867.000000	12.982097
1868.000000	12.933607
1869.000000	12.876577
1870.000000	12.818117
1871.000000	12.763750
1872.000000	12.712090
1873.000000	12.667033
1874.000000	12.630840
1875.000000	12.601073
1876.000000	12.577070
1877.000000	12.554667
1878.000000	12.527463
1879.000000	12.494150
1880.000000	12.445290
1881.000000	12.375480
1882.000000	12.292457
1883.000000	12.198007
1884.000000	12.095430
1885.000000	11.987177
1886.000000	11.871810
1887.000000	11.746447
1888.000000	11.611813
1889.000000	11.468717
1890.000000	11.322707
1891.000000	11.179077
1892.000000	11.034870
1893.000000	10.887703
1894.000000	10.731480
1895.000000	10.564533
1896.000000	10.386230
1897.000000	10.203107
1898.000000	10.021007
1899.000000	9.845323
1900.000000	9.673030
1901.000000	9.499060
1902.000000	9.321937
1903.000000	9.140827
1904.000000	8.962560
1905.000000	8.793753
1906.000000	8.641520
1907.000000	8.501370
1908.000000	8.366177
1909.000000	8.229977
1910.000000	8.091517
1911.000000	7.956083
1912.000000	7.827727
1913.000000	7.711707
1914.000000	7.607177
1915.000000	7.508037
1916.000000	7.406713
1917.000000	7.306340
1918.000000	7.209770
1919.000000	7.120390
1920.000000	7.042730
1921.000000	6.974400
1922.000000	6.912840
1923.000000	6.854210
1924.000000	6.795947
1925.000000	6.737470
1926.000000	6.682547
1927.000000	6.636680
1928.000000	6.599720
1929.000000	6.569043
1930.000000	6.541247
1931.000000	6.515437
1932.000000	6.490430
1933.000000	6.466103
1934.000000	6.445450
1935.000000	6.429503
1936.000000	6.418730
1937.000000	6.408757
1938.000000	6.403113
1939.000000	6.401743
1940.000000	6.401613
1941.000000	6.404260
1942.000000	6.408297
1943.000000	6.413860
1944.000000	6.422403
1945.000000	6.434713
1946.000000	6.451260
1947.000000	6.469550
1948.000000	6.487160
1949.000000	6.503360
1950.000000	6.520580
1951.000000	6.539893
1952.000000	6.560243
1953.000000	6.584540
1954.000000	6.610260
1955.000000	6.636373
1956.000000	6.661750
1957.000000	6.687113
1958.000000	6.713797
1959.000000	6.741290
1960.000000	6.770163
1961.000000	6.796603
1962.000000	6.824790
1963.000000	6.852957
1964.000000	6.879890
1965.000000	6.908110
1966.000000	6.935450
1967.000000	6.963793
1968.000000	6.989063
1969.000000	7.015353
1970.000000	7.040850
1971.000000	7.067250
1972.000000	7.093810
1973.000000	7.119517
1974.000000	7.144990
1975.000000	7.169333
1976.000000	7.194277
1977.000000	7.218490
1978.000000	7.244507
1979.000000	7.270587
1980.000000	7.296133
1981.000000	7.323453
1982.000000	7.350513
1983.000000	7.377930
1984.000000	7.405313
1985.000000	7.432597
1986.000000	7.460863
1987.000000	7.490197
1988.000000	7.518313
1989.000000	7.545367
1990.000000	7.573343
1991.000000	7.599760
1992.000000	7.627323
1993.000000	7.652820
1994.000000	7.679507
1995.000000	7.705503
1996.000000	7.729187
1997.000000	7.751460
1998.000000	7.774907
1999.000000	7.795880
2000.000000	7.815277
2001.000000	7.833767
2002.000000	7.849717
2003.000000	7.866213
2004.000000	7.879440
2005.000000	7.892410
2006.000000	7.904083
2007.000000	7.914247
2008.000000	7.922917
2009.000000	7.930963
2010.000000	7.936153
2011.000000	7.939940
2012.000000	7.941777
2013.000000	7.941580
2014.000000	7.940157
2015.000000	7.936807
2016.000000	7.930713
2017.000000	7.921787
2018.000000	7.910923
2019.000000	7.898370
2020.000000	7.884613
2021.000000	7.868730
2022.000000	7.851370
2023.000000	7.831847
2024.000000	7.810407
2025.000000	7.785713
2026.000000	7.760007
2027.000000	7.733930
2028.000000	7.705380
2029.000000	7.675263
2030.000000	7.644087
2031.000000	7.610710
2032.000000	7.575780
2033.000000	7.538570
2034.000000	7.501330
2035.000000	7.463493
2036.000000	7.424743
2037.000000	7.383893
2038.000000	7.341377
2039.000000	7.296680
2040.000000	7.250530
2041.000000	7.203657
2042.000000	7.155243
2043.000000	7.106670
2044.000000	7.056453
2045.000000	7.005777
2046.000000	6.954420
2047.000000	6.903980
2048.000000	6.854607
2049.000000	6.807230
2050.000000	6.762517
2051.000000	6.719697
2052.000000	6.681107
2053.000000	6.647667
2054.000000	6.618207
2055.000000	6.594307
2056.000000	6.576343
2057.000000	6.563613
2058.000000	6.556440
2059.000000	6.555163
2060.000000	6.558440
2061.000000	6.567680
2062.000000	6.581057
2063.000000	6.597647
2064.000000	6.618197
2065.000000	6.641560
2066.000000	6.667430
2067.000000	6.696183
2068.000000	6.726217
2069.000000	6.756750
2070.000000	6.788477
2071.000000	6.820600
2072.000000	6.851830
2073.000000	6.881673
2074.000000	6.911420
2075.000000	6.939980
2076.000000	6.965920
2077.000000	6.989430
2078.000000	7.011263
2079.000000	7.032400
2080.000000	7.051263
2081.000000	7.066900
2082.000000	7.080570
2083.000000	7.092460
2084.000000	7.101730
2085.000000	7.108770
2086.000000	7.114897
2087.000000	7.118117
2088.000000	7.118860
2089.000000	7.117943
2090.000000	7.115347
2091.000000	7.111510
2092.000000	7.106590
2093.000000	7.100477
2094.000000	7.093727
2095.000000	7.086133
2096.000000	7.076713
2097.000000	7.068110
2098.000000	7.060673
2099.000000	7.052067
2100.000000	7.043280
2101.000000	7.035343
2102.000000	7.027677
2103.000000	7.021283
2104.000000	7.014873
2105.000000	7.008993
2106.000000	7.004417
2107.000000	6.999243
2108.000000	6.993187
2109.000000	6.987727
2110.000000	6.982663
2111.000000	6.976573
2112.000000	6.970090
2113.000000	6.962587
2114.000000	6.954007
2115.000000	6.944937
2116.000000	6.935320
2117.000000	6.925870
2118.000000	6.915700
2119.000000	6.904337
2120.000000	6.891587
2121.000000	6.878623
2122.000000	6.865140
2123.000000	6.850183
2124.000000	6.834877
2125.000000	6.819353
2126.000000	6.802140
2127.000000	6.782953
2128.000000	6.763703
2129.000000	6.744650
2130.000000	6.724643
2131.000000	6.703270
2132.000000	6.681043
2133.000000	6.657683
2134.000000	6.632530
2135.000000	6.605080
2136.000000	6.578037
2137.000000	6.551113
2138.000000	6.523207
2139.000000	6.493840
2140.000000	6.464007
2141.000000	6.433353
2142.000000	6.400953
2143.000000	6.369157
2144.000000	6.337150
2145.000000	6.305663
2146.000000	6.272447
2147.000000	6.238043
2148.000000	6.204057
2149.000000	6.169077
2150.000000	6.133923
2151.000000	6.099310
2152.000000	6.065923
2153.000000	6.031807
2154.000000	5.997537
2155.000000	5.964103
2156.000000	5.931950
2157.000000	5.900327
2158.000000	5.868297
2159.000000	5.838967
2160.000000	5.811053
2161.000000	5.785037
2162.000000	5.759060
2163.000000	5.735657
2164.000000	5.713940
2165.000000	5.694420
2166.000000	5.674957
2167.000000	5.657753
2168.000000	5.642603
2169.000000	5.626893
2170.000000	5.611647
2171.000000	5.597990
2172.000000	5.585217
2173.000000	5.571563
2174.000000	5.559237
2175.000000	5.545397
2176.000000	5.534037
2177.000000	5.523770
2178.000000	5.513217
2179.000000	5.503030
2180.000000	5.493363
2181.000000	5.480807
2182.000000	5.468907
2183.000000	5.457503
2184.000000	5.444143
2185.000000	5.430020
2186.000000	5.412510
2187.000000	5.391880
2188.000000	5.369730
2189.000000	5.344703
2190.000000	5.315840
2191.000000	5.284577
2192.000000	5.249837
2193.000000	5.210767
2194.000000	5.167830
2195.000000	5.122407
2196.000000	5.073383
2197.000000	5.020893
2198.000000	4.964233
2199.000000	4.904963
2200.000000	4.842823
2201.000000	4.781093
2202.000000	4.720673
2203.000000	4.660967
2204.000000	4.603263
2205.000000	4.547113
2206.000000	4.495457
2207.000000	4.448237
2208.000000	4.406190
2209.000000	4.370980
2210.000000	4.343790
2211.000000	4.323487
2212.000000	4.308433
2213.000000	4.299990
2214.000000	4.298667
2215.000000	4.303603
2216.000000	4.315603
2217.000000	4.332417
2218.000000	4.354897
2219.000000	4.381760
2220.000000	4.411790
2221.000000	4.443543
2222.000000	4.477547
2223.000000	4.513660
2224.000000	4.550420
2225.000000	4.587183
2226.000000	4.621660
2227.000000	4.656613
2228.000000	4.690127
2229.000000	4.721813
2230.000000	4.751180
2231.000000	4.778073
2232.000000	4.802263
2233.000000	4.823183
2234.000000	4.841553
2235.000000	4.857487
2236.000000	4.869280
2237.000000	4.877913
2238.000000	4.883127
2239.000000	4.884750
2240.000000	4.884003
2241.000000	4.880710
2242.000000	4.874503
2243.000000	4.866320
2244.000000	4.853990
2245.000000	4.839743
2246.000000	4.825963
2247.000000	4.809350
2248.000000	4.790437
2249.000000	4.771007
2250.000000	4.749427
2251.000000	4.727593
2252.000000	4.704303
2253.000000	4.680467
2254.000000	4.659017
2255.000000	4.635647
2256.000000	4.611357
2257.000000	4.587933
2258.000000	4.565340
2259.000000	4.542890
2260.000000	4.522080
2261.000000	4.503730
2262.000000	4.487173
2263.000000	4.472057
2264.000000	4.458737
2265.000000	4.447817
2266.000000	4.439490
2267.000000	4.433363
2268.000000	4.430497
2269.000000	4.430413
2270.000000	4.431927
2271.000000	4.431973
2272.000000	4.435340
2273.000000	4.441143
2274.000000	4.445790
2275.000000	4.452057
2276.000000	4.458813
2277.000000	4.466363
2278.000000	4.473640
2279.000000	4.479823
2280.000000	4.486043
2281.000000	4.493737
2282.000000	4.500313
2283.000000	4.504820
2284.000000	4.510663
2285.000000	4.515380
2286.000000	4.520173
2287.000000	4.523393
2288.000000	4.526177
2289.000000	4.529580
2290.000000	4.533303
2291.000000	4.536227
2292.000000	4.539640
2293.000000	4.543003
2294.000000	4.545133
2295.000000	4.548920
2296.000000	4.552410
2297.000000	4.556890
2298.000000	4.562000
2299.000000	4.567190
2300.000000	4.572400
2301.000000	4.578293
2302.000000	4.583720
2303.000000	4.590970
2304.000000	4.598747
2305.000000	4.607310
2306.000000	4.617077
2307.000000	4.627317
2308.000000	4.639180
2309.000000	4.651757
2310.000000	4.665617
2311.000000	4.679563
2312.000000	4.693627
2313.000000	4.707397
2314.000000	4.722090
2315.000000	4.735633
2316.000000	4.748143
2317.000000	4.760363
2318.000000	4.770413
2319.000000	4.777770
2320.000000	4.783717
2321.000000	4.787973
2322.000000	4.791037
2323.000000	4.793543
2324.000000	4.793833
2325.000000	4.792777
2326.000000	4.791727
2327.000000	4.789093
2328.000000	4.785687
2329.000000	4.782783
2330.000000	4.778803
2331.000000	4.774207
2332.000000	4.770323
2333.000000	4.765770
2334.000000	4.762047
2335.000000	4.758140
2336.000000	4.754900
2337.000000	4.752510
2338.000000	4.749430
2339.000000	4.747670
2340.000000	4.747627
2341.000000	4.749340
2342.000000	4.750410
2343.000000	4.751760
2344.000000	4.753897
2345.000000	4.756970
2346.000000	4.759433
2347.000000	4.762467
2348.000000	4.767123
2349.000000	4.771507
2350.000000	4.776510
2351.000000	4.781833
2352.000000	4.787477
2353.000000	4.793427
2354.000000	4.799480
2355.000000	4.805390
2356.000000	4.811787
2357.000000	4.818400
2358.000000	4.824197
2359.000000	4.828037
2360.000000	4.830390
2361.000000	4.832760
2362.000000	4.834370
2363.000000	4.836067
2364.000000	4.837750
2365.000000	4.838907
2366.000000	4.838647
2367.000000	4.837770
2368.000000	4.837547
2369.000000	4.838963
2370.000000	4.839707
2371.000000	4.839057
2372.000000	4.839983
2373.000000	4.840980
2374.000000	4.840630
2375.000000	4.841057
2376.000000	4.842710
2377.000000	4.844020
2378.000000	4.844747
2379.000000	4.845590
2380.000000	4.846863
2381.000000	4.848753
2382.000000	4.850363
2383.000000	4.850843
2384.000000	4.851990
2385.000000	4.852107
2386.000000	4.850453
2387.000000	4.848993
2388.000000	4.846513
2389.000000	4.842563
2390.000000	4.839240
2391.000000	4.835187
2392.000000	4.829340
2393.000000	4.823333
2394.000000	4.816513
2395.000000	4.809130
2396.000000	4.802017
2397.000000	4.794143
2398.000000	4.785977
2399.000000	4.777040
2400.000000	4.766943
2401.000000	4.756560
2402.000000	4.745887
2403.000000	4.734473
2404.000000	4.723333
2405.000000	4.712130
2406.000000	4.699780
2407.000000	4.686643
2408.000000	4.673567
2409.000000	4.660417
2410.000000	4.646277
2411.000000	4.630523
2412.000000	4.614663
2413.000000	4.598427
2414.000000	4.581243
2415.000000	4.563007
2416.000000	4.543493
2417.000000	4.523340
2418.000000	4.501413
2419.000000	4.479383
2420.000000	4.456983
2421.000000	4.434623
2422.000000	4.410573
2423.000000	4.385770
2424.000000	4.359847
2425.000000	4.333017
2426.000000	4.307200
2427.000000	4.279457
2428.000000	4.251480
2429.000000	4.223150
2430.000000	4.195007
2431.000000	4.165847
2432.000000	4.136173
2433.000000	4.107533
2434.000000	4.078200
2435.000000	4.048347
2436.000000	4.018283
2437.000000	3.989283
2438.000000	3.960543
2439.000000	3.930533
2440.000000	3.899440
2441.000000	3.868650
2442.000000	3.838127
2443.000000	3.805503
2444.000000	3.773950
2445.000000	3.743197
2446.000000	3.712047
2447.000000	3.682143
2448.000000	3.651633
2449.000000	3.622237
2450.000000	3.593123
2451.000000	3.564000
2452.000000	3.537753
2453.000000	3.512083
2454.000000	3.486300
2455.000000	3.461373
2456.000000	3.435900
2457.000000	3.412180
2458.000000	3.389117
2459.000000	3.365223
2460.000000	3.341160
2461.000000	3.318140
2462.000000	3.294480
2463.000000	3.271037
2464.000000	3.249190
2465.000000	3.229013
2466.000000	3.208273
2467.000000	3.188087
2468.000000	3.168160
2469.000000	3.151563
2470.000000	3.137473
2471.000000	3.124860
2472.000000	3.110403
2473.000000	3.099407
2474.000000	3.089300
2475.000000	3.078573
2476.000000	3.070443
2477.000000	3.062533
2478.000000	3.054850
2479.000000	3.047967
2480.000000	3.042643
2481.000000	3.039163
2482.000000	3.032607
2483.000000	3.026370
2484.000000	3.018480
2485.000000	3.011940
2486.000000	3.010120
2487.000000	3.008277
2488.000000	3.008187
2489.000000	3.006547
2490.000000	3.006210
2491.000000	3.001380
2492.000000	3.005250
2493.000000	3.013733
2494.000000	3.017520
2495.000000	3.020710
2496.000000	3.027193
2497.000000	3.030683
2498.000000	3.038347
2499.000000	3.046343
2500.000000	3.056153
