PE UV       SUBTECH     SPECTRUM    ASCII       PEDS        4.00        
   -1
BIOUCR0001-3.Sample.ASC
24/02/19
11:14:54.00
24/02/19
11:14:54.00
Vinicio Soto Monge
P. cupreomarginata (sin datos) Monteverde(dudoso) Filtro Izq: Mas cafe
250,000000
1
Lambda 1050
1050L1511233
PerkinElmer UV WinLab 6.3.2.0749 / 2.02.05 Lambda 900 UV/VIS/NIR, Aug  7 2015 09:38:08

0
0
3350/servo 860,8/2
0
0
UV/VIS
1
1
1
DoubleDePol,CommonBeamDepol,RBeamAtt,SBeamAtt,60mm sphere, WB InGaAs Detector
0
0
0
0
Program
Program
3350/servo 860,8/2
3350/0,2 860,8/0,2
3350/0,2 860,8/0,2
0
15.00
 
 
 
0
 
860,8
319,2
860,8
Front
100
on
S:100 R:100
0
0
0
0
 
0
 
 
 
0
 
 
0
0
0
0
0
 
 
 
 
0
0


0
0
#HDR
-1
-1
#GR
nm
%R
1.0
0.0
2500,000000
-1,000000
2251
8
20,032600
1,574800
#DATA

250.000000	nan
251.000000	nan
252.000000	nan
253.000000	nan
254.000000	nan
255.000000	nan
256.000000	nan
257.000000	nan
258.000000	nan
259.000000	1.941225
260.000000	1.937825
261.000000	1.932955
262.000000	1.927665
263.000000	1.921389
264.000000	1.918153
265.000000	1.914827
266.000000	1.911400
267.000000	1.905727
268.000000	1.901214
269.000000	1.894179
270.000000	1.891813
271.000000	1.887229
272.000000	1.883468
273.000000	1.877792
274.000000	1.873063
275.000000	1.870278
276.000000	1.865582
277.000000	1.861781
278.000000	1.858254
279.000000	1.856320
280.000000	1.851661
281.000000	1.848517
282.000000	1.843994
283.000000	1.842816
284.000000	1.841852
285.000000	1.837272
286.000000	1.834543
287.000000	1.832890
288.000000	1.828757
289.000000	1.826428
290.000000	1.824747
291.000000	1.822646
292.000000	1.820958
293.000000	1.815825
294.000000	1.810884
295.000000	1.807803
296.000000	1.806514
297.000000	1.804097
298.000000	1.800940
299.000000	1.798583
300.000000	1.795226
301.000000	1.792166
302.000000	1.791200
303.000000	1.793541
304.000000	1.792623
305.000000	1.792514
306.000000	1.790705
307.000000	1.789118
308.000000	1.789901
309.000000	1.788539
310.000000	1.787753
311.000000	1.787286
312.000000	1.787034
313.000000	1.784801
314.000000	1.784447
315.000000	1.783585
316.000000	1.785641
317.000000	1.813966
318.000000	1.824917
319.000000	1.838752
320.000000	1.864780
321.000000	1.885640
322.000000	1.901169
323.000000	1.906299
324.000000	1.906944
325.000000	1.911093
326.000000	1.926660
327.000000	1.904624
328.000000	1.897626
329.000000	1.894196
330.000000	1.879568
331.000000	1.864958
332.000000	1.850130
333.000000	1.850381
334.000000	1.857606
335.000000	1.857382
336.000000	1.845083
337.000000	1.840096
338.000000	1.835853
339.000000	1.825357
340.000000	1.823751
341.000000	1.822165
342.000000	1.826455
343.000000	1.823542
344.000000	1.819086
345.000000	1.817607
346.000000	1.812991
347.000000	1.817238
348.000000	1.818694
349.000000	1.819560
350.000000	1.816190
351.000000	1.813209
352.000000	1.807859
353.000000	1.806001
354.000000	1.805551
355.000000	1.802731
356.000000	1.801345
357.000000	1.792658
358.000000	1.790646
359.000000	1.792777
360.000000	1.786656
361.000000	1.784501
362.000000	1.784696
363.000000	1.782263
364.000000	1.779024
365.000000	1.777354
366.000000	1.777395
367.000000	1.779830
368.000000	1.778676
369.000000	1.774647
370.000000	1.772909
371.000000	1.769268
372.000000	1.765816
373.000000	1.759588
374.000000	1.753360
375.000000	1.750376
376.000000	1.745011
377.000000	1.726638
378.000000	1.709750
379.000000	1.691906
380.000000	1.675382
381.000000	1.661518
382.000000	1.645979
383.000000	1.636623
384.000000	1.626306
385.000000	1.614241
386.000000	1.602827
387.000000	1.605475
388.000000	1.609557
389.000000	1.613359
390.000000	1.616634
391.000000	1.620662
392.000000	1.625041
393.000000	1.629554
394.000000	1.634384
395.000000	1.639789
396.000000	1.645966
397.000000	1.652120
398.000000	1.658111
399.000000	1.664586
400.000000	1.671884
401.000000	1.679702
402.000000	1.688119
403.000000	1.696563
404.000000	1.705923
405.000000	1.716346
406.000000	1.728055
407.000000	1.740963
408.000000	1.755027
409.000000	1.770269
410.000000	1.786790
411.000000	1.804731
412.000000	1.823952
413.000000	1.845418
414.000000	1.867999
415.000000	1.891823
416.000000	1.917298
417.000000	1.945849
418.000000	1.976550
419.000000	2.009942
420.000000	2.045564
421.000000	2.083881
422.000000	2.125643
423.000000	2.170461
424.000000	2.218692
425.000000	2.269994
426.000000	2.324133
427.000000	2.380147
428.000000	2.439366
429.000000	2.501577
430.000000	2.567071
431.000000	2.635823
432.000000	2.706982
433.000000	2.780792
434.000000	2.857408
435.000000	2.936755
436.000000	3.019161
437.000000	3.104442
438.000000	3.191559
439.000000	3.280961
440.000000	3.372649
441.000000	3.465789
442.000000	3.560510
443.000000	3.656319
444.000000	3.752893
445.000000	3.850441
446.000000	3.948374
447.000000	4.046209
448.000000	4.143931
449.000000	4.240692
450.000000	4.336012
451.000000	4.430169
452.000000	4.523181
453.000000	4.614985
454.000000	4.705451
455.000000	4.794612
456.000000	4.882293
457.000000	4.968811
458.000000	5.054564
459.000000	5.138709
460.000000	5.221786
461.000000	5.304218
462.000000	5.385273
463.000000	5.464796
464.000000	5.542778
465.000000	5.619165
466.000000	5.694207
467.000000	5.767156
468.000000	5.837680
469.000000	5.906732
470.000000	5.974151
471.000000	6.039196
472.000000	6.102097
473.000000	6.162738
474.000000	6.221221
475.000000	6.276914
476.000000	6.329678
477.000000	6.380287
478.000000	6.428575
479.000000	6.474635
480.000000	6.516382
481.000000	6.552764
482.000000	6.584379
483.000000	6.613761
484.000000	6.641560
485.000000	6.668323
486.000000	6.694129
487.000000	6.719063
488.000000	6.742668
489.000000	6.765918
490.000000	6.790221
491.000000	6.815979
492.000000	6.843005
493.000000	6.868819
494.000000	6.892837
495.000000	6.914788
496.000000	6.935389
497.000000	6.954609
498.000000	6.973076
499.000000	6.990322
500.000000	7.007219
501.000000	7.025957
502.000000	7.046983
503.000000	7.071136
504.000000	7.098854
505.000000	7.131691
506.000000	7.170757
507.000000	7.216685
508.000000	7.270864
509.000000	7.333688
510.000000	7.405573
511.000000	7.487270
512.000000	7.578841
513.000000	7.680830
514.000000	7.793876
515.000000	7.916751
516.000000	8.047824
517.000000	8.187868
518.000000	8.335201
519.000000	8.488726
520.000000	8.648816
521.000000	8.813921
522.000000	8.982561
523.000000	9.153529
524.000000	9.326382
525.000000	9.500522
526.000000	9.676959
527.000000	9.853989
528.000000	10.031630
529.000000	10.211371
530.000000	10.392402
531.000000	10.573606
532.000000	10.757409
533.000000	10.943373
534.000000	11.131527
535.000000	11.321681
536.000000	11.512192
537.000000	11.704795
538.000000	11.898689
539.000000	12.092677
540.000000	12.285893
541.000000	12.477594
542.000000	12.665170
543.000000	12.848301
544.000000	13.025412
545.000000	13.196575
546.000000	13.361675
547.000000	13.517908
548.000000	13.666545
549.000000	13.807564
550.000000	13.941555
551.000000	14.069670
552.000000	14.193469
553.000000	14.313762
554.000000	14.430687
555.000000	14.544858
556.000000	14.658171
557.000000	14.770638
558.000000	14.881601
559.000000	14.991669
560.000000	15.060892
561.000000	15.121268
562.000000	15.176393
563.000000	15.226036
564.000000	15.268348
565.000000	15.305193
566.000000	15.332142
567.000000	15.351767
568.000000	15.363282
569.000000	15.366339
570.000000	15.401600
571.000000	15.435219
572.000000	15.464572
573.000000	15.488744
574.000000	15.511844
575.000000	15.530195
576.000000	15.545593
577.000000	15.556153
578.000000	15.563683
579.000000	15.565801
580.000000	15.561456
581.000000	15.549696
582.000000	15.529142
583.000000	15.501490
584.000000	15.463337
585.000000	15.416143
586.000000	15.363474
587.000000	15.305597
588.000000	15.241807
589.000000	15.175179
590.000000	15.107859
591.000000	15.043374
592.000000	14.983242
593.000000	14.927734
594.000000	14.878717
595.000000	14.839230
596.000000	14.805333
597.000000	14.776656
598.000000	14.755191
599.000000	14.741209
600.000000	14.731338
601.000000	14.725522
602.000000	14.720238
603.000000	14.714566
604.000000	14.706892
605.000000	14.695605
606.000000	14.677539
607.000000	14.653758
608.000000	14.621232
609.000000	14.575486
610.000000	14.518113
611.000000	14.445863
612.000000	14.360519
613.000000	14.261050
614.000000	14.148104
615.000000	14.021854
616.000000	13.888090
617.000000	13.744630
618.000000	13.594884
619.000000	13.442348
620.000000	13.288137
621.000000	13.137488
622.000000	12.990367
623.000000	12.849795
624.000000	12.717537
625.000000	12.592895
626.000000	12.477016
627.000000	12.371538
628.000000	12.276119
629.000000	12.190665
630.000000	12.113844
631.000000	12.042802
632.000000	11.978793
633.000000	11.919535
634.000000	11.864659
635.000000	11.812993
636.000000	11.762638
637.000000	11.711761
638.000000	11.659558
639.000000	11.604474
640.000000	11.547633
641.000000	11.488181
642.000000	11.426147
643.000000	11.360993
644.000000	11.292758
645.000000	11.220340
646.000000	11.146137
647.000000	11.073744
648.000000	11.001296
649.000000	10.931211
650.000000	10.865647
651.000000	10.808987
652.000000	10.759648
653.000000	10.722534
654.000000	10.697980
655.000000	10.691411
656.000000	10.702839
657.000000	10.732045
658.000000	10.782733
659.000000	10.855205
660.000000	10.946446
661.000000	11.054432
662.000000	11.180385
663.000000	11.319437
664.000000	11.471168
665.000000	11.630938
666.000000	11.794748
667.000000	11.960889
668.000000	12.122353
669.000000	12.277649
670.000000	12.425888
671.000000	12.562825
672.000000	12.686164
673.000000	12.795219
674.000000	12.887792
675.000000	12.963943
676.000000	13.023639
677.000000	13.067976
678.000000	13.100347
679.000000	13.119987
680.000000	13.129515
681.000000	13.130094
682.000000	13.125595
683.000000	13.118074
684.000000	13.110149
685.000000	13.102749
686.000000	13.097251
687.000000	13.097368
688.000000	13.103272
689.000000	13.116220
690.000000	13.136706
691.000000	13.167304
692.000000	13.204548
693.000000	13.248154
694.000000	13.298972
695.000000	13.354799
696.000000	13.417315
697.000000	13.482129
698.000000	13.548963
699.000000	13.616287
700.000000	13.682510
701.000000	13.746501
702.000000	13.809803
703.000000	13.871770
704.000000	13.929869
705.000000	13.985527
706.000000	14.036494
707.000000	14.085086
708.000000	14.131227
709.000000	14.174967
710.000000	14.215526
711.000000	14.253076
712.000000	14.288674
713.000000	14.322614
714.000000	14.356295
715.000000	14.390819
716.000000	14.427030
717.000000	14.461228
718.000000	14.495521
719.000000	14.532031
720.000000	14.570685
721.000000	14.612984
722.000000	14.657525
723.000000	14.705748
724.000000	14.754744
725.000000	14.804581
726.000000	14.856148
727.000000	14.910382
728.000000	14.966356
729.000000	15.022162
730.000000	15.078410
731.000000	15.134073
732.000000	15.188678
733.000000	15.241104
734.000000	15.292662
735.000000	15.343061
736.000000	15.391202
737.000000	15.436771
738.000000	15.479281
739.000000	15.519552
740.000000	15.557820
741.000000	15.592384
742.000000	15.623608
743.000000	15.653059
744.000000	15.680152
745.000000	15.704161
746.000000	15.727140
747.000000	15.748422
748.000000	15.768762
749.000000	15.787675
750.000000	15.804437
751.000000	15.821524
752.000000	15.838145
753.000000	15.853437
754.000000	15.870416
755.000000	15.889400
756.000000	15.909630
757.000000	15.931781
758.000000	15.953248
759.000000	15.976045
760.000000	16.002251
761.000000	16.031386
762.000000	16.063342
763.000000	16.097507
764.000000	16.132073
765.000000	16.167743
766.000000	16.204621
767.000000	16.239336
768.000000	16.276164
769.000000	16.315399
770.000000	16.351699
771.000000	16.387332
772.000000	16.419907
773.000000	16.450262
774.000000	16.481790
775.000000	16.512664
776.000000	16.539950
777.000000	16.567599
778.000000	16.592899
779.000000	16.616116
780.000000	16.640373
781.000000	16.659627
782.000000	16.678413
783.000000	16.699740
784.000000	16.720021
785.000000	16.740022
786.000000	16.760888
787.000000	16.783782
788.000000	16.811539
789.000000	16.838296
790.000000	16.864503
791.000000	16.891456
792.000000	16.921473
793.000000	16.950973
794.000000	16.977065
795.000000	17.001697
796.000000	17.025121
797.000000	17.046483
798.000000	17.063906
799.000000	17.082429
800.000000	17.098428
801.000000	17.116352
802.000000	17.130670
803.000000	17.142205
804.000000	17.154638
805.000000	17.166935
806.000000	17.177930
807.000000	17.189195
808.000000	17.209733
809.000000	17.235143
810.000000	17.264645
811.000000	17.292614
812.000000	17.327087
813.000000	17.363228
814.000000	17.402506
815.000000	17.446273
816.000000	17.491198
817.000000	17.534276
818.000000	17.566296
819.000000	17.595966
820.000000	17.624354
821.000000	17.654557
822.000000	17.678170
823.000000	17.701828
824.000000	17.720449
825.000000	17.733200
826.000000	17.742869
827.000000	17.759706
828.000000	17.773449
829.000000	17.782910
830.000000	17.792894
831.000000	17.801210
832.000000	17.815667
833.000000	17.830334
834.000000	17.848960
835.000000	17.872527
836.000000	17.898487
837.000000	17.919159
838.000000	17.950953
839.000000	17.982839
840.000000	18.013530
841.000000	18.033484
842.000000	18.051299
843.000000	18.062592
844.000000	18.071720
845.000000	18.074347
846.000000	18.074277
847.000000	18.080310
848.000000	18.075806
849.000000	18.060461
850.000000	18.053171
851.000000	18.050070
852.000000	18.057927
853.000000	18.065921
854.000000	18.081001
855.000000	18.098075
856.000000	18.103120
857.000000	18.101334
858.000000	18.132884
859.000000	18.181129
860.000000	18.220197
861.000000	18.267554
862.000000	18.305999
863.000000	18.352174
864.000000	18.396375
865.000000	18.444629
866.000000	18.510757
867.000000	18.577697
868.000000	18.616383
869.000000	18.649710
870.000000	18.686443
871.000000	18.723573
872.000000	18.756663
873.000000	18.788220
874.000000	18.816953
875.000000	18.842130
876.000000	18.868593
877.000000	18.894990
878.000000	18.922113
879.000000	18.949330
880.000000	18.975410
881.000000	19.003913
882.000000	19.032230
883.000000	19.060533
884.000000	19.088930
885.000000	19.117840
886.000000	19.145210
887.000000	19.171940
888.000000	19.197150
889.000000	19.224580
890.000000	19.250610
891.000000	19.274803
892.000000	19.297800
893.000000	19.321393
894.000000	19.343373
895.000000	19.365890
896.000000	19.388757
897.000000	19.415860
898.000000	19.442920
899.000000	19.469380
900.000000	19.498580
901.000000	19.528207
902.000000	19.560100
903.000000	19.591030
904.000000	19.623363
905.000000	19.657203
906.000000	19.687637
907.000000	19.716543
908.000000	19.745730
909.000000	19.773620
910.000000	19.799637
911.000000	19.822623
912.000000	19.842787
913.000000	19.859660
914.000000	19.877853
915.000000	19.893410
916.000000	19.909777
917.000000	19.923670
918.000000	19.936607
919.000000	19.950037
920.000000	19.963277
921.000000	19.977750
922.000000	19.994097
923.000000	20.012270
924.000000	20.027240
925.000000	20.038490
926.000000	20.050177
927.000000	20.059397
928.000000	20.067863
929.000000	20.069487
930.000000	20.067653
931.000000	20.063070
932.000000	20.052827
933.000000	20.042713
934.000000	20.031717
935.000000	20.023237
936.000000	20.012533
937.000000	20.001720
938.000000	19.991260
939.000000	19.983603
940.000000	19.977607
941.000000	19.969633
942.000000	19.964703
943.000000	19.958790
944.000000	19.951937
945.000000	19.946613
946.000000	19.944487
947.000000	19.942030
948.000000	19.938960
949.000000	19.934633
950.000000	19.928743
951.000000	19.925213
952.000000	19.921310
953.000000	19.915043
954.000000	19.909803
955.000000	19.902903
956.000000	19.890427
957.000000	19.877930
958.000000	19.863837
959.000000	19.850740
960.000000	19.839227
961.000000	19.827307
962.000000	19.815780
963.000000	19.805167
964.000000	19.794447
965.000000	19.784093
966.000000	19.776233
967.000000	19.769893
968.000000	19.763770
969.000000	19.759560
970.000000	19.754357
971.000000	19.749167
972.000000	19.744293
973.000000	19.739873
974.000000	19.733793
975.000000	19.725047
976.000000	19.716033
977.000000	19.704793
978.000000	19.693203
979.000000	19.679833
980.000000	19.664897
981.000000	19.648763
982.000000	19.631890
983.000000	19.614070
984.000000	19.596443
985.000000	19.578943
986.000000	19.559857
987.000000	19.541643
988.000000	19.522757
989.000000	19.504110
990.000000	19.487117
991.000000	19.472280
992.000000	19.458020
993.000000	19.444483
994.000000	19.430820
995.000000	19.417330
996.000000	19.405340
997.000000	19.394493
998.000000	19.383687
999.000000	19.371940
1000.000000	19.359147
1001.000000	19.345053
1002.000000	19.330127
1003.000000	19.313367
1004.000000	19.295383
1005.000000	19.278150
1006.000000	19.260727
1007.000000	19.242570
1008.000000	19.224703
1009.000000	19.207720
1010.000000	19.191877
1011.000000	19.177083
1012.000000	19.163537
1013.000000	19.152203
1014.000000	19.143153
1015.000000	19.135550
1016.000000	19.129107
1017.000000	19.124477
1018.000000	19.122233
1019.000000	19.121967
1020.000000	19.122087
1021.000000	19.121970
1022.000000	19.122763
1023.000000	19.124903
1024.000000	19.127623
1025.000000	19.130923
1026.000000	19.133763
1027.000000	19.135660
1028.000000	19.138293
1029.000000	19.140453
1030.000000	19.143163
1031.000000	19.147187
1032.000000	19.152533
1033.000000	19.158407
1034.000000	19.163413
1035.000000	19.168220
1036.000000	19.172927
1037.000000	19.178647
1038.000000	19.185190
1039.000000	19.191727
1040.000000	19.198603
1041.000000	19.205853
1042.000000	19.211697
1043.000000	19.216777
1044.000000	19.222587
1045.000000	19.228863
1046.000000	19.236427
1047.000000	19.243087
1048.000000	19.248750
1049.000000	19.255720
1050.000000	19.261980
1051.000000	19.266360
1052.000000	19.270177
1053.000000	19.274390
1054.000000	19.278630
1055.000000	19.281270
1056.000000	19.281930
1057.000000	19.282880
1058.000000	19.283250
1059.000000	19.282250
1060.000000	19.281240
1061.000000	19.280873
1062.000000	19.280813
1063.000000	19.279580
1064.000000	19.277727
1065.000000	19.277397
1066.000000	19.278623
1067.000000	19.278803
1068.000000	19.278700
1069.000000	19.280447
1070.000000	19.282137
1071.000000	19.283707
1072.000000	19.284933
1073.000000	19.286767
1074.000000	19.288637
1075.000000	19.289347
1076.000000	19.290210
1077.000000	19.292127
1078.000000	19.294243
1079.000000	19.294450
1080.000000	19.294957
1081.000000	19.296040
1082.000000	19.297150
1083.000000	19.297757
1084.000000	19.298110
1085.000000	19.299023
1086.000000	19.299413
1087.000000	19.300290
1088.000000	19.301330
1089.000000	19.302600
1090.000000	19.304320
1091.000000	19.306287
1092.000000	19.308673
1093.000000	19.311843
1094.000000	19.316097
1095.000000	19.320390
1096.000000	19.325040
1097.000000	19.329807
1098.000000	19.334637
1099.000000	19.339933
1100.000000	19.345760
1101.000000	19.351247
1102.000000	19.356313
1103.000000	19.362963
1104.000000	19.370023
1105.000000	19.377113
1106.000000	19.384057
1107.000000	19.391340
1108.000000	19.398843
1109.000000	19.405653
1110.000000	19.412377
1111.000000	19.419753
1112.000000	19.428913
1113.000000	19.436417
1114.000000	19.442107
1115.000000	19.448020
1116.000000	19.453503
1117.000000	19.458647
1118.000000	19.464550
1119.000000	19.470890
1120.000000	19.476443
1121.000000	19.481857
1122.000000	19.486910
1123.000000	19.493340
1124.000000	19.500350
1125.000000	19.507213
1126.000000	19.513853
1127.000000	19.519350
1128.000000	19.522377
1129.000000	19.525417
1130.000000	19.527283
1131.000000	19.526253
1132.000000	19.519820
1133.000000	19.508113
1134.000000	19.497740
1135.000000	19.491763
1136.000000	19.487227
1137.000000	19.479783
1138.000000	19.468513
1139.000000	19.454650
1140.000000	19.440227
1141.000000	19.427460
1142.000000	19.416367
1143.000000	19.407270
1144.000000	19.395580
1145.000000	19.379330
1146.000000	19.360973
1147.000000	19.346710
1148.000000	19.336023
1149.000000	19.325717
1150.000000	19.316093
1151.000000	19.305650
1152.000000	19.295797
1153.000000	19.286357
1154.000000	19.278013
1155.000000	19.267680
1156.000000	19.257437
1157.000000	19.242997
1158.000000	19.226053
1159.000000	19.208157
1160.000000	19.186710
1161.000000	19.162920
1162.000000	19.137987
1163.000000	19.108053
1164.000000	19.076283
1165.000000	19.042460
1166.000000	19.008030
1167.000000	18.972710
1168.000000	18.937917
1169.000000	18.902150
1170.000000	18.870133
1171.000000	18.837450
1172.000000	18.807660
1173.000000	18.782267
1174.000000	18.756947
1175.000000	18.733127
1176.000000	18.709840
1177.000000	18.689223
1178.000000	18.669940
1179.000000	18.653210
1180.000000	18.634613
1181.000000	18.619380
1182.000000	18.602700
1183.000000	18.586193
1184.000000	18.571277
1185.000000	18.558373
1186.000000	18.547087
1187.000000	18.537190
1188.000000	18.526230
1189.000000	18.517510
1190.000000	18.511420
1191.000000	18.507890
1192.000000	18.507290
1193.000000	18.510227
1194.000000	18.516130
1195.000000	18.523170
1196.000000	18.529607
1197.000000	18.537603
1198.000000	18.550053
1199.000000	18.564007
1200.000000	18.577990
1201.000000	18.591490
1202.000000	18.605383
1203.000000	18.618840
1204.000000	18.631590
1205.000000	18.645387
1206.000000	18.660483
1207.000000	18.676780
1208.000000	18.692767
1209.000000	18.708223
1210.000000	18.725310
1211.000000	18.742627
1212.000000	18.759023
1213.000000	18.775567
1214.000000	18.792533
1215.000000	18.809153
1216.000000	18.826387
1217.000000	18.841833
1218.000000	18.857293
1219.000000	18.870473
1220.000000	18.881187
1221.000000	18.891967
1222.000000	18.903283
1223.000000	18.913773
1224.000000	18.922823
1225.000000	18.930757
1226.000000	18.938480
1227.000000	18.944797
1228.000000	18.949553
1229.000000	18.955790
1230.000000	18.961823
1231.000000	18.966480
1232.000000	18.970487
1233.000000	18.973923
1234.000000	18.977470
1235.000000	18.980973
1236.000000	18.982103
1237.000000	18.983033
1238.000000	18.985737
1239.000000	18.987493
1240.000000	18.990367
1241.000000	18.993233
1242.000000	18.995157
1243.000000	18.998383
1244.000000	19.002880
1245.000000	19.007167
1246.000000	19.013340
1247.000000	19.021770
1248.000000	19.030403
1249.000000	19.040613
1250.000000	19.051687
1251.000000	19.063783
1252.000000	19.076887
1253.000000	19.088957
1254.000000	19.100050
1255.000000	19.113690
1256.000000	19.127317
1257.000000	19.138850
1258.000000	19.149917
1259.000000	19.160367
1260.000000	19.169197
1261.000000	19.176470
1262.000000	19.184250
1263.000000	19.192340
1264.000000	19.198920
1265.000000	19.203510
1266.000000	19.208050
1267.000000	19.212690
1268.000000	19.215693
1269.000000	19.216713
1270.000000	19.217980
1271.000000	19.220953
1272.000000	19.222577
1273.000000	19.222603
1274.000000	19.222197
1275.000000	19.220313
1276.000000	19.217707
1277.000000	19.215920
1278.000000	19.214117
1279.000000	19.212147
1280.000000	19.210300
1281.000000	19.206743
1282.000000	19.203327
1283.000000	19.201677
1284.000000	19.200280
1285.000000	19.199873
1286.000000	19.199393
1287.000000	19.198783
1288.000000	19.199473
1289.000000	19.201883
1290.000000	19.204540
1291.000000	19.208330
1292.000000	19.212360
1293.000000	19.215103
1294.000000	19.218377
1295.000000	19.222120
1296.000000	19.226233
1297.000000	19.230547
1298.000000	19.233763
1299.000000	19.235763
1300.000000	19.238160
1301.000000	19.240103
1302.000000	19.241147
1303.000000	19.242427
1304.000000	19.244027
1305.000000	19.245140
1306.000000	19.244577
1307.000000	19.242973
1308.000000	19.240707
1309.000000	19.237983
1310.000000	19.234383
1311.000000	19.230110
1312.000000	19.226530
1313.000000	19.222260
1314.000000	19.215987
1315.000000	19.207647
1316.000000	19.198377
1317.000000	19.188067
1318.000000	19.178457
1319.000000	19.169300
1320.000000	19.159047
1321.000000	19.147510
1322.000000	19.134127
1323.000000	19.119940
1324.000000	19.105187
1325.000000	19.090380
1326.000000	19.075757
1327.000000	19.061890
1328.000000	19.046757
1329.000000	19.030850
1330.000000	19.014120
1331.000000	18.996180
1332.000000	18.977277
1333.000000	18.956857
1334.000000	18.936783
1335.000000	18.917030
1336.000000	18.896990
1337.000000	18.874873
1338.000000	18.850880
1339.000000	18.825443
1340.000000	18.800080
1341.000000	18.774323
1342.000000	18.747680
1343.000000	18.720287
1344.000000	18.691183
1345.000000	18.659830
1346.000000	18.626440
1347.000000	18.593293
1348.000000	18.560833
1349.000000	18.526903
1350.000000	18.488387
1351.000000	18.449367
1352.000000	18.408203
1353.000000	18.365807
1354.000000	18.325620
1355.000000	18.292167
1356.000000	18.261673
1357.000000	18.229167
1358.000000	18.193967
1359.000000	18.156883
1360.000000	18.122047
1361.000000	18.095993
1362.000000	18.081433
1363.000000	18.066420
1364.000000	18.046943
1365.000000	18.025323
1366.000000	17.998700
1367.000000	17.967450
1368.000000	17.939937
1369.000000	17.911733
1370.000000	17.877080
1371.000000	17.829680
1372.000000	17.767463
1373.000000	17.692450
1374.000000	17.605427
1375.000000	17.500753
1376.000000	17.385257
1377.000000	17.260003
1378.000000	17.116770
1379.000000	16.960163
1380.000000	16.799097
1381.000000	16.640997
1382.000000	16.493483
1383.000000	16.364837
1384.000000	16.250270
1385.000000	16.147553
1386.000000	16.057090
1387.000000	15.984943
1388.000000	15.936300
1389.000000	15.909103
1390.000000	15.891520
1391.000000	15.876597
1392.000000	15.864383
1393.000000	15.851907
1394.000000	15.840700
1395.000000	15.840293
1396.000000	15.854280
1397.000000	15.865650
1398.000000	15.860983
1399.000000	15.848083
1400.000000	15.848567
1401.000000	15.857603
1402.000000	15.853113
1403.000000	15.834520
1404.000000	15.812797
1405.000000	15.783987
1406.000000	15.740020
1407.000000	15.693873
1408.000000	15.654673
1409.000000	15.618747
1410.000000	15.568877
1411.000000	15.502153
1412.000000	15.433120
1413.000000	15.372157
1414.000000	15.313973
1415.000000	15.253693
1416.000000	15.187167
1417.000000	15.114613
1418.000000	15.042953
1419.000000	14.973967
1420.000000	14.905887
1421.000000	14.837863
1422.000000	14.774573
1423.000000	14.712627
1424.000000	14.648713
1425.000000	14.583277
1426.000000	14.522333
1427.000000	14.467737
1428.000000	14.414373
1429.000000	14.357107
1430.000000	14.298223
1431.000000	14.245483
1432.000000	14.197533
1433.000000	14.149157
1434.000000	14.100453
1435.000000	14.052740
1436.000000	14.009203
1437.000000	13.968880
1438.000000	13.929943
1439.000000	13.892383
1440.000000	13.856493
1441.000000	13.822753
1442.000000	13.787513
1443.000000	13.754173
1444.000000	13.723593
1445.000000	13.698507
1446.000000	13.674743
1447.000000	13.648330
1448.000000	13.618790
1449.000000	13.588207
1450.000000	13.563063
1451.000000	13.539937
1452.000000	13.516330
1453.000000	13.492247
1454.000000	13.468707
1455.000000	13.441297
1456.000000	13.411723
1457.000000	13.385143
1458.000000	13.361063
1459.000000	13.337613
1460.000000	13.311500
1461.000000	13.283743
1462.000000	13.256557
1463.000000	13.230887
1464.000000	13.205423
1465.000000	13.179520
1466.000000	13.155057
1467.000000	13.130437
1468.000000	13.102950
1469.000000	13.077300
1470.000000	13.054033
1471.000000	13.031997
1472.000000	13.011447
1473.000000	12.990300
1474.000000	12.967400
1475.000000	12.943993
1476.000000	12.922080
1477.000000	12.900967
1478.000000	12.884663
1479.000000	12.868387
1480.000000	12.850877
1481.000000	12.833107
1482.000000	12.815363
1483.000000	12.799457
1484.000000	12.786333
1485.000000	12.776017
1486.000000	12.766367
1487.000000	12.757047
1488.000000	12.746850
1489.000000	12.737453
1490.000000	12.728117
1491.000000	12.719450
1492.000000	12.712423
1493.000000	12.704657
1494.000000	12.697633
1495.000000	12.691053
1496.000000	12.684647
1497.000000	12.678927
1498.000000	12.675660
1499.000000	12.674160
1500.000000	12.674670
1501.000000	12.675953
1502.000000	12.679200
1503.000000	12.685217
1504.000000	12.693607
1505.000000	12.703703
1506.000000	12.715550
1507.000000	12.729873
1508.000000	12.745690
1509.000000	12.762723
1510.000000	12.781067
1511.000000	12.801327
1512.000000	12.820897
1513.000000	12.840967
1514.000000	12.860913
1515.000000	12.881567
1516.000000	12.902427
1517.000000	12.923410
1518.000000	12.943063
1519.000000	12.961923
1520.000000	12.980440
1521.000000	12.998593
1522.000000	13.018297
1523.000000	13.037697
1524.000000	13.056307
1525.000000	13.074260
1526.000000	13.092363
1527.000000	13.109517
1528.000000	13.126950
1529.000000	13.145083
1530.000000	13.163460
1531.000000	13.181013
1532.000000	13.197050
1533.000000	13.211767
1534.000000	13.226070
1535.000000	13.240520
1536.000000	13.253957
1537.000000	13.267097
1538.000000	13.279597
1539.000000	13.291187
1540.000000	13.301687
1541.000000	13.312520
1542.000000	13.322057
1543.000000	13.331703
1544.000000	13.341377
1545.000000	13.350797
1546.000000	13.360770
1547.000000	13.372180
1548.000000	13.384247
1549.000000	13.396597
1550.000000	13.409747
1551.000000	13.422843
1552.000000	13.438307
1553.000000	13.455103
1554.000000	13.471900
1555.000000	13.488170
1556.000000	13.503557
1557.000000	13.516900
1558.000000	13.528887
1559.000000	13.539647
1560.000000	13.549030
1561.000000	13.555853
1562.000000	13.560413
1563.000000	13.563653
1564.000000	13.564410
1565.000000	13.563447
1566.000000	13.561223
1567.000000	13.557220
1568.000000	13.551773
1569.000000	13.545750
1570.000000	13.538807
1571.000000	13.532140
1572.000000	13.525013
1573.000000	13.516807
1574.000000	13.510177
1575.000000	13.504443
1576.000000	13.498403
1577.000000	13.494053
1578.000000	13.491333
1579.000000	13.489323
1580.000000	13.488607
1581.000000	13.488803
1582.000000	13.489650
1583.000000	13.491407
1584.000000	13.493793
1585.000000	13.497430
1586.000000	13.502350
1587.000000	13.507377
1588.000000	13.513370
1589.000000	13.520180
1590.000000	13.527673
1591.000000	13.535440
1592.000000	13.543607
1593.000000	13.552440
1594.000000	13.561180
1595.000000	13.570113
1596.000000	13.580347
1597.000000	13.590613
1598.000000	13.600660
1599.000000	13.611000
1600.000000	13.620333
1601.000000	13.630650
1602.000000	13.643170
1603.000000	13.656087
1604.000000	13.669467
1605.000000	13.682783
1606.000000	13.695557
1607.000000	13.709050
1608.000000	13.722250
1609.000000	13.735363
1610.000000	13.749553
1611.000000	13.762777
1612.000000	13.773510
1613.000000	13.783297
1614.000000	13.792310
1615.000000	13.800293
1616.000000	13.806913
1617.000000	13.812587
1618.000000	13.817770
1619.000000	13.822260
1620.000000	13.825923
1621.000000	13.829560
1622.000000	13.833673
1623.000000	13.837737
1624.000000	13.842010
1625.000000	13.846523
1626.000000	13.852147
1627.000000	13.857153
1628.000000	13.861343
1629.000000	13.866217
1630.000000	13.871340
1631.000000	13.876507
1632.000000	13.882487
1633.000000	13.887780
1634.000000	13.892800
1635.000000	13.897457
1636.000000	13.901287
1637.000000	13.905350
1638.000000	13.910087
1639.000000	13.913933
1640.000000	13.916807
1641.000000	13.919267
1642.000000	13.921407
1643.000000	13.923037
1644.000000	13.924203
1645.000000	13.925230
1646.000000	13.925617
1647.000000	13.926033
1648.000000	13.927570
1649.000000	13.927903
1650.000000	13.927417
1651.000000	13.926290
1652.000000	13.923860
1653.000000	13.919727
1654.000000	13.914707
1655.000000	13.908703
1656.000000	13.901603
1657.000000	13.892637
1658.000000	13.880163
1659.000000	13.866360
1660.000000	13.850493
1661.000000	13.832640
1662.000000	13.811717
1663.000000	13.789787
1664.000000	13.765137
1665.000000	13.737153
1666.000000	13.706347
1667.000000	13.673217
1668.000000	13.634513
1669.000000	13.591980
1670.000000	13.547283
1671.000000	13.501407
1672.000000	13.453550
1673.000000	13.405833
1674.000000	13.356447
1675.000000	13.306247
1676.000000	13.256537
1677.000000	13.204400
1678.000000	13.155147
1679.000000	13.108167
1680.000000	13.058557
1681.000000	13.006810
1682.000000	12.954720
1683.000000	12.899067
1684.000000	12.843800
1685.000000	12.788513
1686.000000	12.733283
1687.000000	12.681563
1688.000000	12.634253
1689.000000	12.591710
1690.000000	12.556733
1691.000000	12.529947
1692.000000	12.509950
1693.000000	12.497640
1694.000000	12.493267
1695.000000	12.493330
1696.000000	12.499607
1697.000000	12.509263
1698.000000	12.518297
1699.000000	12.525903
1700.000000	12.535013
1701.000000	12.541570
1702.000000	12.545640
1703.000000	12.548003
1704.000000	12.546130
1705.000000	12.543903
1706.000000	12.537523
1707.000000	12.528627
1708.000000	12.516620
1709.000000	12.503267
1710.000000	12.484537
1711.000000	12.461190
1712.000000	12.435213
1713.000000	12.406907
1714.000000	12.373543
1715.000000	12.335823
1716.000000	12.293733
1717.000000	12.248847
1718.000000	12.202463
1719.000000	12.150637
1720.000000	12.098707
1721.000000	12.046483
1722.000000	11.997070
1723.000000	11.949387
1724.000000	11.907650
1725.000000	11.871320
1726.000000	11.842410
1727.000000	11.818870
1728.000000	11.802417
1729.000000	11.794457
1730.000000	11.793147
1731.000000	11.797547
1732.000000	11.804097
1733.000000	11.814207
1734.000000	11.827417
1735.000000	11.841697
1736.000000	11.857097
1737.000000	11.873170
1738.000000	11.890307
1739.000000	11.909077
1740.000000	11.928320
1741.000000	11.948753
1742.000000	11.970937
1743.000000	11.992907
1744.000000	12.014080
1745.000000	12.036240
1746.000000	12.057130
1747.000000	12.079680
1748.000000	12.100807
1749.000000	12.120823
1750.000000	12.137913
1751.000000	12.154430
1752.000000	12.167500
1753.000000	12.178623
1754.000000	12.188820
1755.000000	12.197327
1756.000000	12.204570
1757.000000	12.209413
1758.000000	12.212993
1759.000000	12.213907
1760.000000	12.214503
1761.000000	12.214320
1762.000000	12.215647
1763.000000	12.217610
1764.000000	12.219383
1765.000000	12.222550
1766.000000	12.226793
1767.000000	12.231847
1768.000000	12.237627
1769.000000	12.245073
1770.000000	12.254977
1771.000000	12.265463
1772.000000	12.275110
1773.000000	12.285263
1774.000000	12.296573
1775.000000	12.307773
1776.000000	12.319037
1777.000000	12.329270
1778.000000	12.340813
1779.000000	12.352680
1780.000000	12.363790
1781.000000	12.375273
1782.000000	12.388457
1783.000000	12.399353
1784.000000	12.408303
1785.000000	12.416110
1786.000000	12.423710
1787.000000	12.431200
1788.000000	12.434593
1789.000000	12.435773
1790.000000	12.435400
1791.000000	12.433980
1792.000000	12.432280
1793.000000	12.431260
1794.000000	12.430920
1795.000000	12.430297
1796.000000	12.429393
1797.000000	12.427980
1798.000000	12.426697
1799.000000	12.425717
1800.000000	12.426283
1801.000000	12.429077
1802.000000	12.431840
1803.000000	12.433710
1804.000000	12.433800
1805.000000	12.433783
1806.000000	12.435013
1807.000000	12.438977
1808.000000	12.443513
1809.000000	12.444570
1810.000000	12.442863
1811.000000	12.441323
1812.000000	12.440860
1813.000000	12.441200
1814.000000	12.441473
1815.000000	12.442163
1816.000000	12.440713
1817.000000	12.433700
1818.000000	12.422090
1819.000000	12.412393
1820.000000	12.410807
1821.000000	12.416983
1822.000000	12.425277
1823.000000	12.428123
1824.000000	12.421407
1825.000000	12.409163
1826.000000	12.398093
1827.000000	12.393200
1828.000000	12.396257
1829.000000	12.403657
1830.000000	12.407923
1831.000000	12.403757
1832.000000	12.392030
1833.000000	12.379427
1834.000000	12.371430
1835.000000	12.367897
1836.000000	12.368637
1837.000000	12.371670
1838.000000	12.374717
1839.000000	12.376203
1840.000000	12.377297
1841.000000	12.384640
1842.000000	12.402497
1843.000000	12.423900
1844.000000	12.437567
1845.000000	12.437120
1846.000000	12.427543
1847.000000	12.422720
1848.000000	12.433553
1849.000000	12.453853
1850.000000	12.464647
1851.000000	12.454480
1852.000000	12.429793
1853.000000	12.408067
1854.000000	12.401553
1855.000000	12.411450
1856.000000	12.423073
1857.000000	12.418203
1858.000000	12.393343
1859.000000	12.362533
1860.000000	12.341930
1861.000000	12.335010
1862.000000	12.332037
1863.000000	12.321300
1864.000000	12.297583
1865.000000	12.261250
1866.000000	12.217653
1867.000000	12.173250
1868.000000	12.126767
1869.000000	12.074983
1870.000000	12.022813
1871.000000	11.975337
1872.000000	11.932297
1873.000000	11.899050
1874.000000	11.875980
1875.000000	11.858653
1876.000000	11.845227
1877.000000	11.830807
1878.000000	11.813403
1879.000000	11.787070
1880.000000	11.743347
1881.000000	11.680433
1882.000000	11.605663
1883.000000	11.520797
1884.000000	11.428387
1885.000000	11.330853
1886.000000	11.227627
1887.000000	11.117560
1888.000000	10.998297
1889.000000	10.873147
1890.000000	10.749013
1891.000000	10.627410
1892.000000	10.505717
1893.000000	10.380380
1894.000000	10.246510
1895.000000	10.102203
1896.000000	9.947960
1897.000000	9.788737
1898.000000	9.630120
1899.000000	9.477947
1900.000000	9.327643
1901.000000	9.173850
1902.000000	9.015553
1903.000000	8.853357
1904.000000	8.695293
1905.000000	8.549330
1906.000000	8.417503
1907.000000	8.295900
1908.000000	8.177813
1909.000000	8.053413
1910.000000	7.925947
1911.000000	7.800887
1912.000000	7.685247
1913.000000	7.581807
1914.000000	7.487157
1915.000000	7.393673
1916.000000	7.299850
1917.000000	7.204613
1918.000000	7.111433
1919.000000	7.028090
1920.000000	6.956877
1921.000000	6.895493
1922.000000	6.837043
1923.000000	6.778343
1924.000000	6.719900
1925.000000	6.662897
1926.000000	6.610930
1927.000000	6.568123
1928.000000	6.533637
1929.000000	6.505687
1930.000000	6.479810
1931.000000	6.454123
1932.000000	6.429927
1933.000000	6.407950
1934.000000	6.389020
1935.000000	6.374383
1936.000000	6.361787
1937.000000	6.351993
1938.000000	6.346127
1939.000000	6.342067
1940.000000	6.338390
1941.000000	6.338293
1942.000000	6.341093
1943.000000	6.344860
1944.000000	6.352580
1945.000000	6.364017
1946.000000	6.377317
1947.000000	6.393723
1948.000000	6.409857
1949.000000	6.424343
1950.000000	6.440290
1951.000000	6.457017
1952.000000	6.472893
1953.000000	6.492737
1954.000000	6.514740
1955.000000	6.536200
1956.000000	6.558380
1957.000000	6.580750
1958.000000	6.603300
1959.000000	6.627777
1960.000000	6.652823
1961.000000	6.677033
1962.000000	6.705573
1963.000000	6.732290
1964.000000	6.756173
1965.000000	6.782387
1966.000000	6.807963
1967.000000	6.830683
1968.000000	6.855217
1969.000000	6.878490
1970.000000	6.902140
1971.000000	6.925980
1972.000000	6.946380
1973.000000	6.967863
1974.000000	6.991513
1975.000000	7.014223
1976.000000	7.034660
1977.000000	7.058123
1978.000000	7.080130
1979.000000	7.104247
1980.000000	7.128623
1981.000000	7.153573
1982.000000	7.179037
1983.000000	7.205513
1984.000000	7.229147
1985.000000	7.252087
1986.000000	7.278393
1987.000000	7.302523
1988.000000	7.326987
1989.000000	7.350673
1990.000000	7.373967
1991.000000	7.396920
1992.000000	7.419653
1993.000000	7.440607
1994.000000	7.462447
1995.000000	7.482720
1996.000000	7.502470
1997.000000	7.523190
1998.000000	7.543027
1999.000000	7.560847
2000.000000	7.577447
2001.000000	7.594803
2002.000000	7.610477
2003.000000	7.626187
2004.000000	7.640497
2005.000000	7.654547
2006.000000	7.668310
2007.000000	7.679427
2008.000000	7.688397
2009.000000	7.696743
2010.000000	7.702907
2011.000000	7.706897
2012.000000	7.710607
2013.000000	7.711247
2014.000000	7.711540
2015.000000	7.710877
2016.000000	7.707223
2017.000000	7.702767
2018.000000	7.697593
2019.000000	7.690807
2020.000000	7.682830
2021.000000	7.674037
2022.000000	7.661380
2023.000000	7.648717
2024.000000	7.633523
2025.000000	7.616293
2026.000000	7.598353
2027.000000	7.577307
2028.000000	7.555353
2029.000000	7.533160
2030.000000	7.510430
2031.000000	7.483563
2032.000000	7.456740
2033.000000	7.428213
2034.000000	7.398530
2035.000000	7.366847
2036.000000	7.333083
2037.000000	7.299023
2038.000000	7.262483
2039.000000	7.223967
2040.000000	7.183337
2041.000000	7.142283
2042.000000	7.100470
2043.000000	7.057113
2044.000000	7.012113
2045.000000	6.966717
2046.000000	6.922390
2047.000000	6.877393
2048.000000	6.833927
2049.000000	6.791480
2050.000000	6.750390
2051.000000	6.711503
2052.000000	6.675903
2053.000000	6.644463
2054.000000	6.616997
2055.000000	6.595113
2056.000000	6.576657
2057.000000	6.564153
2058.000000	6.556880
2059.000000	6.553010
2060.000000	6.554447
2061.000000	6.560917
2062.000000	6.571270
2063.000000	6.584550
2064.000000	6.600773
2065.000000	6.619290
2066.000000	6.640397
2067.000000	6.662783
2068.000000	6.684813
2069.000000	6.709010
2070.000000	6.734110
2071.000000	6.758730
2072.000000	6.782207
2073.000000	6.805200
2074.000000	6.826593
2075.000000	6.846597
2076.000000	6.866197
2077.000000	6.884660
2078.000000	6.901740
2079.000000	6.916920
2080.000000	6.929163
2081.000000	6.939600
2082.000000	6.948783
2083.000000	6.955817
2084.000000	6.961253
2085.000000	6.964240
2086.000000	6.964410
2087.000000	6.962247
2088.000000	6.959323
2089.000000	6.955843
2090.000000	6.950920
2091.000000	6.943140
2092.000000	6.933200
2093.000000	6.922920
2094.000000	6.913037
2095.000000	6.904213
2096.000000	6.895117
2097.000000	6.884897
2098.000000	6.873367
2099.000000	6.861220
2100.000000	6.850503
2101.000000	6.841390
2102.000000	6.832493
2103.000000	6.823163
2104.000000	6.813893
2105.000000	6.804417
2106.000000	6.794927
2107.000000	6.786877
2108.000000	6.778773
2109.000000	6.768920
2110.000000	6.757997
2111.000000	6.748467
2112.000000	6.739933
2113.000000	6.729707
2114.000000	6.718213
2115.000000	6.705840
2116.000000	6.692980
2117.000000	6.678583
2118.000000	6.663930
2119.000000	6.650100
2120.000000	6.635480
2121.000000	6.619203
2122.000000	6.601820
2123.000000	6.584807
2124.000000	6.567197
2125.000000	6.548067
2126.000000	6.528717
2127.000000	6.509717
2128.000000	6.489820
2129.000000	6.469490
2130.000000	6.448453
2131.000000	6.425757
2132.000000	6.402613
2133.000000	6.380617
2134.000000	6.358270
2135.000000	6.335243
2136.000000	6.310350
2137.000000	6.284877
2138.000000	6.259130
2139.000000	6.231787
2140.000000	6.203713
2141.000000	6.175780
2142.000000	6.147927
2143.000000	6.118410
2144.000000	6.088713
2145.000000	6.058117
2146.000000	6.026663
2147.000000	5.995287
2148.000000	5.964580
2149.000000	5.934727
2150.000000	5.905060
2151.000000	5.874547
2152.000000	5.843160
2153.000000	5.812437
2154.000000	5.781410
2155.000000	5.752240
2156.000000	5.724573
2157.000000	5.697630
2158.000000	5.671370
2159.000000	5.645017
2160.000000	5.619497
2161.000000	5.597043
2162.000000	5.576503
2163.000000	5.556067
2164.000000	5.537983
2165.000000	5.521207
2166.000000	5.505920
2167.000000	5.490443
2168.000000	5.475620
2169.000000	5.462787
2170.000000	5.450113
2171.000000	5.437973
2172.000000	5.425823
2173.000000	5.414330
2174.000000	5.402490
2175.000000	5.390217
2176.000000	5.376797
2177.000000	5.363830
2178.000000	5.351150
2179.000000	5.338947
2180.000000	5.326827
2181.000000	5.312730
2182.000000	5.297693
2183.000000	5.282303
2184.000000	5.266943
2185.000000	5.249883
2186.000000	5.231027
2187.000000	5.210033
2188.000000	5.187027
2189.000000	5.160093
2190.000000	5.129783
2191.000000	5.095300
2192.000000	5.057877
2193.000000	5.016357
2194.000000	4.969970
2195.000000	4.922050
2196.000000	4.871157
2197.000000	4.815907
2198.000000	4.758180
2199.000000	4.696780
2200.000000	4.635183
2201.000000	4.573767
2202.000000	4.514023
2203.000000	4.455173
2204.000000	4.397863
2205.000000	4.340670
2206.000000	4.287863
2207.000000	4.242107
2208.000000	4.199097
2209.000000	4.165107
2210.000000	4.137863
2211.000000	4.117743
2212.000000	4.103313
2213.000000	4.094823
2214.000000	4.092693
2215.000000	4.097463
2216.000000	4.108480
2217.000000	4.124120
2218.000000	4.145967
2219.000000	4.169980
2220.000000	4.196237
2221.000000	4.224107
2222.000000	4.252420
2223.000000	4.284857
2224.000000	4.316663
2225.000000	4.348760
2226.000000	4.380997
2227.000000	4.412123
2228.000000	4.439917
2229.000000	4.465663
2230.000000	4.489103
2231.000000	4.512403
2232.000000	4.533900
2233.000000	4.549870
2234.000000	4.565320
2235.000000	4.576973
2236.000000	4.585340
2237.000000	4.588970
2238.000000	4.592927
2239.000000	4.594020
2240.000000	4.592607
2241.000000	4.586193
2242.000000	4.577670
2243.000000	4.568810
2244.000000	4.557527
2245.000000	4.545347
2246.000000	4.530143
2247.000000	4.514693
2248.000000	4.497163
2249.000000	4.479720
2250.000000	4.460477
2251.000000	4.440017
2252.000000	4.418677
2253.000000	4.396087
2254.000000	4.374377
2255.000000	4.353233
2256.000000	4.332937
2257.000000	4.313570
2258.000000	4.294000
2259.000000	4.275917
2260.000000	4.258307
2261.000000	4.244173
2262.000000	4.230820
2263.000000	4.219423
2264.000000	4.207697
2265.000000	4.197867
2266.000000	4.189043
2267.000000	4.182350
2268.000000	4.177523
2269.000000	4.175023
2270.000000	4.175137
2271.000000	4.175600
2272.000000	4.178453
2273.000000	4.181297
2274.000000	4.186503
2275.000000	4.190303
2276.000000	4.196323
2277.000000	4.202637
2278.000000	4.208710
2279.000000	4.213053
2280.000000	4.217933
2281.000000	4.221687
2282.000000	4.224180
2283.000000	4.227950
2284.000000	4.230607
2285.000000	4.234383
2286.000000	4.236883
2287.000000	4.238353
2288.000000	4.239200
2289.000000	4.240247
2290.000000	4.241623
2291.000000	4.244567
2292.000000	4.248697
2293.000000	4.251707
2294.000000	4.253910
2295.000000	4.256960
2296.000000	4.259877
2297.000000	4.262923
2298.000000	4.268617
2299.000000	4.273257
2300.000000	4.277837
2301.000000	4.283467
2302.000000	4.288330
2303.000000	4.294150
2304.000000	4.301733
2305.000000	4.308240
2306.000000	4.316340
2307.000000	4.327140
2308.000000	4.336810
2309.000000	4.346613
2310.000000	4.358020
2311.000000	4.368237
2312.000000	4.378763
2313.000000	4.389760
2314.000000	4.400177
2315.000000	4.411143
2316.000000	4.420527
2317.000000	4.428163
2318.000000	4.435780
2319.000000	4.442813
2320.000000	4.447373
2321.000000	4.451490
2322.000000	4.455063
2323.000000	4.456427
2324.000000	4.456423
2325.000000	4.454860
2326.000000	4.453250
2327.000000	4.450030
2328.000000	4.445327
2329.000000	4.440753
2330.000000	4.435133
2331.000000	4.429303
2332.000000	4.424077
2333.000000	4.419387
2334.000000	4.414840
2335.000000	4.411920
2336.000000	4.408497
2337.000000	4.404490
2338.000000	4.401773
2339.000000	4.400887
2340.000000	4.400220
2341.000000	4.400430
2342.000000	4.400880
2343.000000	4.402147
2344.000000	4.404323
2345.000000	4.405617
2346.000000	4.407310
2347.000000	4.409977
2348.000000	4.412963
2349.000000	4.415533
2350.000000	4.419610
2351.000000	4.423453
2352.000000	4.425933
2353.000000	4.428423
2354.000000	4.432613
2355.000000	4.436907
2356.000000	4.440417
2357.000000	4.443980
2358.000000	4.446430
2359.000000	4.448340
2360.000000	4.450013
2361.000000	4.450567
2362.000000	4.451807
2363.000000	4.452287
2364.000000	4.449967
2365.000000	4.447770
2366.000000	4.446797
2367.000000	4.446100
2368.000000	4.445603
2369.000000	4.444853
2370.000000	4.443770
2371.000000	4.443470
2372.000000	4.443230
2373.000000	4.442623
2374.000000	4.443193
2375.000000	4.443793
2376.000000	4.443947
2377.000000	4.443740
2378.000000	4.443470
2379.000000	4.443247
2380.000000	4.442817
2381.000000	4.442627
2382.000000	4.442230
2383.000000	4.441367
2384.000000	4.439650
2385.000000	4.437667
2386.000000	4.434983
2387.000000	4.432340
2388.000000	4.428470
2389.000000	4.422967
2390.000000	4.417210
2391.000000	4.411140
2392.000000	4.404747
2393.000000	4.396877
2394.000000	4.388560
2395.000000	4.379777
2396.000000	4.370230
2397.000000	4.360010
2398.000000	4.350447
2399.000000	4.341150
2400.000000	4.331267
2401.000000	4.319640
2402.000000	4.306650
2403.000000	4.294230
2404.000000	4.282173
2405.000000	4.269183
2406.000000	4.254897
2407.000000	4.239923
2408.000000	4.224317
2409.000000	4.208313
2410.000000	4.191850
2411.000000	4.174963
2412.000000	4.157433
2413.000000	4.140510
2414.000000	4.123283
2415.000000	4.106087
2416.000000	4.088363
2417.000000	4.068047
2418.000000	4.046867
2419.000000	4.024397
2420.000000	4.000080
2421.000000	3.976080
2422.000000	3.951797
2423.000000	3.925953
2424.000000	3.898950
2425.000000	3.870927
2426.000000	3.844470
2427.000000	3.819823
2428.000000	3.794720
2429.000000	3.770903
2430.000000	3.747380
2431.000000	3.722477
2432.000000	3.697840
2433.000000	3.672980
2434.000000	3.647653
2435.000000	3.622427
2436.000000	3.595597
2437.000000	3.569550
2438.000000	3.543267
2439.000000	3.516043
2440.000000	3.488897
2441.000000	3.462440
2442.000000	3.433997
2443.000000	3.407200
2444.000000	3.380377
2445.000000	3.353307
2446.000000	3.327793
2447.000000	3.301603
2448.000000	3.275997
2449.000000	3.249760
2450.000000	3.224413
2451.000000	3.198860
2452.000000	3.174840
2453.000000	3.150877
2454.000000	3.127760
2455.000000	3.104927
2456.000000	3.082517
2457.000000	3.059807
2458.000000	3.037117
2459.000000	3.016543
2460.000000	2.996280
2461.000000	2.977050
2462.000000	2.959133
2463.000000	2.941220
2464.000000	2.926393
2465.000000	2.909390
2466.000000	2.892980
2467.000000	2.880650
2468.000000	2.864710
2469.000000	2.851767
2470.000000	2.839853
2471.000000	2.826410
2472.000000	2.816963
2473.000000	2.808130
2474.000000	2.796067
2475.000000	2.788253
2476.000000	2.780290
2477.000000	2.768740
2478.000000	2.765647
2479.000000	2.760887
2480.000000	2.757637
2481.000000	2.755777
2482.000000	2.749483
2483.000000	2.742250
2484.000000	2.734863
2485.000000	2.730587
2486.000000	2.729063
2487.000000	2.725637
2488.000000	2.725313
2489.000000	2.721807
2490.000000	2.718493
2491.000000	2.718720
2492.000000	2.721093
2493.000000	2.729130
2494.000000	2.735163
2495.000000	2.740053
2496.000000	2.748450
2497.000000	2.760653
2498.000000	2.764050
2499.000000	2.766660
2500.000000	2.775953
