PE UV       SUBTECH     SPECTRUM    ASCII       PEDS        4.00        
   -1
NI#0001-TX3.ASC
23/11/30
14:16:12.00
23/11/30
14:16:12.00
Vinicio Soto Monge
NI #001
250,000000
1
Lambda 1050
1050L1511233
PerkinElmer UV WinLab 6.3.2.0749 / 2.02.05 Lambda 900 UV/VIS/NIR, Aug  7 2015 09:38:08

0
0
3350/servo 860,8/2
0
0
UV/VIS
1
1
1
DoubleDePol,CommonBeamDepol,RBeamAtt,SBeamAtt,60mm sphere, WB InGaAs Detector
0
0
0
0
Program
Program
3350/servo 860,8/2
3350/0,4 860,8/0,4
3350/0,4 860,8/0,4
0
20.00
 
 
 
0
 
860,8
319,2
860,8
Front
100
on
S:100 R:100
0
0
0
0
 
0
 
 
 
0
 
 
0
0
0
0
0
 
 
 
 
0
0


0
0
#HDR
-1
-1
#GR
nm
%T
1.0
0.0
2200,000000
-1,000000
1951
8
52,526952
0,335831
#DATA
284.000000	5.518888
285.000000	5.356946
286.000000	5.200849
287.000000	5.050560
288.000000	4.905693
289.000000	4.764743
290.000000	4.629283
291.000000	4.497874
292.000000	4.371785
293.000000	4.251581
294.000000	4.133941
295.000000	4.021021
296.000000	3.912734
297.000000	3.807223
298.000000	3.705136
299.000000	3.606304
300.000000	3.511170
301.000000	3.419909
302.000000	3.330571
303.000000	3.244263
304.000000	3.160738
305.000000	3.079596
306.000000	3.000946
307.000000	2.924651
308.000000	2.850997
309.000000	2.780137
310.000000	2.710199
311.000000	2.642241
312.000000	2.575615
313.000000	2.510546
314.000000	2.447877
315.000000	2.387552
316.000000	2.327259
317.000000	2.260512
318.000000	2.197307
319.000000	2.138381
320.000000	2.080828
321.000000	2.023759
322.000000	1.967908
323.000000	1.913661
324.000000	1.863542
325.000000	1.813049
326.000000	1.764524
327.000000	1.717479
328.000000	1.671846
329.000000	1.628715
330.000000	1.585739
331.000000	1.543979
332.000000	1.504555
333.000000	1.466336
334.000000	1.429630
335.000000	1.393656
336.000000	1.358773
337.000000	1.324623
338.000000	1.291863
339.000000	1.259571
340.000000	1.228131
341.000000	1.198698
342.000000	1.169274
343.000000	1.141067
344.000000	1.113911
345.000000	1.089799
346.000000	1.066283
347.000000	1.043541
348.000000	1.021946
349.000000	1.000349
350.000000	0.980064
351.000000	0.961935
352.000000	0.951423
353.000000	0.939964
354.000000	0.927069
355.000000	0.915221
356.000000	0.905161
357.000000	0.896162
358.000000	0.887605
359.000000	0.877157
360.000000	0.868778
361.000000	0.860048
362.000000	0.851881
363.000000	0.843618
364.000000	0.835401
365.000000	0.828407
366.000000	0.821879
367.000000	0.814586
368.000000	0.808159
369.000000	0.801673
370.000000	0.796420
371.000000	0.791820
372.000000	0.787358
373.000000	0.783162
374.000000	0.779442
375.000000	0.775866
376.000000	0.771820
377.000000	0.769152
378.000000	0.766649
379.000000	0.764212
380.000000	0.760588
381.000000	0.757555
382.000000	0.755073
383.000000	0.752659
384.000000	0.750859
385.000000	0.748617
386.000000	0.746762
387.000000	0.745206
388.000000	0.743933
389.000000	0.742523
390.000000	0.741060
391.000000	0.739407
392.000000	0.737730
393.000000	0.736522
394.000000	0.735596
395.000000	0.734522
396.000000	0.733928
397.000000	0.733005
398.000000	0.732111
399.000000	0.731157
400.000000	0.730024
401.000000	0.729465
402.000000	0.729262
403.000000	0.728678
404.000000	0.728057
405.000000	0.726963
406.000000	0.725533
407.000000	0.724791
408.000000	0.724114
409.000000	0.723759
410.000000	0.723798
411.000000	0.723752
412.000000	0.723403
413.000000	0.722974
414.000000	0.722536
415.000000	0.722105
416.000000	0.721561
417.000000	0.721047
418.000000	0.720563
419.000000	0.719938
420.000000	0.719419
421.000000	0.718861
422.000000	0.718249
423.000000	0.717607
424.000000	0.717019
425.000000	0.716525
426.000000	0.716060
427.000000	0.715510
428.000000	0.714913
429.000000	0.714279
430.000000	0.713641
431.000000	0.713064
432.000000	0.712433
433.000000	0.711836
434.000000	0.711402
435.000000	0.710958
436.000000	0.710413
437.000000	0.709914
438.000000	0.709347
439.000000	0.708715
440.000000	0.708132
441.000000	0.707531
442.000000	0.706903
443.000000	0.706352
444.000000	0.705802
445.000000	0.705213
446.000000	0.704550
447.000000	0.703826
448.000000	0.703084
449.000000	0.702341
450.000000	0.701544
451.000000	0.700853
452.000000	0.700104
453.000000	0.699259
454.000000	0.698484
455.000000	0.697691
456.000000	0.696897
457.000000	0.696068
458.000000	0.695189
459.000000	0.694259
460.000000	0.693379
461.000000	0.692571
462.000000	0.691765
463.000000	0.690981
464.000000	0.690116
465.000000	0.689274
466.000000	0.688444
467.000000	0.687587
468.000000	0.686736
469.000000	0.685807
470.000000	0.684895
471.000000	0.684001
472.000000	0.683049
473.000000	0.682114
474.000000	0.681156
475.000000	0.680161
476.000000	0.679204
477.000000	0.678246
478.000000	0.677208
479.000000	0.676192
480.000000	0.675267
481.000000	0.674398
482.000000	0.673600
483.000000	0.672813
484.000000	0.671996
485.000000	0.671123
486.000000	0.670192
487.000000	0.669293
488.000000	0.668463
489.000000	0.667619
490.000000	0.666819
491.000000	0.666019
492.000000	0.665197
493.000000	0.664372
494.000000	0.663577
495.000000	0.662671
496.000000	0.661733
497.000000	0.660873
498.000000	0.659947
499.000000	0.659140
500.000000	0.658223
501.000000	0.657315
502.000000	0.656480
503.000000	0.655621
504.000000	0.654735
505.000000	0.653897
506.000000	0.653053
507.000000	0.652177
508.000000	0.651367
509.000000	0.650577
510.000000	0.649741
511.000000	0.648931
512.000000	0.648107
513.000000	0.647336
514.000000	0.646585
515.000000	0.645881
516.000000	0.645147
517.000000	0.644470
518.000000	0.643849
519.000000	0.643194
520.000000	0.642725
521.000000	0.642392
522.000000	0.642094
523.000000	0.641826
524.000000	0.641592
525.000000	0.641347
526.000000	0.641138
527.000000	0.641070
528.000000	0.641321
529.000000	0.641630
530.000000	0.642160
531.000000	0.642773
532.000000	0.643468
533.000000	0.644382
534.000000	0.645411
535.000000	0.646710
536.000000	0.648133
537.000000	0.649773
538.000000	0.651610
539.000000	0.653684
540.000000	0.655925
541.000000	0.658351
542.000000	0.661036
543.000000	0.663930
544.000000	0.667139
545.000000	0.670634
546.000000	0.674352
547.000000	0.678410
548.000000	0.682738
549.000000	0.687441
550.000000	0.692461
551.000000	0.697851
552.000000	0.703480
553.000000	0.709458
554.000000	0.715897
555.000000	0.722615
556.000000	0.729715
557.000000	0.737293
558.000000	0.745283
559.000000	0.753646
560.000000	0.762412
561.000000	0.771653
562.000000	0.781305
563.000000	0.791302
564.000000	0.801896
565.000000	0.813054
566.000000	0.824726
567.000000	0.837002
568.000000	0.849835
569.000000	0.863193
570.000000	0.877114
571.000000	0.891841
572.000000	0.907167
573.000000	0.923281
574.000000	0.940112
575.000000	0.957631
576.000000	0.976007
577.000000	0.995141
578.000000	1.015162
579.000000	1.036003
580.000000	1.057774
581.000000	1.080451
582.000000	1.104138
583.000000	1.128758
584.000000	1.154429
585.000000	1.181063
586.000000	1.208894
587.000000	1.237966
588.000000	1.268066
589.000000	1.299442
590.000000	1.332062
591.000000	1.365923
592.000000	1.401017
593.000000	1.437420
594.000000	1.475283
595.000000	1.514549
596.000000	1.555174
597.000000	1.597294
598.000000	1.640781
599.000000	1.685757
600.000000	1.732226
601.000000	1.780304
602.000000	1.829699
603.000000	1.880770
604.000000	1.933532
605.000000	1.987936
606.000000	2.043857
607.000000	2.101416
608.000000	2.160578
609.000000	2.221443
610.000000	2.284072
611.000000	2.348225
612.000000	2.414229
613.000000	2.481730
614.000000	2.550921
615.000000	2.621879
616.000000	2.694496
617.000000	2.768735
618.000000	2.844550
619.000000	2.921923
620.000000	3.001269
621.000000	3.082138
622.000000	3.164584
623.000000	3.248810
624.000000	3.334624
625.000000	3.422075
626.000000	3.511037
627.000000	3.601456
628.000000	3.693635
629.000000	3.787373
630.000000	3.882809
631.000000	3.979764
632.000000	4.078359
633.000000	4.178697
634.000000	4.280610
635.000000	4.383948
636.000000	4.488912
637.000000	4.595566
638.000000	4.703672
639.000000	4.813091
640.000000	4.924178
641.000000	5.036899
642.000000	5.151150
643.000000	5.266885
644.000000	5.384153
645.000000	5.502897
646.000000	5.623421
647.000000	5.745297
648.000000	5.868549
649.000000	5.993306
650.000000	6.119453
651.000000	6.247242
652.000000	6.376429
653.000000	6.507072
654.000000	6.639081
655.000000	6.772405
656.000000	6.906956
657.000000	7.043005
658.000000	7.180200
659.000000	7.318781
660.000000	7.459023
661.000000	7.600371
662.000000	7.743217
663.000000	7.887584
664.000000	8.033070
665.000000	8.179571
666.000000	8.327538
667.000000	8.476431
668.000000	8.626367
669.000000	8.777377
670.000000	8.929738
671.000000	9.083100
672.000000	9.237526
673.000000	9.392896
674.000000	9.549531
675.000000	9.707096
676.000000	9.865485
677.000000	10.024749
678.000000	10.184914
679.000000	10.345778
680.000000	10.507734
681.000000	10.670357
682.000000	10.833781
683.000000	10.998365
684.000000	11.163586
685.000000	11.329725
686.000000	11.496475
687.000000	11.663947
688.000000	11.832335
689.000000	12.001618
690.000000	12.171568
691.000000	12.342226
692.000000	12.513110
693.000000	12.684919
694.000000	12.856980
695.000000	13.029295
696.000000	13.202597
697.000000	13.376180
698.000000	13.549713
699.000000	13.724062
700.000000	13.898997
701.000000	14.074157
702.000000	14.250295
703.000000	14.427176
704.000000	14.604606
705.000000	14.782120
706.000000	14.959790
707.000000	15.137548
708.000000	15.315450
709.000000	15.493812
710.000000	15.672490
711.000000	15.851270
712.000000	16.030387
713.000000	16.210092
714.000000	16.390160
715.000000	16.570057
716.000000	16.750212
717.000000	16.931047
718.000000	17.112104
719.000000	17.293102
720.000000	17.473960
721.000000	17.655436
722.000000	17.837236
723.000000	18.018652
724.000000	18.199667
725.000000	18.380678
726.000000	18.561682
727.000000	18.743108
728.000000	18.924616
729.000000	19.106721
730.000000	19.288928
731.000000	19.470751
732.000000	19.652657
733.000000	19.835102
734.000000	20.017604
735.000000	20.199815
736.000000	20.381595
737.000000	20.563492
738.000000	20.745233
739.000000	20.926412
740.000000	21.107943
741.000000	21.289515
742.000000	21.471408
743.000000	21.653558
744.000000	21.835699
745.000000	22.017171
746.000000	22.198342
747.000000	22.379877
748.000000	22.560939
749.000000	22.741560
750.000000	22.922502
751.000000	23.103784
752.000000	23.283563
753.000000	23.462793
754.000000	23.642020
755.000000	23.821413
756.000000	24.001072
757.000000	24.179616
758.000000	24.357610
759.000000	24.535636
760.000000	24.713788
761.000000	24.891455
762.000000	25.069081
763.000000	25.246303
764.000000	25.423841
765.000000	25.600542
766.000000	25.775888
767.000000	25.951195
768.000000	26.125679
769.000000	26.301566
770.000000	26.477131
771.000000	26.653139
772.000000	26.828437
773.000000	27.002817
774.000000	27.177263
775.000000	27.350197
776.000000	27.523888
777.000000	27.696205
778.000000	27.868437
779.000000	28.039881
780.000000	28.211000
781.000000	28.381632
782.000000	28.552488
783.000000	28.723604
784.000000	28.893725
785.000000	29.062761
786.000000	29.231007
787.000000	29.399726
788.000000	29.567707
789.000000	29.735961
790.000000	29.903699
791.000000	30.069828
792.000000	30.235570
793.000000	30.402052
794.000000	30.568113
795.000000	30.734068
796.000000	30.898925
797.000000	31.063092
798.000000	31.226117
799.000000	31.387989
800.000000	31.550494
801.000000	31.711786
802.000000	31.872101
803.000000	32.032260
804.000000	32.191578
805.000000	32.350218
806.000000	32.507742
807.000000	32.664998
808.000000	32.822771
809.000000	32.977820
810.000000	33.134656
811.000000	33.289062
812.000000	33.445547
813.000000	33.597748
814.000000	33.751823
815.000000	33.905465
816.000000	34.059073
817.000000	34.212484
818.000000	34.363392
819.000000	34.514063
820.000000	34.664475
821.000000	34.814278
822.000000	34.964428
823.000000	35.116312
824.000000	35.265426
825.000000	35.413482
826.000000	35.563719
827.000000	35.711920
828.000000	35.856742
829.000000	36.002862
830.000000	36.144349
831.000000	36.287849
832.000000	36.432022
833.000000	36.576341
834.000000	36.718780
835.000000	36.860459
836.000000	37.004652
837.000000	37.150295
838.000000	37.294579
839.000000	37.434904
840.000000	37.574096
841.000000	37.715147
842.000000	37.853299
843.000000	37.990111
844.000000	38.129287
845.000000	38.262612
846.000000	38.393551
847.000000	38.527004
848.000000	38.660623
849.000000	38.796438
850.000000	38.937104
851.000000	39.066187
852.000000	39.197848
853.000000	39.328776
854.000000	39.462367
855.000000	39.586723
856.000000	39.712558
857.000000	39.842192
858.000000	39.967509
859.000000	40.132855
860.000000	40.269723
861.000000	40.427158
862.000000	40.576955
863.000000	40.738494
864.000000	40.886097
865.000000	41.053481
866.000000	41.229180
867.000000	41.378788
868.000000	41.538008
869.000000	41.689875
870.000000	41.824922
871.000000	41.977500
872.000000	42.136473
873.000000	42.271264
874.000000	42.426068
875.000000	42.575348
876.000000	42.741604
877.000000	42.888717
878.000000	43.042428
879.000000	43.186034
880.000000	43.321385
881.000000	43.459949
882.000000	43.603732
883.000000	43.762966
884.000000	43.912556
885.000000	44.039139
886.000000	44.173023
887.000000	44.322033
888.000000	44.482396
889.000000	44.636511
890.000000	44.772062
891.000000	44.920020
892.000000	45.046366
893.000000	45.181203
894.000000	45.284170
895.000000	45.420151
896.000000	45.496421
897.000000	45.611623
898.000000	45.725745
899.000000	45.836544
900.000000	45.918096
901.000000	45.992630
902.000000	46.086662
903.000000	46.176696
904.000000	46.283022
905.000000	46.393631
906.000000	46.497431
907.000000	46.590761
908.000000	46.706561
909.000000	46.809906
910.000000	46.915736
911.000000	46.987115
912.000000	47.105711
913.000000	47.204976
914.000000	47.312487
915.000000	47.440588
916.000000	47.539227
917.000000	47.631902
918.000000	47.697529
919.000000	47.785408
920.000000	47.886086
921.000000	47.994318
922.000000	48.088985
923.000000	48.161016
924.000000	48.238102
925.000000	48.333201
926.000000	48.427771
927.000000	48.538901
928.000000	48.638466
929.000000	48.738512
930.000000	48.801134
931.000000	48.914322
932.000000	49.007004
933.000000	49.069476
934.000000	49.153272
935.000000	49.245085
936.000000	49.330367
937.000000	49.420848
938.000000	49.512718
939.000000	49.600442
940.000000	49.695883
941.000000	49.761532
942.000000	49.832105
943.000000	49.908738
944.000000	49.962096
945.000000	50.028474
946.000000	50.124276
947.000000	50.192728
948.000000	50.268078
949.000000	50.324437
950.000000	50.375321
951.000000	50.456441
952.000000	50.542143
953.000000	50.644326
954.000000	50.721778
955.000000	50.794777
956.000000	50.867926
957.000000	50.938539
958.000000	51.005691
959.000000	51.079461
960.000000	51.145849
961.000000	51.206359
962.000000	51.279361
963.000000	51.348017
964.000000	51.395473
965.000000	51.486390
966.000000	51.561907
967.000000	51.605836
968.000000	51.680675
969.000000	51.751358
970.000000	51.818373
971.000000	51.895729
972.000000	51.964254
973.000000	52.025853
974.000000	52.092527
975.000000	52.162661
976.000000	52.227584
977.000000	52.288945
978.000000	52.354915
979.000000	52.426398
980.000000	52.475139
981.000000	52.522527
982.000000	52.579789
983.000000	52.633819
984.000000	52.697386
985.000000	52.751984
986.000000	52.808334
987.000000	52.850306
988.000000	52.891061
989.000000	52.945263
990.000000	53.000488
991.000000	53.052186
992.000000	53.090956
993.000000	53.155870
994.000000	53.215216
995.000000	53.279677
996.000000	53.332735
997.000000	53.365677
998.000000	53.402412
999.000000	53.464483
1000.000000	53.533825
1001.000000	53.596446
1002.000000	53.659341
1003.000000	53.721825
1004.000000	53.791229
1005.000000	53.860822
1006.000000	53.916209
1007.000000	53.983530
1008.000000	54.031653
1009.000000	54.057678
1010.000000	54.097103
1011.000000	54.165584
1012.000000	54.228890
1013.000000	54.281533
1014.000000	54.342904
1015.000000	54.415015
1016.000000	54.473572
1017.000000	54.522351
1018.000000	54.582868
1019.000000	54.648779
1020.000000	54.705634
1021.000000	54.750181
1022.000000	54.806055
1023.000000	54.862466
1024.000000	54.916160
1025.000000	54.971604
1026.000000	55.012280
1027.000000	55.061616
1028.000000	55.109912
1029.000000	55.154538
1030.000000	55.218119
1031.000000	55.285331
1032.000000	55.348816
1033.000000	55.423430
1034.000000	55.489360
1035.000000	55.523519
1036.000000	55.553661
1037.000000	55.605318
1038.000000	55.647335
1039.000000	55.668868
1040.000000	55.708472
1041.000000	55.758188
1042.000000	55.804448
1043.000000	55.857227
1044.000000	55.910715
1045.000000	55.949503
1046.000000	55.984912
1047.000000	56.023129
1048.000000	56.066843
1049.000000	56.110407
1050.000000	56.154307
1051.000000	56.189035
1052.000000	56.219671
1053.000000	56.249806
1054.000000	56.301841
1055.000000	56.356305
1056.000000	56.403462
1057.000000	56.446826
1058.000000	56.484588
1059.000000	56.522523
1060.000000	56.563356
1061.000000	56.624226
1062.000000	56.666328
1063.000000	56.700760
1064.000000	56.745858
1065.000000	56.779568
1066.000000	56.803807
1067.000000	56.845271
1068.000000	56.861102
1069.000000	56.871342
1070.000000	56.913956
1071.000000	56.966021
1072.000000	56.998985
1073.000000	57.021459
1074.000000	57.059850
1075.000000	57.074873
1076.000000	57.101394
1077.000000	57.125176
1078.000000	57.158183
1079.000000	57.211009
1080.000000	57.264926
1081.000000	57.303702
1082.000000	57.351922
1083.000000	57.391444
1084.000000	57.429391
1085.000000	57.461388
1086.000000	57.483545
1087.000000	57.530744
1088.000000	57.570613
1089.000000	57.583998
1090.000000	57.605008
1091.000000	57.644377
1092.000000	57.687079
1093.000000	57.732567
1094.000000	57.765472
1095.000000	57.799724
1096.000000	57.832418
1097.000000	57.881481
1098.000000	57.920399
1099.000000	57.948174
1100.000000	57.983092
1101.000000	58.005634
1102.000000	58.012009
1103.000000	58.067280
1104.000000	58.087589
1105.000000	58.104666
1106.000000	58.126973
1107.000000	58.154182
1108.000000	58.201389
1109.000000	58.224920
1110.000000	58.277476
1111.000000	58.312086
1112.000000	58.340254
1113.000000	58.383852
1114.000000	58.412707
1115.000000	58.433834
1116.000000	58.487460
1117.000000	58.506236
1118.000000	58.512707
1119.000000	58.520296
1120.000000	58.543092
1121.000000	58.573942
1122.000000	58.617302
1123.000000	58.667084
1124.000000	58.681774
1125.000000	58.752799
1126.000000	58.769436
1127.000000	58.791693
1128.000000	58.788171
1129.000000	58.809148
1130.000000	58.833801
1131.000000	58.854144
1132.000000	58.875066
1133.000000	58.890976
1134.000000	58.955487
1135.000000	58.955337
1136.000000	58.957485
1137.000000	58.992064
1138.000000	58.996288
1139.000000	59.045389
1140.000000	59.059213
1141.000000	59.085222
1142.000000	59.094620
1143.000000	59.098721
1144.000000	59.148100
1145.000000	59.153529
1146.000000	59.181187
1147.000000	59.206088
1148.000000	59.216033
1149.000000	59.231575
1150.000000	59.230515
1151.000000	59.222718
1152.000000	59.245605
1153.000000	59.266638
1154.000000	59.279583
1155.000000	59.296159
1156.000000	59.331877
1157.000000	59.337324
1158.000000	59.309579
1159.000000	59.330438
1160.000000	59.308749
1161.000000	59.344502
1162.000000	59.335596
1163.000000	59.359535
1164.000000	59.372423
1165.000000	59.388270
1166.000000	59.392909
1167.000000	59.408637
1168.000000	59.432129
1169.000000	59.384634
1170.000000	59.410862
1171.000000	59.427291
1172.000000	59.417702
1173.000000	59.420969
1174.000000	59.398325
1175.000000	59.392923
1176.000000	59.383489
1177.000000	59.393450
1178.000000	59.410799
1179.000000	59.396571
1180.000000	59.404608
1181.000000	59.382698
1182.000000	59.380432
1183.000000	59.366110
1184.000000	59.360966
1185.000000	59.389426
1186.000000	59.392782
1187.000000	59.386546
1188.000000	59.393776
1189.000000	59.411536
1190.000000	59.426161
1191.000000	59.418910
1192.000000	59.413007
1193.000000	59.445396
1194.000000	59.469840
1195.000000	59.459497
1196.000000	59.447921
1197.000000	59.475550
1198.000000	59.500503
1199.000000	59.520056
1200.000000	59.508934
1201.000000	59.509638
1202.000000	59.485890
1203.000000	59.480232
1204.000000	59.508575
1205.000000	59.520084
1206.000000	59.548204
1207.000000	59.590681
1208.000000	59.620993
1209.000000	59.672887
1210.000000	59.720325
1211.000000	59.740892
1212.000000	59.784493
1213.000000	59.804080
1214.000000	59.825460
1215.000000	59.851286
1216.000000	59.885753
1217.000000	59.909801
1218.000000	59.946083
1219.000000	59.969652
1220.000000	59.970337
1221.000000	59.989416
1222.000000	60.022951
1223.000000	60.047476
1224.000000	60.071447
1225.000000	60.086645
1226.000000	60.120241
1227.000000	60.153038
1228.000000	60.164307
1229.000000	60.172855
1230.000000	60.205064
1231.000000	60.222649
1232.000000	60.232033
1233.000000	60.238618
1234.000000	60.242688
1235.000000	60.263933
1236.000000	60.280838
1237.000000	60.320406
1238.000000	60.340494
1239.000000	60.348424
1240.000000	60.352726
1241.000000	60.369381
1242.000000	60.391634
1243.000000	60.398296
1244.000000	60.390703
1245.000000	60.393160
1246.000000	60.400953
1247.000000	60.394945
1248.000000	60.402018
1249.000000	60.405516
1250.000000	60.405820
1251.000000	60.406912
1252.000000	60.412507
1253.000000	60.413669
1254.000000	60.415891
1255.000000	60.438840
1256.000000	60.447374
1257.000000	60.437281
1258.000000	60.439272
1259.000000	60.458709
1260.000000	60.478810
1261.000000	60.496311
1262.000000	60.507096
1263.000000	60.512715
1264.000000	60.525626
1265.000000	60.537972
1266.000000	60.561579
1267.000000	60.588544
1268.000000	60.599726
1269.000000	60.614656
1270.000000	60.633550
1271.000000	60.638632
1272.000000	60.649422
1273.000000	60.677127
1274.000000	60.694620
1275.000000	60.710347
1276.000000	60.730588
1277.000000	60.729115
1278.000000	60.729666
1279.000000	60.745276
1280.000000	60.761942
1281.000000	60.777382
1282.000000	60.784526
1283.000000	60.800091
1284.000000	60.834210
1285.000000	60.858166
1286.000000	60.873921
1287.000000	60.883940
1288.000000	60.897399
1289.000000	60.916029
1290.000000	60.924782
1291.000000	60.946512
1292.000000	60.969351
1293.000000	60.986522
1294.000000	60.995919
1295.000000	60.998283
1296.000000	60.988168
1297.000000	60.980657
1298.000000	60.987682
1299.000000	61.000830
1300.000000	61.010354
1301.000000	61.008590
1302.000000	61.011311
1303.000000	61.031553
1304.000000	61.035222
1305.000000	61.040308
1306.000000	61.067092
1307.000000	61.061943
1308.000000	61.051172
1309.000000	61.050866
1310.000000	61.061251
1311.000000	61.077132
1312.000000	61.076232
1313.000000	61.090675
1314.000000	61.095440
1315.000000	61.095721
1316.000000	61.109259
1317.000000	61.126672
1318.000000	61.121376
1319.000000	61.102185
1320.000000	61.097806
1321.000000	61.105608
1322.000000	61.120420
1323.000000	61.124529
1324.000000	61.129400
1325.000000	61.127858
1326.000000	61.126038
1327.000000	61.119904
1328.000000	61.123968
1329.000000	61.096334
1330.000000	61.095775
1331.000000	61.106224
1332.000000	61.093819
1333.000000	61.086235
1334.000000	61.094211
1335.000000	61.120302
1336.000000	61.133782
1337.000000	61.129693
1338.000000	61.109894
1339.000000	61.123763
1340.000000	61.135561
1341.000000	61.130143
1342.000000	61.143679
1343.000000	61.148653
1344.000000	61.163274
1345.000000	61.169604
1346.000000	61.143973
1347.000000	61.168277
1348.000000	61.175651
1349.000000	61.170571
1350.000000	61.145039
1351.000000	61.102318
1352.000000	60.993961
1353.000000	60.950310
1354.000000	61.031315
1355.000000	61.162795
1356.000000	61.169744
1357.000000	61.212136
1358.000000	61.214338
1359.000000	61.229142
1360.000000	61.299671
1361.000000	61.252691
1362.000000	61.008847
1363.000000	60.906836
1364.000000	61.128223
1365.000000	61.061267
1366.000000	61.060223
1367.000000	61.252908
1368.000000	61.345972
1369.000000	61.356316
1370.000000	61.366521
1371.000000	61.329104
1372.000000	61.336698
1373.000000	61.328835
1374.000000	61.306399
1375.000000	61.330289
1376.000000	61.351623
1377.000000	61.315207
1378.000000	61.447392
1379.000000	61.381056
1380.000000	61.336646
1381.000000	61.335214
1382.000000	61.544864
1383.000000	61.630860
1384.000000	61.636869
1385.000000	61.645295
1386.000000	61.628499
1387.000000	61.802643
1388.000000	61.716267
1389.000000	61.646546
1390.000000	61.519516
1391.000000	61.486595
1392.000000	61.319843
1393.000000	61.225836
1394.000000	61.188225
1395.000000	61.159877
1396.000000	61.100336
1397.000000	61.243665
1398.000000	61.288340
1399.000000	61.126104
1400.000000	61.376649
1401.000000	61.384626
1402.000000	61.143736
1403.000000	60.997267
1404.000000	60.849375
1405.000000	60.703852
1406.000000	60.711286
1407.000000	60.644721
1408.000000	60.611538
1409.000000	60.613121
1410.000000	60.546745
1411.000000	60.463277
1412.000000	60.416095
1413.000000	60.252206
1414.000000	60.271727
1415.000000	60.223235
1416.000000	60.176570
1417.000000	59.919059
1418.000000	59.773790
1419.000000	59.714582
1420.000000	59.695466
1421.000000	59.689092
1422.000000	59.571185
1423.000000	59.635971
1424.000000	59.560849
1425.000000	59.520600
1426.000000	59.468377
1427.000000	59.492362
1428.000000	59.489926
1429.000000	59.413604
1430.000000	59.296389
1431.000000	59.339832
1432.000000	59.388064
1433.000000	59.376243
1434.000000	59.280217
1435.000000	58.998359
1436.000000	58.907134
1437.000000	58.908123
1438.000000	58.878808
1439.000000	58.963967
1440.000000	59.009153
1441.000000	58.996134
1442.000000	58.957562
1443.000000	58.911979
1444.000000	58.855492
1445.000000	58.863795
1446.000000	58.826226
1447.000000	58.816162
1448.000000	58.758771
1449.000000	58.707748
1450.000000	58.729355
1451.000000	58.682244
1452.000000	58.623632
1453.000000	58.592098
1454.000000	58.556001
1455.000000	58.507027
1456.000000	58.484713
1457.000000	58.453596
1458.000000	58.445513
1459.000000	58.425831
1460.000000	58.384096
1461.000000	58.362934
1462.000000	58.338588
1463.000000	58.314318
1464.000000	58.318250
1465.000000	58.301663
1466.000000	58.263869
1467.000000	58.208539
1468.000000	58.187619
1469.000000	58.186347
1470.000000	58.197442
1471.000000	58.166586
1472.000000	58.149749
1473.000000	58.129093
1474.000000	58.064753
1475.000000	58.034603
1476.000000	57.949742
1477.000000	57.926704
1478.000000	57.932890
1479.000000	57.909405
1480.000000	57.839825
1481.000000	57.832090
1482.000000	57.833448
1483.000000	57.819967
1484.000000	57.797657
1485.000000	57.769910
1486.000000	57.781549
1487.000000	57.763400
1488.000000	57.738959
1489.000000	57.737762
1490.000000	57.727097
1491.000000	57.702430
1492.000000	57.680127
1493.000000	57.668824
1494.000000	57.653068
1495.000000	57.643263
1496.000000	57.641534
1497.000000	57.652584
1498.000000	57.686841
1499.000000	57.696742
1500.000000	57.712670
1501.000000	57.721472
1502.000000	57.722256
1503.000000	57.699466
1504.000000	57.651144
1505.000000	57.631935
1506.000000	57.642685
1507.000000	57.618574
1508.000000	57.635832
1509.000000	57.649891
1510.000000	57.655088
1511.000000	57.680315
1512.000000	57.703500
1513.000000	57.700352
1514.000000	57.708883
1515.000000	57.722772
1516.000000	57.741675
1517.000000	57.757743
1518.000000	57.786073
1519.000000	57.811761
1520.000000	57.818204
1521.000000	57.828907
1522.000000	57.843144
1523.000000	57.868380
1524.000000	57.892397
1525.000000	57.901681
1526.000000	57.923350
1527.000000	57.939014
1528.000000	57.946443
1529.000000	57.984530
1530.000000	58.012462
1531.000000	58.044297
1532.000000	58.083185
1533.000000	58.091944
1534.000000	58.095058
1535.000000	58.096521
1536.000000	58.109614
1537.000000	58.161928
1538.000000	58.215296
1539.000000	58.259037
1540.000000	58.302582
1541.000000	58.329880
1542.000000	58.359562
1543.000000	58.390693
1544.000000	58.418435
1545.000000	58.458248
1546.000000	58.491287
1547.000000	58.518327
1548.000000	58.545866
1549.000000	58.578356
1550.000000	58.611978
1551.000000	58.655945
1552.000000	58.689738
1553.000000	58.718523
1554.000000	58.753814
1555.000000	58.795724
1556.000000	58.828848
1557.000000	58.874078
1558.000000	58.919658
1559.000000	58.945499
1560.000000	58.973677
1561.000000	59.002547
1562.000000	59.030978
1563.000000	59.060041
1564.000000	59.071652
1565.000000	59.078247
1566.000000	59.096173
1567.000000	59.108075
1568.000000	59.131363
1569.000000	59.172269
1570.000000	59.211351
1571.000000	59.230491
1572.000000	59.232400
1573.000000	59.225371
1574.000000	59.228934
1575.000000	59.250022
1576.000000	59.265058
1577.000000	59.284576
1578.000000	59.290943
1579.000000	59.291011
1580.000000	59.290887
1581.000000	59.299719
1582.000000	59.316022
1583.000000	59.341764
1584.000000	59.355548
1585.000000	59.362620
1586.000000	59.367293
1587.000000	59.380029
1588.000000	59.412854
1589.000000	59.428265
1590.000000	59.430726
1591.000000	59.436112
1592.000000	59.433966
1593.000000	59.427456
1594.000000	59.437285
1595.000000	59.464326
1596.000000	59.488735
1597.000000	59.508372
1598.000000	59.530957
1599.000000	59.557518
1600.000000	59.567263
1601.000000	59.575733
1602.000000	59.601555
1603.000000	59.627308
1604.000000	59.628121
1605.000000	59.648458
1606.000000	59.680963
1607.000000	59.699068
1608.000000	59.740213
1609.000000	59.765277
1610.000000	59.783586
1611.000000	59.817669
1612.000000	59.853299
1613.000000	59.893206
1614.000000	59.928916
1615.000000	59.943188
1616.000000	59.968734
1617.000000	60.008060
1618.000000	60.020685
1619.000000	60.037605
1620.000000	60.064520
1621.000000	60.092134
1622.000000	60.101223
1623.000000	60.096929
1624.000000	60.122216
1625.000000	60.155928
1626.000000	60.179932
1627.000000	60.205458
1628.000000	60.244200
1629.000000	60.258727
1630.000000	60.258914
1631.000000	60.284714
1632.000000	60.312029
1633.000000	60.337139
1634.000000	60.344040
1635.000000	60.365944
1636.000000	60.378755
1637.000000	60.384922
1638.000000	60.384874
1639.000000	60.412925
1640.000000	60.414913
1641.000000	60.398248
1642.000000	60.431289
1643.000000	60.439824
1644.000000	60.474142
1645.000000	60.476070
1646.000000	60.480744
1647.000000	60.471474
1648.000000	60.489483
1649.000000	60.510027
1650.000000	60.524675
1651.000000	60.544941
1652.000000	60.550268
1653.000000	60.549386
1654.000000	60.546149
1655.000000	60.556939
1656.000000	60.571058
1657.000000	60.584892
1658.000000	60.579847
1659.000000	60.552032
1660.000000	60.542478
1661.000000	60.537233
1662.000000	60.536169
1663.000000	60.535403
1664.000000	60.547933
1665.000000	60.574020
1666.000000	60.554413
1667.000000	60.555559
1668.000000	60.539570
1669.000000	60.550330
1670.000000	60.544832
1671.000000	60.534866
1672.000000	60.530306
1673.000000	60.533859
1674.000000	60.523610
1675.000000	60.498190
1676.000000	60.484649
1677.000000	60.475153
1678.000000	60.451571
1679.000000	60.427753
1680.000000	60.414649
1681.000000	60.407370
1682.000000	60.409490
1683.000000	60.376604
1684.000000	60.344261
1685.000000	60.324054
1686.000000	60.273019
1687.000000	60.225900
1688.000000	60.203938
1689.000000	60.189116
1690.000000	60.138946
1691.000000	60.099426
1692.000000	60.058860
1693.000000	60.021745
1694.000000	60.010505
1695.000000	59.977002
1696.000000	59.956863
1697.000000	59.929139
1698.000000	59.877952
1699.000000	59.851564
1700.000000	59.794405
1701.000000	59.772253
1702.000000	59.755939
1703.000000	59.742788
1704.000000	59.710680
1705.000000	59.696070
1706.000000	59.677153
1707.000000	59.654047
1708.000000	59.629593
1709.000000	59.618501
1710.000000	59.632723
1711.000000	59.643400
1712.000000	59.606458
1713.000000	59.591004
1714.000000	59.556185
1715.000000	59.533435
1716.000000	59.505370
1717.000000	59.463136
1718.000000	59.438282
1719.000000	59.415031
1720.000000	59.389963
1721.000000	59.385654
1722.000000	59.365432
1723.000000	59.329773
1724.000000	59.291291
1725.000000	59.284433
1726.000000	59.260684
1727.000000	59.242299
1728.000000	59.228105
1729.000000	59.215630
1730.000000	59.223030
1731.000000	59.228936
1732.000000	59.231828
1733.000000	59.244348
1734.000000	59.223410
1735.000000	59.228199
1736.000000	59.229602
1737.000000	59.201999
1738.000000	59.183003
1739.000000	59.174319
1740.000000	59.169577
1741.000000	59.190796
1742.000000	59.184267
1743.000000	59.182382
1744.000000	59.159097
1745.000000	59.137501
1746.000000	59.124110
1747.000000	59.116884
1748.000000	59.136476
1749.000000	59.150425
1750.000000	59.173791
1751.000000	59.205312
1752.000000	59.242050
1753.000000	59.267720
1754.000000	59.293823
1755.000000	59.319077
1756.000000	59.353232
1757.000000	59.395283
1758.000000	59.437423
1759.000000	59.473787
1760.000000	59.481358
1761.000000	59.505231
1762.000000	59.534722
1763.000000	59.574415
1764.000000	59.602052
1765.000000	59.606856
1766.000000	59.597868
1767.000000	59.613376
1768.000000	59.615300
1769.000000	59.620405
1770.000000	59.634506
1771.000000	59.640325
1772.000000	59.661303
1773.000000	59.689492
1774.000000	59.706366
1775.000000	59.712364
1776.000000	59.702214
1777.000000	59.719825
1778.000000	59.740410
1779.000000	59.767010
1780.000000	59.787866
1781.000000	59.794269
1782.000000	59.803818
1783.000000	59.801611
1784.000000	59.803463
1785.000000	59.790378
1786.000000	59.780469
1787.000000	59.796024
1788.000000	59.815327
1789.000000	59.835948
1790.000000	59.839936
1791.000000	59.833076
1792.000000	59.840067
1793.000000	59.853960
1794.000000	59.873215
1795.000000	59.912145
1796.000000	59.927671
1797.000000	59.943600
1798.000000	59.953582
1799.000000	59.955768
1800.000000	59.982584
1801.000000	60.034080
1802.000000	60.049033
1803.000000	60.060815
1804.000000	60.086295
1805.000000	60.135400
1806.000000	60.201656
1807.000000	60.212337
1808.000000	60.204860
1809.000000	60.208367
1810.000000	60.236024
1811.000000	60.286628
1812.000000	60.321776
1813.000000	60.358088
1814.000000	60.367615
1815.000000	60.340769
1816.000000	60.396272
1817.000000	60.515738
1818.000000	60.578592
1819.000000	60.634258
1820.000000	60.646013
1821.000000	60.652669
1822.000000	60.682469
1823.000000	60.769238
1824.000000	60.851466
1825.000000	61.022430
1826.000000	61.106112
1827.000000	61.143864
1828.000000	61.193917
1829.000000	61.230776
1830.000000	61.321012
1831.000000	61.362926
1832.000000	61.354883
1833.000000	61.373937
1834.000000	61.431784
1835.000000	61.487917
1836.000000	61.437206
1837.000000	61.374070
1838.000000	61.322825
1839.000000	61.289768
1840.000000	61.227745
1841.000000	61.250849
1842.000000	61.267028
1843.000000	61.313116
1844.000000	61.365774
1845.000000	61.357406
1846.000000	61.399304
1847.000000	61.478378
1848.000000	61.463952
1849.000000	61.438506
1850.000000	61.447163
1851.000000	61.426460
1852.000000	61.385067
1853.000000	61.459038
1854.000000	61.474730
1855.000000	61.508358
1856.000000	61.421839
1857.000000	61.319701
1858.000000	61.186364
1859.000000	61.085658
1860.000000	60.942909
1861.000000	60.903152
1862.000000	60.895643
1863.000000	60.973676
1864.000000	61.031501
1865.000000	60.986159
1866.000000	60.937927
1867.000000	60.891246
1868.000000	60.846668
1869.000000	60.801270
1870.000000	60.975446
1871.000000	61.036760
1872.000000	61.182763
1873.000000	61.253929
1874.000000	61.289041
1875.000000	61.301361
1876.000000	61.357244
1877.000000	61.358677
1878.000000	61.290213
1879.000000	61.231553
1880.000000	61.250767
1881.000000	61.160983
1882.000000	61.047781
1883.000000	61.066547
1884.000000	61.029604
1885.000000	61.000216
1886.000000	61.000871
1887.000000	60.905840
1888.000000	60.711945
1889.000000	60.636134
1890.000000	60.521956
1891.000000	60.557479
1892.000000	60.505296
1893.000000	60.455694
1894.000000	60.358612
1895.000000	60.246048
1896.000000	60.109873
1897.000000	59.989579
1898.000000	59.759007
1899.000000	59.547450
1900.000000	59.348054
1901.000000	59.225183
1902.000000	59.377864
1903.000000	59.260391
1904.000000	59.068593
1905.000000	58.606427
1906.000000	58.453587
1907.000000	58.165594
1908.000000	57.954217
1909.000000	57.743149
1910.000000	57.496844
1911.000000	57.095886
1912.000000	56.802299
1913.000000	56.640855
1914.000000	56.415610
1915.000000	56.160754
1916.000000	55.913193
1917.000000	55.650596
1918.000000	55.342923
1919.000000	55.198055
1920.000000	55.043286
1921.000000	54.762044
1922.000000	54.530254
1923.000000	54.344812
1924.000000	54.041496
1925.000000	53.854469
1926.000000	53.636382
1927.000000	53.432696
1928.000000	53.268839
1929.000000	53.077352
1930.000000	52.904030
1931.000000	52.703193
1932.000000	52.500496
1933.000000	52.342358
1934.000000	52.125060
1935.000000	51.991190
1936.000000	51.833345
1937.000000	51.453149
1938.000000	51.304244
1939.000000	51.180208
1940.000000	51.119562
1941.000000	50.954922
1942.000000	50.885250
1943.000000	50.825491
1944.000000	50.783832
1945.000000	50.770591
1946.000000	50.752180
1947.000000	50.730625
1948.000000	50.639306
1949.000000	50.615482
1950.000000	50.559076
1951.000000	50.559168
1952.000000	50.565969
1953.000000	50.565992
1954.000000	50.505866
1955.000000	50.458815
1956.000000	50.473502
1957.000000	50.515452
1958.000000	50.523938
1959.000000	50.605422
1960.000000	50.635569
1961.000000	50.662115
1962.000000	50.751012
1963.000000	50.773331
1964.000000	50.825337
1965.000000	50.853581
1966.000000	50.941708
1967.000000	51.006938
1968.000000	51.041018
1969.000000	51.141646
1970.000000	51.217110
1971.000000	51.297016
1972.000000	51.361415
1973.000000	51.459056
1974.000000	51.563221
1975.000000	51.652147
1976.000000	51.733186
1977.000000	51.811682
1978.000000	51.872678
1979.000000	51.954360
1980.000000	52.042790
1981.000000	52.149140
1982.000000	52.258517
1983.000000	52.358114
1984.000000	52.441567
1985.000000	52.537648
1986.000000	52.617691
1987.000000	52.705063
1988.000000	52.808136
1989.000000	52.900028
1990.000000	53.001339
1991.000000	53.102045
1992.000000	53.181635
1993.000000	53.269719
1994.000000	53.347482
1995.000000	53.425760
1996.000000	53.506901
1997.000000	53.585533
1998.000000	53.675290
1999.000000	53.780178
2000.000000	53.868849
