PE UV       SUBTECH     SPECTRUM    ASCII       PEDS        4.00        
   -1
C.RESP.MV23-TX3.ASC
23/11/29
12:37:13.00
23/11/29
12:37:13.00
Vinicio Soto Monge
C. RESPLENDENS
250,000000
1
Lambda 1050
1050L1511233
PerkinElmer UV WinLab 6.3.2.0749 / 2.02.05 Lambda 900 UV/VIS/NIR, Aug  7 2015 09:38:08

0
0
3350/servo 860,8/2
0
0
UV/VIS
1
1
1
DoubleDePol,CommonBeamDepol,RBeamAtt,SBeamAtt,60mm sphere, WB InGaAs Detector
0
0
0
0
Program
Program
3350/servo 860,8/2
3350/0,4 860,8/0,4
3350/0,4 860,8/0,4
0
20.00
 
 
 
0
 
860,8
319,2
860,8
Front
100
on
S:100 R:100
0
0
0
0
 
0
 
 
 
0
 
 
0
0
0
0
0
 
 
 
 
0
0


0
0
#HDR
-1
-1
#GR
nm
%T
1.0
0.0
2200,000000
-1,000000
1951
8
73,589983
0,239045
#DATA
284.000000	0.310125
285.000000	0.309673
286.000000	0.310412
287.000000	0.310446
288.000000	0.311076
289.000000	0.311580
290.000000	0.312054
291.000000	0.312711
292.000000	0.313115
293.000000	0.313593
294.000000	0.314195
295.000000	0.315043
296.000000	0.315546
297.000000	0.315907
298.000000	0.316101
299.000000	0.316289
300.000000	0.316425
301.000000	0.317049
302.000000	0.317381
303.000000	0.317764
304.000000	0.318051
305.000000	0.318748
306.000000	0.319707
307.000000	0.320115
308.000000	0.320505
309.000000	0.321446
310.000000	0.322439
311.000000	0.323207
312.000000	0.324221
313.000000	0.325513
314.000000	0.326466
315.000000	0.327770
316.000000	0.328540
317.000000	0.329152
318.000000	0.332141
319.000000	0.332682
320.000000	0.333987
321.000000	0.336277
322.000000	0.339236
323.000000	0.341507
324.000000	0.342914
325.000000	0.344280
326.000000	0.346071
327.000000	0.348220
328.000000	0.351112
329.000000	0.352980
330.000000	0.355591
331.000000	0.358096
332.000000	0.360505
333.000000	0.362676
334.000000	0.364848
335.000000	0.367199
336.000000	0.369304
337.000000	0.371422
338.000000	0.374014
339.000000	0.377107
340.000000	0.380015
341.000000	0.382770
342.000000	0.385554
343.000000	0.388302
344.000000	0.391192
345.000000	0.393546
346.000000	0.396340
347.000000	0.399228
348.000000	0.401889
349.000000	0.404614
350.000000	0.407016
351.000000	0.410086
352.000000	0.413993
353.000000	0.415247
354.000000	0.419025
355.000000	0.422567
356.000000	0.424576
357.000000	0.426452
358.000000	0.429272
359.000000	0.432699
360.000000	0.435590
361.000000	0.438482
362.000000	0.441521
363.000000	0.443792
364.000000	0.447105
365.000000	0.449630
366.000000	0.452029
367.000000	0.455023
368.000000	0.458296
369.000000	0.461699
370.000000	0.465252
371.000000	0.469203
372.000000	0.473187
373.000000	0.476280
374.000000	0.478117
375.000000	0.480999
376.000000	0.484104
377.000000	0.486892
378.000000	0.489613
379.000000	0.491761
380.000000	0.494431
381.000000	0.496971
382.000000	0.499436
383.000000	0.502179
384.000000	0.504694
385.000000	0.507101
386.000000	0.509515
387.000000	0.511342
388.000000	0.513371
389.000000	0.515420
390.000000	0.517061
391.000000	0.519069
392.000000	0.520799
393.000000	0.522374
394.000000	0.524011
395.000000	0.526003
396.000000	0.527733
397.000000	0.529329
398.000000	0.531106
399.000000	0.532602
400.000000	0.534291
401.000000	0.536298
402.000000	0.537855
403.000000	0.539361
404.000000	0.540631
405.000000	0.541542
406.000000	0.542001
407.000000	0.542671
408.000000	0.543774
409.000000	0.545514
410.000000	0.546458
411.000000	0.546922
412.000000	0.548303
413.000000	0.549574
414.000000	0.550791
415.000000	0.552050
416.000000	0.553283
417.000000	0.554420
418.000000	0.555509
419.000000	0.556671
420.000000	0.557783
421.000000	0.558772
422.000000	0.559691
423.000000	0.560609
424.000000	0.561467
425.000000	0.562281
426.000000	0.563124
427.000000	0.563975
428.000000	0.564775
429.000000	0.565512
430.000000	0.566215
431.000000	0.566881
432.000000	0.567514
433.000000	0.568143
434.000000	0.568721
435.000000	0.569256
436.000000	0.569784
437.000000	0.570340
438.000000	0.570825
439.000000	0.571326
440.000000	0.571916
441.000000	0.572526
442.000000	0.573073
443.000000	0.573616
444.000000	0.574102
445.000000	0.574600
446.000000	0.575080
447.000000	0.575579
448.000000	0.576235
449.000000	0.576936
450.000000	0.577604
451.000000	0.578337
452.000000	0.579095
453.000000	0.579826
454.000000	0.580534
455.000000	0.581295
456.000000	0.582178
457.000000	0.583013
458.000000	0.583878
459.000000	0.584846
460.000000	0.585818
461.000000	0.586786
462.000000	0.587735
463.000000	0.588775
464.000000	0.589956
465.000000	0.591104
466.000000	0.592343
467.000000	0.593618
468.000000	0.594980
469.000000	0.596389
470.000000	0.597859
471.000000	0.599452
472.000000	0.601087
473.000000	0.602731
474.000000	0.604479
475.000000	0.606267
476.000000	0.608083
477.000000	0.609918
478.000000	0.611800
479.000000	0.613783
480.000000	0.615833
481.000000	0.618026
482.000000	0.620282
483.000000	0.622588
484.000000	0.624982
485.000000	0.627443
486.000000	0.630018
487.000000	0.632790
488.000000	0.635713
489.000000	0.638771
490.000000	0.642087
491.000000	0.645477
492.000000	0.649104
493.000000	0.652926
494.000000	0.656980
495.000000	0.661269
496.000000	0.665757
497.000000	0.670478
498.000000	0.675377
499.000000	0.680430
500.000000	0.685851
501.000000	0.691522
502.000000	0.697470
503.000000	0.703695
504.000000	0.710122
505.000000	0.716779
506.000000	0.723566
507.000000	0.730604
508.000000	0.737942
509.000000	0.745392
510.000000	0.753010
511.000000	0.760719
512.000000	0.768572
513.000000	0.776436
514.000000	0.784335
515.000000	0.792261
516.000000	0.800161
517.000000	0.808130
518.000000	0.816008
519.000000	0.823861
520.000000	0.831744
521.000000	0.839591
522.000000	0.847253
523.000000	0.854842
524.000000	0.862413
525.000000	0.869718
526.000000	0.876963
527.000000	0.884107
528.000000	0.890993
529.000000	0.897795
530.000000	0.904484
531.000000	0.910924
532.000000	0.917295
533.000000	0.923581
534.000000	0.929732
535.000000	0.935712
536.000000	0.941510
537.000000	0.947150
538.000000	0.952596
539.000000	0.957929
540.000000	0.963205
541.000000	0.968549
542.000000	0.973886
543.000000	0.979200
544.000000	0.984447
545.000000	0.989713
546.000000	0.995021
547.000000	1.000479
548.000000	1.006146
549.000000	1.011929
550.000000	1.017948
551.000000	1.024072
552.000000	1.030418
553.000000	1.037030
554.000000	1.043883
555.000000	1.050967
556.000000	1.058325
557.000000	1.065982
558.000000	1.073874
559.000000	1.082033
560.000000	1.090442
561.000000	1.099168
562.000000	1.108176
563.000000	1.117579
564.000000	1.127175
565.000000	1.137209
566.000000	1.147679
567.000000	1.158513
568.000000	1.169629
569.000000	1.181235
570.000000	1.193210
571.000000	1.205693
572.000000	1.218620
573.000000	1.231941
574.000000	1.245942
575.000000	1.260405
576.000000	1.275221
577.000000	1.290450
578.000000	1.306099
579.000000	1.322350
580.000000	1.339183
581.000000	1.356595
582.000000	1.374563
583.000000	1.393097
584.000000	1.412357
585.000000	1.432497
586.000000	1.453676
587.000000	1.475867
588.000000	1.499215
589.000000	1.523973
590.000000	1.550113
591.000000	1.577865
592.000000	1.607414
593.000000	1.638857
594.000000	1.672386
595.000000	1.708315
596.000000	1.746711
597.000000	1.787545
598.000000	1.831098
599.000000	1.877409
600.000000	1.926416
601.000000	1.978607
602.000000	2.033837
603.000000	2.092439
604.000000	2.154462
605.000000	2.220291
606.000000	2.289939
607.000000	2.363821
608.000000	2.442175
609.000000	2.525036
610.000000	2.612996
611.000000	2.706326
612.000000	2.805346
613.000000	2.910360
614.000000	3.021844
615.000000	3.140136
616.000000	3.265625
617.000000	3.398784
618.000000	3.540113
619.000000	3.689950
620.000000	3.848485
621.000000	4.016137
622.000000	4.192867
623.000000	4.379120
624.000000	4.575038
625.000000	4.780284
626.000000	4.994737
627.000000	5.218298
628.000000	5.450500
629.000000	5.691254
630.000000	5.939940
631.000000	6.195927
632.000000	6.458101
633.000000	6.725786
634.000000	6.998026
635.000000	7.273328
636.000000	7.550246
637.000000	7.827780
638.000000	8.104580
639.000000	8.379059
640.000000	8.650134
641.000000	8.916427
642.000000	9.176434
643.000000	9.429606
644.000000	9.674538
645.000000	9.910045
646.000000	10.135332
647.000000	10.349556
648.000000	10.551930
649.000000	10.741705
650.000000	10.918172
651.000000	11.081175
652.000000	11.230190
653.000000	11.364596
654.000000	11.484419
655.000000	11.589653
656.000000	11.680023
657.000000	11.756085
658.000000	11.817256
659.000000	11.863459
660.000000	11.895443
661.000000	11.913416
662.000000	11.917687
663.000000	11.909071
664.000000	11.887764
665.000000	11.854349
666.000000	11.809320
667.000000	11.754256
668.000000	11.689927
669.000000	11.617323
670.000000	11.537976
671.000000	11.453306
672.000000	11.364494
673.000000	11.272656
674.000000	11.179372
675.000000	11.085722
676.000000	10.993093
677.000000	10.902865
678.000000	10.815148
679.000000	10.731174
680.000000	10.651909
681.000000	10.577839
682.000000	10.509586
683.000000	10.447467
684.000000	10.392243
685.000000	10.344100
686.000000	10.302883
687.000000	10.268569
688.000000	10.241134
689.000000	10.220322
690.000000	10.205878
691.000000	10.197601
692.000000	10.194873
693.000000	10.197376
694.000000	10.204636
695.000000	10.215982
696.000000	10.230905
697.000000	10.249166
698.000000	10.270002
699.000000	10.292743
700.000000	10.316571
701.000000	10.341307
702.000000	10.366626
703.000000	10.391791
704.000000	10.416409
705.000000	10.439905
706.000000	10.461752
707.000000	10.481849
708.000000	10.499839
709.000000	10.515063
710.000000	10.527561
711.000000	10.536958
712.000000	10.542705
713.000000	10.545369
714.000000	10.544743
715.000000	10.540412
716.000000	10.532534
717.000000	10.521092
718.000000	10.506327
719.000000	10.487822
720.000000	10.465858
721.000000	10.440343
722.000000	10.411258
723.000000	10.378591
724.000000	10.342600
725.000000	10.303262
726.000000	10.260376
727.000000	10.214374
728.000000	10.165693
729.000000	10.114395
730.000000	10.061040
731.000000	10.006158
732.000000	9.949493
733.000000	9.891513
734.000000	9.832488
735.000000	9.773270
736.000000	9.714293
737.000000	9.655669
738.000000	9.598203
739.000000	9.542585
740.000000	9.489217
741.000000	9.438392
742.000000	9.390620
743.000000	9.346435
744.000000	9.306673
745.000000	9.271130
746.000000	9.240453
747.000000	9.215458
748.000000	9.195750
749.000000	9.181368
750.000000	9.173074
751.000000	9.170840
752.000000	9.175072
753.000000	9.185751
754.000000	9.202522
755.000000	9.225466
756.000000	9.254626
757.000000	9.289862
758.000000	9.331535
759.000000	9.378972
760.000000	9.432387
761.000000	9.491932
762.000000	9.557148
763.000000	9.627279
764.000000	9.702516
765.000000	9.782693
766.000000	9.867615
767.000000	9.957166
768.000000	10.050083
769.000000	10.146499
770.000000	10.247054
771.000000	10.350765
772.000000	10.457501
773.000000	10.566774
774.000000	10.678913
775.000000	10.793627
776.000000	10.910767
777.000000	11.030550
778.000000	11.152023
779.000000	11.275352
780.000000	11.400830
781.000000	11.527597
782.000000	11.655835
783.000000	11.785501
784.000000	11.916639
785.000000	12.048899
786.000000	12.183299
787.000000	12.319055
788.000000	12.454685
789.000000	12.591627
790.000000	12.729745
791.000000	12.869102
792.000000	13.009784
793.000000	13.151239
794.000000	13.293810
795.000000	13.437112
796.000000	13.580801
797.000000	13.725510
798.000000	13.871120
799.000000	14.017849
800.000000	14.166635
801.000000	14.316519
802.000000	14.468720
803.000000	14.623376
804.000000	14.782135
805.000000	14.943353
806.000000	15.107650
807.000000	15.274204
808.000000	15.445892
809.000000	15.619778
810.000000	15.797539
811.000000	15.979830
812.000000	16.166411
813.000000	16.358212
814.000000	16.554011
815.000000	16.755316
816.000000	16.962576
817.000000	17.175766
818.000000	17.394924
819.000000	17.620531
820.000000	17.850833
821.000000	18.086393
822.000000	18.326515
823.000000	18.574655
824.000000	18.825620
825.000000	19.083067
826.000000	19.345075
827.000000	19.610961
828.000000	19.880001
829.000000	20.152909
830.000000	20.426582
831.000000	20.704257
832.000000	20.984639
833.000000	21.266460
834.000000	21.548234
835.000000	21.829644
836.000000	22.110515
837.000000	22.390560
838.000000	22.669375
839.000000	22.944397
840.000000	23.215535
841.000000	23.482669
842.000000	23.747687
843.000000	24.007246
844.000000	24.264139
845.000000	24.517275
846.000000	24.759988
847.000000	24.997857
848.000000	25.227326
849.000000	25.453572
850.000000	25.671032
851.000000	25.881646
852.000000	26.083400
853.000000	26.283024
854.000000	26.473875
855.000000	26.659486
856.000000	26.839540
857.000000	27.014154
858.000000	27.162226
859.000000	27.330188
860.000000	27.497010
861.000000	27.647706
862.000000	27.804954
863.000000	27.965467
864.000000	28.127272
865.000000	28.279339
866.000000	28.412514
867.000000	28.566525
868.000000	28.718650
869.000000	28.874938
870.000000	29.016920
871.000000	29.175964
872.000000	29.326603
873.000000	29.465758
874.000000	29.628183
875.000000	29.795392
876.000000	29.952453
877.000000	30.137836
878.000000	30.310361
879.000000	30.471561
880.000000	30.649231
881.000000	30.842584
882.000000	31.033669
883.000000	31.236491
884.000000	31.446121
885.000000	31.655983
886.000000	31.860283
887.000000	32.065426
888.000000	32.275550
889.000000	32.477719
890.000000	32.701490
891.000000	32.916360
892.000000	33.132540
893.000000	33.356857
894.000000	33.568283
895.000000	33.774305
896.000000	33.981551
897.000000	34.198292
898.000000	34.383211
899.000000	34.569940
900.000000	34.756748
901.000000	34.966783
902.000000	35.145949
903.000000	35.341760
904.000000	35.534355
905.000000	35.729722
906.000000	35.915779
907.000000	36.114632
908.000000	36.330795
909.000000	36.514502
910.000000	36.695563
911.000000	36.892224
912.000000	37.072701
913.000000	37.268357
914.000000	37.472430
915.000000	37.654156
916.000000	37.839570
917.000000	38.024144
918.000000	38.196313
919.000000	38.374350
920.000000	38.556495
921.000000	38.753804
922.000000	38.954936
923.000000	39.145362
924.000000	39.348759
925.000000	39.534197
926.000000	39.735317
927.000000	39.946508
928.000000	40.161711
929.000000	40.374818
930.000000	40.586362
931.000000	40.820791
932.000000	41.038520
933.000000	41.279785
934.000000	41.509737
935.000000	41.739098
936.000000	41.963142
937.000000	42.198819
938.000000	42.415364
939.000000	42.618331
940.000000	42.849558
941.000000	43.071671
942.000000	43.287285
943.000000	43.504700
944.000000	43.731083
945.000000	43.959198
946.000000	44.191002
947.000000	44.404462
948.000000	44.608415
949.000000	44.821759
950.000000	45.048620
951.000000	45.266525
952.000000	45.492981
953.000000	45.722575
954.000000	45.945310
955.000000	46.170778
956.000000	46.386181
957.000000	46.591763
958.000000	46.811070
959.000000	47.022975
960.000000	47.227738
961.000000	47.437835
962.000000	47.640150
963.000000	47.833396
964.000000	48.014955
965.000000	48.202523
966.000000	48.387727
967.000000	48.568184
968.000000	48.751737
969.000000	48.936391
970.000000	49.126808
971.000000	49.323579
972.000000	49.506594
973.000000	49.690481
974.000000	49.890448
975.000000	50.065240
976.000000	50.241705
977.000000	50.422560
978.000000	50.602178
979.000000	50.785040
980.000000	50.948460
981.000000	51.102037
982.000000	51.265282
983.000000	51.442346
984.000000	51.618969
985.000000	51.785606
986.000000	51.952428
987.000000	52.103543
988.000000	52.247325
989.000000	52.393518
990.000000	52.538783
991.000000	52.690727
992.000000	52.848620
993.000000	52.999026
994.000000	53.159191
995.000000	53.319039
996.000000	53.468325
997.000000	53.614121
998.000000	53.772977
999.000000	53.935366
1000.000000	54.092114
1001.000000	54.235410
1002.000000	54.381746
1003.000000	54.528976
1004.000000	54.674051
1005.000000	54.827529
1006.000000	54.970397
1007.000000	55.123730
1008.000000	55.278377
1009.000000	55.420083
1010.000000	55.573826
1011.000000	55.723157
1012.000000	55.854402
1013.000000	55.975548
1014.000000	56.099587
1015.000000	56.245578
1016.000000	56.384751
1017.000000	56.512342
1018.000000	56.632700
1019.000000	56.756671
1020.000000	56.887403
1021.000000	57.020270
1022.000000	57.150517
1023.000000	57.282076
1024.000000	57.404882
1025.000000	57.515222
1026.000000	57.618742
1027.000000	57.720806
1028.000000	57.813072
1029.000000	57.906449
1030.000000	57.999652
1031.000000	58.080165
1032.000000	58.156010
1033.000000	58.230161
1034.000000	58.305437
1035.000000	58.379967
1036.000000	58.445650
1037.000000	58.503093
1038.000000	58.568307
1039.000000	58.619351
1040.000000	58.661255
1041.000000	58.713075
1042.000000	58.767656
1043.000000	58.810173
1044.000000	58.856300
1045.000000	58.900818
1046.000000	58.949054
1047.000000	59.007224
1048.000000	59.058929
1049.000000	59.110077
1050.000000	59.159069
1051.000000	59.208027
1052.000000	59.258876
1053.000000	59.309711
1054.000000	59.350460
1055.000000	59.400066
1056.000000	59.439587
1057.000000	59.482694
1058.000000	59.534342
1059.000000	59.580783
1060.000000	59.639532
1061.000000	59.700641
1062.000000	59.761465
1063.000000	59.822678
1064.000000	59.851533
1065.000000	59.903042
1066.000000	59.968413
1067.000000	60.027840
1068.000000	60.091838
1069.000000	60.149473
1070.000000	60.218338
1071.000000	60.276247
1072.000000	60.334290
1073.000000	60.387655
1074.000000	60.458116
1075.000000	60.541327
1076.000000	60.612305
1077.000000	60.662185
1078.000000	60.718196
1079.000000	60.786697
1080.000000	60.846677
1081.000000	60.907058
1082.000000	60.971006
1083.000000	61.042969
1084.000000	61.092700
1085.000000	61.134613
1086.000000	61.187763
1087.000000	61.235554
1088.000000	61.290263
1089.000000	61.341653
1090.000000	61.373439
1091.000000	61.406665
1092.000000	61.439741
1093.000000	61.472383
1094.000000	61.521211
1095.000000	61.544583
1096.000000	61.572943
1097.000000	61.601780
1098.000000	61.637652
1099.000000	61.688884
1100.000000	61.718967
1101.000000	61.736887
1102.000000	61.765075
1103.000000	61.786757
1104.000000	61.793873
1105.000000	61.794918
1106.000000	61.825444
1107.000000	61.861960
1108.000000	61.894919
1109.000000	61.917078
1110.000000	61.926600
1111.000000	61.924486
1112.000000	61.938403
1113.000000	61.960445
1114.000000	61.982594
1115.000000	62.010173
1116.000000	62.008134
1117.000000	62.011196
1118.000000	62.018260
1119.000000	62.024808
1120.000000	62.049611
1121.000000	62.074561
1122.000000	62.123852
1123.000000	62.168887
1124.000000	62.198056
1125.000000	62.244795
1126.000000	62.272807
1127.000000	62.318677
1128.000000	62.352058
1129.000000	62.361114
1130.000000	62.389946
1131.000000	62.413283
1132.000000	62.416022
1133.000000	62.440332
1134.000000	62.496156
1135.000000	62.490930
1136.000000	62.501806
1137.000000	62.526174
1138.000000	62.555269
1139.000000	62.587808
1140.000000	62.628256
1141.000000	62.640531
1142.000000	62.665046
1143.000000	62.678087
1144.000000	62.678396
1145.000000	62.695049
1146.000000	62.740598
1147.000000	62.770005
1148.000000	62.782560
1149.000000	62.814385
1150.000000	62.816497
1151.000000	62.829984
1152.000000	62.882037
1153.000000	62.889222
1154.000000	62.908580
1155.000000	62.922906
1156.000000	62.933784
1157.000000	62.936879
1158.000000	62.915588
1159.000000	62.918799
1160.000000	62.916491
1161.000000	62.932222
1162.000000	62.934484
1163.000000	62.936047
1164.000000	62.959573
1165.000000	62.976488
1166.000000	62.996799
1167.000000	63.017835
1168.000000	63.004732
1169.000000	62.977364
1170.000000	63.019658
1171.000000	63.042259
1172.000000	63.037201
1173.000000	63.045002
1174.000000	63.066237
1175.000000	63.076144
1176.000000	63.091614
1177.000000	63.097304
1178.000000	63.113479
1179.000000	63.131912
1180.000000	63.140286
1181.000000	63.136505
1182.000000	63.133422
1183.000000	63.166353
1184.000000	63.158761
1185.000000	63.171967
1186.000000	63.209542
1187.000000	63.195138
1188.000000	63.209871
1189.000000	63.243454
1190.000000	63.253280
1191.000000	63.261814
1192.000000	63.262260
1193.000000	63.281905
1194.000000	63.296986
1195.000000	63.301162
1196.000000	63.304889
1197.000000	63.297575
1198.000000	63.307577
1199.000000	63.300245
1200.000000	63.301438
1201.000000	63.300401
1202.000000	63.315584
1203.000000	63.339760
1204.000000	63.357425
1205.000000	63.364952
1206.000000	63.374994
1207.000000	63.387786
1208.000000	63.389608
1209.000000	63.398117
1210.000000	63.399811
1211.000000	63.406210
1212.000000	63.404339
1213.000000	63.397739
1214.000000	63.413077
1215.000000	63.420394
1216.000000	63.416827
1217.000000	63.428022
1218.000000	63.425656
1219.000000	63.433617
1220.000000	63.441163
1221.000000	63.440518
1222.000000	63.448509
1223.000000	63.456377
1224.000000	63.455332
1225.000000	63.460360
1226.000000	63.461440
1227.000000	63.465272
1228.000000	63.469490
1229.000000	63.481461
1230.000000	63.497043
1231.000000	63.506808
1232.000000	63.540261
1233.000000	63.558020
1234.000000	63.571141
1235.000000	63.585950
1236.000000	63.606484
1237.000000	63.635476
1238.000000	63.655327
1239.000000	63.666442
1240.000000	63.680779
1241.000000	63.710349
1242.000000	63.748619
1243.000000	63.781427
1244.000000	63.810813
1245.000000	63.840866
1246.000000	63.872753
1247.000000	63.897901
1248.000000	63.922808
1249.000000	63.958735
1250.000000	63.995981
1251.000000	64.037589
1252.000000	64.071755
1253.000000	64.099419
1254.000000	64.129599
1255.000000	64.158157
1256.000000	64.191938
1257.000000	64.220592
1258.000000	64.252740
1259.000000	64.271538
1260.000000	64.294867
1261.000000	64.335885
1262.000000	64.359978
1263.000000	64.380263
1264.000000	64.389313
1265.000000	64.395929
1266.000000	64.416558
1267.000000	64.420289
1268.000000	64.433456
1269.000000	64.460124
1270.000000	64.473848
1271.000000	64.463470
1272.000000	64.451287
1273.000000	64.462265
1274.000000	64.480658
1275.000000	64.483774
1276.000000	64.476179
1277.000000	64.476585
1278.000000	64.481220
1279.000000	64.480038
1280.000000	64.479247
1281.000000	64.474463
1282.000000	64.472112
1283.000000	64.472991
1284.000000	64.459649
1285.000000	64.443423
1286.000000	64.432398
1287.000000	64.432126
1288.000000	64.426483
1289.000000	64.404376
1290.000000	64.394615
1291.000000	64.384777
1292.000000	64.370829
1293.000000	64.365628
1294.000000	64.369497
1295.000000	64.373615
1296.000000	64.358003
1297.000000	64.349602
1298.000000	64.355392
1299.000000	64.363938
1300.000000	64.366117
1301.000000	64.361062
1302.000000	64.367334
1303.000000	64.381213
1304.000000	64.385260
1305.000000	64.404106
1306.000000	64.442717
1307.000000	64.470770
1308.000000	64.471403
1309.000000	64.470690
1310.000000	64.491421
1311.000000	64.507857
1312.000000	64.521195
1313.000000	64.538038
1314.000000	64.559584
1315.000000	64.567273
1316.000000	64.583407
1317.000000	64.614085
1318.000000	64.641137
1319.000000	64.659621
1320.000000	64.680094
1321.000000	64.696906
1322.000000	64.708103
1323.000000	64.726550
1324.000000	64.757695
1325.000000	64.787000
1326.000000	64.803289
1327.000000	64.812060
1328.000000	64.825256
1329.000000	64.835365
1330.000000	64.852260
1331.000000	64.874939
1332.000000	64.893238
1333.000000	64.900706
1334.000000	64.917688
1335.000000	64.950264
1336.000000	64.979472
1337.000000	64.992444
1338.000000	64.987591
1339.000000	64.998782
1340.000000	64.999926
1341.000000	64.984693
1342.000000	64.988126
1343.000000	65.006104
1344.000000	64.998962
1345.000000	64.988836
1346.000000	64.967877
1347.000000	64.963156
1348.000000	64.940274
1349.000000	64.909223
1350.000000	64.867688
1351.000000	64.810682
1352.000000	64.754154
1353.000000	64.709616
1354.000000	64.761704
1355.000000	64.844506
1356.000000	64.883706
1357.000000	64.856117
1358.000000	64.792194
1359.000000	64.752710
1360.000000	64.816411
1361.000000	64.811793
1362.000000	64.625245
1363.000000	64.544950
1364.000000	64.561501
1365.000000	64.433293
1366.000000	64.449318
1367.000000	64.552524
1368.000000	64.579788
1369.000000	64.588868
1370.000000	64.638402
1371.000000	64.605440
1372.000000	64.520894
1373.000000	64.464565
1374.000000	64.463097
1375.000000	64.460968
1376.000000	64.456617
1377.000000	64.391250
1378.000000	64.454861
1379.000000	64.401453
1380.000000	64.439138
1381.000000	64.395901
1382.000000	64.553998
1383.000000	64.627649
1384.000000	64.679051
1385.000000	64.705754
1386.000000	64.712052
1387.000000	64.847558
1388.000000	64.801486
1389.000000	64.757764
1390.000000	64.667685
1391.000000	64.597808
1392.000000	64.479923
1393.000000	64.502410
1394.000000	64.574756
1395.000000	64.470505
1396.000000	64.398314
1397.000000	64.536302
1398.000000	64.578897
1399.000000	64.573505
1400.000000	64.815078
1401.000000	64.800337
1402.000000	64.649269
1403.000000	64.565425
1404.000000	64.526608
1405.000000	64.378411
1406.000000	64.381323
1407.000000	64.392984
1408.000000	64.403748
1409.000000	64.386297
1410.000000	64.349072
1411.000000	64.296675
1412.000000	64.299893
1413.000000	64.184044
1414.000000	64.218600
1415.000000	64.120075
1416.000000	64.119899
1417.000000	63.932337
1418.000000	63.843994
1419.000000	63.751706
1420.000000	63.709717
1421.000000	63.707283
1422.000000	63.568134
1423.000000	63.597434
1424.000000	63.515868
1425.000000	63.466806
1426.000000	63.406506
1427.000000	63.459601
1428.000000	63.418829
1429.000000	63.315958
1430.000000	63.259137
1431.000000	63.270037
1432.000000	63.264792
1433.000000	63.228322
1434.000000	63.120101
1435.000000	62.912942
1436.000000	62.812225
1437.000000	62.823120
1438.000000	62.782797
1439.000000	62.754554
1440.000000	62.756714
1441.000000	62.706646
1442.000000	62.700543
1443.000000	62.651377
1444.000000	62.585645
1445.000000	62.598054
1446.000000	62.581838
1447.000000	62.536888
1448.000000	62.489302
1449.000000	62.421627
1450.000000	62.416416
1451.000000	62.386580
1452.000000	62.298934
1453.000000	62.223620
1454.000000	62.191585
1455.000000	62.158001
1456.000000	62.105072
1457.000000	62.065274
1458.000000	62.023849
1459.000000	62.004618
1460.000000	61.960689
1461.000000	61.940109
1462.000000	61.917226
1463.000000	61.874226
1464.000000	61.816406
1465.000000	61.801393
1466.000000	61.757766
1467.000000	61.709173
1468.000000	61.678943
1469.000000	61.696424
1470.000000	61.693586
1471.000000	61.680238
1472.000000	61.631901
1473.000000	61.615549
1474.000000	61.556456
1475.000000	61.528723
1476.000000	61.469477
1477.000000	61.423064
1478.000000	61.411646
1479.000000	61.398205
1480.000000	61.334482
1481.000000	61.306215
1482.000000	61.296087
1483.000000	61.295251
1484.000000	61.299211
1485.000000	61.262370
1486.000000	61.256230
1487.000000	61.271515
1488.000000	61.280066
1489.000000	61.279654
1490.000000	61.282642
1491.000000	61.304492
1492.000000	61.303977
1493.000000	61.307532
1494.000000	61.304114
1495.000000	61.302803
1496.000000	61.308340
1497.000000	61.330010
1498.000000	61.358869
1499.000000	61.384001
1500.000000	61.396783
1501.000000	61.403086
1502.000000	61.416526
1503.000000	61.425698
1504.000000	61.416394
1505.000000	61.423671
1506.000000	61.450661
1507.000000	61.460810
1508.000000	61.496096
1509.000000	61.526759
1510.000000	61.554573
1511.000000	61.602571
1512.000000	61.650497
1513.000000	61.683042
1514.000000	61.697816
1515.000000	61.716642
1516.000000	61.753459
1517.000000	61.798347
1518.000000	61.818304
1519.000000	61.838945
1520.000000	61.880103
1521.000000	61.918901
1522.000000	61.959920
1523.000000	61.988286
1524.000000	62.008865
1525.000000	62.028656
1526.000000	62.047363
1527.000000	62.071060
1528.000000	62.094840
1529.000000	62.126321
1530.000000	62.152853
1531.000000	62.182208
1532.000000	62.205177
1533.000000	62.231607
1534.000000	62.264175
1535.000000	62.292917
1536.000000	62.331848
1537.000000	62.362351
1538.000000	62.396188
1539.000000	62.429345
1540.000000	62.450168
1541.000000	62.461821
1542.000000	62.484599
1543.000000	62.515417
1544.000000	62.542946
1545.000000	62.573177
1546.000000	62.601293
1547.000000	62.618099
1548.000000	62.635512
1549.000000	62.658062
1550.000000	62.666779
1551.000000	62.678438
1552.000000	62.690447
1553.000000	62.707241
1554.000000	62.731837
1555.000000	62.740057
1556.000000	62.736046
1557.000000	62.740314
1558.000000	62.762920
1559.000000	62.774246
1560.000000	62.780391
1561.000000	62.795661
1562.000000	62.809558
1563.000000	62.819985
1564.000000	62.817261
1565.000000	62.821205
1566.000000	62.830412
1567.000000	62.827828
1568.000000	62.826328
1569.000000	62.835515
1570.000000	62.833528
1571.000000	62.818856
1572.000000	62.822417
1573.000000	62.831296
1574.000000	62.836466
1575.000000	62.859951
1576.000000	62.886866
1577.000000	62.892057
1578.000000	62.888643
1579.000000	62.871348
1580.000000	62.855174
1581.000000	62.842598
1582.000000	62.849127
1583.000000	62.851334
1584.000000	62.854941
1585.000000	62.877906
1586.000000	62.888469
1587.000000	62.887531
1588.000000	62.891751
1589.000000	62.888591
1590.000000	62.893478
1591.000000	62.923889
1592.000000	62.942217
1593.000000	62.932647
1594.000000	62.940674
1595.000000	62.961051
1596.000000	62.971733
1597.000000	62.977282
1598.000000	62.988227
1599.000000	63.015934
1600.000000	63.050006
1601.000000	63.072438
1602.000000	63.095022
1603.000000	63.103586
1604.000000	63.112139
1605.000000	63.155225
1606.000000	63.192538
1607.000000	63.212781
1608.000000	63.233561
1609.000000	63.263553
1610.000000	63.278025
1611.000000	63.291368
1612.000000	63.306081
1613.000000	63.339007
1614.000000	63.387328
1615.000000	63.430643
1616.000000	63.461055
1617.000000	63.487738
1618.000000	63.505070
1619.000000	63.537496
1620.000000	63.552714
1621.000000	63.578032
1622.000000	63.603606
1623.000000	63.627794
1624.000000	63.661188
1625.000000	63.683261
1626.000000	63.692104
1627.000000	63.701611
1628.000000	63.730609
1629.000000	63.759849
1630.000000	63.775109
1631.000000	63.802731
1632.000000	63.841092
1633.000000	63.877118
1634.000000	63.883276
1635.000000	63.899716
1636.000000	63.921252
1637.000000	63.933752
1638.000000	63.972568
1639.000000	63.993416
1640.000000	63.998674
1641.000000	63.998858
1642.000000	64.031668
1643.000000	64.059131
1644.000000	64.063335
1645.000000	64.065939
1646.000000	64.086618
1647.000000	64.093841
1648.000000	64.095834
1649.000000	64.088452
1650.000000	64.094445
1651.000000	64.095711
1652.000000	64.091375
1653.000000	64.118159
1654.000000	64.114024
1655.000000	64.129053
1656.000000	64.123534
1657.000000	64.125908
1658.000000	64.135697
1659.000000	64.130912
1660.000000	64.149500
1661.000000	64.166616
1662.000000	64.161355
1663.000000	64.166203
1664.000000	64.177323
1665.000000	64.174532
1666.000000	64.163127
1667.000000	64.130966
1668.000000	64.114050
1669.000000	64.111851
1670.000000	64.105129
1671.000000	64.085775
1672.000000	64.081317
1673.000000	64.046794
1674.000000	64.028316
1675.000000	64.000795
1676.000000	63.999484
1677.000000	63.964600
1678.000000	63.928766
1679.000000	63.899801
1680.000000	63.879270
1681.000000	63.838565
1682.000000	63.813029
1683.000000	63.771796
1684.000000	63.751447
1685.000000	63.711784
1686.000000	63.691921
1687.000000	63.669730
1688.000000	63.628986
1689.000000	63.589940
1690.000000	63.562069
1691.000000	63.536202
1692.000000	63.502502
1693.000000	63.474892
1694.000000	63.452645
1695.000000	63.423739
1696.000000	63.388289
1697.000000	63.367904
1698.000000	63.340995
1699.000000	63.304959
1700.000000	63.279724
1701.000000	63.266595
1702.000000	63.269355
1703.000000	63.236811
1704.000000	63.216215
1705.000000	63.179528
1706.000000	63.180024
1707.000000	63.159122
1708.000000	63.156292
1709.000000	63.153602
1710.000000	63.148900
1711.000000	63.117325
1712.000000	63.100469
1713.000000	63.080517
1714.000000	63.063837
1715.000000	63.049826
1716.000000	63.039161
1717.000000	63.028149
1718.000000	63.041605
1719.000000	63.032922
1720.000000	63.026066
1721.000000	63.009179
1722.000000	63.000452
1723.000000	63.007799
1724.000000	63.011784
1725.000000	62.982049
1726.000000	62.990654
1727.000000	63.009823
1728.000000	62.999669
1729.000000	62.998073
1730.000000	62.993335
1731.000000	62.974365
1732.000000	62.964831
1733.000000	62.961747
1734.000000	62.962319
1735.000000	62.969681
1736.000000	62.958384
1737.000000	62.936577
1738.000000	62.939604
1739.000000	62.942556
1740.000000	62.955608
1741.000000	62.963577
1742.000000	62.981193
1743.000000	62.988505
1744.000000	62.987573
1745.000000	62.991448
1746.000000	63.020318
1747.000000	63.034437
1748.000000	63.046856
1749.000000	63.062990
1750.000000	63.073657
1751.000000	63.089543
1752.000000	63.115711
1753.000000	63.120097
1754.000000	63.131340
1755.000000	63.153312
1756.000000	63.164938
1757.000000	63.174642
1758.000000	63.181412
1759.000000	63.194748
1760.000000	63.210688
1761.000000	63.218147
1762.000000	63.239929
1763.000000	63.264246
1764.000000	63.277899
1765.000000	63.278467
1766.000000	63.289918
1767.000000	63.311913
1768.000000	63.316067
1769.000000	63.323706
1770.000000	63.325616
1771.000000	63.328072
1772.000000	63.359964
1773.000000	63.381310
1774.000000	63.388503
1775.000000	63.400469
1776.000000	63.403086
1777.000000	63.408719
1778.000000	63.428510
1779.000000	63.436977
1780.000000	63.423216
1781.000000	63.424514
1782.000000	63.440784
1783.000000	63.451390
1784.000000	63.461534
1785.000000	63.466072
1786.000000	63.466484
1787.000000	63.471513
1788.000000	63.477856
1789.000000	63.486638
1790.000000	63.496376
1791.000000	63.522782
1792.000000	63.541775
1793.000000	63.537403
1794.000000	63.538831
1795.000000	63.552083
1796.000000	63.554181
1797.000000	63.539369
1798.000000	63.531605
1799.000000	63.541262
1800.000000	63.568408
1801.000000	63.601856
1802.000000	63.615590
1803.000000	63.614976
1804.000000	63.612911
1805.000000	63.641457
1806.000000	63.677078
1807.000000	63.659357
1808.000000	63.629704
1809.000000	63.624245
1810.000000	63.639641
1811.000000	63.662941
1812.000000	63.688198
1813.000000	63.692437
1814.000000	63.692877
1815.000000	63.687655
1816.000000	63.698485
1817.000000	63.789815
1818.000000	63.846848
1819.000000	63.927368
1820.000000	63.970075
1821.000000	63.970941
1822.000000	63.957332
1823.000000	63.938847
1824.000000	63.934511
1825.000000	64.078264
1826.000000	64.141737
1827.000000	64.127296
1828.000000	64.125391
1829.000000	64.147792
1830.000000	64.242054
1831.000000	64.279578
1832.000000	64.258180
1833.000000	64.249443
1834.000000	64.269370
1835.000000	64.347523
1836.000000	64.345550
1837.000000	64.298586
1838.000000	64.255551
1839.000000	64.209162
1840.000000	64.111944
1841.000000	64.102221
1842.000000	64.110957
1843.000000	64.132419
1844.000000	64.127911
1845.000000	64.089697
1846.000000	64.113697
1847.000000	64.182605
1848.000000	64.176148
1849.000000	64.172902
1850.000000	64.154524
1851.000000	64.108143
1852.000000	64.033167
1853.000000	64.052535
1854.000000	63.994446
1855.000000	63.952621
1856.000000	63.852346
1857.000000	63.784221
1858.000000	63.748788
1859.000000	63.717086
1860.000000	63.537634
1861.000000	63.459383
1862.000000	63.477147
1863.000000	63.659756
1864.000000	63.764480
1865.000000	63.724643
1866.000000	63.685220
1867.000000	63.683821
1868.000000	63.658443
1869.000000	63.624746
1870.000000	63.684933
1871.000000	63.673215
1872.000000	63.844265
1873.000000	63.896192
1874.000000	63.944914
1875.000000	63.983048
1876.000000	64.042887
1877.000000	64.043674
1878.000000	64.019793
1879.000000	64.010412
1880.000000	64.031266
1881.000000	63.950455
1882.000000	63.826002
1883.000000	63.883936
1884.000000	63.854954
1885.000000	63.850659
1886.000000	63.891472
1887.000000	63.822337
1888.000000	63.688498
1889.000000	63.679591
1890.000000	63.599533
1891.000000	63.678745
1892.000000	63.671972
1893.000000	63.668012
1894.000000	63.622798
1895.000000	63.567234
1896.000000	63.461643
1897.000000	63.374273
1898.000000	63.095584
1899.000000	62.854717
1900.000000	62.671057
1901.000000	62.543665
1902.000000	62.662471
1903.000000	62.559681
1904.000000	62.397852
1905.000000	62.047125
1906.000000	61.948547
1907.000000	61.629297
1908.000000	61.462903
1909.000000	61.269194
1910.000000	61.078267
1911.000000	60.775152
1912.000000	60.543847
1913.000000	60.378634
1914.000000	60.172977
1915.000000	59.974214
1916.000000	59.742293
1917.000000	59.495560
1918.000000	59.167032
1919.000000	58.994361
1920.000000	58.861534
1921.000000	58.579141
1922.000000	58.361824
1923.000000	58.208247
1924.000000	57.894939
1925.000000	57.711649
1926.000000	57.497045
1927.000000	57.287601
1928.000000	57.099082
1929.000000	56.915214
1930.000000	56.723650
1931.000000	56.542851
1932.000000	56.343771
1933.000000	56.206592
1934.000000	56.029527
1935.000000	55.866813
1936.000000	55.717526
1937.000000	55.344477
1938.000000	55.224032
1939.000000	55.103313
1940.000000	55.023647
1941.000000	54.832445
1942.000000	54.734647
1943.000000	54.622794
1944.000000	54.556613
1945.000000	54.506213
1946.000000	54.473192
1947.000000	54.426237
1948.000000	54.353325
1949.000000	54.317470
1950.000000	54.256528
1951.000000	54.262559
1952.000000	54.290209
1953.000000	54.279174
1954.000000	54.233898
1955.000000	54.158005
1956.000000	54.177773
1957.000000	54.187037
1958.000000	54.139046
1959.000000	54.186534
1960.000000	54.210911
1961.000000	54.206420
1962.000000	54.248753
1963.000000	54.254914
1964.000000	54.280432
1965.000000	54.318510
1966.000000	54.385938
1967.000000	54.428571
1968.000000	54.441749
1969.000000	54.505386
1970.000000	54.570599
1971.000000	54.635085
1972.000000	54.694014
1973.000000	54.736418
1974.000000	54.802087
1975.000000	54.881102
1976.000000	54.952320
1977.000000	55.024003
1978.000000	55.091740
1979.000000	55.147192
1980.000000	55.235276
1981.000000	55.287152
1982.000000	55.360384
1983.000000	55.424437
1984.000000	55.497543
1985.000000	55.566668
1986.000000	55.626173
1987.000000	55.689000
1988.000000	55.775254
1989.000000	55.847289
1990.000000	55.919023
1991.000000	55.989180
1992.000000	56.043328
1993.000000	56.121441
1994.000000	56.196966
1995.000000	56.264910
1996.000000	56.337655
1997.000000	56.413136
1998.000000	56.475849
1999.000000	56.535420
2000.000000	56.600760
