PE UV       SUBTECH     SPECTRUM    ASCII       PEDS        4.00        
   -1
PELID.002-TX3.ASC
23/11/30
16:05:07.00
23/11/30
16:05:07.00
Vinicio Soto Monge
PELID 2
250,000000
1
Lambda 1050
1050L1511233
PerkinElmer UV WinLab 6.3.2.0749 / 2.02.05 Lambda 900 UV/VIS/NIR, Aug  7 2015 09:38:08

0
0
3350/servo 860,8/2
0
0
UV/VIS
1
1
1
DoubleDePol,CommonBeamDepol,RBeamAtt,SBeamAtt,60mm sphere, WB InGaAs Detector
0
0
0
0
Program
Program
3350/servo 860,8/2
3350/0,4 860,8/0,4
3350/0,4 860,8/0,4
0
20.00
 
 
 
0
 
860,8
319,2
860,8
Front
100
on
S:100 R:100
0
0
0
0
 
0
 
 
 
0
 
 
0
0
0
0
0
 
 
 
 
0
0


0
0
#HDR
-1
-1
#GR
nm
%T
1.0
0.0
2200,000000
-1,000000
1951
8
82,131741
0,175828
#DATA
284.000000	0.229704
285.000000	0.230980
286.000000	0.231905
287.000000	0.232864
288.000000	0.233773
289.000000	0.234407
290.000000	0.235117
291.000000	0.235557
292.000000	0.235945
293.000000	0.236687
294.000000	0.237362
295.000000	0.238154
296.000000	0.238636
297.000000	0.239143
298.000000	0.239964
299.000000	0.240513
300.000000	0.241523
301.000000	0.242726
302.000000	0.243428
303.000000	0.244146
304.000000	0.245037
305.000000	0.245751
306.000000	0.246780
307.000000	0.247482
308.000000	0.248529
309.000000	0.249914
310.000000	0.251430
311.000000	0.252326
312.000000	0.252881
313.000000	0.253700
314.000000	0.254905
315.000000	0.256340
316.000000	0.256701
317.000000	0.257120
318.000000	0.260523
319.000000	0.262140
320.000000	0.263420
321.000000	0.265077
322.000000	0.265853
323.000000	0.267655
324.000000	0.270411
325.000000	0.273285
326.000000	0.275229
327.000000	0.277599
328.000000	0.280485
329.000000	0.284053
330.000000	0.286659
331.000000	0.289600
332.000000	0.292967
333.000000	0.296661
334.000000	0.300640
335.000000	0.303801
336.000000	0.307240
337.000000	0.310784
338.000000	0.313986
339.000000	0.317509
340.000000	0.321729
341.000000	0.325868
342.000000	0.330789
343.000000	0.335306
344.000000	0.340002
345.000000	0.345375
346.000000	0.351019
347.000000	0.357054
348.000000	0.363351
349.000000	0.369204
350.000000	0.375610
351.000000	0.383538
352.000000	0.391996
353.000000	0.397169
354.000000	0.404624
355.000000	0.412572
356.000000	0.421531
357.000000	0.431786
358.000000	0.441072
359.000000	0.450117
360.000000	0.459754
361.000000	0.470788
362.000000	0.482483
363.000000	0.493613
364.000000	0.504579
365.000000	0.517205
366.000000	0.530369
367.000000	0.544138
368.000000	0.557826
369.000000	0.572176
370.000000	0.588673
371.000000	0.605486
372.000000	0.622761
373.000000	0.641537
374.000000	0.660363
375.000000	0.679201
376.000000	0.698928
377.000000	0.719764
378.000000	0.741564
379.000000	0.764204
380.000000	0.787152
381.000000	0.810981
382.000000	0.835838
383.000000	0.861549
384.000000	0.888467
385.000000	0.916075
386.000000	0.944113
387.000000	0.973147
388.000000	1.003735
389.000000	1.034873
390.000000	1.067036
391.000000	1.099675
392.000000	1.133093
393.000000	1.167860
394.000000	1.203521
395.000000	1.239872
396.000000	1.277292
397.000000	1.315223
398.000000	1.354288
399.000000	1.394420
400.000000	1.435334
401.000000	1.477001
402.000000	1.519447
403.000000	1.562965
404.000000	1.607358
405.000000	1.651944
406.000000	1.697676
407.000000	1.744842
408.000000	1.792835
409.000000	1.842601
410.000000	1.893979
411.000000	1.946553
412.000000	2.000046
413.000000	2.054967
414.000000	2.111418
415.000000	2.169737
416.000000	2.229956
417.000000	2.291852
418.000000	2.355438
419.000000	2.420848
420.000000	2.488042
421.000000	2.557230
422.000000	2.628397
423.000000	2.701545
424.000000	2.776681
425.000000	2.853679
426.000000	2.932258
427.000000	3.012573
428.000000	3.094716
429.000000	3.178617
430.000000	3.264429
431.000000	3.351900
432.000000	3.441061
433.000000	3.531919
434.000000	3.624543
435.000000	3.718772
436.000000	3.814491
437.000000	3.912059
438.000000	4.011311
439.000000	4.112272
440.000000	4.214669
441.000000	4.318390
442.000000	4.423596
443.000000	4.530026
444.000000	4.637529
445.000000	4.746068
446.000000	4.855571
447.000000	4.965763
448.000000	5.076433
449.000000	5.187686
450.000000	5.299401
451.000000	5.411164
452.000000	5.523297
453.000000	5.635824
454.000000	5.748582
455.000000	5.861628
456.000000	5.974897
457.000000	6.088056
458.000000	6.201300
459.000000	6.314729
460.000000	6.428278
461.000000	6.542479
462.000000	6.657115
463.000000	6.771959
464.000000	6.887414
465.000000	7.003120
466.000000	7.119237
467.000000	7.235825
468.000000	7.352964
469.000000	7.470753
470.000000	7.589311
471.000000	7.708589
472.000000	7.828502
473.000000	7.949081
474.000000	8.070349
475.000000	8.192411
476.000000	8.315328
477.000000	8.438831
478.000000	8.563296
479.000000	8.688632
480.000000	8.814831
481.000000	8.942208
482.000000	9.070783
483.000000	9.200655
484.000000	9.331762
485.000000	9.463723
486.000000	9.596956
487.000000	9.731547
488.000000	9.867279
489.000000	10.004344
490.000000	10.142985
491.000000	10.282712
492.000000	10.424248
493.000000	10.567670
494.000000	10.712639
495.000000	10.859252
496.000000	11.007005
497.000000	11.156370
498.000000	11.307407
499.000000	11.460029
500.000000	11.614462
501.000000	11.770569
502.000000	11.928110
503.000000	12.087512
504.000000	12.248534
505.000000	12.411279
506.000000	12.575459
507.000000	12.741071
508.000000	12.908199
509.000000	13.076856
510.000000	13.247044
511.000000	13.418818
512.000000	13.592508
513.000000	13.767675
514.000000	13.944368
515.000000	14.122298
516.000000	14.301419
517.000000	14.481537
518.000000	14.662758
519.000000	14.845136
520.000000	15.028853
521.000000	15.213698
522.000000	15.399414
523.000000	15.586035
524.000000	15.773485
525.000000	15.961322
526.000000	16.149481
527.000000	16.337810
528.000000	16.526075
529.000000	16.714474
530.000000	16.902924
531.000000	17.091425
532.000000	17.279516
533.000000	17.467280
534.000000	17.654365
535.000000	17.840822
536.000000	18.026257
537.000000	18.211100
538.000000	18.394716
539.000000	18.577101
540.000000	18.758004
541.000000	18.937647
542.000000	19.116097
543.000000	19.293177
544.000000	19.468526
545.000000	19.642187
546.000000	19.814089
547.000000	19.983807
548.000000	20.151333
549.000000	20.316832
550.000000	20.480447
551.000000	20.642485
552.000000	20.801956
553.000000	20.959626
554.000000	21.115117
555.000000	21.268656
556.000000	21.419308
557.000000	21.567757
558.000000	21.713751
559.000000	21.857449
560.000000	21.998002
561.000000	22.136676
562.000000	22.273112
563.000000	22.407287
564.000000	22.539699
565.000000	22.670243
566.000000	22.798923
567.000000	22.926146
568.000000	23.051488
569.000000	23.175347
570.000000	23.297436
571.000000	23.419426
572.000000	23.540349
573.000000	23.660261
574.000000	23.780102
575.000000	23.899595
576.000000	24.018696
577.000000	24.137653
578.000000	24.256641
579.000000	24.376061
580.000000	24.495697
581.000000	24.616303
582.000000	24.738131
583.000000	24.860829
584.000000	24.985175
585.000000	25.111575
586.000000	25.239876
587.000000	25.370849
588.000000	25.503592
589.000000	25.638770
590.000000	25.775939
591.000000	25.916567
592.000000	26.059769
593.000000	26.206565
594.000000	26.356622
595.000000	26.510216
596.000000	26.667473
597.000000	26.827843
598.000000	26.991853
599.000000	27.158950
600.000000	27.329509
601.000000	27.503079
602.000000	27.679865
603.000000	27.860225
604.000000	28.044240
605.000000	28.231523
606.000000	28.421251
607.000000	28.613915
608.000000	28.809123
609.000000	29.006227
610.000000	29.205454
611.000000	29.407010
612.000000	29.609846
613.000000	29.814094
614.000000	30.019663
615.000000	30.226448
616.000000	30.433481
617.000000	30.640174
618.000000	30.847849
619.000000	31.054584
620.000000	31.260639
621.000000	31.465628
622.000000	31.669406
623.000000	31.871614
624.000000	32.072020
625.000000	32.271078
626.000000	32.468372
627.000000	32.663952
628.000000	32.857015
629.000000	33.047182
630.000000	33.235796
631.000000	33.421297
632.000000	33.604785
633.000000	33.786249
634.000000	33.964907
635.000000	34.140347
636.000000	34.313996
637.000000	34.485565
638.000000	34.654648
639.000000	34.821149
640.000000	34.984950
641.000000	35.146277
642.000000	35.305520
643.000000	35.462946
644.000000	35.618563
645.000000	35.772213
646.000000	35.923902
647.000000	36.074134
648.000000	36.222324
649.000000	36.369308
650.000000	36.515370
651.000000	36.660621
652.000000	36.805181
653.000000	36.947639
654.000000	37.089780
655.000000	37.231738
656.000000	37.372683
657.000000	37.512969
658.000000	37.653165
659.000000	37.792974
660.000000	37.932004
661.000000	38.070289
662.000000	38.208220
663.000000	38.345708
664.000000	38.483151
665.000000	38.620346
666.000000	38.757238
667.000000	38.893593
668.000000	39.028797
669.000000	39.163474
670.000000	39.297938
671.000000	39.431203
672.000000	39.562959
673.000000	39.694390
674.000000	39.824781
675.000000	39.955016
676.000000	40.084437
677.000000	40.212108
678.000000	40.338718
679.000000	40.464391
680.000000	40.589463
681.000000	40.713374
682.000000	40.836372
683.000000	40.959352
684.000000	41.081089
685.000000	41.201107
686.000000	41.319810
687.000000	41.437801
688.000000	41.555294
689.000000	41.672037
690.000000	41.787546
691.000000	41.902458
692.000000	42.016567
693.000000	42.129968
694.000000	42.242296
695.000000	42.354267
696.000000	42.465816
697.000000	42.575975
698.000000	42.685038
699.000000	42.793517
700.000000	42.901418
701.000000	43.008975
702.000000	43.115721
703.000000	43.222262
704.000000	43.328277
705.000000	43.433657
706.000000	43.539082
707.000000	43.643984
708.000000	43.747292
709.000000	43.850461
710.000000	43.952882
711.000000	44.053455
712.000000	44.154161
713.000000	44.255676
714.000000	44.356324
715.000000	44.455796
716.000000	44.554386
717.000000	44.652068
718.000000	44.749365
719.000000	44.846196
720.000000	44.943369
721.000000	45.040404
722.000000	45.136014
723.000000	45.231310
724.000000	45.325586
725.000000	45.418239
726.000000	45.509997
727.000000	45.601661
728.000000	45.692342
729.000000	45.782751
730.000000	45.872587
731.000000	45.961526
732.000000	46.050840
733.000000	46.139809
734.000000	46.228403
735.000000	46.315755
736.000000	46.402136
737.000000	46.488764
738.000000	46.574931
739.000000	46.661210
740.000000	46.746777
741.000000	46.830963
742.000000	46.916336
743.000000	47.002128
744.000000	47.085560
745.000000	47.168363
746.000000	47.252065
747.000000	47.335776
748.000000	47.417995
749.000000	47.499524
750.000000	47.580262
751.000000	47.661638
752.000000	47.742938
753.000000	47.822746
754.000000	47.902010
755.000000	47.980338
756.000000	48.059493
757.000000	48.138706
758.000000	48.216551
759.000000	48.294108
760.000000	48.372203
761.000000	48.449831
762.000000	48.527237
763.000000	48.604249
764.000000	48.680703
765.000000	48.756272
766.000000	48.831611
767.000000	48.906196
768.000000	48.980148
769.000000	49.054425
770.000000	49.128864
771.000000	49.203608
772.000000	49.277109
773.000000	49.349231
774.000000	49.420976
775.000000	49.492628
776.000000	49.564334
777.000000	49.633337
778.000000	49.703057
779.000000	49.774288
780.000000	49.844330
781.000000	49.913890
782.000000	49.981811
783.000000	50.049642
784.000000	50.117558
785.000000	50.184643
786.000000	50.251740
787.000000	50.318537
788.000000	50.383765
789.000000	50.451396
790.000000	50.519311
791.000000	50.583483
792.000000	50.646496
793.000000	50.709606
794.000000	50.772478
795.000000	50.835564
796.000000	50.899265
797.000000	50.961708
798.000000	51.025316
799.000000	51.087806
800.000000	51.149579
801.000000	51.212160
802.000000	51.272913
803.000000	51.331898
804.000000	51.393678
805.000000	51.452417
806.000000	51.510700
807.000000	51.568814
808.000000	51.628820
809.000000	51.686926
810.000000	51.744096
811.000000	51.801862
812.000000	51.860768
813.000000	51.915836
814.000000	51.973203
815.000000	52.030399
816.000000	52.086373
817.000000	52.143955
818.000000	52.200697
819.000000	52.256050
820.000000	52.310268
821.000000	52.365802
822.000000	52.419376
823.000000	52.472953
824.000000	52.524887
825.000000	52.577448
826.000000	52.630868
827.000000	52.685740
828.000000	52.735643
829.000000	52.789107
830.000000	52.839962
831.000000	52.894321
832.000000	52.946322
833.000000	52.996281
834.000000	53.045697
835.000000	53.097815
836.000000	53.145745
837.000000	53.199635
838.000000	53.252559
839.000000	53.299793
840.000000	53.350146
841.000000	53.401652
842.000000	53.454272
843.000000	53.504110
844.000000	53.551220
845.000000	53.599932
846.000000	53.642957
847.000000	53.689205
848.000000	53.738587
849.000000	53.782197
850.000000	53.832502
851.000000	53.877541
852.000000	53.913550
853.000000	53.963212
854.000000	54.006413
855.000000	54.058793
856.000000	54.106811
857.000000	54.157777
858.000000	54.225767
859.000000	54.314485
860.000000	54.383840
861.000000	54.473043
862.000000	54.561566
863.000000	54.640560
864.000000	54.723194
865.000000	54.798244
866.000000	54.879182
867.000000	54.962607
868.000000	55.040140
869.000000	55.132031
870.000000	55.207255
871.000000	55.287194
872.000000	55.351429
873.000000	55.433082
874.000000	55.516054
875.000000	55.608092
876.000000	55.688480
877.000000	55.761207
878.000000	55.857888
879.000000	55.941018
880.000000	56.014632
881.000000	56.079652
882.000000	56.150986
883.000000	56.231359
884.000000	56.297495
885.000000	56.366190
886.000000	56.428224
887.000000	56.528922
888.000000	56.607914
889.000000	56.700144
890.000000	56.761048
891.000000	56.823886
892.000000	56.866322
893.000000	56.911631
894.000000	56.946325
895.000000	56.996998
896.000000	57.019546
897.000000	57.080198
898.000000	57.139544
899.000000	57.165621
900.000000	57.205735
901.000000	57.229362
902.000000	57.250025
903.000000	57.290518
904.000000	57.299979
905.000000	57.331326
906.000000	57.374594
907.000000	57.442727
908.000000	57.457554
909.000000	57.488523
910.000000	57.506951
911.000000	57.524873
912.000000	57.547561
913.000000	57.551284
914.000000	57.576088
915.000000	57.631563
916.000000	57.663364
917.000000	57.693488
918.000000	57.721587
919.000000	57.775213
920.000000	57.800889
921.000000	57.834563
922.000000	57.842707
923.000000	57.873042
924.000000	57.898619
925.000000	57.932648
926.000000	57.964966
927.000000	58.015540
928.000000	58.044733
929.000000	58.060798
930.000000	58.076396
931.000000	58.118806
932.000000	58.124735
933.000000	58.137763
934.000000	58.163474
935.000000	58.199080
936.000000	58.249376
937.000000	58.291553
938.000000	58.310087
939.000000	58.347882
940.000000	58.377072
941.000000	58.394540
942.000000	58.389531
943.000000	58.433394
944.000000	58.461788
945.000000	58.497853
946.000000	58.545951
947.000000	58.590529
948.000000	58.621400
949.000000	58.641508
950.000000	58.643113
951.000000	58.674836
952.000000	58.693952
953.000000	58.722655
954.000000	58.744272
955.000000	58.760815
956.000000	58.782643
957.000000	58.799672
958.000000	58.819398
959.000000	58.839424
960.000000	58.860747
961.000000	58.893804
962.000000	58.926187
963.000000	58.951627
964.000000	58.978926
965.000000	59.008523
966.000000	59.035074
967.000000	59.052273
968.000000	59.077254
969.000000	59.112558
970.000000	59.128012
971.000000	59.137327
972.000000	59.157363
973.000000	59.183374
974.000000	59.206486
975.000000	59.231795
976.000000	59.253839
977.000000	59.278031
978.000000	59.300188
979.000000	59.322167
980.000000	59.323762
981.000000	59.324561
982.000000	59.329707
983.000000	59.346550
984.000000	59.378280
985.000000	59.397052
986.000000	59.425638
987.000000	59.453522
988.000000	59.460048
989.000000	59.477383
990.000000	59.513633
991.000000	59.538101
992.000000	59.553942
993.000000	59.565388
994.000000	59.581276
995.000000	59.603195
996.000000	59.599480
997.000000	59.591325
998.000000	59.598314
999.000000	59.619170
1000.000000	59.648243
1001.000000	59.658617
1002.000000	59.673404
1003.000000	59.690665
1004.000000	59.704010
1005.000000	59.721962
1006.000000	59.731517
1007.000000	59.739319
1008.000000	59.764929
1009.000000	59.788920
1010.000000	59.802887
1011.000000	59.814091
1012.000000	59.836306
1013.000000	59.837206
1014.000000	59.830241
1015.000000	59.851771
1016.000000	59.884483
1017.000000	59.912524
1018.000000	59.930210
1019.000000	59.943052
1020.000000	59.950458
1021.000000	59.957273
1022.000000	59.972747
1023.000000	59.986710
1024.000000	59.999617
1025.000000	60.011420
1026.000000	60.025479
1027.000000	60.054520
1028.000000	60.068452
1029.000000	60.070289
1030.000000	60.086502
1031.000000	60.126045
1032.000000	60.173700
1033.000000	60.223810
1034.000000	60.249426
1035.000000	60.263175
1036.000000	60.276553
1037.000000	60.272402
1038.000000	60.272254
1039.000000	60.287173
1040.000000	60.302127
1041.000000	60.322914
1042.000000	60.339623
1043.000000	60.344298
1044.000000	60.348049
1045.000000	60.361653
1046.000000	60.379077
1047.000000	60.389859
1048.000000	60.411888
1049.000000	60.447668
1050.000000	60.466148
1051.000000	60.467200
1052.000000	60.474003
1053.000000	60.484238
1054.000000	60.501517
1055.000000	60.530959
1056.000000	60.558138
1057.000000	60.570037
1058.000000	60.588408
1059.000000	60.602291
1060.000000	60.610041
1061.000000	60.633010
1062.000000	60.639711
1063.000000	60.647497
1064.000000	60.680018
1065.000000	60.692321
1066.000000	60.696197
1067.000000	60.705239
1068.000000	60.714991
1069.000000	60.724578
1070.000000	60.736149
1071.000000	60.736753
1072.000000	60.760265
1073.000000	60.784490
1074.000000	60.821308
1075.000000	60.824906
1076.000000	60.832976
1077.000000	60.846039
1078.000000	60.853891
1079.000000	60.875564
1080.000000	60.903731
1081.000000	60.933664
1082.000000	60.943637
1083.000000	60.956676
1084.000000	60.974717
1085.000000	60.994640
1086.000000	61.001610
1087.000000	61.013841
1088.000000	61.028864
1089.000000	61.034245
1090.000000	61.043550
1091.000000	61.056947
1092.000000	61.085585
1093.000000	61.102725
1094.000000	61.106453
1095.000000	61.123538
1096.000000	61.130210
1097.000000	61.161488
1098.000000	61.192911
1099.000000	61.199296
1100.000000	61.232892
1101.000000	61.227401
1102.000000	61.227715
1103.000000	61.236307
1104.000000	61.225835
1105.000000	61.225534
1106.000000	61.246402
1107.000000	61.267505
1108.000000	61.272039
1109.000000	61.260701
1110.000000	61.297167
1111.000000	61.306613
1112.000000	61.308868
1113.000000	61.333748
1114.000000	61.355658
1115.000000	61.342327
1116.000000	61.338698
1117.000000	61.348512
1118.000000	61.366181
1119.000000	61.353157
1120.000000	61.353897
1121.000000	61.389312
1122.000000	61.417801
1123.000000	61.490188
1124.000000	61.485993
1125.000000	61.537481
1126.000000	61.537348
1127.000000	61.545675
1128.000000	61.548444
1129.000000	61.610261
1130.000000	61.596388
1131.000000	61.598487
1132.000000	61.594448
1133.000000	61.594129
1134.000000	61.633038
1135.000000	61.627359
1136.000000	61.649772
1137.000000	61.658650
1138.000000	61.667273
1139.000000	61.708440
1140.000000	61.732637
1141.000000	61.749336
1142.000000	61.737902
1143.000000	61.760999
1144.000000	61.768562
1145.000000	61.763526
1146.000000	61.801942
1147.000000	61.822265
1148.000000	61.825891
1149.000000	61.838942
1150.000000	61.860816
1151.000000	61.869217
1152.000000	61.905441
1153.000000	61.908368
1154.000000	61.934211
1155.000000	61.944819
1156.000000	61.943559
1157.000000	61.941138
1158.000000	61.885848
1159.000000	61.907552
1160.000000	61.856503
1161.000000	61.876143
1162.000000	61.878467
1163.000000	61.871390
1164.000000	61.826819
1165.000000	61.853159
1166.000000	61.858311
1167.000000	61.873936
1168.000000	61.873050
1169.000000	61.843948
1170.000000	61.846785
1171.000000	61.824370
1172.000000	61.830431
1173.000000	61.810409
1174.000000	61.789933
1175.000000	61.780471
1176.000000	61.771454
1177.000000	61.778466
1178.000000	61.778335
1179.000000	61.789130
1180.000000	61.788461
1181.000000	61.756098
1182.000000	61.759770
1183.000000	61.749670
1184.000000	61.723238
1185.000000	61.717646
1186.000000	61.707450
1187.000000	61.689462
1188.000000	61.693913
1189.000000	61.692138
1190.000000	61.687664
1191.000000	61.672216
1192.000000	61.664638
1193.000000	61.685037
1194.000000	61.690551
1195.000000	61.706663
1196.000000	61.694771
1197.000000	61.691475
1198.000000	61.727029
1199.000000	61.742697
1200.000000	61.760182
1201.000000	61.769104
1202.000000	61.765701
1203.000000	61.778478
1204.000000	61.767980
1205.000000	61.759825
1206.000000	61.792112
1207.000000	61.802133
1208.000000	61.836072
1209.000000	61.874066
1210.000000	61.892173
1211.000000	61.899396
1212.000000	61.924220
1213.000000	61.912627
1214.000000	61.906256
1215.000000	61.919596
1216.000000	61.936746
1217.000000	61.963759
1218.000000	62.004656
1219.000000	62.017653
1220.000000	62.037589
1221.000000	62.059764
1222.000000	62.071639
1223.000000	62.086361
1224.000000	62.115600
1225.000000	62.141833
1226.000000	62.170744
1227.000000	62.199876
1228.000000	62.190413
1229.000000	62.192952
1230.000000	62.214030
1231.000000	62.237813
1232.000000	62.237645
1233.000000	62.236096
1234.000000	62.235630
1235.000000	62.228585
1236.000000	62.239390
1237.000000	62.251976
1238.000000	62.260256
1239.000000	62.290165
1240.000000	62.314281
1241.000000	62.336357
1242.000000	62.353269
1243.000000	62.351790
1244.000000	62.358668
1245.000000	62.368254
1246.000000	62.383835
1247.000000	62.403297
1248.000000	62.426407
1249.000000	62.444716
1250.000000	62.456975
1251.000000	62.469052
1252.000000	62.448365
1253.000000	62.421076
1254.000000	62.429206
1255.000000	62.446227
1256.000000	62.472013
1257.000000	62.476343
1258.000000	62.478350
1259.000000	62.481123
1260.000000	62.482484
1261.000000	62.497861
1262.000000	62.516502
1263.000000	62.548576
1264.000000	62.576219
1265.000000	62.577647
1266.000000	62.579472
1267.000000	62.609443
1268.000000	62.628007
1269.000000	62.647152
1270.000000	62.666497
1271.000000	62.681130
1272.000000	62.697643
1273.000000	62.718345
1274.000000	62.724858
1275.000000	62.734726
1276.000000	62.740465
1277.000000	62.753366
1278.000000	62.771393
1279.000000	62.771890
1280.000000	62.779577
1281.000000	62.790458
1282.000000	62.793222
1283.000000	62.807973
1284.000000	62.832984
1285.000000	62.850877
1286.000000	62.865285
1287.000000	62.899350
1288.000000	62.932020
1289.000000	62.950424
1290.000000	62.953970
1291.000000	62.964877
1292.000000	62.993708
1293.000000	63.014958
1294.000000	63.025556
1295.000000	63.032330
1296.000000	63.024196
1297.000000	63.003808
1298.000000	63.000213
1299.000000	63.003763
1300.000000	63.008907
1301.000000	63.011990
1302.000000	63.018408
1303.000000	63.035595
1304.000000	63.041570
1305.000000	63.048724
1306.000000	63.059887
1307.000000	63.065136
1308.000000	63.075040
1309.000000	63.090763
1310.000000	63.101314
1311.000000	63.111472
1312.000000	63.112926
1313.000000	63.119062
1314.000000	63.108567
1315.000000	63.102784
1316.000000	63.107967
1317.000000	63.102558
1318.000000	63.102985
1319.000000	63.091623
1320.000000	63.079355
1321.000000	63.069057
1322.000000	63.066314
1323.000000	63.074123
1324.000000	63.094023
1325.000000	63.109886
1326.000000	63.122437
1327.000000	63.116015
1328.000000	63.119599
1329.000000	63.122458
1330.000000	63.144058
1331.000000	63.162742
1332.000000	63.168959
1333.000000	63.162075
1334.000000	63.170717
1335.000000	63.206128
1336.000000	63.219938
1337.000000	63.215695
1338.000000	63.200019
1339.000000	63.215667
1340.000000	63.227504
1341.000000	63.224743
1342.000000	63.219497
1343.000000	63.201724
1344.000000	63.195900
1345.000000	63.208557
1346.000000	63.195199
1347.000000	63.189187
1348.000000	63.183829
1349.000000	63.195290
1350.000000	63.167199
1351.000000	63.095769
1352.000000	63.046129
1353.000000	63.004236
1354.000000	63.088401
1355.000000	63.221663
1356.000000	63.325633
1357.000000	63.309492
1358.000000	63.247228
1359.000000	63.187749
1360.000000	63.309586
1361.000000	63.271155
1362.000000	63.014242
1363.000000	62.890320
1364.000000	62.921638
1365.000000	62.755656
1366.000000	62.835487
1367.000000	63.050535
1368.000000	63.089729
1369.000000	63.143585
1370.000000	63.290623
1371.000000	63.274214
1372.000000	63.219983
1373.000000	63.172780
1374.000000	63.170355
1375.000000	63.122205
1376.000000	63.103873
1377.000000	63.039396
1378.000000	63.143675
1379.000000	63.052203
1380.000000	62.895597
1381.000000	62.828123
1382.000000	63.010959
1383.000000	63.069810
1384.000000	63.166048
1385.000000	63.228163
1386.000000	63.260352
1387.000000	63.469793
1388.000000	63.408427
1389.000000	63.359958
1390.000000	63.241686
1391.000000	63.125918
1392.000000	62.994206
1393.000000	63.025254
1394.000000	63.159485
1395.000000	62.998939
1396.000000	62.808538
1397.000000	62.941765
1398.000000	62.975929
1399.000000	62.951168
1400.000000	63.271017
1401.000000	63.169862
1402.000000	62.899012
1403.000000	62.796478
1404.000000	62.708856
1405.000000	62.417289
1406.000000	62.439305
1407.000000	62.390086
1408.000000	62.388772
1409.000000	62.334197
1410.000000	62.323059
1411.000000	62.271636
1412.000000	62.262591
1413.000000	62.108937
1414.000000	62.179772
1415.000000	62.239087
1416.000000	62.267130
1417.000000	62.049692
1418.000000	61.989429
1419.000000	61.835902
1420.000000	61.781596
1421.000000	61.753572
1422.000000	61.549514
1423.000000	61.606362
1424.000000	61.483376
1425.000000	61.441143
1426.000000	61.398299
1427.000000	61.461505
1428.000000	61.420903
1429.000000	61.291093
1430.000000	61.237215
1431.000000	61.376330
1432.000000	61.427997
1433.000000	61.437989
1434.000000	61.348751
1435.000000	61.098329
1436.000000	61.024467
1437.000000	61.047753
1438.000000	61.045479
1439.000000	61.028704
1440.000000	61.075550
1441.000000	61.023441
1442.000000	61.045788
1443.000000	61.008845
1444.000000	60.984815
1445.000000	61.055854
1446.000000	61.039255
1447.000000	61.029321
1448.000000	61.008423
1449.000000	60.950256
1450.000000	60.989765
1451.000000	60.934777
1452.000000	60.872887
1453.000000	60.788583
1454.000000	60.747078
1455.000000	60.696912
1456.000000	60.665868
1457.000000	60.642189
1458.000000	60.601234
1459.000000	60.589469
1460.000000	60.531077
1461.000000	60.506632
1462.000000	60.494022
1463.000000	60.454841
1464.000000	60.393735
1465.000000	60.357356
1466.000000	60.321119
1467.000000	60.295002
1468.000000	60.284968
1469.000000	60.297478
1470.000000	60.299062
1471.000000	60.278825
1472.000000	60.230384
1473.000000	60.205963
1474.000000	60.145886
1475.000000	60.117676
1476.000000	60.040556
1477.000000	59.992198
1478.000000	59.975238
1479.000000	59.966345
1480.000000	59.868113
1481.000000	59.860028
1482.000000	59.848950
1483.000000	59.839611
1484.000000	59.809729
1485.000000	59.758353
1486.000000	59.776914
1487.000000	59.774471
1488.000000	59.766312
1489.000000	59.771121
1490.000000	59.765335
1491.000000	59.766807
1492.000000	59.733696
1493.000000	59.718956
1494.000000	59.712896
1495.000000	59.710465
1496.000000	59.717955
1497.000000	59.716215
1498.000000	59.732927
1499.000000	59.750495
1500.000000	59.776212
1501.000000	59.788693
1502.000000	59.789475
1503.000000	59.769644
1504.000000	59.739230
1505.000000	59.732045
1506.000000	59.747168
1507.000000	59.742401
1508.000000	59.748183
1509.000000	59.770455
1510.000000	59.800224
1511.000000	59.848901
1512.000000	59.906650
1513.000000	59.939438
1514.000000	59.941990
1515.000000	59.945351
1516.000000	59.963967
1517.000000	59.989058
1518.000000	60.006665
1519.000000	60.035774
1520.000000	60.052427
1521.000000	60.078811
1522.000000	60.112787
1523.000000	60.141419
1524.000000	60.167787
1525.000000	60.174605
1526.000000	60.205763
1527.000000	60.247616
1528.000000	60.284996
1529.000000	60.330475
1530.000000	60.359717
1531.000000	60.374932
1532.000000	60.420242
1533.000000	60.459891
1534.000000	60.486740
1535.000000	60.518252
1536.000000	60.553451
1537.000000	60.591396
1538.000000	60.647209
1539.000000	60.696047
1540.000000	60.732995
1541.000000	60.774837
1542.000000	60.814552
1543.000000	60.854029
1544.000000	60.883583
1545.000000	60.903224
1546.000000	60.915470
1547.000000	60.935468
1548.000000	60.960458
1549.000000	60.994998
1550.000000	61.023951
1551.000000	61.066589
1552.000000	61.119413
1553.000000	61.165210
1554.000000	61.209021
1555.000000	61.256903
1556.000000	61.273332
1557.000000	61.305927
1558.000000	61.346903
1559.000000	61.380514
1560.000000	61.428367
1561.000000	61.467650
1562.000000	61.498717
1563.000000	61.531784
1564.000000	61.559133
1565.000000	61.586537
1566.000000	61.614890
1567.000000	61.626046
1568.000000	61.639682
1569.000000	61.674594
1570.000000	61.706034
1571.000000	61.726051
1572.000000	61.739281
1573.000000	61.745782
1574.000000	61.739688
1575.000000	61.752919
1576.000000	61.763874
1577.000000	61.771491
1578.000000	61.785470
1579.000000	61.786721
1580.000000	61.796563
1581.000000	61.817297
1582.000000	61.836690
1583.000000	61.859945
1584.000000	61.869310
1585.000000	61.894531
1586.000000	61.902560
1587.000000	61.893975
1588.000000	61.904427
1589.000000	61.925828
1590.000000	61.932653
1591.000000	61.959517
1592.000000	61.982635
1593.000000	61.978447
1594.000000	61.991112
1595.000000	62.010240
1596.000000	62.010620
1597.000000	62.022712
1598.000000	62.033263
1599.000000	62.054280
1600.000000	62.066121
1601.000000	62.093337
1602.000000	62.132192
1603.000000	62.134585
1604.000000	62.138142
1605.000000	62.157297
1606.000000	62.175366
1607.000000	62.191355
1608.000000	62.225383
1609.000000	62.254391
1610.000000	62.285086
1611.000000	62.317819
1612.000000	62.364485
1613.000000	62.388669
1614.000000	62.443582
1615.000000	62.476659
1616.000000	62.516954
1617.000000	62.546209
1618.000000	62.554274
1619.000000	62.591792
1620.000000	62.618791
1621.000000	62.639825
1622.000000	62.673470
1623.000000	62.692102
1624.000000	62.720321
1625.000000	62.751290
1626.000000	62.765097
1627.000000	62.773186
1628.000000	62.805022
1629.000000	62.827758
1630.000000	62.833148
1631.000000	62.871120
1632.000000	62.897654
1633.000000	62.943990
1634.000000	62.978129
1635.000000	62.996999
1636.000000	63.003792
1637.000000	63.003110
1638.000000	63.013942
1639.000000	63.032939
1640.000000	63.037409
1641.000000	63.041190
1642.000000	63.077025
1643.000000	63.089611
1644.000000	63.110263
1645.000000	63.102734
1646.000000	63.109199
1647.000000	63.113629
1648.000000	63.124894
1649.000000	63.130145
1650.000000	63.147069
1651.000000	63.150362
1652.000000	63.168952
1653.000000	63.196795
1654.000000	63.182497
1655.000000	63.186369
1656.000000	63.223694
1657.000000	63.233505
1658.000000	63.227642
1659.000000	63.225665
1660.000000	63.223142
1661.000000	63.235961
1662.000000	63.249223
1663.000000	63.238446
1664.000000	63.253457
1665.000000	63.262890
1666.000000	63.245323
1667.000000	63.239467
1668.000000	63.194811
1669.000000	63.191170
1670.000000	63.193307
1671.000000	63.189191
1672.000000	63.198866
1673.000000	63.211783
1674.000000	63.202857
1675.000000	63.190206
1676.000000	63.191268
1677.000000	63.188169
1678.000000	63.171167
1679.000000	63.152583
1680.000000	63.147726
1681.000000	63.116972
1682.000000	63.088238
1683.000000	63.082474
1684.000000	63.068471
1685.000000	63.033960
1686.000000	63.016423
1687.000000	62.976841
1688.000000	62.941078
1689.000000	62.923351
1690.000000	62.895972
1691.000000	62.844428
1692.000000	62.803797
1693.000000	62.773476
1694.000000	62.733123
1695.000000	62.711702
1696.000000	62.690445
1697.000000	62.666978
1698.000000	62.651682
1699.000000	62.619326
1700.000000	62.588014
1701.000000	62.581577
1702.000000	62.594771
1703.000000	62.604699
1704.000000	62.569929
1705.000000	62.547483
1706.000000	62.543147
1707.000000	62.525658
1708.000000	62.517144
1709.000000	62.513138
1710.000000	62.514736
1711.000000	62.504734
1712.000000	62.471153
1713.000000	62.449817
1714.000000	62.440514
1715.000000	62.425745
1716.000000	62.439591
1717.000000	62.437686
1718.000000	62.399061
1719.000000	62.364914
1720.000000	62.359072
1721.000000	62.335862
1722.000000	62.316124
1723.000000	62.309096
1724.000000	62.287041
1725.000000	62.262156
1726.000000	62.252356
1727.000000	62.232460
1728.000000	62.226378
1729.000000	62.228658
1730.000000	62.217046
1731.000000	62.205661
1732.000000	62.192523
1733.000000	62.180531
1734.000000	62.172156
1735.000000	62.175971
1736.000000	62.166210
1737.000000	62.122856
1738.000000	62.109169
1739.000000	62.108648
1740.000000	62.111394
1741.000000	62.111147
1742.000000	62.093415
1743.000000	62.081797
1744.000000	62.079474
1745.000000	62.071286
1746.000000	62.071733
1747.000000	62.077371
1748.000000	62.084322
1749.000000	62.093056
1750.000000	62.113268
1751.000000	62.127365
1752.000000	62.155271
1753.000000	62.201497
1754.000000	62.227210
1755.000000	62.242141
1756.000000	62.272085
1757.000000	62.313858
1758.000000	62.330333
1759.000000	62.350959
1760.000000	62.371426
1761.000000	62.398366
1762.000000	62.439432
1763.000000	62.476746
1764.000000	62.496789
1765.000000	62.508691
1766.000000	62.523636
1767.000000	62.551574
1768.000000	62.590307
1769.000000	62.610036
1770.000000	62.634988
1771.000000	62.653402
1772.000000	62.681694
1773.000000	62.712569
1774.000000	62.750632
1775.000000	62.782518
1776.000000	62.793597
1777.000000	62.821220
1778.000000	62.846548
1779.000000	62.860417
1780.000000	62.888057
1781.000000	62.903577
1782.000000	62.899923
1783.000000	62.907383
1784.000000	62.916245
1785.000000	62.901223
1786.000000	62.895641
1787.000000	62.899172
1788.000000	62.908634
1789.000000	62.936459
1790.000000	62.957364
1791.000000	62.961429
1792.000000	62.963025
1793.000000	62.972056
1794.000000	62.992730
1795.000000	63.015802
1796.000000	63.025037
1797.000000	63.041384
1798.000000	63.054131
1799.000000	63.068345
1800.000000	63.089499
1801.000000	63.121924
1802.000000	63.149152
1803.000000	63.141420
1804.000000	63.149778
1805.000000	63.198605
1806.000000	63.251301
1807.000000	63.255723
1808.000000	63.239901
1809.000000	63.221020
1810.000000	63.232587
1811.000000	63.262961
1812.000000	63.278540
1813.000000	63.290607
1814.000000	63.308325
1815.000000	63.299363
1816.000000	63.340487
1817.000000	63.510844
1818.000000	63.623938
1819.000000	63.761557
1820.000000	63.867091
1821.000000	63.889469
1822.000000	63.881244
1823.000000	63.865394
1824.000000	63.841365
1825.000000	64.046865
1826.000000	64.176229
1827.000000	64.203125
1828.000000	64.223856
1829.000000	64.260078
1830.000000	64.393872
1831.000000	64.460807
1832.000000	64.437516
1833.000000	64.425343
1834.000000	64.480752
1835.000000	64.648763
1836.000000	64.666246
1837.000000	64.592783
1838.000000	64.510870
1839.000000	64.422973
1840.000000	64.296683
1841.000000	64.329889
1842.000000	64.368875
1843.000000	64.380979
1844.000000	64.407534
1845.000000	64.395179
1846.000000	64.464024
1847.000000	64.643854
1848.000000	64.692877
1849.000000	64.674709
1850.000000	64.626305
1851.000000	64.556324
1852.000000	64.451195
1853.000000	64.481065
1854.000000	64.400162
1855.000000	64.341914
1856.000000	64.250298
1857.000000	64.184847
1858.000000	64.157442
1859.000000	64.136785
1860.000000	63.895903
1861.000000	63.768733
1862.000000	63.791485
1863.000000	63.955705
1864.000000	64.087874
1865.000000	64.015166
1866.000000	63.939580
1867.000000	63.910191
1868.000000	63.890091
1869.000000	63.831970
1870.000000	63.922953
1871.000000	63.915917
1872.000000	64.125389
1873.000000	64.230390
1874.000000	64.338650
1875.000000	64.397432
1876.000000	64.506422
1877.000000	64.517216
1878.000000	64.517160
1879.000000	64.481423
1880.000000	64.514209
1881.000000	64.409673
1882.000000	64.183338
1883.000000	64.220125
1884.000000	64.176452
1885.000000	64.176973
1886.000000	64.232883
1887.000000	64.163088
1888.000000	63.981352
1889.000000	63.961940
1890.000000	63.844043
1891.000000	63.908432
1892.000000	63.868619
1893.000000	63.839606
1894.000000	63.785856
1895.000000	63.743358
1896.000000	63.636478
1897.000000	63.514474
1898.000000	63.234671
1899.000000	62.940994
1900.000000	62.731688
1901.000000	62.628536
1902.000000	62.829832
1903.000000	62.702691
1904.000000	62.517961
1905.000000	62.028168
1906.000000	61.855583
1907.000000	61.495931
1908.000000	61.272322
1909.000000	61.029324
1910.000000	60.783909
1911.000000	60.308220
1912.000000	59.954587
1913.000000	59.751550
1914.000000	59.517373
1915.000000	59.246405
1916.000000	58.940997
1917.000000	58.660788
1918.000000	58.252954
1919.000000	58.100583
1920.000000	57.972967
1921.000000	57.659153
1922.000000	57.401258
1923.000000	57.223245
1924.000000	56.883257
1925.000000	56.688244
1926.000000	56.476423
1927.000000	56.243666
1928.000000	56.039749
1929.000000	55.834362
1930.000000	55.643169
1931.000000	55.465888
1932.000000	55.247714
1933.000000	55.105296
1934.000000	54.920104
1935.000000	54.779730
1936.000000	54.590992
1937.000000	54.155126
1938.000000	54.016390
1939.000000	53.901680
1940.000000	53.850227
1941.000000	53.731762
1942.000000	53.661356
1943.000000	53.592394
1944.000000	53.554472
1945.000000	53.535068
1946.000000	53.549432
1947.000000	53.585890
1948.000000	53.506996
1949.000000	53.487681
1950.000000	53.444800
1951.000000	53.494164
1952.000000	53.558710
1953.000000	53.586521
1954.000000	53.521418
1955.000000	53.445162
1956.000000	53.502760
1957.000000	53.549063
1958.000000	53.535328
1959.000000	53.618292
1960.000000	53.686333
1961.000000	53.670799
1962.000000	53.779884
1963.000000	53.829805
1964.000000	53.883449
1965.000000	53.945391
1966.000000	54.028337
1967.000000	54.109038
1968.000000	54.133335
1969.000000	54.231335
1970.000000	54.306335
1971.000000	54.395258
1972.000000	54.466328
1973.000000	54.556398
1974.000000	54.662290
1975.000000	54.742863
1976.000000	54.820218
1977.000000	54.894101
1978.000000	54.989312
1979.000000	55.076666
1980.000000	55.186147
1981.000000	55.290369
1982.000000	55.388297
1983.000000	55.508762
1984.000000	55.608379
1985.000000	55.708513
1986.000000	55.804701
1987.000000	55.888983
1988.000000	56.016114
1989.000000	56.136767
1990.000000	56.244811
1991.000000	56.339499
1992.000000	56.433961
1993.000000	56.536964
1994.000000	56.623266
1995.000000	56.692411
1996.000000	56.780893
1997.000000	56.880844
1998.000000	56.963137
1999.000000	57.063151
2000.000000	57.131713
