PE UV       SUBTECH     SPECTRUM    ASCII       PEDS        4.00        
   -1
C.OPTI.8.17-TX3.ASC
23/11/29
14:44:53.00
23/11/29
14:44:53.00
Vinicio Soto Monge
C. OPTIMA #81 7
250,000000
1
Lambda 1050
1050L1511233
PerkinElmer UV WinLab 6.3.2.0749 / 2.02.05 Lambda 900 UV/VIS/NIR, Aug  7 2015 09:38:08

0
0
3350/servo 860,8/2
0
0
UV/VIS
1
1
1
DoubleDePol,CommonBeamDepol,RBeamAtt,SBeamAtt,60mm sphere, WB InGaAs Detector
0
0
0
0
Program
Program
3350/servo 860,8/2
3350/0,4 860,8/0,4
3350/0,4 860,8/0,4
0
20.00
 
 
 
0
 
860,8
319,2
860,8
Front
100
on
S:100 R:100
0
0
0
0
 
0
 
 
 
0
 
 
0
0
0
0
0
 
 
 
 
0
0


0
0
#HDR
-1
-1
#GR
nm
%T
1.0
0.0
2200,000000
-1,000000
1951
8
42,632739
0,179440
#DATA
284.000000	0.206150
285.000000	0.206496
286.000000	0.207240
287.000000	0.208257
288.000000	0.209057
289.000000	0.210238
290.000000	0.211218
291.000000	0.212653
292.000000	0.213633
293.000000	0.214590
294.000000	0.215341
295.000000	0.216388
296.000000	0.217786
297.000000	0.218359
298.000000	0.218734
299.000000	0.219783
300.000000	0.220649
301.000000	0.221342
302.000000	0.221768
303.000000	0.222608
304.000000	0.223530
305.000000	0.224461
306.000000	0.225804
307.000000	0.226885
308.000000	0.228070
309.000000	0.229439
310.000000	0.229985
311.000000	0.230895
312.000000	0.232002
313.000000	0.232673
314.000000	0.233499
315.000000	0.234915
316.000000	0.235752
317.000000	0.237627
318.000000	0.240430
319.000000	0.241260
320.000000	0.242038
321.000000	0.244678
322.000000	0.245915
323.000000	0.246942
324.000000	0.247358
325.000000	0.248647
326.000000	0.250613
327.000000	0.252649
328.000000	0.254502
329.000000	0.255409
330.000000	0.257222
331.000000	0.259014
332.000000	0.260538
333.000000	0.261687
334.000000	0.263109
335.000000	0.265309
336.000000	0.268019
337.000000	0.269834
338.000000	0.270977
339.000000	0.273237
340.000000	0.276089
341.000000	0.278106
342.000000	0.280484
343.000000	0.282402
344.000000	0.284567
345.000000	0.287145
346.000000	0.289714
347.000000	0.291756
348.000000	0.294080
349.000000	0.296477
350.000000	0.298530
351.000000	0.301091
352.000000	0.303118
353.000000	0.304485
354.000000	0.307492
355.000000	0.310947
356.000000	0.312382
357.000000	0.315034
358.000000	0.318373
359.000000	0.322116
360.000000	0.324533
361.000000	0.326149
362.000000	0.328287
363.000000	0.330571
364.000000	0.334140
365.000000	0.337087
366.000000	0.340115
367.000000	0.343642
368.000000	0.347133
369.000000	0.350598
370.000000	0.352922
371.000000	0.355764
372.000000	0.359869
373.000000	0.363921
374.000000	0.365996
375.000000	0.368528
376.000000	0.371192
377.000000	0.373459
378.000000	0.375994
379.000000	0.378241
380.000000	0.380422
381.000000	0.382838
382.000000	0.385512
383.000000	0.388222
384.000000	0.390588
385.000000	0.392849
386.000000	0.394861
387.000000	0.396808
388.000000	0.398461
389.000000	0.400437
390.000000	0.402350
391.000000	0.404469
392.000000	0.406655
393.000000	0.408549
394.000000	0.410356
395.000000	0.412689
396.000000	0.414926
397.000000	0.417004
398.000000	0.419252
399.000000	0.421034
400.000000	0.422487
401.000000	0.423696
402.000000	0.424924
403.000000	0.426705
404.000000	0.427935
405.000000	0.429334
406.000000	0.430125
407.000000	0.430383
408.000000	0.431363
409.000000	0.433018
410.000000	0.434011
411.000000	0.435250
412.000000	0.436852
413.000000	0.438486
414.000000	0.440029
415.000000	0.441464
416.000000	0.442803
417.000000	0.444104
418.000000	0.445463
419.000000	0.446813
420.000000	0.448186
421.000000	0.449491
422.000000	0.450730
423.000000	0.451907
424.000000	0.453031
425.000000	0.454151
426.000000	0.455259
427.000000	0.456395
428.000000	0.457542
429.000000	0.458635
430.000000	0.459756
431.000000	0.460998
432.000000	0.462283
433.000000	0.463517
434.000000	0.464754
435.000000	0.466042
436.000000	0.467257
437.000000	0.468491
438.000000	0.469755
439.000000	0.471056
440.000000	0.472400
441.000000	0.473725
442.000000	0.475030
443.000000	0.476470
444.000000	0.477991
445.000000	0.479446
446.000000	0.480998
447.000000	0.482637
448.000000	0.484326
449.000000	0.486080
450.000000	0.487867
451.000000	0.489752
452.000000	0.491705
453.000000	0.493617
454.000000	0.495571
455.000000	0.497502
456.000000	0.499517
457.000000	0.501653
458.000000	0.503901
459.000000	0.506229
460.000000	0.508597
461.000000	0.511011
462.000000	0.513475
463.000000	0.516057
464.000000	0.518826
465.000000	0.521724
466.000000	0.524679
467.000000	0.527702
468.000000	0.530800
469.000000	0.534068
470.000000	0.537385
471.000000	0.540757
472.000000	0.544241
473.000000	0.547776
474.000000	0.551353
475.000000	0.555002
476.000000	0.558770
477.000000	0.562574
478.000000	0.566389
479.000000	0.570293
480.000000	0.574348
481.000000	0.578491
482.000000	0.582771
483.000000	0.587177
484.000000	0.591701
485.000000	0.596351
486.000000	0.601045
487.000000	0.605820
488.000000	0.610740
489.000000	0.615765
490.000000	0.620979
491.000000	0.626324
492.000000	0.631754
493.000000	0.637261
494.000000	0.642871
495.000000	0.648687
496.000000	0.654605
497.000000	0.660658
498.000000	0.666854
499.000000	0.673183
500.000000	0.679685
501.000000	0.686404
502.000000	0.693307
503.000000	0.700476
504.000000	0.707699
505.000000	0.715053
506.000000	0.722618
507.000000	0.730294
508.000000	0.738116
509.000000	0.746089
510.000000	0.754229
511.000000	0.762482
512.000000	0.770755
513.000000	0.779124
514.000000	0.787860
515.000000	0.796807
516.000000	0.805672
517.000000	0.814758
518.000000	0.823974
519.000000	0.833330
520.000000	0.842945
521.000000	0.852741
522.000000	0.862903
523.000000	0.873105
524.000000	0.883641
525.000000	0.894333
526.000000	0.905326
527.000000	0.916579
528.000000	0.928060
529.000000	0.939882
530.000000	0.952017
531.000000	0.964658
532.000000	0.977688
533.000000	0.991153
534.000000	1.005048
535.000000	1.019416
536.000000	1.034305
537.000000	1.049812
538.000000	1.065751
539.000000	1.082348
540.000000	1.099520
541.000000	1.117364
542.000000	1.135972
543.000000	1.155256
544.000000	1.175198
545.000000	1.195820
546.000000	1.217338
547.000000	1.239705
548.000000	1.262713
549.000000	1.286309
550.000000	1.310786
551.000000	1.336282
552.000000	1.362428
553.000000	1.389394
554.000000	1.417381
555.000000	1.446187
556.000000	1.475914
557.000000	1.506261
558.000000	1.537681
559.000000	1.569805
560.000000	1.602747
561.000000	1.636596
562.000000	1.671238
563.000000	1.706805
564.000000	1.743187
565.000000	1.780292
566.000000	1.818109
567.000000	1.856556
568.000000	1.895702
569.000000	1.935582
570.000000	1.976134
571.000000	2.017336
572.000000	2.059217
573.000000	2.101799
574.000000	2.145147
575.000000	2.189210
576.000000	2.233928
577.000000	2.279086
578.000000	2.324884
579.000000	2.371441
580.000000	2.418756
581.000000	2.466663
582.000000	2.515286
583.000000	2.564826
584.000000	2.615109
585.000000	2.665889
586.000000	2.717600
587.000000	2.770205
588.000000	2.823904
589.000000	2.878477
590.000000	2.934150
591.000000	2.991032
592.000000	3.049116
593.000000	3.108320
594.000000	3.168667
595.000000	3.230406
596.000000	3.293131
597.000000	3.356856
598.000000	3.421713
599.000000	3.487567
600.000000	3.554691
601.000000	3.622623
602.000000	3.691758
603.000000	3.761858
604.000000	3.832736
605.000000	3.904612
606.000000	3.977416
607.000000	4.050942
608.000000	4.125485
609.000000	4.200889
610.000000	4.277299
611.000000	4.354694
612.000000	4.433296
613.000000	4.512820
614.000000	4.593373
615.000000	4.674629
616.000000	4.756607
617.000000	4.839189
618.000000	4.922417
619.000000	5.006213
620.000000	5.090886
621.000000	5.175902
622.000000	5.261556
623.000000	5.347826
624.000000	5.434377
625.000000	5.521084
626.000000	5.607957
627.000000	5.695253
628.000000	5.782761
629.000000	5.870503
630.000000	5.958173
631.000000	6.045885
632.000000	6.133794
633.000000	6.221600
634.000000	6.309293
635.000000	6.396657
636.000000	6.484166
637.000000	6.571322
638.000000	6.657988
639.000000	6.744335
640.000000	6.830356
641.000000	6.915881
642.000000	7.001117
643.000000	7.085843
644.000000	7.169909
645.000000	7.253195
646.000000	7.335695
647.000000	7.417195
648.000000	7.497759
649.000000	7.577010
650.000000	7.655113
651.000000	7.731780
652.000000	7.807107
653.000000	7.881078
654.000000	7.953558
655.000000	8.024128
656.000000	8.093130
657.000000	8.160788
658.000000	8.226361
659.000000	8.290419
660.000000	8.352879
661.000000	8.413742
662.000000	8.472985
663.000000	8.530549
664.000000	8.586747
665.000000	8.641555
666.000000	8.694918
667.000000	8.746728
668.000000	8.797101
669.000000	8.846293
670.000000	8.894170
671.000000	8.940651
672.000000	8.985892
673.000000	9.029750
674.000000	9.072329
675.000000	9.113748
676.000000	9.153875
677.000000	9.192559
678.000000	9.230145
679.000000	9.266864
680.000000	9.302879
681.000000	9.338182
682.000000	9.373058
683.000000	9.407656
684.000000	9.442102
685.000000	9.476536
686.000000	9.510964
687.000000	9.545655
688.000000	9.580793
689.000000	9.616214
690.000000	9.651781
691.000000	9.687405
692.000000	9.722806
693.000000	9.758487
694.000000	9.794036
695.000000	9.829651
696.000000	9.865373
697.000000	9.901458
698.000000	9.938029
699.000000	9.974698
700.000000	10.011626
701.000000	10.048748
702.000000	10.086266
703.000000	10.124141
704.000000	10.162406
705.000000	10.201237
706.000000	10.240447
707.000000	10.280075
708.000000	10.320594
709.000000	10.361938
710.000000	10.403926
711.000000	10.446936
712.000000	10.491068
713.000000	10.535989
714.000000	10.581419
715.000000	10.627361
716.000000	10.673858
717.000000	10.720747
718.000000	10.767977
719.000000	10.815460
720.000000	10.863102
721.000000	10.911235
722.000000	10.959704
723.000000	11.008116
724.000000	11.057039
725.000000	11.106895
726.000000	11.157890
727.000000	11.209873
728.000000	11.262420
729.000000	11.316223
730.000000	11.371165
731.000000	11.427043
732.000000	11.483371
733.000000	11.539934
734.000000	11.597026
735.000000	11.654404
736.000000	11.711967
737.000000	11.769549
738.000000	11.827115
739.000000	11.884755
740.000000	11.942463
741.000000	12.000094
742.000000	12.058164
743.000000	12.116986
744.000000	12.176217
745.000000	12.235800
746.000000	12.296055
747.000000	12.356518
748.000000	12.417250
749.000000	12.478766
750.000000	12.540824
751.000000	12.603316
752.000000	12.665762
753.000000	12.728117
754.000000	12.790641
755.000000	12.853175
756.000000	12.915277
757.000000	12.977111
758.000000	13.039071
759.000000	13.101065
760.000000	13.162792
761.000000	13.224010
762.000000	13.285288
763.000000	13.347048
764.000000	13.409006
765.000000	13.470766
766.000000	13.532348
767.000000	13.594034
768.000000	13.656312
769.000000	13.718440
770.000000	13.780254
771.000000	13.842747
772.000000	13.905996
773.000000	13.969152
774.000000	14.033087
775.000000	14.096831
776.000000	14.160401
777.000000	14.223823
778.000000	14.287113
779.000000	14.349982
780.000000	14.412027
781.000000	14.473506
782.000000	14.535073
783.000000	14.596983
784.000000	14.658350
785.000000	14.719429
786.000000	14.779853
787.000000	14.840327
788.000000	14.900845
789.000000	14.961711
790.000000	15.023170
791.000000	15.084007
792.000000	15.145300
793.000000	15.206907
794.000000	15.268170
795.000000	15.328846
796.000000	15.389081
797.000000	15.448831
798.000000	15.508107
799.000000	15.566827
800.000000	15.624565
801.000000	15.683075
802.000000	15.741156
803.000000	15.798022
804.000000	15.854009
805.000000	15.910389
806.000000	15.966737
807.000000	16.021719
808.000000	16.077085
809.000000	16.131690
810.000000	16.185891
811.000000	16.239525
812.000000	16.293971
813.000000	16.345607
814.000000	16.398033
815.000000	16.450576
816.000000	16.502550
817.000000	16.554807
818.000000	16.606925
819.000000	16.658584
820.000000	16.707654
821.000000	16.758449
822.000000	16.808761
823.000000	16.857846
824.000000	16.905096
825.000000	16.953914
826.000000	17.003706
827.000000	17.052750
828.000000	17.100804
829.000000	17.149085
830.000000	17.198116
831.000000	17.247800
832.000000	17.295506
833.000000	17.343061
834.000000	17.390126
835.000000	17.438839
836.000000	17.486980
837.000000	17.534356
838.000000	17.582125
839.000000	17.632081
840.000000	17.678756
841.000000	17.727192
842.000000	17.776422
843.000000	17.825881
844.000000	17.874637
845.000000	17.924222
846.000000	17.972735
847.000000	18.022241
848.000000	18.074357
849.000000	18.129426
850.000000	18.184358
851.000000	18.234988
852.000000	18.289030
853.000000	18.342808
854.000000	18.395307
855.000000	18.451060
856.000000	18.506686
857.000000	18.566919
858.000000	18.640339
859.000000	18.698891
860.000000	18.771913
861.000000	18.840644
862.000000	18.902927
863.000000	18.978554
864.000000	19.058411
865.000000	19.123656
866.000000	19.197509
867.000000	19.284877
868.000000	19.358759
869.000000	19.429644
870.000000	19.508485
871.000000	19.574890
872.000000	19.642491
873.000000	19.715010
874.000000	19.814945
875.000000	19.915771
876.000000	20.005005
877.000000	20.095874
878.000000	20.182617
879.000000	20.264602
880.000000	20.357113
881.000000	20.446143
882.000000	20.543079
883.000000	20.635764
884.000000	20.716638
885.000000	20.819372
886.000000	20.944519
887.000000	21.031402
888.000000	21.136606
889.000000	21.236639
890.000000	21.327886
891.000000	21.442598
892.000000	21.557734
893.000000	21.665394
894.000000	21.779885
895.000000	21.889070
896.000000	21.976496
897.000000	22.102478
898.000000	22.215352
899.000000	22.326764
900.000000	22.447525
901.000000	22.574766
902.000000	22.691335
903.000000	22.830983
904.000000	22.976782
905.000000	23.106167
906.000000	23.258804
907.000000	23.413164
908.000000	23.573663
909.000000	23.696327
910.000000	23.834028
911.000000	23.971024
912.000000	24.132358
913.000000	24.285865
914.000000	24.446703
915.000000	24.610927
916.000000	24.780793
917.000000	24.946129
918.000000	25.121060
919.000000	25.321899
920.000000	25.484406
921.000000	25.646379
922.000000	25.837372
923.000000	26.010760
924.000000	26.189245
925.000000	26.392422
926.000000	26.580317
927.000000	26.766512
928.000000	26.939067
929.000000	27.144870
930.000000	27.328002
931.000000	27.543960
932.000000	27.729701
933.000000	27.918442
934.000000	28.116463
935.000000	28.321995
936.000000	28.500896
937.000000	28.690926
938.000000	28.881091
939.000000	29.065914
940.000000	29.278139
941.000000	29.469797
942.000000	29.657329
943.000000	29.842633
944.000000	30.030917
945.000000	30.200387
946.000000	30.403839
947.000000	30.563270
948.000000	30.744976
949.000000	30.929109
950.000000	31.112999
951.000000	31.301199
952.000000	31.485200
953.000000	31.652213
954.000000	31.804312
955.000000	31.980352
956.000000	32.142207
957.000000	32.300340
958.000000	32.469560
959.000000	32.643628
960.000000	32.791852
961.000000	32.940193
962.000000	33.082884
963.000000	33.244128
964.000000	33.370279
965.000000	33.513339
966.000000	33.659112
967.000000	33.797788
968.000000	33.939311
969.000000	34.071307
970.000000	34.208927
971.000000	34.363507
972.000000	34.489779
973.000000	34.609131
974.000000	34.737157
975.000000	34.849416
976.000000	34.969601
977.000000	35.085522
978.000000	35.200505
979.000000	35.320155
980.000000	35.433738
981.000000	35.520136
982.000000	35.625512
983.000000	35.728006
984.000000	35.829070
985.000000	35.911126
986.000000	35.993071
987.000000	36.075292
988.000000	36.162661
989.000000	36.250303
990.000000	36.337784
991.000000	36.431278
992.000000	36.536052
993.000000	36.621844
994.000000	36.691935
995.000000	36.769670
996.000000	36.846167
997.000000	36.923402
998.000000	36.993024
999.000000	37.079444
1000.000000	37.151136
1001.000000	37.208865
1002.000000	37.279496
1003.000000	37.347872
1004.000000	37.410248
1005.000000	37.467990
1006.000000	37.516724
1007.000000	37.582098
1008.000000	37.643251
1009.000000	37.683723
1010.000000	37.729634
1011.000000	37.777172
1012.000000	37.822848
1013.000000	37.868781
1014.000000	37.912380
1015.000000	37.962844
1016.000000	38.027424
1017.000000	38.083105
1018.000000	38.130115
1019.000000	38.174898
1020.000000	38.229513
1021.000000	38.291873
1022.000000	38.341484
1023.000000	38.386284
1024.000000	38.430309
1025.000000	38.464628
1026.000000	38.485164
1027.000000	38.507928
1028.000000	38.546194
1029.000000	38.601195
1030.000000	38.646868
1031.000000	38.681982
1032.000000	38.726447
1033.000000	38.751861
1034.000000	38.775858
1035.000000	38.820195
1036.000000	38.857560
1037.000000	38.874153
1038.000000	38.899198
1039.000000	38.911918
1040.000000	38.928704
1041.000000	38.971474
1042.000000	39.008354
1043.000000	39.036564
1044.000000	39.078147
1045.000000	39.106380
1046.000000	39.146976
1047.000000	39.178581
1048.000000	39.209022
1049.000000	39.243566
1050.000000	39.270895
1051.000000	39.290750
1052.000000	39.308354
1053.000000	39.335409
1054.000000	39.367878
1055.000000	39.402489
1056.000000	39.418923
1057.000000	39.438694
1058.000000	39.465260
1059.000000	39.494900
1060.000000	39.537914
1061.000000	39.567359
1062.000000	39.588574
1063.000000	39.609096
1064.000000	39.611268
1065.000000	39.638042
1066.000000	39.654623
1067.000000	39.663464
1068.000000	39.686160
1069.000000	39.706914
1070.000000	39.727866
1071.000000	39.738169
1072.000000	39.771642
1073.000000	39.801416
1074.000000	39.843407
1075.000000	39.869452
1076.000000	39.881871
1077.000000	39.904289
1078.000000	39.932665
1079.000000	39.958032
1080.000000	39.975738
1081.000000	39.989103
1082.000000	40.032541
1083.000000	40.076709
1084.000000	40.083658
1085.000000	40.103941
1086.000000	40.109856
1087.000000	40.139755
1088.000000	40.167654
1089.000000	40.181742
1090.000000	40.188309
1091.000000	40.202955
1092.000000	40.214818
1093.000000	40.236474
1094.000000	40.256981
1095.000000	40.252777
1096.000000	40.260331
1097.000000	40.288341
1098.000000	40.312835
1099.000000	40.348106
1100.000000	40.352189
1101.000000	40.366667
1102.000000	40.389928
1103.000000	40.414747
1104.000000	40.424920
1105.000000	40.424980
1106.000000	40.458897
1107.000000	40.478188
1108.000000	40.487685
1109.000000	40.492040
1110.000000	40.512885
1111.000000	40.522340
1112.000000	40.526277
1113.000000	40.520341
1114.000000	40.528620
1115.000000	40.548173
1116.000000	40.548432
1117.000000	40.550830
1118.000000	40.539192
1119.000000	40.546211
1120.000000	40.563762
1121.000000	40.609012
1122.000000	40.627623
1123.000000	40.659831
1124.000000	40.673131
1125.000000	40.686536
1126.000000	40.712596
1127.000000	40.727767
1128.000000	40.733151
1129.000000	40.750618
1130.000000	40.773177
1131.000000	40.815860
1132.000000	40.814151
1133.000000	40.810540
1134.000000	40.856582
1135.000000	40.858467
1136.000000	40.865233
1137.000000	40.894046
1138.000000	40.908679
1139.000000	40.929666
1140.000000	40.935689
1141.000000	40.957729
1142.000000	40.981259
1143.000000	41.002310
1144.000000	41.017982
1145.000000	41.027977
1146.000000	41.052509
1147.000000	41.067535
1148.000000	41.093648
1149.000000	41.110416
1150.000000	41.106187
1151.000000	41.126135
1152.000000	41.149512
1153.000000	41.157804
1154.000000	41.176104
1155.000000	41.192002
1156.000000	41.192284
1157.000000	41.199697
1158.000000	41.184534
1159.000000	41.198200
1160.000000	41.204243
1161.000000	41.193087
1162.000000	41.213448
1163.000000	41.219334
1164.000000	41.222358
1165.000000	41.221579
1166.000000	41.211726
1167.000000	41.227716
1168.000000	41.241676
1169.000000	41.206981
1170.000000	41.228578
1171.000000	41.236959
1172.000000	41.233328
1173.000000	41.224098
1174.000000	41.230137
1175.000000	41.244860
1176.000000	41.211923
1177.000000	41.204334
1178.000000	41.198211
1179.000000	41.207249
1180.000000	41.209233
1181.000000	41.197471
1182.000000	41.189858
1183.000000	41.187575
1184.000000	41.182753
1185.000000	41.183049
1186.000000	41.181898
1187.000000	41.163181
1188.000000	41.158920
1189.000000	41.176010
1190.000000	41.165605
1191.000000	41.161420
1192.000000	41.181687
1193.000000	41.193938
1194.000000	41.209940
1195.000000	41.204102
1196.000000	41.205830
1197.000000	41.186229
1198.000000	41.202494
1199.000000	41.200694
1200.000000	41.212647
1201.000000	41.225456
1202.000000	41.242084
1203.000000	41.255875
1204.000000	41.273436
1205.000000	41.293894
1206.000000	41.306565
1207.000000	41.300421
1208.000000	41.313062
1209.000000	41.318962
1210.000000	41.337360
1211.000000	41.374939
1212.000000	41.381044
1213.000000	41.390958
1214.000000	41.398020
1215.000000	41.407260
1216.000000	41.416330
1217.000000	41.438223
1218.000000	41.458533
1219.000000	41.477022
1220.000000	41.504197
1221.000000	41.510786
1222.000000	41.515066
1223.000000	41.525452
1224.000000	41.529055
1225.000000	41.545655
1226.000000	41.556406
1227.000000	41.561699
1228.000000	41.569444
1229.000000	41.573505
1230.000000	41.604927
1231.000000	41.621143
1232.000000	41.660370
1233.000000	41.669678
1234.000000	41.688042
1235.000000	41.711157
1236.000000	41.726129
1237.000000	41.731139
1238.000000	41.727299
1239.000000	41.731849
1240.000000	41.748294
1241.000000	41.770722
1242.000000	41.791843
1243.000000	41.817515
1244.000000	41.829478
1245.000000	41.840996
1246.000000	41.856230
1247.000000	41.873549
1248.000000	41.893360
1249.000000	41.908663
1250.000000	41.932123
1251.000000	41.956042
1252.000000	41.969610
1253.000000	41.978785
1254.000000	41.984262
1255.000000	41.992774
1256.000000	42.015253
1257.000000	42.044291
1258.000000	42.072233
1259.000000	42.088558
1260.000000	42.109521
1261.000000	42.138151
1262.000000	42.143546
1263.000000	42.157511
1264.000000	42.174987
1265.000000	42.185940
1266.000000	42.202224
1267.000000	42.210656
1268.000000	42.228080
1269.000000	42.229585
1270.000000	42.232782
1271.000000	42.245010
1272.000000	42.259308
1273.000000	42.284296
1274.000000	42.298259
1275.000000	42.296892
1276.000000	42.307791
1277.000000	42.319313
1278.000000	42.330142
1279.000000	42.354110
1280.000000	42.360355
1281.000000	42.356183
1282.000000	42.364363
1283.000000	42.368861
1284.000000	42.370950
1285.000000	42.370343
1286.000000	42.367237
1287.000000	42.372452
1288.000000	42.387413
1289.000000	42.404357
1290.000000	42.433479
1291.000000	42.458238
1292.000000	42.475727
1293.000000	42.492399
1294.000000	42.502254
1295.000000	42.511752
1296.000000	42.504100
1297.000000	42.503152
1298.000000	42.521214
1299.000000	42.530793
1300.000000	42.552126
1301.000000	42.571048
1302.000000	42.572849
1303.000000	42.586706
1304.000000	42.604867
1305.000000	42.617469
1306.000000	42.633161
1307.000000	42.654467
1308.000000	42.666940
1309.000000	42.678144
1310.000000	42.693580
1311.000000	42.687868
1312.000000	42.690033
1313.000000	42.698324
1314.000000	42.714782
1315.000000	42.742296
1316.000000	42.759396
1317.000000	42.776307
1318.000000	42.789853
1319.000000	42.826584
1320.000000	42.848435
1321.000000	42.872413
1322.000000	42.891981
1323.000000	42.900453
1324.000000	42.910729
1325.000000	42.924595
1326.000000	42.934559
1327.000000	42.925260
1328.000000	42.905215
1329.000000	42.907337
1330.000000	42.922977
1331.000000	42.945738
1332.000000	42.961846
1333.000000	42.948270
1334.000000	42.939963
1335.000000	42.936244
1336.000000	42.946787
1337.000000	42.969702
1338.000000	42.963527
1339.000000	42.974682
1340.000000	42.981862
1341.000000	42.961885
1342.000000	42.956580
1343.000000	42.951267
1344.000000	42.933552
1345.000000	42.916025
1346.000000	42.904969
1347.000000	42.904382
1348.000000	42.895824
1349.000000	42.905079
1350.000000	42.883474
1351.000000	42.835041
1352.000000	42.797491
1353.000000	42.775348
1354.000000	42.806166
1355.000000	42.837849
1356.000000	42.872263
1357.000000	42.834978
1358.000000	42.790057
1359.000000	42.776606
1360.000000	42.807009
1361.000000	42.768906
1362.000000	42.596035
1363.000000	42.549084
1364.000000	42.531454
1365.000000	42.447412
1366.000000	42.471264
1367.000000	42.542601
1368.000000	42.567768
1369.000000	42.579265
1370.000000	42.617304
1371.000000	42.599835
1372.000000	42.535614
1373.000000	42.509804
1374.000000	42.500729
1375.000000	42.456566
1376.000000	42.444704
1377.000000	42.387413
1378.000000	42.385327
1379.000000	42.333353
1380.000000	42.261076
1381.000000	42.224462
1382.000000	42.263678
1383.000000	42.273077
1384.000000	42.310095
1385.000000	42.311858
1386.000000	42.315110
1387.000000	42.423457
1388.000000	42.372267
1389.000000	42.302077
1390.000000	42.250751
1391.000000	42.191302
1392.000000	42.097622
1393.000000	42.083053
1394.000000	42.116058
1395.000000	42.024409
1396.000000	41.943253
1397.000000	42.037513
1398.000000	42.037996
1399.000000	42.055148
1400.000000	42.173311
1401.000000	42.094783
1402.000000	41.945075
1403.000000	41.863391
1404.000000	41.843400
1405.000000	41.706380
1406.000000	41.689652
1407.000000	41.641050
1408.000000	41.611526
1409.000000	41.548559
1410.000000	41.518039
1411.000000	41.458394
1412.000000	41.410881
1413.000000	41.344993
1414.000000	41.330085
1415.000000	41.330038
1416.000000	41.299270
1417.000000	41.185801
1418.000000	41.115981
1419.000000	40.972418
1420.000000	40.882340
1421.000000	40.832706
1422.000000	40.684341
1423.000000	40.686445
1424.000000	40.602528
1425.000000	40.521988
1426.000000	40.420320
1427.000000	40.430057
1428.000000	40.371602
1429.000000	40.226452
1430.000000	40.142979
1431.000000	40.130711
1432.000000	40.101120
1433.000000	40.058014
1434.000000	39.942240
1435.000000	39.768147
1436.000000	39.699441
1437.000000	39.701853
1438.000000	39.645270
1439.000000	39.547223
1440.000000	39.519942
1441.000000	39.421480
1442.000000	39.400475
1443.000000	39.334563
1444.000000	39.272302
1445.000000	39.237469
1446.000000	39.193600
1447.000000	39.155297
1448.000000	39.090137
1449.000000	39.035468
1450.000000	39.005940
1451.000000	38.978046
1452.000000	38.925247
1453.000000	38.851408
1454.000000	38.810941
1455.000000	38.785772
1456.000000	38.750009
1457.000000	38.693378
1458.000000	38.629634
1459.000000	38.603573
1460.000000	38.556735
1461.000000	38.544070
1462.000000	38.509046
1463.000000	38.470371
1464.000000	38.431590
1465.000000	38.410352
1466.000000	38.376803
1467.000000	38.338384
1468.000000	38.305525
1469.000000	38.303474
1470.000000	38.303947
1471.000000	38.268231
1472.000000	38.200017
1473.000000	38.174509
1474.000000	38.132912
1475.000000	38.122255
1476.000000	38.102105
1477.000000	38.063645
1478.000000	38.048776
1479.000000	38.037424
1480.000000	38.006045
1481.000000	37.995725
1482.000000	38.004386
1483.000000	38.002594
1484.000000	38.007765
1485.000000	37.992771
1486.000000	37.975123
1487.000000	37.959143
1488.000000	37.963889
1489.000000	37.947602
1490.000000	37.914379
1491.000000	37.899231
1492.000000	37.874119
1493.000000	37.857691
1494.000000	37.847788
1495.000000	37.853912
1496.000000	37.844026
1497.000000	37.856995
1498.000000	37.874827
1499.000000	37.888760
1500.000000	37.893277
1501.000000	37.900044
1502.000000	37.911371
1503.000000	37.901627
1504.000000	37.880623
1505.000000	37.877738
1506.000000	37.895009
1507.000000	37.904518
1508.000000	37.914433
1509.000000	37.935178
1510.000000	37.927853
1511.000000	37.942821
1512.000000	37.987999
1513.000000	38.010834
1514.000000	38.028800
1515.000000	38.047623
1516.000000	38.073959
1517.000000	38.080185
1518.000000	38.104005
1519.000000	38.132533
1520.000000	38.144310
1521.000000	38.178215
1522.000000	38.229158
1523.000000	38.265678
1524.000000	38.298464
1525.000000	38.348471
1526.000000	38.399968
1527.000000	38.456611
1528.000000	38.509563
1529.000000	38.546494
1530.000000	38.566491
1531.000000	38.597653
1532.000000	38.627716
1533.000000	38.656734
1534.000000	38.707996
1535.000000	38.764378
1536.000000	38.818821
1537.000000	38.865218
1538.000000	38.918939
1539.000000	38.983901
1540.000000	39.034134
1541.000000	39.073868
1542.000000	39.119584
1543.000000	39.169119
1544.000000	39.210095
1545.000000	39.268918
1546.000000	39.318930
1547.000000	39.341532
1548.000000	39.380676
1549.000000	39.432027
1550.000000	39.464104
1551.000000	39.488726
1552.000000	39.522522
1553.000000	39.554702
1554.000000	39.591930
1555.000000	39.639163
1556.000000	39.660153
1557.000000	39.672281
1558.000000	39.695983
1559.000000	39.731803
1560.000000	39.773427
1561.000000	39.798008
1562.000000	39.812182
1563.000000	39.833397
1564.000000	39.869959
1565.000000	39.915423
1566.000000	39.946243
1567.000000	39.970482
1568.000000	40.007659
1569.000000	40.038127
1570.000000	40.052111
1571.000000	40.054874
1572.000000	40.066225
1573.000000	40.090112
1574.000000	40.101457
1575.000000	40.122221
1576.000000	40.146402
1577.000000	40.159115
1578.000000	40.169443
1579.000000	40.175732
1580.000000	40.177393
1581.000000	40.169705
1582.000000	40.188377
1583.000000	40.180386
1584.000000	40.162469
1585.000000	40.178469
1586.000000	40.201166
1587.000000	40.217357
1588.000000	40.227091
1589.000000	40.215465
1590.000000	40.218794
1591.000000	40.257381
1592.000000	40.301516
1593.000000	40.325730
1594.000000	40.345487
1595.000000	40.354092
1596.000000	40.374032
1597.000000	40.398057
1598.000000	40.406466
1599.000000	40.422310
1600.000000	40.451733
1601.000000	40.480998
1602.000000	40.496811
1603.000000	40.506823
1604.000000	40.519230
1605.000000	40.533588
1606.000000	40.556295
1607.000000	40.597682
1608.000000	40.637864
1609.000000	40.670369
1610.000000	40.702125
1611.000000	40.732756
1612.000000	40.761444
1613.000000	40.791248
1614.000000	40.822030
1615.000000	40.862703
1616.000000	40.906554
1617.000000	40.931937
1618.000000	40.981719
1619.000000	41.029826
1620.000000	41.059861
1621.000000	41.081852
1622.000000	41.104740
1623.000000	41.128290
1624.000000	41.158004
1625.000000	41.174186
1626.000000	41.187725
1627.000000	41.185107
1628.000000	41.199126
1629.000000	41.220502
1630.000000	41.237126
1631.000000	41.266891
1632.000000	41.303343
1633.000000	41.347149
1634.000000	41.351634
1635.000000	41.347732
1636.000000	41.350347
1637.000000	41.369354
1638.000000	41.405065
1639.000000	41.424985
1640.000000	41.459541
1641.000000	41.495056
1642.000000	41.509849
1643.000000	41.518054
1644.000000	41.545848
1645.000000	41.534548
1646.000000	41.532456
1647.000000	41.543607
1648.000000	41.567433
1649.000000	41.592613
1650.000000	41.613899
1651.000000	41.612809
1652.000000	41.636960
1653.000000	41.639244
1654.000000	41.649711
1655.000000	41.669468
1656.000000	41.661657
1657.000000	41.671108
1658.000000	41.682788
1659.000000	41.699510
1660.000000	41.706062
1661.000000	41.701301
1662.000000	41.710079
1663.000000	41.733188
1664.000000	41.726671
1665.000000	41.740884
1666.000000	41.738892
1667.000000	41.705815
1668.000000	41.688754
1669.000000	41.704216
1670.000000	41.716706
1671.000000	41.733806
1672.000000	41.736614
1673.000000	41.711977
1674.000000	41.688764
1675.000000	41.670495
1676.000000	41.673433
1677.000000	41.649436
1678.000000	41.628383
1679.000000	41.574469
1680.000000	41.572448
1681.000000	41.564174
1682.000000	41.528657
1683.000000	41.487104
1684.000000	41.452160
1685.000000	41.392795
1686.000000	41.363405
1687.000000	41.322462
1688.000000	41.284636
1689.000000	41.243318
1690.000000	41.216423
1691.000000	41.206687
1692.000000	41.195084
1693.000000	41.176983
1694.000000	41.167438
1695.000000	41.172427
1696.000000	41.164841
1697.000000	41.159341
1698.000000	41.108429
1699.000000	41.090592
1700.000000	41.065249
1701.000000	41.037304
1702.000000	41.047725
1703.000000	41.020868
1704.000000	41.001754
1705.000000	40.975230
1706.000000	40.954232
1707.000000	40.921841
1708.000000	40.910615
1709.000000	40.906417
1710.000000	40.903703
1711.000000	40.862824
1712.000000	40.847605
1713.000000	40.824349
1714.000000	40.814935
1715.000000	40.784767
1716.000000	40.761888
1717.000000	40.747241
1718.000000	40.729095
1719.000000	40.713277
1720.000000	40.702751
1721.000000	40.706402
1722.000000	40.685698
1723.000000	40.670572
1724.000000	40.656591
1725.000000	40.620938
1726.000000	40.599681
1727.000000	40.585245
1728.000000	40.570137
1729.000000	40.541396
1730.000000	40.507791
1731.000000	40.464734
1732.000000	40.433174
1733.000000	40.436656
1734.000000	40.435314
1735.000000	40.419912
1736.000000	40.404973
1737.000000	40.374851
1738.000000	40.384497
1739.000000	40.371051
1740.000000	40.362833
1741.000000	40.370552
1742.000000	40.388144
1743.000000	40.389759
1744.000000	40.400763
1745.000000	40.388484
1746.000000	40.406161
1747.000000	40.428121
1748.000000	40.442580
1749.000000	40.470173
1750.000000	40.499273
1751.000000	40.520009
1752.000000	40.548901
1753.000000	40.572013
1754.000000	40.596754
1755.000000	40.630908
1756.000000	40.633751
1757.000000	40.661399
1758.000000	40.702347
1759.000000	40.733000
1760.000000	40.754060
1761.000000	40.777977
1762.000000	40.795003
1763.000000	40.812651
1764.000000	40.839867
1765.000000	40.859126
1766.000000	40.884220
1767.000000	40.896512
1768.000000	40.897921
1769.000000	40.902152
1770.000000	40.918783
1771.000000	40.940465
1772.000000	40.983234
1773.000000	40.997308
1774.000000	41.009172
1775.000000	41.032214
1776.000000	41.034420
1777.000000	41.046274
1778.000000	41.056595
1779.000000	41.064434
1780.000000	41.075147
1781.000000	41.076638
1782.000000	41.077381
1783.000000	41.078849
1784.000000	41.079361
1785.000000	41.080561
1786.000000	41.080103
1787.000000	41.103913
1788.000000	41.129757
1789.000000	41.149835
1790.000000	41.164897
1791.000000	41.190135
1792.000000	41.214894
1793.000000	41.223358
1794.000000	41.234089
1795.000000	41.261237
1796.000000	41.279686
1797.000000	41.282067
1798.000000	41.297515
1799.000000	41.315702
1800.000000	41.346641
1801.000000	41.386243
1802.000000	41.416644
1803.000000	41.440718
1804.000000	41.461853
1805.000000	41.491103
1806.000000	41.528841
1807.000000	41.546562
1808.000000	41.559897
1809.000000	41.572536
1810.000000	41.580346
1811.000000	41.619384
1812.000000	41.678897
1813.000000	41.738682
1814.000000	41.785652
1815.000000	41.809815
1816.000000	41.830456
1817.000000	41.943069
1818.000000	42.032762
1819.000000	42.114827
1820.000000	42.166113
1821.000000	42.191299
1822.000000	42.187230
1823.000000	42.174715
1824.000000	42.169456
1825.000000	42.241442
1826.000000	42.270445
1827.000000	42.269668
1828.000000	42.277513
1829.000000	42.292480
1830.000000	42.325910
1831.000000	42.347085
1832.000000	42.353847
1833.000000	42.358172
1834.000000	42.365200
1835.000000	42.423695
1836.000000	42.437490
1837.000000	42.421820
1838.000000	42.390675
1839.000000	42.326906
1840.000000	42.257776
1841.000000	42.272476
1842.000000	42.273494
1843.000000	42.276785
1844.000000	42.280707
1845.000000	42.267716
1846.000000	42.275044
1847.000000	42.311423
1848.000000	42.298957
1849.000000	42.287568
1850.000000	42.258689
1851.000000	42.236889
1852.000000	42.163487
1853.000000	42.150029
1854.000000	42.100838
1855.000000	42.101531
1856.000000	42.045591
1857.000000	42.009307
1858.000000	42.006183
1859.000000	42.017169
1860.000000	41.940030
1861.000000	41.920812
1862.000000	41.947929
1863.000000	42.072966
1864.000000	42.163753
1865.000000	42.187287
1866.000000	42.181114
1867.000000	42.158542
1868.000000	42.137642
1869.000000	42.120658
1870.000000	42.151306
1871.000000	42.113520
1872.000000	42.229872
1873.000000	42.275048
1874.000000	42.343248
1875.000000	42.357301
1876.000000	42.367117
1877.000000	42.336963
1878.000000	42.302036
1879.000000	42.279679
1880.000000	42.267318
1881.000000	42.198370
1882.000000	42.076445
1883.000000	42.064167
1884.000000	42.007196
1885.000000	41.965653
1886.000000	41.957746
1887.000000	41.861281
1888.000000	41.724815
1889.000000	41.675906
1890.000000	41.542128
1891.000000	41.539773
1892.000000	41.467490
1893.000000	41.379942
1894.000000	41.255284
1895.000000	41.137428
1896.000000	41.015644
1897.000000	40.864235
1898.000000	40.590385
1899.000000	40.341467
1900.000000	40.107985
1901.000000	39.971723
1902.000000	40.017875
1903.000000	39.881625
1904.000000	39.692982
1905.000000	39.376267
1906.000000	39.220507
1907.000000	38.893852
1908.000000	38.665644
1909.000000	38.424720
1910.000000	38.207883
1911.000000	37.880403
1912.000000	37.614909
1913.000000	37.396089
1914.000000	37.145694
1915.000000	36.950580
1916.000000	36.673402
1917.000000	36.393953
1918.000000	36.055725
1919.000000	35.843313
1920.000000	35.623156
1921.000000	35.331651
1922.000000	35.104121
1923.000000	34.933544
1924.000000	34.646890
1925.000000	34.428904
1926.000000	34.207133
1927.000000	34.007569
1928.000000	33.821288
1929.000000	33.639524
1930.000000	33.473600
1931.000000	33.275977
1932.000000	33.093084
1933.000000	32.945914
1934.000000	32.768151
1935.000000	32.637573
1936.000000	32.451396
1937.000000	32.135138
1938.000000	32.006169
1939.000000	31.884863
1940.000000	31.807661
1941.000000	31.669007
1942.000000	31.591746
1943.000000	31.506693
1944.000000	31.456729
1945.000000	31.426341
1946.000000	31.416293
1947.000000	31.413155
1948.000000	31.369095
1949.000000	31.353726
1950.000000	31.301493
1951.000000	31.329036
1952.000000	31.381544
1953.000000	31.410213
1954.000000	31.389938
1955.000000	31.413026
1956.000000	31.452989
1957.000000	31.484006
1958.000000	31.476012
1959.000000	31.553911
1960.000000	31.609197
1961.000000	31.636226
1962.000000	31.705437
1963.000000	31.744950
1964.000000	31.807498
1965.000000	31.863220
1966.000000	31.940621
1967.000000	32.004334
1968.000000	32.061789
1969.000000	32.145219
1970.000000	32.212292
1971.000000	32.298641
1972.000000	32.371669
1973.000000	32.433115
1974.000000	32.519893
1975.000000	32.603545
1976.000000	32.697925
1977.000000	32.785255
1978.000000	32.864040
1979.000000	32.930512
1980.000000	33.015735
1981.000000	33.102072
1982.000000	33.190589
1983.000000	33.285279
1984.000000	33.394902
1985.000000	33.467960
1986.000000	33.542024
1987.000000	33.615785
1988.000000	33.704395
1989.000000	33.778913
1990.000000	33.850255
1991.000000	33.950459
1992.000000	34.022705
1993.000000	34.095137
1994.000000	34.155987
1995.000000	34.242343
1996.000000	34.315101
1997.000000	34.371438
1998.000000	34.450230
1999.000000	34.510249
2000.000000	34.552136
