PE UV       SUBTECH     SPECTRUM    ASCII       PEDS        4.00        
   -1
S.SIGN.PREG-TX3.ASC
23/11/30
12:52:28.00
23/11/30
12:52:28.00
Vinicio Soto Monge
STRIGIDIA 2
250,000000
1
Lambda 1050
1050L1511233
PerkinElmer UV WinLab 6.3.2.0749 / 2.02.05 Lambda 900 UV/VIS/NIR, Aug  7 2015 09:38:08

0
0
3350/servo 860,8/2
0
0
UV/VIS
1
1
1
DoubleDePol,CommonBeamDepol,RBeamAtt,SBeamAtt,60mm sphere, WB InGaAs Detector
0
0
0
0
Program
Program
3350/servo 860,8/2
3350/0,4 860,8/0,4
3350/0,4 860,8/0,4
0
20.00
 
 
 
0
 
860,8
319,2
860,8
Front
100
on
S:100 R:100
0
0
0
0
 
0
 
 
 
0
 
 
0
0
0
0
0
 
 
 
 
0
0


0
0
#HDR
-1
-1
#GR
nm
%T
1.0
0.0
2200,000000
-1,000000
1951
8
76,413974
0,594114
#DATA
284.000000	0.431016
285.000000	0.429446
286.000000	0.427822
287.000000	0.426439
288.000000	0.425081
289.000000	0.423632
290.000000	0.422343
291.000000	0.421106
292.000000	0.419799
293.000000	0.418486
294.000000	0.417191
295.000000	0.416138
296.000000	0.415593
297.000000	0.414317
298.000000	0.413608
299.000000	0.412980
300.000000	0.412319
301.000000	0.412285
302.000000	0.411928
303.000000	0.411525
304.000000	0.410795
305.000000	0.410889
306.000000	0.411235
307.000000	0.411708
308.000000	0.411738
309.000000	0.412523
310.000000	0.413110
311.000000	0.414003
312.000000	0.414940
313.000000	0.415114
314.000000	0.416217
315.000000	0.417197
316.000000	0.417639
317.000000	0.418529
318.000000	0.420013
319.000000	0.420712
320.000000	0.422180
321.000000	0.424747
322.000000	0.426140
323.000000	0.427887
324.000000	0.429866
325.000000	0.431707
326.000000	0.434260
327.000000	0.436628
328.000000	0.438993
329.000000	0.441375
330.000000	0.443067
331.000000	0.445548
332.000000	0.447813
333.000000	0.450170
334.000000	0.453063
335.000000	0.456224
336.000000	0.457983
337.000000	0.460331
338.000000	0.462683
339.000000	0.464797
340.000000	0.467471
341.000000	0.469520
342.000000	0.472279
343.000000	0.475107
344.000000	0.477304
345.000000	0.479423
346.000000	0.481217
347.000000	0.483364
348.000000	0.486606
349.000000	0.489174
350.000000	0.491120
351.000000	0.493518
352.000000	0.496394
353.000000	0.498356
354.000000	0.500923
355.000000	0.503563
356.000000	0.504818
357.000000	0.507335
358.000000	0.509472
359.000000	0.511321
360.000000	0.513887
361.000000	0.515930
362.000000	0.518294
363.000000	0.520317
364.000000	0.522342
365.000000	0.524754
366.000000	0.526617
367.000000	0.528398
368.000000	0.530076
369.000000	0.532348
370.000000	0.534905
371.000000	0.537932
372.000000	0.540587
373.000000	0.543830
374.000000	0.546551
375.000000	0.547886
376.000000	0.550278
377.000000	0.552206
378.000000	0.554135
379.000000	0.556320
380.000000	0.558843
381.000000	0.561707
382.000000	0.564338
383.000000	0.566105
384.000000	0.568061
385.000000	0.570758
386.000000	0.573312
387.000000	0.575383
388.000000	0.577868
389.000000	0.580062
390.000000	0.581951
391.000000	0.583945
392.000000	0.585961
393.000000	0.588058
394.000000	0.590201
395.000000	0.591949
396.000000	0.593189
397.000000	0.594310
398.000000	0.595837
399.000000	0.597361
400.000000	0.599162
401.000000	0.600936
402.000000	0.602958
403.000000	0.604757
404.000000	0.605692
405.000000	0.606089
406.000000	0.606948
407.000000	0.607872
408.000000	0.608404
409.000000	0.609669
410.000000	0.611315
411.000000	0.612525
412.000000	0.613457
413.000000	0.614396
414.000000	0.615328
415.000000	0.616138
416.000000	0.616892
417.000000	0.617622
418.000000	0.618324
419.000000	0.618919
420.000000	0.619532
421.000000	0.620111
422.000000	0.620662
423.000000	0.621190
424.000000	0.621626
425.000000	0.621917
426.000000	0.622170
427.000000	0.622397
428.000000	0.622544
429.000000	0.622674
430.000000	0.622915
431.000000	0.623160
432.000000	0.623349
433.000000	0.623564
434.000000	0.623745
435.000000	0.623846
436.000000	0.623963
437.000000	0.624137
438.000000	0.624331
439.000000	0.624485
440.000000	0.624578
441.000000	0.624702
442.000000	0.624913
443.000000	0.624998
444.000000	0.624973
445.000000	0.624973
446.000000	0.624933
447.000000	0.624874
448.000000	0.624775
449.000000	0.624682
450.000000	0.624641
451.000000	0.624549
452.000000	0.624459
453.000000	0.624381
454.000000	0.624277
455.000000	0.624161
456.000000	0.624064
457.000000	0.623922
458.000000	0.623757
459.000000	0.623571
460.000000	0.623474
461.000000	0.623362
462.000000	0.623224
463.000000	0.623078
464.000000	0.622959
465.000000	0.622733
466.000000	0.622509
467.000000	0.622353
468.000000	0.622240
469.000000	0.622096
470.000000	0.621928
471.000000	0.621778
472.000000	0.621605
473.000000	0.621460
474.000000	0.621389
475.000000	0.621369
476.000000	0.621327
477.000000	0.621304
478.000000	0.621356
479.000000	0.621394
480.000000	0.621467
481.000000	0.621683
482.000000	0.621941
483.000000	0.622230
484.000000	0.622650
485.000000	0.623117
486.000000	0.623726
487.000000	0.624463
488.000000	0.625324
489.000000	0.626272
490.000000	0.627364
491.000000	0.628526
492.000000	0.629894
493.000000	0.631425
494.000000	0.633187
495.000000	0.635184
496.000000	0.637430
497.000000	0.639868
498.000000	0.642524
499.000000	0.645422
500.000000	0.648716
501.000000	0.652403
502.000000	0.656414
503.000000	0.660725
504.000000	0.665577
505.000000	0.670895
506.000000	0.676647
507.000000	0.682948
508.000000	0.689833
509.000000	0.697265
510.000000	0.705439
511.000000	0.714289
512.000000	0.723792
513.000000	0.734170
514.000000	0.745449
515.000000	0.757544
516.000000	0.770496
517.000000	0.784440
518.000000	0.799387
519.000000	0.815358
520.000000	0.832474
521.000000	0.850733
522.000000	0.870137
523.000000	0.890797
524.000000	0.912901
525.000000	0.936442
526.000000	0.961472
527.000000	0.987921
528.000000	1.016000
529.000000	1.045716
530.000000	1.077095
531.000000	1.110305
532.000000	1.145394
533.000000	1.182449
534.000000	1.221584
535.000000	1.262717
536.000000	1.306030
537.000000	1.351544
538.000000	1.399428
539.000000	1.449586
540.000000	1.502206
541.000000	1.557490
542.000000	1.615398
543.000000	1.675942
544.000000	1.739287
545.000000	1.805223
546.000000	1.873895
547.000000	1.945482
548.000000	2.019634
549.000000	2.096726
550.000000	2.176726
551.000000	2.259660
552.000000	2.345433
553.000000	2.434133
554.000000	2.525661
555.000000	2.620228
556.000000	2.717585
557.000000	2.817762
558.000000	2.920745
559.000000	3.026465
560.000000	3.134733
561.000000	3.245872
562.000000	3.359794
563.000000	3.476378
564.000000	3.595874
565.000000	3.717987
566.000000	3.842418
567.000000	3.969399
568.000000	4.098633
569.000000	4.230359
570.000000	4.364228
571.000000	4.500233
572.000000	4.638429
573.000000	4.778911
574.000000	4.921257
575.000000	5.065591
576.000000	5.211649
577.000000	5.359641
578.000000	5.509359
579.000000	5.660715
580.000000	5.813746
581.000000	5.968705
582.000000	6.125186
583.000000	6.283503
584.000000	6.443418
585.000000	6.604710
586.000000	6.767327
587.000000	6.931325
588.000000	7.096824
589.000000	7.263629
590.000000	7.431744
591.000000	7.601265
592.000000	7.772267
593.000000	7.944620
594.000000	8.118550
595.000000	8.293903
596.000000	8.470268
597.000000	8.647834
598.000000	8.826725
599.000000	9.006641
600.000000	9.187755
601.000000	9.370610
602.000000	9.554625
603.000000	9.740052
604.000000	9.926471
605.000000	10.114190
606.000000	10.303108
607.000000	10.493087
608.000000	10.684118
609.000000	10.876440
610.000000	11.069780
611.000000	11.264413
612.000000	11.459908
613.000000	11.656437
614.000000	11.854257
615.000000	12.053175
616.000000	12.252766
617.000000	12.453239
618.000000	12.654868
619.000000	12.857029
620.000000	13.060421
621.000000	13.264786
622.000000	13.470202
623.000000	13.676615
624.000000	13.883773
625.000000	14.091950
626.000000	14.300849
627.000000	14.510623
628.000000	14.721190
629.000000	14.932426
630.000000	15.144837
631.000000	15.358085
632.000000	15.572604
633.000000	15.788188
634.000000	16.004564
635.000000	16.221983
636.000000	16.440167
637.000000	16.659213
638.000000	16.879340
639.000000	17.100507
640.000000	17.322834
641.000000	17.546108
642.000000	17.770663
643.000000	17.996382
644.000000	18.223660
645.000000	18.452003
646.000000	18.681345
647.000000	18.911524
648.000000	19.142591
649.000000	19.374693
650.000000	19.607979
651.000000	19.842236
652.000000	20.077689
653.000000	20.313948
654.000000	20.551725
655.000000	20.790137
656.000000	21.029397
657.000000	21.269365
658.000000	21.509925
659.000000	21.751456
660.000000	21.993301
661.000000	22.235958
662.000000	22.479022
663.000000	22.722581
664.000000	22.966128
665.000000	23.209725
666.000000	23.453925
667.000000	23.698082
668.000000	23.942037
669.000000	24.186110
670.000000	24.429764
671.000000	24.673322
672.000000	24.916653
673.000000	25.159589
674.000000	25.402194
675.000000	25.644290
676.000000	25.885465
677.000000	26.125557
678.000000	26.364763
679.000000	26.603066
680.000000	26.840457
681.000000	27.076634
682.000000	27.312085
683.000000	27.547268
684.000000	27.781755
685.000000	28.014658
686.000000	28.246383
687.000000	28.476585
688.000000	28.705085
689.000000	28.931858
690.000000	29.157494
691.000000	29.382691
692.000000	29.606915
693.000000	29.829387
694.000000	30.050593
695.000000	30.270707
696.000000	30.489100
697.000000	30.705972
698.000000	30.921267
699.000000	31.135934
700.000000	31.349677
701.000000	31.562251
702.000000	31.773549
703.000000	31.983957
704.000000	32.193114
705.000000	32.400727
706.000000	32.607255
707.000000	32.812904
708.000000	33.016886
709.000000	33.219110
710.000000	33.419545
711.000000	33.619298
712.000000	33.819020
713.000000	34.017821
714.000000	34.214781
715.000000	34.410789
716.000000	34.606170
717.000000	34.800258
718.000000	34.992965
719.000000	35.184002
720.000000	35.373939
721.000000	35.563113
722.000000	35.751362
723.000000	35.938840
724.000000	36.125332
725.000000	36.310680
726.000000	36.494236
727.000000	36.676684
728.000000	36.858588
729.000000	37.039255
730.000000	37.217965
731.000000	37.395742
732.000000	37.573598
733.000000	37.751037
734.000000	37.926591
735.000000	38.100964
736.000000	38.274441
737.000000	38.447467
738.000000	38.619328
739.000000	38.789426
740.000000	38.959244
741.000000	39.127587
742.000000	39.294993
743.000000	39.462197
744.000000	39.628755
745.000000	39.794882
746.000000	39.959627
747.000000	40.123192
748.000000	40.284875
749.000000	40.445840
750.000000	40.606397
751.000000	40.766043
752.000000	40.925020
753.000000	41.083283
754.000000	41.240235
755.000000	41.394955
756.000000	41.548841
757.000000	41.702715
758.000000	41.855681
759.000000	42.008114
760.000000	42.160034
761.000000	42.310959
762.000000	42.460902
763.000000	42.609337
764.000000	42.757640
765.000000	42.905445
766.000000	43.052783
767.000000	43.198679
768.000000	43.343000
769.000000	43.486634
770.000000	43.630178
771.000000	43.772995
772.000000	43.914544
773.000000	44.055095
774.000000	44.194658
775.000000	44.333265
776.000000	44.471415
777.000000	44.607294
778.000000	44.742998
779.000000	44.878297
780.000000	45.013573
781.000000	45.148786
782.000000	45.282010
783.000000	45.415257
784.000000	45.548000
785.000000	45.679195
786.000000	45.808042
787.000000	45.935797
788.000000	46.063994
789.000000	46.190788
790.000000	46.319786
791.000000	46.447969
792.000000	46.573985
793.000000	46.699543
794.000000	46.824435
795.000000	46.947135
796.000000	47.068291
797.000000	47.189438
798.000000	47.311311
799.000000	47.430942
800.000000	47.551498
801.000000	47.671801
802.000000	47.790761
803.000000	47.908497
804.000000	48.027649
805.000000	48.144525
806.000000	48.260097
807.000000	48.373258
808.000000	48.486767
809.000000	48.599553
810.000000	48.711398
811.000000	48.821688
812.000000	48.934502
813.000000	49.045246
814.000000	49.154582
815.000000	49.261676
816.000000	49.370528
817.000000	49.478141
818.000000	49.584494
819.000000	49.691322
820.000000	49.797004
821.000000	49.901956
822.000000	50.006264
823.000000	50.107806
824.000000	50.209745
825.000000	50.313983
826.000000	50.415234
827.000000	50.515429
828.000000	50.613387
829.000000	50.710548
830.000000	50.807274
831.000000	50.906882
832.000000	51.008039
833.000000	51.104076
834.000000	51.199844
835.000000	51.290669
836.000000	51.383606
837.000000	51.477888
838.000000	51.570155
839.000000	51.661278
840.000000	51.756856
841.000000	51.847747
842.000000	51.940158
843.000000	52.030476
844.000000	52.124903
845.000000	52.221791
846.000000	52.312868
847.000000	52.401511
848.000000	52.488376
849.000000	52.578222
850.000000	52.665948
851.000000	52.749750
852.000000	52.828073
853.000000	52.912545
854.000000	52.994406
855.000000	53.081753
856.000000	53.161206
857.000000	53.243920
858.000000	53.329877
859.000000	53.422049
860.000000	53.530439
861.000000	53.636117
862.000000	53.726932
863.000000	53.832611
864.000000	53.926292
865.000000	54.036442
866.000000	54.135682
867.000000	54.240529
868.000000	54.329928
869.000000	54.419742
870.000000	54.520353
871.000000	54.615887
872.000000	54.705084
873.000000	54.808566
874.000000	54.920021
875.000000	55.025904
876.000000	55.122927
877.000000	55.211443
878.000000	55.291841
879.000000	55.371907
880.000000	55.443677
881.000000	55.510708
882.000000	55.589600
883.000000	55.682922
884.000000	55.762565
885.000000	55.849379
886.000000	55.936174
887.000000	56.023433
888.000000	56.094832
889.000000	56.174965
890.000000	56.244876
891.000000	56.343037
892.000000	56.426166
893.000000	56.518973
894.000000	56.587168
895.000000	56.647073
896.000000	56.692942
897.000000	56.758729
898.000000	56.813944
899.000000	56.871575
900.000000	56.911203
901.000000	56.953610
902.000000	56.983421
903.000000	57.046977
904.000000	57.095376
905.000000	57.141401
906.000000	57.215901
907.000000	57.283806
908.000000	57.324625
909.000000	57.354471
910.000000	57.405490
911.000000	57.463875
912.000000	57.524399
913.000000	57.594917
914.000000	57.660041
915.000000	57.727372
916.000000	57.790212
917.000000	57.845585
918.000000	57.884043
919.000000	57.948235
920.000000	58.001654
921.000000	58.047745
922.000000	58.114622
923.000000	58.167714
924.000000	58.205508
925.000000	58.259583
926.000000	58.300502
927.000000	58.346799
928.000000	58.369821
929.000000	58.428368
930.000000	58.474422
931.000000	58.529953
932.000000	58.581053
933.000000	58.625256
934.000000	58.665885
935.000000	58.722541
936.000000	58.787253
937.000000	58.844877
938.000000	58.898212
939.000000	58.958526
940.000000	59.019117
941.000000	59.038254
942.000000	59.063575
943.000000	59.116657
944.000000	59.155506
945.000000	59.189623
946.000000	59.241905
947.000000	59.282212
948.000000	59.322088
949.000000	59.352951
950.000000	59.370952
951.000000	59.418251
952.000000	59.469234
953.000000	59.524448
954.000000	59.559987
955.000000	59.607030
956.000000	59.647960
957.000000	59.669160
958.000000	59.726348
959.000000	59.784795
960.000000	59.824437
961.000000	59.861608
962.000000	59.907651
963.000000	59.970366
964.000000	60.009624
965.000000	60.048779
966.000000	60.093956
967.000000	60.138081
968.000000	60.183578
969.000000	60.246542
970.000000	60.285283
971.000000	60.312949
972.000000	60.356868
973.000000	60.386140
974.000000	60.413166
975.000000	60.435229
976.000000	60.485276
977.000000	60.539703
978.000000	60.571678
979.000000	60.623515
980.000000	60.652067
981.000000	60.670415
982.000000	60.705082
983.000000	60.728872
984.000000	60.767538
985.000000	60.816687
986.000000	60.856071
987.000000	60.887588
988.000000	60.920426
989.000000	60.955332
990.000000	60.974201
991.000000	61.008239
992.000000	61.049488
993.000000	61.074023
994.000000	61.108994
995.000000	61.148768
996.000000	61.172257
997.000000	61.184916
998.000000	61.197628
999.000000	61.222856
1000.000000	61.244825
1001.000000	61.267645
1002.000000	61.297860
1003.000000	61.325030
1004.000000	61.338331
1005.000000	61.360435
1006.000000	61.391425
1007.000000	61.422899
1008.000000	61.457030
1009.000000	61.485917
1010.000000	61.502412
1011.000000	61.515214
1012.000000	61.535881
1013.000000	61.561057
1014.000000	61.577505
1015.000000	61.600040
1016.000000	61.620795
1017.000000	61.644668
1018.000000	61.686697
1019.000000	61.717550
1020.000000	61.744901
1021.000000	61.767677
1022.000000	61.785504
1023.000000	61.805277
1024.000000	61.820478
1025.000000	61.851561
1026.000000	61.881615
1027.000000	61.898909
1028.000000	61.922029
1029.000000	61.939161
1030.000000	61.956346
1031.000000	61.979687
1032.000000	62.007869
1033.000000	62.041021
1034.000000	62.070239
1035.000000	62.093032
1036.000000	62.112236
1037.000000	62.128051
1038.000000	62.152411
1039.000000	62.184161
1040.000000	62.217858
1041.000000	62.245143
1042.000000	62.268657
1043.000000	62.281563
1044.000000	62.310454
1045.000000	62.348248
1046.000000	62.376621
1047.000000	62.398630
1048.000000	62.416520
1049.000000	62.438638
1050.000000	62.452093
1051.000000	62.464402
1052.000000	62.489466
1053.000000	62.496653
1054.000000	62.511327
1055.000000	62.530779
1056.000000	62.550799
1057.000000	62.581913
1058.000000	62.609266
1059.000000	62.632815
1060.000000	62.636764
1061.000000	62.642175
1062.000000	62.665974
1063.000000	62.697350
1064.000000	62.722248
1065.000000	62.752901
1066.000000	62.778239
1067.000000	62.803344
1068.000000	62.815537
1069.000000	62.817284
1070.000000	62.840724
1071.000000	62.859282
1072.000000	62.883975
1073.000000	62.906885
1074.000000	62.933501
1075.000000	62.951791
1076.000000	62.988766
1077.000000	63.001277
1078.000000	63.021866
1079.000000	63.032875
1080.000000	63.054345
1081.000000	63.089299
1082.000000	63.095051
1083.000000	63.108909
1084.000000	63.139634
1085.000000	63.176389
1086.000000	63.203246
1087.000000	63.219755
1088.000000	63.237716
1089.000000	63.258071
1090.000000	63.282042
1091.000000	63.294800
1092.000000	63.317039
1093.000000	63.342604
1094.000000	63.360944
1095.000000	63.387448
1096.000000	63.422774
1097.000000	63.438822
1098.000000	63.460456
1099.000000	63.472656
1100.000000	63.480523
1101.000000	63.493120
1102.000000	63.516244
1103.000000	63.536606
1104.000000	63.556571
1105.000000	63.575435
1106.000000	63.601291
1107.000000	63.608225
1108.000000	63.602282
1109.000000	63.595987
1110.000000	63.613450
1111.000000	63.592842
1112.000000	63.601315
1113.000000	63.628277
1114.000000	63.653326
1115.000000	63.689518
1116.000000	63.704793
1117.000000	63.732155
1118.000000	63.755982
1119.000000	63.771351
1120.000000	63.770998
1121.000000	63.778314
1122.000000	63.799501
1123.000000	63.815565
1124.000000	63.834085
1125.000000	63.879989
1126.000000	63.893649
1127.000000	63.897380
1128.000000	63.902254
1129.000000	63.913600
1130.000000	63.935951
1131.000000	63.946578
1132.000000	63.958313
1133.000000	63.970368
1134.000000	63.992275
1135.000000	64.001255
1136.000000	64.002712
1137.000000	64.021202
1138.000000	64.030181
1139.000000	64.054756
1140.000000	64.059856
1141.000000	64.087662
1142.000000	64.088315
1143.000000	64.109731
1144.000000	64.126464
1145.000000	64.121261
1146.000000	64.159189
1147.000000	64.183931
1148.000000	64.191033
1149.000000	64.191285
1150.000000	64.178475
1151.000000	64.168290
1152.000000	64.184671
1153.000000	64.195627
1154.000000	64.190951
1155.000000	64.192962
1156.000000	64.218249
1157.000000	64.215370
1158.000000	64.226879
1159.000000	64.214462
1160.000000	64.178904
1161.000000	64.187672
1162.000000	64.196525
1163.000000	64.175528
1164.000000	64.188439
1165.000000	64.194027
1166.000000	64.207272
1167.000000	64.214454
1168.000000	64.202407
1169.000000	64.200262
1170.000000	64.217939
1171.000000	64.238806
1172.000000	64.239863
1173.000000	64.245394
1174.000000	64.240742
1175.000000	64.242355
1176.000000	64.228435
1177.000000	64.257057
1178.000000	64.269745
1179.000000	64.274394
1180.000000	64.295571
1181.000000	64.299676
1182.000000	64.309831
1183.000000	64.314603
1184.000000	64.321147
1185.000000	64.324110
1186.000000	64.342288
1187.000000	64.332549
1188.000000	64.341641
1189.000000	64.349038
1190.000000	64.370392
1191.000000	64.352506
1192.000000	64.362009
1193.000000	64.368970
1194.000000	64.396124
1195.000000	64.399032
1196.000000	64.410611
1197.000000	64.411035
1198.000000	64.447395
1199.000000	64.457486
1200.000000	64.471031
1201.000000	64.482032
1202.000000	64.492541
1203.000000	64.503135
1204.000000	64.511615
1205.000000	64.510754
1206.000000	64.518888
1207.000000	64.532415
1208.000000	64.548929
1209.000000	64.551752
1210.000000	64.574867
1211.000000	64.600130
1212.000000	64.619750
1213.000000	64.637256
1214.000000	64.654782
1215.000000	64.669773
1216.000000	64.667370
1217.000000	64.681449
1218.000000	64.696524
1219.000000	64.717721
1220.000000	64.740270
1221.000000	64.740449
1222.000000	64.755829
1223.000000	64.756669
1224.000000	64.769239
1225.000000	64.784738
1226.000000	64.828662
1227.000000	64.853766
1228.000000	64.867823
1229.000000	64.879602
1230.000000	64.903073
1231.000000	64.907819
1232.000000	64.920961
1233.000000	64.924304
1234.000000	64.932483
1235.000000	64.940744
1236.000000	64.943583
1237.000000	64.955563
1238.000000	64.967037
1239.000000	64.986976
1240.000000	65.017911
1241.000000	65.039291
1242.000000	65.038561
1243.000000	65.055787
1244.000000	65.100855
1245.000000	65.105878
1246.000000	65.097311
1247.000000	65.096694
1248.000000	65.103920
1249.000000	65.117754
1250.000000	65.115799
1251.000000	65.129191
1252.000000	65.119252
1253.000000	65.123425
1254.000000	65.132641
1255.000000	65.132215
1256.000000	65.154743
1257.000000	65.176109
1258.000000	65.197631
1259.000000	65.223931
1260.000000	65.234406
1261.000000	65.227548
1262.000000	65.230529
1263.000000	65.250026
1264.000000	65.270258
1265.000000	65.287317
1266.000000	65.313750
1267.000000	65.343464
1268.000000	65.373360
1269.000000	65.390379
1270.000000	65.393158
1271.000000	65.399867
1272.000000	65.410262
1273.000000	65.422800
1274.000000	65.430531
1275.000000	65.427830
1276.000000	65.423899
1277.000000	65.439597
1278.000000	65.447305
1279.000000	65.440791
1280.000000	65.446989
1281.000000	65.459745
1282.000000	65.471822
1283.000000	65.480180
1284.000000	65.482028
1285.000000	65.496657
1286.000000	65.506563
1287.000000	65.528809
1288.000000	65.546900
1289.000000	65.564806
1290.000000	65.581749
1291.000000	65.584149
1292.000000	65.595116
1293.000000	65.607040
1294.000000	65.604915
1295.000000	65.605411
1296.000000	65.609904
1297.000000	65.610714
1298.000000	65.600544
1299.000000	65.585661
1300.000000	65.589805
1301.000000	65.598800
1302.000000	65.592459
1303.000000	65.587033
1304.000000	65.603406
1305.000000	65.631919
1306.000000	65.645271
1307.000000	65.657099
1308.000000	65.674426
1309.000000	65.689619
1310.000000	65.698741
1311.000000	65.718075
1312.000000	65.736615
1313.000000	65.751550
1314.000000	65.754977
1315.000000	65.761491
1316.000000	65.775791
1317.000000	65.782970
1318.000000	65.782145
1319.000000	65.782480
1320.000000	65.783993
1321.000000	65.800778
1322.000000	65.804884
1323.000000	65.802915
1324.000000	65.795875
1325.000000	65.805775
1326.000000	65.812856
1327.000000	65.803559
1328.000000	65.816587
1329.000000	65.834954
1330.000000	65.845488
1331.000000	65.858442
1332.000000	65.871376
1333.000000	65.897446
1334.000000	65.929122
1335.000000	65.957655
1336.000000	65.974392
1337.000000	65.986719
1338.000000	65.980822
1339.000000	65.974522
1340.000000	65.965747
1341.000000	65.973982
1342.000000	65.986177
1343.000000	65.990929
1344.000000	65.993843
1345.000000	65.999721
1346.000000	65.996943
1347.000000	66.017295
1348.000000	66.023657
1349.000000	66.030294
1350.000000	66.044142
1351.000000	66.088098
1352.000000	66.028984
1353.000000	66.043161
1354.000000	66.103644
1355.000000	66.244510
1356.000000	66.203531
1357.000000	66.228763
1358.000000	66.222053
1359.000000	66.279891
1360.000000	66.285109
1361.000000	66.357593
1362.000000	66.208129
1363.000000	66.149377
1364.000000	66.273365
1365.000000	66.263101
1366.000000	66.234682
1367.000000	66.318075
1368.000000	66.418616
1369.000000	66.391153
1370.000000	66.337821
1371.000000	66.294012
1372.000000	66.255546
1373.000000	66.281456
1374.000000	66.246739
1375.000000	66.209071
1376.000000	66.156609
1377.000000	66.133888
1378.000000	66.238463
1379.000000	66.218387
1380.000000	66.521024
1381.000000	66.520904
1382.000000	66.667688
1383.000000	66.693024
1384.000000	66.679932
1385.000000	66.652231
1386.000000	66.612449
1387.000000	66.671679
1388.000000	66.557119
1389.000000	66.465676
1390.000000	66.326105
1391.000000	66.408155
1392.000000	66.529591
1393.000000	66.523458
1394.000000	66.433210
1395.000000	66.465971
1396.000000	66.505372
1397.000000	66.653847
1398.000000	66.718991
1399.000000	66.619870
1400.000000	66.688669
1401.000000	66.789461
1402.000000	66.671123
1403.000000	66.538806
1404.000000	66.530565
1405.000000	66.523657
1406.000000	66.543104
1407.000000	66.577755
1408.000000	66.541571
1409.000000	66.643868
1410.000000	66.662072
1411.000000	66.677435
1412.000000	66.670780
1413.000000	66.535882
1414.000000	66.493319
1415.000000	66.156792
1416.000000	66.132638
1417.000000	65.950687
1418.000000	65.857135
1419.000000	65.845270
1420.000000	65.849611
1421.000000	65.806557
1422.000000	65.773734
1423.000000	65.819286
1424.000000	65.819454
1425.000000	65.808947
1426.000000	65.733122
1427.000000	65.540928
1428.000000	65.512367
1429.000000	65.503879
1430.000000	65.401746
1431.000000	65.256661
1432.000000	65.257970
1433.000000	65.207588
1434.000000	65.162700
1435.000000	65.060594
1436.000000	64.935049
1437.000000	64.917156
1438.000000	64.903248
1439.000000	64.889676
1440.000000	64.894631
1441.000000	64.882936
1442.000000	64.825363
1443.000000	64.788723
1444.000000	64.684436
1445.000000	64.670280
1446.000000	64.648733
1447.000000	64.626683
1448.000000	64.598130
1449.000000	64.598946
1450.000000	64.575706
1451.000000	64.551165
1452.000000	64.508285
1453.000000	64.509477
1454.000000	64.494997
1455.000000	64.487734
1456.000000	64.481670
1457.000000	64.467956
1458.000000	64.488025
1459.000000	64.484110
1460.000000	64.456060
1461.000000	64.421472
1462.000000	64.413398
1463.000000	64.398026
1464.000000	64.408966
1465.000000	64.428433
1466.000000	64.405974
1467.000000	64.357777
1468.000000	64.336489
1469.000000	64.294126
1470.000000	64.295792
1471.000000	64.301605
1472.000000	64.319836
1473.000000	64.313145
1474.000000	64.298677
1475.000000	64.294372
1476.000000	64.274807
1477.000000	64.285283
1478.000000	64.290641
1479.000000	64.262945
1480.000000	64.232854
1481.000000	64.215344
1482.000000	64.225709
1483.000000	64.228610
1484.000000	64.234315
1485.000000	64.233450
1486.000000	64.234025
1487.000000	64.237038
1488.000000	64.239141
1489.000000	64.212367
1490.000000	64.174701
1491.000000	64.162267
1492.000000	64.151393
1493.000000	64.140463
1494.000000	64.134287
1495.000000	64.131535
1496.000000	64.142508
1497.000000	64.146399
1498.000000	64.146189
1499.000000	64.128125
1500.000000	64.115806
1501.000000	64.115906
1502.000000	64.122735
1503.000000	64.131182
1504.000000	64.132221
1505.000000	64.120974
1506.000000	64.124546
1507.000000	64.115932
1508.000000	64.113612
1509.000000	64.125591
1510.000000	64.132209
1511.000000	64.130942
1512.000000	64.131439
1513.000000	64.140535
1514.000000	64.164850
1515.000000	64.182335
1516.000000	64.210087
1517.000000	64.186742
1518.000000	64.189037
1519.000000	64.207610
1520.000000	64.231974
1521.000000	64.252728
1522.000000	64.259748
1523.000000	64.272504
1524.000000	64.316063
1525.000000	64.358138
1526.000000	64.389886
1527.000000	64.424838
1528.000000	64.452881
1529.000000	64.475260
1530.000000	64.487466
1531.000000	64.510879
1532.000000	64.541342
1533.000000	64.580281
1534.000000	64.608479
1535.000000	64.640540
1536.000000	64.677651
1537.000000	64.702113
1538.000000	64.729102
1539.000000	64.762040
1540.000000	64.799008
1541.000000	64.827479
1542.000000	64.850435
1543.000000	64.872402
1544.000000	64.886459
1545.000000	64.891083
1546.000000	64.905262
1547.000000	64.921106
1548.000000	64.935027
1549.000000	64.956705
1550.000000	64.983377
1551.000000	65.014674
1552.000000	65.068053
1553.000000	65.108744
1554.000000	65.128731
1555.000000	65.144371
1556.000000	65.146225
1557.000000	65.167959
1558.000000	65.198878
1559.000000	65.211063
1560.000000	65.226660
1561.000000	65.246776
1562.000000	65.260595
1563.000000	65.281504
1564.000000	65.304585
1565.000000	65.330562
1566.000000	65.352193
1567.000000	65.357284
1568.000000	65.365951
1569.000000	65.388796
1570.000000	65.394261
1571.000000	65.400042
1572.000000	65.415438
1573.000000	65.415005
1574.000000	65.417811
1575.000000	65.434141
1576.000000	65.442204
1577.000000	65.446686
1578.000000	65.461256
1579.000000	65.480957
1580.000000	65.500458
1581.000000	65.521011
1582.000000	65.547468
1583.000000	65.562583
1584.000000	65.571618
1585.000000	65.587245
1586.000000	65.593916
1587.000000	65.593734
1588.000000	65.611169
1589.000000	65.616744
1590.000000	65.625360
1591.000000	65.652505
1592.000000	65.665977
1593.000000	65.653628
1594.000000	65.661377
1595.000000	65.669336
1596.000000	65.679249
1597.000000	65.684457
1598.000000	65.678615
1599.000000	65.690744
1600.000000	65.701728
1601.000000	65.717834
1602.000000	65.741413
1603.000000	65.765406
1604.000000	65.770390
1605.000000	65.794859
1606.000000	65.814809
1607.000000	65.826287
1608.000000	65.844430
1609.000000	65.870575
1610.000000	65.898767
1611.000000	65.920858
1612.000000	65.943696
1613.000000	65.967872
1614.000000	65.978029
1615.000000	65.993824
1616.000000	66.012206
1617.000000	66.035104
1618.000000	66.049551
1619.000000	66.079822
1620.000000	66.096558
1621.000000	66.110329
1622.000000	66.130504
1623.000000	66.139074
1624.000000	66.164946
1625.000000	66.182653
1626.000000	66.195528
1627.000000	66.203716
1628.000000	66.251197
1629.000000	66.279460
1630.000000	66.293023
1631.000000	66.304588
1632.000000	66.324537
1633.000000	66.354031
1634.000000	66.368581
1635.000000	66.370398
1636.000000	66.381911
1637.000000	66.401789
1638.000000	66.408063
1639.000000	66.427099
1640.000000	66.425293
1641.000000	66.427338
1642.000000	66.455371
1643.000000	66.486944
1644.000000	66.507357
1645.000000	66.524716
1646.000000	66.538811
1647.000000	66.555750
1648.000000	66.555393
1649.000000	66.575420
1650.000000	66.587739
1651.000000	66.597880
1652.000000	66.592452
1653.000000	66.611026
1654.000000	66.596590
1655.000000	66.611561
1656.000000	66.622292
1657.000000	66.628567
1658.000000	66.626506
1659.000000	66.625439
1660.000000	66.630087
1661.000000	66.631559
1662.000000	66.643151
1663.000000	66.627415
1664.000000	66.625389
1665.000000	66.632562
1666.000000	66.629725
1667.000000	66.622163
1668.000000	66.624526
1669.000000	66.632321
1670.000000	66.643424
1671.000000	66.633969
1672.000000	66.623744
1673.000000	66.621816
1674.000000	66.611117
1675.000000	66.608896
1676.000000	66.612005
1677.000000	66.610382
1678.000000	66.596484
1679.000000	66.581573
1680.000000	66.562397
1681.000000	66.530316
1682.000000	66.503537
1683.000000	66.496357
1684.000000	66.478936
1685.000000	66.477502
1686.000000	66.458214
1687.000000	66.450729
1688.000000	66.433479
1689.000000	66.443983
1690.000000	66.423772
1691.000000	66.413865
1692.000000	66.390599
1693.000000	66.369423
1694.000000	66.359169
1695.000000	66.343254
1696.000000	66.335290
1697.000000	66.333445
1698.000000	66.332220
1699.000000	66.338013
1700.000000	66.329560
1701.000000	66.324910
1702.000000	66.341525
1703.000000	66.332500
1704.000000	66.329239
1705.000000	66.336781
1706.000000	66.347856
1707.000000	66.347128
1708.000000	66.354971
1709.000000	66.359315
1710.000000	66.369171
1711.000000	66.370891
1712.000000	66.334820
1713.000000	66.327003
1714.000000	66.313267
1715.000000	66.284378
1716.000000	66.298914
1717.000000	66.290020
1718.000000	66.281125
1719.000000	66.268778
1720.000000	66.252043
1721.000000	66.248205
1722.000000	66.240619
1723.000000	66.236625
1724.000000	66.215778
1725.000000	66.197343
1726.000000	66.183629
1727.000000	66.192909
1728.000000	66.205783
1729.000000	66.201414
1730.000000	66.204907
1731.000000	66.196881
1732.000000	66.183718
1733.000000	66.188492
1734.000000	66.171596
1735.000000	66.169761
1736.000000	66.174078
1737.000000	66.150161
1738.000000	66.151959
1739.000000	66.147343
1740.000000	66.124869
1741.000000	66.117976
1742.000000	66.112449
1743.000000	66.108501
1744.000000	66.109344
1745.000000	66.104292
1746.000000	66.110337
1747.000000	66.143838
1748.000000	66.139273
1749.000000	66.142280
1750.000000	66.160683
1751.000000	66.162159
1752.000000	66.176960
1753.000000	66.183480
1754.000000	66.201143
1755.000000	66.212570
1756.000000	66.221436
1757.000000	66.241213
1758.000000	66.263944
1759.000000	66.287281
1760.000000	66.316610
1761.000000	66.337033
1762.000000	66.351484
1763.000000	66.360085
1764.000000	66.364983
1765.000000	66.374668
1766.000000	66.406603
1767.000000	66.442634
1768.000000	66.459273
1769.000000	66.464348
1770.000000	66.454085
1771.000000	66.455676
1772.000000	66.479653
1773.000000	66.495130
1774.000000	66.501434
1775.000000	66.519932
1776.000000	66.532430
1777.000000	66.540760
1778.000000	66.533894
1779.000000	66.549123
1780.000000	66.578567
1781.000000	66.594649
1782.000000	66.602291
1783.000000	66.626649
1784.000000	66.642704
1785.000000	66.652353
1786.000000	66.669151
1787.000000	66.697236
1788.000000	66.711279
1789.000000	66.712023
1790.000000	66.722829
1791.000000	66.747278
1792.000000	66.761438
1793.000000	66.767258
1794.000000	66.772170
1795.000000	66.777140
1796.000000	66.797846
1797.000000	66.823335
1798.000000	66.846479
1799.000000	66.871406
1800.000000	66.896915
1801.000000	66.918228
1802.000000	66.924243
1803.000000	66.926796
1804.000000	66.947379
1805.000000	66.992331
1806.000000	67.020951
1807.000000	67.023302
1808.000000	67.023572
1809.000000	67.026398
1810.000000	67.045628
1811.000000	67.074276
1812.000000	67.112949
1813.000000	67.152464
1814.000000	67.161802
1815.000000	67.139312
1816.000000	67.137187
1817.000000	67.180534
1818.000000	67.213419
1819.000000	67.228568
1820.000000	67.227449
1821.000000	67.249563
1822.000000	67.259366
1823.000000	67.271951
1824.000000	67.304212
1825.000000	67.339476
1826.000000	67.334779
1827.000000	67.327059
1828.000000	67.348474
1829.000000	67.387528
1830.000000	67.449080
1831.000000	67.471607
1832.000000	67.476039
1833.000000	67.501635
1834.000000	67.545962
1835.000000	67.550889
1836.000000	67.510837
1837.000000	67.515714
1838.000000	67.528277
1839.000000	67.630448
1840.000000	67.669111
1841.000000	67.757626
1842.000000	67.790872
1843.000000	67.807226
1844.000000	67.824958
1845.000000	67.817532
1846.000000	67.839430
1847.000000	67.860865
1848.000000	67.869622
1849.000000	67.888673
1850.000000	67.910026
1851.000000	67.931643
1852.000000	67.940714
1853.000000	68.008431
1854.000000	68.045202
1855.000000	68.053741
1856.000000	67.965933
1857.000000	67.917691
1858.000000	67.899543
1859.000000	67.906044
1860.000000	67.878415
1861.000000	67.888082
1862.000000	67.920187
1863.000000	67.950389
1864.000000	67.963859
1865.000000	67.940992
1866.000000	67.923407
1867.000000	67.946323
1868.000000	67.902700
1869.000000	67.871883
1870.000000	67.993761
1871.000000	68.052983
1872.000000	68.067077
1873.000000	68.060151
1874.000000	67.943553
1875.000000	67.879002
1876.000000	67.779307
1877.000000	67.738398
1878.000000	67.716610
1879.000000	67.706066
1880.000000	67.718038
1881.000000	67.668333
1882.000000	67.605592
1883.000000	67.573413
1884.000000	67.519912
1885.000000	67.489789
1886.000000	67.468794
1887.000000	67.400737
1888.000000	67.268924
1889.000000	67.210658
1890.000000	67.166172
1891.000000	67.194970
1892.000000	67.173510
1893.000000	67.179015
1894.000000	67.099642
1895.000000	67.024065
1896.000000	66.947542
1897.000000	66.864007
1898.000000	66.741048
1899.000000	66.631822
1900.000000	66.498801
1901.000000	66.389431
1902.000000	66.323350
1903.000000	66.211187
1904.000000	66.057672
1905.000000	65.787846
1906.000000	65.655139
1907.000000	65.482459
1908.000000	65.346135
1909.000000	65.200916
1910.000000	65.058446
1911.000000	64.920149
1912.000000	64.753127
1913.000000	64.626389
1914.000000	64.451830
1915.000000	64.272665
1916.000000	64.148090
1917.000000	63.981494
1918.000000	63.814114
1919.000000	63.683540
1920.000000	63.590011
1921.000000	63.383529
1922.000000	63.208420
1923.000000	63.077620
1924.000000	62.881857
1925.000000	62.728800
1926.000000	62.590474
1927.000000	62.435265
1928.000000	62.291687
1929.000000	62.142896
1930.000000	62.030838
1931.000000	61.898502
1932.000000	61.743279
1933.000000	61.603655
1934.000000	61.457450
1935.000000	61.354921
1936.000000	61.263879
1937.000000	61.096254
1938.000000	61.007391
1939.000000	60.957625
1940.000000	60.890304
1941.000000	60.795147
1942.000000	60.746287
1943.000000	60.688508
1944.000000	60.653517
1945.000000	60.611964
1946.000000	60.567121
1947.000000	60.564133
1948.000000	60.518879
1949.000000	60.520284
1950.000000	60.495275
1951.000000	60.445466
1952.000000	60.441367
1953.000000	60.445330
1954.000000	60.425818
1955.000000	60.367406
1956.000000	60.408866
1957.000000	60.438825
1958.000000	60.441027
1959.000000	60.496105
1960.000000	60.545641
1961.000000	60.558573
1962.000000	60.618195
1963.000000	60.626535
1964.000000	60.676525
1965.000000	60.720523
1966.000000	60.792004
1967.000000	60.865522
1968.000000	60.940532
1969.000000	61.011517
1970.000000	61.075312
1971.000000	61.116390
1972.000000	61.174504
1973.000000	61.243409
1974.000000	61.304253
1975.000000	61.376814
1976.000000	61.442328
1977.000000	61.501487
1978.000000	61.553491
1979.000000	61.622564
1980.000000	61.685691
1981.000000	61.735634
1982.000000	61.809099
1983.000000	61.868345
1984.000000	61.919091
1985.000000	62.002134
1986.000000	62.073648
1987.000000	62.143398
1988.000000	62.211482
1989.000000	62.283524
1990.000000	62.366884
1991.000000	62.424736
1992.000000	62.472171
1993.000000	62.537358
1994.000000	62.604076
1995.000000	62.654585
1996.000000	62.719841
1997.000000	62.769904
1998.000000	62.814565
1999.000000	62.892521
2000.000000	62.947237
