PE UV       SUBTECH     SPECTRUM    ASCII       PEDS        4.00        
   -1
C.CUPR.MV23-TX3.ASC
23/11/29
12:57:02.00
23/11/29
12:57:02.00
Vinicio Soto Monge
C. CUPREOMARGINATA MV 23-15
250,000000
1
Lambda 1050
1050L1511233
PerkinElmer UV WinLab 6.3.2.0749 / 2.02.05 Lambda 900 UV/VIS/NIR, Aug  7 2015 09:38:08

0
0
3350/servo 860,8/2
0
0
UV/VIS
1
1
1
DoubleDePol,CommonBeamDepol,RBeamAtt,SBeamAtt,60mm sphere, WB InGaAs Detector
0
0
0
0
Program
Program
3350/servo 860,8/2
3350/0,4 860,8/0,4
3350/0,4 860,8/0,4
0
20.00
 
 
 
0
 
860,8
319,2
860,8
Front
100
on
S:100 R:100
0
0
0
0
 
0
 
 
 
0
 
 
0
0
0
0
0
 
 
 
 
0
0


0
0
#HDR
-1
-1
#GR
nm
%T
1.0
0.0
2200,000000
-1,000000
1951
8
84,599875
0,293470
#DATA
284.000000	0.337949
285.000000	0.337450
286.000000	0.336831
287.000000	0.336506
288.000000	0.336562
289.000000	0.336817
290.000000	0.336900
291.000000	0.337208
292.000000	0.337292
293.000000	0.337116
294.000000	0.337385
295.000000	0.338190
296.000000	0.338457
297.000000	0.338641
298.000000	0.338748
299.000000	0.339269
300.000000	0.340016
301.000000	0.340181
302.000000	0.340438
303.000000	0.340747
304.000000	0.340701
305.000000	0.340844
306.000000	0.341588
307.000000	0.341951
308.000000	0.342368
309.000000	0.343212
310.000000	0.343863
311.000000	0.344537
312.000000	0.345706
313.000000	0.346636
314.000000	0.347646
315.000000	0.348928
316.000000	0.349696
317.000000	0.349773
318.000000	0.351816
319.000000	0.353081
320.000000	0.355779
321.000000	0.359037
322.000000	0.360484
323.000000	0.362890
324.000000	0.363526
325.000000	0.365416
326.000000	0.367557
327.000000	0.369870
328.000000	0.372346
329.000000	0.374283
330.000000	0.377043
331.000000	0.379569
332.000000	0.381385
333.000000	0.383476
334.000000	0.385677
335.000000	0.387992
336.000000	0.390329
337.000000	0.392456
338.000000	0.394272
339.000000	0.397203
340.000000	0.400322
341.000000	0.402636
342.000000	0.405162
343.000000	0.407893
344.000000	0.410864
345.000000	0.413361
346.000000	0.416077
347.000000	0.418711
348.000000	0.421255
349.000000	0.423893
350.000000	0.426239
351.000000	0.429184
352.000000	0.433076
353.000000	0.435096
354.000000	0.438531
355.000000	0.440882
356.000000	0.442367
357.000000	0.445689
358.000000	0.448076
359.000000	0.452170
360.000000	0.454529
361.000000	0.456760
362.000000	0.459407
363.000000	0.462049
364.000000	0.465465
365.000000	0.467930
366.000000	0.470623
367.000000	0.474109
368.000000	0.477581
369.000000	0.480570
370.000000	0.483427
371.000000	0.486974
372.000000	0.490625
373.000000	0.494211
374.000000	0.496734
375.000000	0.499627
376.000000	0.502975
377.000000	0.505679
378.000000	0.508299
379.000000	0.510455
380.000000	0.513066
381.000000	0.515649
382.000000	0.518011
383.000000	0.520767
384.000000	0.523079
385.000000	0.525426
386.000000	0.527821
387.000000	0.529945
388.000000	0.532059
389.000000	0.533685
390.000000	0.534970
391.000000	0.536825
392.000000	0.538531
393.000000	0.540083
394.000000	0.541707
395.000000	0.543518
396.000000	0.545164
397.000000	0.546800
398.000000	0.548349
399.000000	0.549546
400.000000	0.550755
401.000000	0.552300
402.000000	0.553589
403.000000	0.554566
404.000000	0.555645
405.000000	0.556674
406.000000	0.557474
407.000000	0.558256
408.000000	0.559202
409.000000	0.560259
410.000000	0.560896
411.000000	0.561391
412.000000	0.562586
413.000000	0.563652
414.000000	0.564741
415.000000	0.565781
416.000000	0.566676
417.000000	0.567556
418.000000	0.568405
419.000000	0.569288
420.000000	0.570118
421.000000	0.570939
422.000000	0.571733
423.000000	0.572430
424.000000	0.573020
425.000000	0.573550
426.000000	0.574125
427.000000	0.574664
428.000000	0.575216
429.000000	0.575674
430.000000	0.576094
431.000000	0.576521
432.000000	0.576955
433.000000	0.577345
434.000000	0.577716
435.000000	0.578065
436.000000	0.578369
437.000000	0.578753
438.000000	0.579130
439.000000	0.579406
440.000000	0.579631
441.000000	0.579898
442.000000	0.580209
443.000000	0.580580
444.000000	0.580915
445.000000	0.581180
446.000000	0.581474
447.000000	0.581766
448.000000	0.582012
449.000000	0.582269
450.000000	0.582574
451.000000	0.582887
452.000000	0.583144
453.000000	0.583404
454.000000	0.583716
455.000000	0.584082
456.000000	0.584484
457.000000	0.584894
458.000000	0.585410
459.000000	0.586055
460.000000	0.586728
461.000000	0.587356
462.000000	0.587966
463.000000	0.588644
464.000000	0.589453
465.000000	0.590311
466.000000	0.591242
467.000000	0.592161
468.000000	0.593128
469.000000	0.594210
470.000000	0.595300
471.000000	0.596478
472.000000	0.597761
473.000000	0.599077
474.000000	0.600546
475.000000	0.602180
476.000000	0.603908
477.000000	0.605714
478.000000	0.607547
479.000000	0.609578
480.000000	0.611712
481.000000	0.614029
482.000000	0.616572
483.000000	0.619265
484.000000	0.622012
485.000000	0.624835
486.000000	0.627860
487.000000	0.631154
488.000000	0.634602
489.000000	0.638175
490.000000	0.641945
491.000000	0.645948
492.000000	0.650192
493.000000	0.654592
494.000000	0.659250
495.000000	0.664199
496.000000	0.669462
497.000000	0.675011
498.000000	0.680733
499.000000	0.686768
500.000000	0.693168
501.000000	0.699951
502.000000	0.707160
503.000000	0.714721
504.000000	0.722637
505.000000	0.730997
506.000000	0.739789
507.000000	0.749078
508.000000	0.758983
509.000000	0.769388
510.000000	0.780270
511.000000	0.791606
512.000000	0.803398
513.000000	0.815721
514.000000	0.828466
515.000000	0.841866
516.000000	0.855696
517.000000	0.869877
518.000000	0.884567
519.000000	0.899727
520.000000	0.915331
521.000000	0.931335
522.000000	0.947612
523.000000	0.964229
524.000000	0.981193
525.000000	0.998528
526.000000	1.016120
527.000000	1.033948
528.000000	1.052054
529.000000	1.070360
530.000000	1.088877
531.000000	1.107593
532.000000	1.126744
533.000000	1.146322
534.000000	1.166145
535.000000	1.186365
536.000000	1.206966
537.000000	1.228021
538.000000	1.249579
539.000000	1.271752
540.000000	1.294690
541.000000	1.318431
542.000000	1.343011
543.000000	1.368509
544.000000	1.395120
545.000000	1.422922
546.000000	1.452124
547.000000	1.482809
548.000000	1.515138
549.000000	1.549260
550.000000	1.585295
551.000000	1.623368
552.000000	1.663775
553.000000	1.706779
554.000000	1.752193
555.000000	1.800437
556.000000	1.851725
557.000000	1.905998
558.000000	1.963539
559.000000	2.024409
560.000000	2.088848
561.000000	2.156927
562.000000	2.228621
563.000000	2.304168
564.000000	2.383552
565.000000	2.467075
566.000000	2.554591
567.000000	2.646025
568.000000	2.741509
569.000000	2.841204
570.000000	2.945129
571.000000	3.053404
572.000000	3.166192
573.000000	3.283693
574.000000	3.406053
575.000000	3.532857
576.000000	3.664445
577.000000	3.800695
578.000000	3.941713
579.000000	4.087452
580.000000	4.237859
581.000000	4.392897
582.000000	4.552790
583.000000	4.717076
584.000000	4.885823
585.000000	5.058533
586.000000	5.235707
587.000000	5.417195
588.000000	5.602820
589.000000	5.793012
590.000000	5.987438
591.000000	6.186197
592.000000	6.389669
593.000000	6.597777
594.000000	6.811220
595.000000	7.030026
596.000000	7.254361
597.000000	7.484320
598.000000	7.720189
599.000000	7.962024
600.000000	8.209699
601.000000	8.463992
602.000000	8.725095
603.000000	8.993206
604.000000	9.268229
605.000000	9.550282
606.000000	9.838674
607.000000	10.133364
608.000000	10.433966
609.000000	10.740638
610.000000	11.053490
611.000000	11.372668
612.000000	11.697635
613.000000	12.027902
614.000000	12.363833
615.000000	12.705308
616.000000	13.052028
617.000000	13.404039
618.000000	13.761824
619.000000	14.124418
620.000000	14.492185
621.000000	14.864247
622.000000	15.239940
623.000000	15.618846
624.000000	16.000295
625.000000	16.383750
626.000000	16.768114
627.000000	17.152465
628.000000	17.536226
629.000000	17.917784
630.000000	18.295665
631.000000	18.669324
632.000000	19.037801
633.000000	19.399672
634.000000	19.754585
635.000000	20.102429
636.000000	20.441584
637.000000	20.771537
638.000000	21.091913
639.000000	21.402160
640.000000	21.702488
641.000000	21.992858
642.000000	22.272639
643.000000	22.542012
644.000000	22.799951
645.000000	23.046332
646.000000	23.280269
647.000000	23.502193
648.000000	23.712009
649.000000	23.909934
650.000000	24.095916
651.000000	24.270279
652.000000	24.432700
653.000000	24.582731
654.000000	24.721633
655.000000	24.849572
656.000000	24.966832
657.000000	25.074379
658.000000	25.172923
659.000000	25.262647
660.000000	25.344272
661.000000	25.419139
662.000000	25.488744
663.000000	25.553925
664.000000	25.615573
665.000000	25.675163
666.000000	25.733450
667.000000	25.792338
668.000000	25.853500
669.000000	25.916744
670.000000	25.982473
671.000000	26.051594
672.000000	26.124206
673.000000	26.200341
674.000000	26.280479
675.000000	26.364357
676.000000	26.452994
677.000000	26.546186
678.000000	26.643712
679.000000	26.746251
680.000000	26.853921
681.000000	26.967048
682.000000	27.085368
683.000000	27.208889
684.000000	27.337027
685.000000	27.469013
686.000000	27.604606
687.000000	27.743082
688.000000	27.884493
689.000000	28.028344
690.000000	28.173895
691.000000	28.320450
692.000000	28.467718
693.000000	28.615598
694.000000	28.764013
695.000000	28.912523
696.000000	29.060229
697.000000	29.206398
698.000000	29.350332
699.000000	29.492213
700.000000	29.631396
701.000000	29.767076
702.000000	29.898208
703.000000	30.024216
704.000000	30.145314
705.000000	30.261080
706.000000	30.371700
707.000000	30.477276
708.000000	30.578042
709.000000	30.673726
710.000000	30.764742
711.000000	30.850886
712.000000	30.933078
713.000000	31.012020
714.000000	31.087913
715.000000	31.160351
716.000000	31.229149
717.000000	31.295671
718.000000	31.361017
719.000000	31.423940
720.000000	31.485235
721.000000	31.545930
722.000000	31.606034
723.000000	31.665569
724.000000	31.725002
725.000000	31.784805
726.000000	31.846174
727.000000	31.908895
728.000000	31.972009
729.000000	32.036653
730.000000	32.104039
731.000000	32.174365
732.000000	32.246755
733.000000	32.321879
734.000000	32.398810
735.000000	32.478168
736.000000	32.560716
737.000000	32.645956
738.000000	32.733241
739.000000	32.822081
740.000000	32.912764
741.000000	33.005131
742.000000	33.099568
743.000000	33.195518
744.000000	33.292638
745.000000	33.390848
746.000000	33.490221
747.000000	33.590043
748.000000	33.690330
749.000000	33.790901
750.000000	33.891666
751.000000	33.992758
752.000000	34.092476
753.000000	34.190390
754.000000	34.287352
755.000000	34.383225
756.000000	34.476951
757.000000	34.569245
758.000000	34.660841
759.000000	34.750293
760.000000	34.837257
761.000000	34.922576
762.000000	35.006639
763.000000	35.089150
764.000000	35.169073
765.000000	35.247120
766.000000	35.323144
767.000000	35.397019
768.000000	35.468776
769.000000	35.539862
770.000000	35.609743
771.000000	35.678570
772.000000	35.745753
773.000000	35.810745
774.000000	35.876771
775.000000	35.943350
776.000000	36.010404
777.000000	36.076519
778.000000	36.142104
779.000000	36.208463
780.000000	36.276012
781.000000	36.343721
782.000000	36.413408
783.000000	36.483521
784.000000	36.555589
785.000000	36.629712
786.000000	36.707071
787.000000	36.786511
788.000000	36.868996
789.000000	36.955781
790.000000	37.046160
791.000000	37.140228
792.000000	37.236428
793.000000	37.334682
794.000000	37.435068
795.000000	37.538203
796.000000	37.643966
797.000000	37.753699
798.000000	37.864693
799.000000	37.979099
800.000000	38.093927
801.000000	38.211677
802.000000	38.332959
803.000000	38.456035
804.000000	38.581719
805.000000	38.709282
806.000000	38.838568
807.000000	38.970649
808.000000	39.106345
809.000000	39.241676
810.000000	39.379685
811.000000	39.517961
812.000000	39.659284
813.000000	39.801204
814.000000	39.945596
815.000000	40.091992
816.000000	40.241140
817.000000	40.389101
818.000000	40.539899
819.000000	40.689789
820.000000	40.838507
821.000000	40.989651
822.000000	41.143178
823.000000	41.297298
824.000000	41.450842
825.000000	41.608381
826.000000	41.768575
827.000000	41.931663
828.000000	42.095522
829.000000	42.268204
830.000000	42.443465
831.000000	42.625731
832.000000	42.808579
833.000000	42.998360
834.000000	43.190642
835.000000	43.389313
836.000000	43.591180
837.000000	43.798671
838.000000	44.010374
839.000000	44.224481
840.000000	44.442918
841.000000	44.666673
842.000000	44.895588
843.000000	45.130016
844.000000	45.374966
845.000000	45.626474
846.000000	45.879272
847.000000	46.133754
848.000000	46.391902
849.000000	46.658892
850.000000	46.925041
851.000000	47.194352
852.000000	47.474548
853.000000	47.753097
854.000000	48.041657
855.000000	48.322863
856.000000	48.611791
857.000000	48.907839
858.000000	49.246715
859.000000	49.552797
860.000000	49.865668
861.000000	50.184713
862.000000	50.510068
863.000000	50.825138
864.000000	51.150293
865.000000	51.467985
866.000000	51.772404
867.000000	52.086404
868.000000	52.401513
869.000000	52.705520
870.000000	53.014363
871.000000	53.311719
872.000000	53.612986
873.000000	53.918609
874.000000	54.207898
875.000000	54.509254
876.000000	54.795931
877.000000	55.106286
878.000000	55.385196
879.000000	55.663156
880.000000	55.949265
881.000000	56.233628
882.000000	56.500334
883.000000	56.773336
884.000000	57.035078
885.000000	57.312286
886.000000	57.579363
887.000000	57.848367
888.000000	58.118926
889.000000	58.391362
890.000000	58.669729
891.000000	58.944432
892.000000	59.211607
893.000000	59.449281
894.000000	59.718729
895.000000	59.984378
896.000000	60.240436
897.000000	60.499368
898.000000	60.753940
899.000000	61.001610
900.000000	61.265512
901.000000	61.540459
902.000000	61.783612
903.000000	62.035341
904.000000	62.301438
905.000000	62.548004
906.000000	62.810267
907.000000	63.075719
908.000000	63.324962
909.000000	63.588760
910.000000	63.845655
911.000000	64.110444
912.000000	64.355314
913.000000	64.618415
914.000000	64.850911
915.000000	65.083266
916.000000	65.312807
917.000000	65.545138
918.000000	65.766785
919.000000	66.008602
920.000000	66.226086
921.000000	66.444102
922.000000	66.657772
923.000000	66.881346
924.000000	67.084376
925.000000	67.278488
926.000000	67.469423
927.000000	67.653989
928.000000	67.829271
929.000000	68.010906
930.000000	68.178365
931.000000	68.347701
932.000000	68.506238
933.000000	68.694180
934.000000	68.863780
935.000000	69.040183
936.000000	69.198056
937.000000	69.373162
938.000000	69.521211
939.000000	69.666750
940.000000	69.833757
941.000000	69.988513
942.000000	70.124730
943.000000	70.278936
944.000000	70.422308
945.000000	70.558717
946.000000	70.699549
947.000000	70.815709
948.000000	70.942118
949.000000	71.094838
950.000000	71.219570
951.000000	71.354835
952.000000	71.503759
953.000000	71.651409
954.000000	71.784688
955.000000	71.924284
956.000000	72.067172
957.000000	72.204871
958.000000	72.328217
959.000000	72.457018
960.000000	72.586560
961.000000	72.727976
962.000000	72.862374
963.000000	72.988610
964.000000	73.095751
965.000000	73.212216
966.000000	73.334466
967.000000	73.451822
968.000000	73.551254
969.000000	73.652221
970.000000	73.724647
971.000000	73.801434
972.000000	73.878092
973.000000	73.975626
974.000000	74.063696
975.000000	74.143039
976.000000	74.217963
977.000000	74.279836
978.000000	74.346154
979.000000	74.416482
980.000000	74.467140
981.000000	74.510895
982.000000	74.567822
983.000000	74.616107
984.000000	74.672712
985.000000	74.727684
986.000000	74.752321
987.000000	74.777160
988.000000	74.811638
989.000000	74.834554
990.000000	74.850901
991.000000	74.868076
992.000000	74.879862
993.000000	74.894582
994.000000	74.911054
995.000000	74.932110
996.000000	74.936009
997.000000	74.944719
998.000000	74.954615
999.000000	74.989432
1000.000000	75.004515
1001.000000	74.999784
1002.000000	74.992890
1003.000000	74.994146
1004.000000	74.997354
1005.000000	74.999217
1006.000000	75.010202
1007.000000	75.025201
1008.000000	75.024137
1009.000000	75.030439
1010.000000	75.038786
1011.000000	75.048838
1012.000000	75.078805
1013.000000	75.088383
1014.000000	75.095068
1015.000000	75.120966
1016.000000	75.146029
1017.000000	75.178405
1018.000000	75.213986
1019.000000	75.233308
1020.000000	75.264998
1021.000000	75.309854
1022.000000	75.345681
1023.000000	75.370290
1024.000000	75.409810
1025.000000	75.457778
1026.000000	75.489421
1027.000000	75.524751
1028.000000	75.563795
1029.000000	75.604294
1030.000000	75.634156
1031.000000	75.670763
1032.000000	75.717314
1033.000000	75.750490
1034.000000	75.776353
1035.000000	75.820439
1036.000000	75.874156
1037.000000	75.922192
1038.000000	75.959313
1039.000000	75.986572
1040.000000	76.021983
1041.000000	76.069873
1042.000000	76.119448
1043.000000	76.174738
1044.000000	76.210798
1045.000000	76.230347
1046.000000	76.262675
1047.000000	76.285350
1048.000000	76.304893
1049.000000	76.329711
1050.000000	76.349215
1051.000000	76.380245
1052.000000	76.396939
1053.000000	76.422275
1054.000000	76.447250
1055.000000	76.473532
1056.000000	76.487101
1057.000000	76.501525
1058.000000	76.516733
1059.000000	76.527010
1060.000000	76.532577
1061.000000	76.556882
1062.000000	76.572059
1063.000000	76.559891
1064.000000	76.534055
1065.000000	76.553619
1066.000000	76.561523
1067.000000	76.546828
1068.000000	76.553782
1069.000000	76.547911
1070.000000	76.536294
1071.000000	76.507344
1072.000000	76.494894
1073.000000	76.489528
1074.000000	76.491544
1075.000000	76.488707
1076.000000	76.482432
1077.000000	76.467776
1078.000000	76.447143
1079.000000	76.454211
1080.000000	76.446444
1081.000000	76.431674
1082.000000	76.424172
1083.000000	76.426469
1084.000000	76.421815
1085.000000	76.421067
1086.000000	76.404832
1087.000000	76.386056
1088.000000	76.364589
1089.000000	76.344379
1090.000000	76.319676
1091.000000	76.313067
1092.000000	76.305674
1093.000000	76.308246
1094.000000	76.307928
1095.000000	76.298590
1096.000000	76.269892
1097.000000	76.262438
1098.000000	76.264544
1099.000000	76.275041
1100.000000	76.250324
1101.000000	76.237585
1102.000000	76.241429
1103.000000	76.249153
1104.000000	76.226627
1105.000000	76.216540
1106.000000	76.215351
1107.000000	76.212108
1108.000000	76.216519
1109.000000	76.214110
1110.000000	76.233101
1111.000000	76.243971
1112.000000	76.249404
1113.000000	76.263683
1114.000000	76.261971
1115.000000	76.277943
1116.000000	76.280699
1117.000000	76.289609
1118.000000	76.292100
1119.000000	76.301771
1120.000000	76.295713
1121.000000	76.332597
1122.000000	76.362653
1123.000000	76.407471
1124.000000	76.403845
1125.000000	76.447249
1126.000000	76.482757
1127.000000	76.512217
1128.000000	76.524764
1129.000000	76.541685
1130.000000	76.548083
1131.000000	76.594597
1132.000000	76.610977
1133.000000	76.627237
1134.000000	76.714275
1135.000000	76.734577
1136.000000	76.752774
1137.000000	76.775984
1138.000000	76.806283
1139.000000	76.870477
1140.000000	76.911364
1141.000000	76.949708
1142.000000	76.984046
1143.000000	77.002388
1144.000000	77.029330
1145.000000	77.046081
1146.000000	77.081054
1147.000000	77.106317
1148.000000	77.128618
1149.000000	77.162535
1150.000000	77.172742
1151.000000	77.200390
1152.000000	77.242219
1153.000000	77.275982
1154.000000	77.298129
1155.000000	77.342963
1156.000000	77.323541
1157.000000	77.340758
1158.000000	77.321328
1159.000000	77.349650
1160.000000	77.338330
1161.000000	77.332764
1162.000000	77.330851
1163.000000	77.335698
1164.000000	77.345294
1165.000000	77.346256
1166.000000	77.344284
1167.000000	77.335020
1168.000000	77.320613
1169.000000	77.258026
1170.000000	77.280953
1171.000000	77.281613
1172.000000	77.270572
1173.000000	77.234545
1174.000000	77.197277
1175.000000	77.173925
1176.000000	77.150771
1177.000000	77.132489
1178.000000	77.118035
1179.000000	77.111119
1180.000000	77.088551
1181.000000	77.040257
1182.000000	77.004297
1183.000000	76.982653
1184.000000	76.943404
1185.000000	76.936772
1186.000000	76.920177
1187.000000	76.874893
1188.000000	76.839451
1189.000000	76.818058
1190.000000	76.776475
1191.000000	76.767092
1192.000000	76.734134
1193.000000	76.711553
1194.000000	76.698106
1195.000000	76.663714
1196.000000	76.638123
1197.000000	76.609925
1198.000000	76.605980
1199.000000	76.574620
1200.000000	76.569056
1201.000000	76.556476
1202.000000	76.560203
1203.000000	76.577882
1204.000000	76.581394
1205.000000	76.559186
1206.000000	76.546283
1207.000000	76.533503
1208.000000	76.524871
1209.000000	76.539572
1210.000000	76.547950
1211.000000	76.560081
1212.000000	76.567210
1213.000000	76.576690
1214.000000	76.568452
1215.000000	76.574223
1216.000000	76.591512
1217.000000	76.607445
1218.000000	76.606613
1219.000000	76.615010
1220.000000	76.607238
1221.000000	76.615457
1222.000000	76.635223
1223.000000	76.651737
1224.000000	76.659575
1225.000000	76.675969
1226.000000	76.694897
1227.000000	76.713433
1228.000000	76.727161
1229.000000	76.744725
1230.000000	76.778356
1231.000000	76.794382
1232.000000	76.829733
1233.000000	76.845085
1234.000000	76.876694
1235.000000	76.904089
1236.000000	76.913289
1237.000000	76.932506
1238.000000	76.949204
1239.000000	76.962051
1240.000000	76.981268
1241.000000	77.008910
1242.000000	77.056136
1243.000000	77.108085
1244.000000	77.132602
1245.000000	77.160751
1246.000000	77.193645
1247.000000	77.212505
1248.000000	77.228812
1249.000000	77.263422
1250.000000	77.288823
1251.000000	77.309864
1252.000000	77.342217
1253.000000	77.374846
1254.000000	77.410274
1255.000000	77.467147
1256.000000	77.510905
1257.000000	77.535348
1258.000000	77.566211
1259.000000	77.604528
1260.000000	77.631380
1261.000000	77.649865
1262.000000	77.663396
1263.000000	77.689524
1264.000000	77.718630
1265.000000	77.743318
1266.000000	77.773512
1267.000000	77.787965
1268.000000	77.800410
1269.000000	77.815770
1270.000000	77.839968
1271.000000	77.856281
1272.000000	77.869166
1273.000000	77.895447
1274.000000	77.914741
1275.000000	77.930457
1276.000000	77.944895
1277.000000	77.936954
1278.000000	77.923167
1279.000000	77.926813
1280.000000	77.928931
1281.000000	77.928505
1282.000000	77.945193
1283.000000	77.961494
1284.000000	77.960784
1285.000000	77.968864
1286.000000	77.970568
1287.000000	77.953245
1288.000000	77.944100
1289.000000	77.942293
1290.000000	77.935597
1291.000000	77.924500
1292.000000	77.927249
1293.000000	77.929126
1294.000000	77.923001
1295.000000	77.927746
1296.000000	77.922980
1297.000000	77.914568
1298.000000	77.910362
1299.000000	77.897585
1300.000000	77.881246
1301.000000	77.870291
1302.000000	77.865663
1303.000000	77.869469
1304.000000	77.861546
1305.000000	77.847814
1306.000000	77.845336
1307.000000	77.851297
1308.000000	77.850800
1309.000000	77.842189
1310.000000	77.843271
1311.000000	77.835439
1312.000000	77.834060
1313.000000	77.834778
1314.000000	77.828999
1315.000000	77.826652
1316.000000	77.829937
1317.000000	77.818779
1318.000000	77.810303
1319.000000	77.808090
1320.000000	77.786188
1321.000000	77.771594
1322.000000	77.783855
1323.000000	77.786506
1324.000000	77.770372
1325.000000	77.755091
1326.000000	77.744548
1327.000000	77.717810
1328.000000	77.704460
1329.000000	77.696884
1330.000000	77.699326
1331.000000	77.700998
1332.000000	77.705688
1333.000000	77.704698
1334.000000	77.709386
1335.000000	77.730953
1336.000000	77.737589
1337.000000	77.739889
1338.000000	77.728664
1339.000000	77.737923
1340.000000	77.737340
1341.000000	77.731834
1342.000000	77.722103
1343.000000	77.704407
1344.000000	77.686741
1345.000000	77.671413
1346.000000	77.646669
1347.000000	77.654014
1348.000000	77.656966
1349.000000	77.646581
1350.000000	77.600869
1351.000000	77.543411
1352.000000	77.507824
1353.000000	77.478085
1354.000000	77.575969
1355.000000	77.713766
1356.000000	77.811355
1357.000000	77.820976
1358.000000	77.767205
1359.000000	77.763279
1360.000000	77.868686
1361.000000	77.908147
1362.000000	77.718712
1363.000000	77.650486
1364.000000	77.696938
1365.000000	77.578762
1366.000000	77.639392
1367.000000	77.794387
1368.000000	77.858566
1369.000000	77.914436
1370.000000	78.020074
1371.000000	78.032859
1372.000000	77.992099
1373.000000	77.960326
1374.000000	78.006572
1375.000000	78.032641
1376.000000	78.059230
1377.000000	77.994226
1378.000000	78.108284
1379.000000	78.085679
1380.000000	78.180029
1381.000000	78.150141
1382.000000	78.356714
1383.000000	78.443162
1384.000000	78.578606
1385.000000	78.650699
1386.000000	78.686095
1387.000000	78.884032
1388.000000	78.848584
1389.000000	78.794699
1390.000000	78.691305
1391.000000	78.571256
1392.000000	78.397327
1393.000000	78.420831
1394.000000	78.518618
1395.000000	78.422041
1396.000000	78.311209
1397.000000	78.446673
1398.000000	78.478024
1399.000000	78.484132
1400.000000	78.740291
1401.000000	78.695134
1402.000000	78.537586
1403.000000	78.441569
1404.000000	78.396904
1405.000000	78.205999
1406.000000	78.197594
1407.000000	78.180305
1408.000000	78.197233
1409.000000	78.147654
1410.000000	78.102980
1411.000000	78.045562
1412.000000	78.056464
1413.000000	77.915527
1414.000000	77.946130
1415.000000	77.816517
1416.000000	77.844008
1417.000000	77.619765
1418.000000	77.549161
1419.000000	77.375745
1420.000000	77.313838
1421.000000	77.289109
1422.000000	77.109848
1423.000000	77.178298
1424.000000	77.078482
1425.000000	77.034619
1426.000000	77.007325
1427.000000	77.095674
1428.000000	77.066646
1429.000000	76.930134
1430.000000	76.862539
1431.000000	76.911064
1432.000000	76.943959
1433.000000	76.917402
1434.000000	76.780838
1435.000000	76.563276
1436.000000	76.481540
1437.000000	76.482827
1438.000000	76.451487
1439.000000	76.399970
1440.000000	76.405248
1441.000000	76.349004
1442.000000	76.341237
1443.000000	76.279257
1444.000000	76.203277
1445.000000	76.218911
1446.000000	76.185474
1447.000000	76.161197
1448.000000	76.111534
1449.000000	76.055844
1450.000000	76.066370
1451.000000	76.008419
1452.000000	75.939968
1453.000000	75.837385
1454.000000	75.812677
1455.000000	75.778483
1456.000000	75.732298
1457.000000	75.678004
1458.000000	75.608065
1459.000000	75.595489
1460.000000	75.527889
1461.000000	75.492538
1462.000000	75.489031
1463.000000	75.462334
1464.000000	75.420299
1465.000000	75.379090
1466.000000	75.310258
1467.000000	75.256347
1468.000000	75.236509
1469.000000	75.262806
1470.000000	75.264537
1471.000000	75.232596
1472.000000	75.172486
1473.000000	75.152598
1474.000000	75.097475
1475.000000	75.063177
1476.000000	75.005933
1477.000000	74.967407
1478.000000	74.947209
1479.000000	74.927632
1480.000000	74.862403
1481.000000	74.848039
1482.000000	74.833823
1483.000000	74.841622
1484.000000	74.835957
1485.000000	74.782429
1486.000000	74.776387
1487.000000	74.762981
1488.000000	74.767704
1489.000000	74.760780
1490.000000	74.757480
1491.000000	74.772561
1492.000000	74.759941
1493.000000	74.737556
1494.000000	74.724770
1495.000000	74.744114
1496.000000	74.764082
1497.000000	74.770028
1498.000000	74.769089
1499.000000	74.775232
1500.000000	74.807990
1501.000000	74.834193
1502.000000	74.853468
1503.000000	74.850573
1504.000000	74.826115
1505.000000	74.815262
1506.000000	74.840905
1507.000000	74.838380
1508.000000	74.848394
1509.000000	74.865128
1510.000000	74.891887
1511.000000	74.939744
1512.000000	74.976807
1513.000000	75.004638
1514.000000	75.018134
1515.000000	75.028074
1516.000000	75.054929
1517.000000	75.088549
1518.000000	75.105063
1519.000000	75.117454
1520.000000	75.143878
1521.000000	75.181862
1522.000000	75.215668
1523.000000	75.236475
1524.000000	75.256758
1525.000000	75.270407
1526.000000	75.287939
1527.000000	75.319441
1528.000000	75.351907
1529.000000	75.378452
1530.000000	75.404788
1531.000000	75.439275
1532.000000	75.466322
1533.000000	75.510331
1534.000000	75.545746
1535.000000	75.563736
1536.000000	75.581423
1537.000000	75.603609
1538.000000	75.646015
1539.000000	75.692259
1540.000000	75.728882
1541.000000	75.756766
1542.000000	75.785866
1543.000000	75.822881
1544.000000	75.853077
1545.000000	75.881098
1546.000000	75.906598
1547.000000	75.929392
1548.000000	75.961712
1549.000000	76.005402
1550.000000	76.030902
1551.000000	76.057586
1552.000000	76.083545
1553.000000	76.102984
1554.000000	76.130364
1555.000000	76.169713
1556.000000	76.183293
1557.000000	76.207254
1558.000000	76.242627
1559.000000	76.269147
1560.000000	76.286547
1561.000000	76.313577
1562.000000	76.333681
1563.000000	76.355494
1564.000000	76.380213
1565.000000	76.393678
1566.000000	76.403845
1567.000000	76.416462
1568.000000	76.429369
1569.000000	76.458345
1570.000000	76.481362
1571.000000	76.489302
1572.000000	76.504473
1573.000000	76.521465
1574.000000	76.541546
1575.000000	76.560654
1576.000000	76.583298
1577.000000	76.600320
1578.000000	76.605338
1579.000000	76.611122
1580.000000	76.619766
1581.000000	76.617394
1582.000000	76.635361
1583.000000	76.645881
1584.000000	76.643403
1585.000000	76.657986
1586.000000	76.660455
1587.000000	76.662604
1588.000000	76.669972
1589.000000	76.666859
1590.000000	76.667886
1591.000000	76.690787
1592.000000	76.714789
1593.000000	76.720801
1594.000000	76.727337
1595.000000	76.736258
1596.000000	76.748945
1597.000000	76.749516
1598.000000	76.745203
1599.000000	76.744250
1600.000000	76.743517
1601.000000	76.744551
1602.000000	76.743240
1603.000000	76.732398
1604.000000	76.718732
1605.000000	76.727210
1606.000000	76.738945
1607.000000	76.738625
1608.000000	76.739612
1609.000000	76.725861
1610.000000	76.714722
1611.000000	76.710506
1612.000000	76.704677
1613.000000	76.710831
1614.000000	76.720928
1615.000000	76.713102
1616.000000	76.713567
1617.000000	76.709154
1618.000000	76.699892
1619.000000	76.720307
1620.000000	76.721626
1621.000000	76.717175
1622.000000	76.715212
1623.000000	76.710611
1624.000000	76.712739
1625.000000	76.702382
1626.000000	76.687809
1627.000000	76.661851
1628.000000	76.655634
1629.000000	76.638632
1630.000000	76.635252
1631.000000	76.619811
1632.000000	76.626244
1633.000000	76.649767
1634.000000	76.629477
1635.000000	76.623614
1636.000000	76.605210
1637.000000	76.607203
1638.000000	76.622788
1639.000000	76.624773
1640.000000	76.607374
1641.000000	76.604949
1642.000000	76.610593
1643.000000	76.601543
1644.000000	76.604582
1645.000000	76.595063
1646.000000	76.584581
1647.000000	76.588422
1648.000000	76.584513
1649.000000	76.562532
1650.000000	76.569938
1651.000000	76.559299
1652.000000	76.550801
1653.000000	76.542942
1654.000000	76.512450
1655.000000	76.508444
1656.000000	76.493319
1657.000000	76.490087
1658.000000	76.476486
1659.000000	76.457478
1660.000000	76.440828
1661.000000	76.438449
1662.000000	76.421388
1663.000000	76.415608
1664.000000	76.418729
1665.000000	76.408694
1666.000000	76.384713
1667.000000	76.352539
1668.000000	76.288554
1669.000000	76.302777
1670.000000	76.289891
1671.000000	76.295325
1672.000000	76.281531
1673.000000	76.243580
1674.000000	76.204074
1675.000000	76.199552
1676.000000	76.187840
1677.000000	76.167168
1678.000000	76.143656
1679.000000	76.117748
1680.000000	76.099091
1681.000000	76.070903
1682.000000	76.033913
1683.000000	75.998225
1684.000000	75.991774
1685.000000	75.957764
1686.000000	75.938673
1687.000000	75.918171
1688.000000	75.903761
1689.000000	75.879510
1690.000000	75.841455
1691.000000	75.822574
1692.000000	75.799241
1693.000000	75.795915
1694.000000	75.774158
1695.000000	75.762083
1696.000000	75.750101
1697.000000	75.740723
1698.000000	75.706873
1699.000000	75.693291
1700.000000	75.672700
1701.000000	75.674151
1702.000000	75.691148
1703.000000	75.697817
1704.000000	75.686340
1705.000000	75.677924
1706.000000	75.667525
1707.000000	75.650880
1708.000000	75.665745
1709.000000	75.685407
1710.000000	75.672228
1711.000000	75.655920
1712.000000	75.637720
1713.000000	75.632907
1714.000000	75.615892
1715.000000	75.605581
1716.000000	75.619025
1717.000000	75.621128
1718.000000	75.613041
1719.000000	75.592690
1720.000000	75.579235
1721.000000	75.576339
1722.000000	75.564867
1723.000000	75.565601
1724.000000	75.561177
1725.000000	75.555564
1726.000000	75.565548
1727.000000	75.566689
1728.000000	75.555786
1729.000000	75.549681
1730.000000	75.545595
1731.000000	75.521491
1732.000000	75.521420
1733.000000	75.523198
1734.000000	75.508528
1735.000000	75.504043
1736.000000	75.493217
1737.000000	75.474956
1738.000000	75.477556
1739.000000	75.467357
1740.000000	75.462641
1741.000000	75.464840
1742.000000	75.466277
1743.000000	75.464084
1744.000000	75.479807
1745.000000	75.481793
1746.000000	75.483999
1747.000000	75.495089
1748.000000	75.508786
1749.000000	75.529699
1750.000000	75.559390
1751.000000	75.564242
1752.000000	75.574996
1753.000000	75.605356
1754.000000	75.624610
1755.000000	75.649039
1756.000000	75.663047
1757.000000	75.675314
1758.000000	75.687514
1759.000000	75.709864
1760.000000	75.718434
1761.000000	75.726983
1762.000000	75.744416
1763.000000	75.755370
1764.000000	75.786434
1765.000000	75.795061
1766.000000	75.805161
1767.000000	75.835580
1768.000000	75.852849
1769.000000	75.857201
1770.000000	75.876166
1771.000000	75.905022
1772.000000	75.937319
1773.000000	75.972047
1774.000000	75.989575
1775.000000	76.016172
1776.000000	76.036723
1777.000000	76.069307
1778.000000	76.094977
1779.000000	76.101246
1780.000000	76.118028
1781.000000	76.134869
1782.000000	76.151325
1783.000000	76.166731
1784.000000	76.181696
1785.000000	76.177577
1786.000000	76.172700
1787.000000	76.187875
1788.000000	76.211051
1789.000000	76.244486
1790.000000	76.269451
1791.000000	76.291062
1792.000000	76.311478
1793.000000	76.317508
1794.000000	76.334645
1795.000000	76.362702
1796.000000	76.372899
1797.000000	76.389290
1798.000000	76.415115
1799.000000	76.433613
1800.000000	76.475592
1801.000000	76.519733
1802.000000	76.523021
1803.000000	76.530871
1804.000000	76.555625
1805.000000	76.599499
1806.000000	76.639504
1807.000000	76.637009
1808.000000	76.628012
1809.000000	76.632517
1810.000000	76.657867
1811.000000	76.664268
1812.000000	76.651320
1813.000000	76.647391
1814.000000	76.649560
1815.000000	76.625906
1816.000000	76.633510
1817.000000	76.729300
1818.000000	76.779333
1819.000000	76.867350
1820.000000	76.913450
1821.000000	76.925117
1822.000000	76.925907
1823.000000	76.910853
1824.000000	76.904076
1825.000000	77.072233
1826.000000	77.157141
1827.000000	77.177158
1828.000000	77.194180
1829.000000	77.207864
1830.000000	77.314052
1831.000000	77.373631
1832.000000	77.360067
1833.000000	77.346178
1834.000000	77.372272
1835.000000	77.488578
1836.000000	77.490052
1837.000000	77.435919
1838.000000	77.372096
1839.000000	77.334022
1840.000000	77.237511
1841.000000	77.229102
1842.000000	77.208026
1843.000000	77.208534
1844.000000	77.198075
1845.000000	77.159684
1846.000000	77.229610
1847.000000	77.388856
1848.000000	77.408175
1849.000000	77.414304
1850.000000	77.398114
1851.000000	77.354897
1852.000000	77.285154
1853.000000	77.316503
1854.000000	77.247077
1855.000000	77.198498
1856.000000	77.059244
1857.000000	76.954549
1858.000000	76.903723
1859.000000	76.864311
1860.000000	76.650087
1861.000000	76.543481
1862.000000	76.538368
1863.000000	76.664173
1864.000000	76.753937
1865.000000	76.687288
1866.000000	76.616991
1867.000000	76.585922
1868.000000	76.555311
1869.000000	76.493690
1870.000000	76.568195
1871.000000	76.555435
1872.000000	76.723463
1873.000000	76.780870
1874.000000	76.819727
1875.000000	76.837374
1876.000000	76.909731
1877.000000	76.916574
1878.000000	76.901258
1879.000000	76.889786
1880.000000	76.916911
1881.000000	76.814577
1882.000000	76.643770
1883.000000	76.695350
1884.000000	76.641181
1885.000000	76.636048
1886.000000	76.676510
1887.000000	76.619199
1888.000000	76.477694
1889.000000	76.480091
1890.000000	76.400470
1891.000000	76.528161
1892.000000	76.550413
1893.000000	76.536679
1894.000000	76.499517
1895.000000	76.441051
1896.000000	76.352582
1897.000000	76.270837
1898.000000	76.037250
1899.000000	75.842056
1900.000000	75.657116
1901.000000	75.530795
1902.000000	75.700924
1903.000000	75.595576
1904.000000	75.472813
1905.000000	75.050183
1906.000000	74.947445
1907.000000	74.643056
1908.000000	74.493653
1909.000000	74.297553
1910.000000	74.118752
1911.000000	73.774984
1912.000000	73.527351
1913.000000	73.361134
1914.000000	73.148293
1915.000000	72.948099
1916.000000	72.708549
1917.000000	72.442569
1918.000000	72.104634
1919.000000	71.955806
1920.000000	71.834028
1921.000000	71.561594
1922.000000	71.335788
1923.000000	71.217849
1924.000000	70.889709
1925.000000	70.712282
1926.000000	70.501087
1927.000000	70.283673
1928.000000	70.114972
1929.000000	69.911495
1930.000000	69.732344
1931.000000	69.558509
1932.000000	69.354780
1933.000000	69.197090
1934.000000	68.987779
1935.000000	68.833272
1936.000000	68.699482
1937.000000	68.299362
1938.000000	68.162004
1939.000000	68.037447
1940.000000	67.969320
1941.000000	67.781344
1942.000000	67.708375
1943.000000	67.581561
1944.000000	67.524924
1945.000000	67.483942
1946.000000	67.474133
1947.000000	67.463824
1948.000000	67.386064
1949.000000	67.361307
1950.000000	67.287996
1951.000000	67.311694
1952.000000	67.345222
1953.000000	67.327929
1954.000000	67.256057
1955.000000	67.164410
1956.000000	67.209629
1957.000000	67.235948
1958.000000	67.166023
1959.000000	67.228191
1960.000000	67.265973
1961.000000	67.253114
1962.000000	67.309510
1963.000000	67.311281
1964.000000	67.365936
1965.000000	67.411628
1966.000000	67.477384
1967.000000	67.536582
1968.000000	67.575521
1969.000000	67.649482
1970.000000	67.722933
1971.000000	67.778115
1972.000000	67.823975
1973.000000	67.895103
1974.000000	67.944186
1975.000000	68.025835
1976.000000	68.108268
1977.000000	68.163093
1978.000000	68.225010
1979.000000	68.292025
1980.000000	68.361520
1981.000000	68.415288
1982.000000	68.485639
1983.000000	68.559300
1984.000000	68.637453
1985.000000	68.708254
1986.000000	68.762450
1987.000000	68.831697
1988.000000	68.927240
1989.000000	69.018316
1990.000000	69.095263
1991.000000	69.145780
1992.000000	69.194248
1993.000000	69.266517
1994.000000	69.332139
1995.000000	69.387143
1996.000000	69.459402
1997.000000	69.536596
1998.000000	69.612100
1999.000000	69.648366
2000.000000	69.704068
