PE UV       SUBTECH     SPECTRUM    ASCII       PEDS        4.00        
   -1
NI#0002-TX3.ASC
23/11/30
13:13:48.00
23/11/30
13:13:48.00
Vinicio Soto Monge
NI #2
250,000000
1
Lambda 1050
1050L1511233
PerkinElmer UV WinLab 6.3.2.0749 / 2.02.05 Lambda 900 UV/VIS/NIR, Aug  7 2015 09:38:08

0
0
3350/servo 860,8/2
0
0
UV/VIS
1
1
1
DoubleDePol,CommonBeamDepol,RBeamAtt,SBeamAtt,60mm sphere, WB InGaAs Detector
0
0
0
0
Program
Program
3350/servo 860,8/2
3350/0,4 860,8/0,4
3350/0,4 860,8/0,4
0
20.00
 
 
 
0
 
860,8
319,2
860,8
Front
100
on
S:100 R:100
0
0
0
0
 
0
 
 
 
0
 
 
0
0
0
0
0
 
 
 
 
0
0


0
0
#HDR
-1
-1
#GR
nm
%T
1.0
0.0
2200,000000
-1,000000
1951
8
60,368636
0,383152
#DATA
284.000000	0.520844
285.000000	0.513210
286.000000	0.505286
287.000000	0.498515
288.000000	0.491890
289.000000	0.485434
290.000000	0.479368
291.000000	0.473943
292.000000	0.468674
293.000000	0.463674
294.000000	0.458839
295.000000	0.454520
296.000000	0.451230
297.000000	0.446955
298.000000	0.443660
299.000000	0.440478
300.000000	0.437378
301.000000	0.434583
302.000000	0.431450
303.000000	0.428877
304.000000	0.426902
305.000000	0.425163
306.000000	0.423261
307.000000	0.421870
308.000000	0.420482
309.000000	0.419397
310.000000	0.418456
311.000000	0.417873
312.000000	0.417221
313.000000	0.416850
314.000000	0.416898
315.000000	0.417103
316.000000	0.417259
317.000000	0.419216
318.000000	0.421950
319.000000	0.423789
320.000000	0.427245
321.000000	0.431190
322.000000	0.433631
323.000000	0.435637
324.000000	0.437095
325.000000	0.439640
326.000000	0.443101
327.000000	0.446559
328.000000	0.449630
329.000000	0.453613
330.000000	0.457144
331.000000	0.458764
332.000000	0.461218
333.000000	0.464202
334.000000	0.468373
335.000000	0.472151
336.000000	0.475610
337.000000	0.480245
338.000000	0.483945
339.000000	0.487239
340.000000	0.491646
341.000000	0.495484
342.000000	0.499629
343.000000	0.503615
344.000000	0.507173
345.000000	0.511636
346.000000	0.515640
347.000000	0.519361
348.000000	0.523603
349.000000	0.527608
350.000000	0.530780
351.000000	0.533789
352.000000	0.535787
353.000000	0.537339
354.000000	0.540168
355.000000	0.541885
356.000000	0.543663
357.000000	0.547014
358.000000	0.550351
359.000000	0.554330
360.000000	0.557864
361.000000	0.560234
362.000000	0.563053
363.000000	0.566371
364.000000	0.568614
365.000000	0.571130
366.000000	0.575576
367.000000	0.580034
368.000000	0.583506
369.000000	0.586585
370.000000	0.590145
371.000000	0.594241
372.000000	0.597843
373.000000	0.601866
374.000000	0.605968
375.000000	0.607963
376.000000	0.610843
377.000000	0.613341
378.000000	0.615817
379.000000	0.618985
380.000000	0.621319
381.000000	0.623780
382.000000	0.627067
383.000000	0.629688
384.000000	0.632235
385.000000	0.635102
386.000000	0.638272
387.000000	0.641234
388.000000	0.643868
389.000000	0.646344
390.000000	0.648435
391.000000	0.650312
392.000000	0.651947
393.000000	0.653955
394.000000	0.656152
395.000000	0.658015
396.000000	0.659739
397.000000	0.661166
398.000000	0.662625
399.000000	0.664260
400.000000	0.666282
401.000000	0.667868
402.000000	0.669196
403.000000	0.670541
404.000000	0.671559
405.000000	0.672580
406.000000	0.673304
407.000000	0.673618
408.000000	0.673729
409.000000	0.674428
410.000000	0.676008
411.000000	0.677401
412.000000	0.678632
413.000000	0.679693
414.000000	0.680742
415.000000	0.681818
416.000000	0.682731
417.000000	0.683567
418.000000	0.684297
419.000000	0.684950
420.000000	0.685648
421.000000	0.686387
422.000000	0.687020
423.000000	0.687566
424.000000	0.687998
425.000000	0.688271
426.000000	0.688551
427.000000	0.688922
428.000000	0.689356
429.000000	0.689697
430.000000	0.690047
431.000000	0.690315
432.000000	0.690509
433.000000	0.690788
434.000000	0.691074
435.000000	0.691269
436.000000	0.691369
437.000000	0.691579
438.000000	0.691728
439.000000	0.691844
440.000000	0.692037
441.000000	0.692174
442.000000	0.692172
443.000000	0.692130
444.000000	0.692147
445.000000	0.692042
446.000000	0.691830
447.000000	0.691659
448.000000	0.691540
449.000000	0.691432
450.000000	0.691193
451.000000	0.690906
452.000000	0.690688
453.000000	0.690407
454.000000	0.690119
455.000000	0.689794
456.000000	0.689444
457.000000	0.689183
458.000000	0.688895
459.000000	0.688514
460.000000	0.688191
461.000000	0.687857
462.000000	0.687528
463.000000	0.687200
464.000000	0.686904
465.000000	0.686593
466.000000	0.686298
467.000000	0.686022
468.000000	0.685770
469.000000	0.685549
470.000000	0.685244
471.000000	0.684915
472.000000	0.684565
473.000000	0.684239
474.000000	0.683980
475.000000	0.683632
476.000000	0.683364
477.000000	0.683160
478.000000	0.682907
479.000000	0.682528
480.000000	0.682182
481.000000	0.681943
482.000000	0.681725
483.000000	0.681472
484.000000	0.681217
485.000000	0.681028
486.000000	0.680848
487.000000	0.680655
488.000000	0.680526
489.000000	0.680355
490.000000	0.680192
491.000000	0.679971
492.000000	0.679655
493.000000	0.679341
494.000000	0.679088
495.000000	0.678821
496.000000	0.678608
497.000000	0.678327
498.000000	0.677860
499.000000	0.677351
500.000000	0.676800
501.000000	0.676232
502.000000	0.675658
503.000000	0.674961
504.000000	0.674233
505.000000	0.673510
506.000000	0.672800
507.000000	0.671999
508.000000	0.671143
509.000000	0.670152
510.000000	0.669167
511.000000	0.668164
512.000000	0.667070
513.000000	0.666061
514.000000	0.665107
515.000000	0.664120
516.000000	0.663015
517.000000	0.661873
518.000000	0.660779
519.000000	0.659689
520.000000	0.658657
521.000000	0.657586
522.000000	0.656504
523.000000	0.655510
524.000000	0.654547
525.000000	0.653505
526.000000	0.652584
527.000000	0.651688
528.000000	0.650850
529.000000	0.650086
530.000000	0.649428
531.000000	0.648775
532.000000	0.648095
533.000000	0.647592
534.000000	0.647148
535.000000	0.646703
536.000000	0.646363
537.000000	0.646107
538.000000	0.646027
539.000000	0.645847
540.000000	0.645822
541.000000	0.645899
542.000000	0.646056
543.000000	0.646283
544.000000	0.646671
545.000000	0.647127
546.000000	0.647550
547.000000	0.648211
548.000000	0.648850
549.000000	0.649593
550.000000	0.650447
551.000000	0.651419
552.000000	0.652565
553.000000	0.653626
554.000000	0.654731
555.000000	0.655855
556.000000	0.657158
557.000000	0.658505
558.000000	0.659868
559.000000	0.661332
560.000000	0.662842
561.000000	0.664435
562.000000	0.666040
563.000000	0.667810
564.000000	0.669619
565.000000	0.671486
566.000000	0.673585
567.000000	0.675863
568.000000	0.678105
569.000000	0.680553
570.000000	0.683209
571.000000	0.685806
572.000000	0.688634
573.000000	0.691467
574.000000	0.694562
575.000000	0.697942
576.000000	0.701378
577.000000	0.704914
578.000000	0.708729
579.000000	0.712780
580.000000	0.716916
581.000000	0.721310
582.000000	0.725817
583.000000	0.730593
584.000000	0.735611
585.000000	0.740785
586.000000	0.746254
587.000000	0.751888
588.000000	0.757868
589.000000	0.764171
590.000000	0.770612
591.000000	0.777243
592.000000	0.784209
593.000000	0.791473
594.000000	0.799078
595.000000	0.807062
596.000000	0.815315
597.000000	0.823929
598.000000	0.832723
599.000000	0.841878
600.000000	0.851307
601.000000	0.861025
602.000000	0.871144
603.000000	0.881677
604.000000	0.892474
605.000000	0.903594
606.000000	0.915228
607.000000	0.927161
608.000000	0.939506
609.000000	0.952239
610.000000	0.965154
611.000000	0.978580
612.000000	0.992496
613.000000	1.006770
614.000000	1.021395
615.000000	1.036512
616.000000	1.052052
617.000000	1.068030
618.000000	1.084389
619.000000	1.101181
620.000000	1.118492
621.000000	1.136229
622.000000	1.154457
623.000000	1.173233
624.000000	1.192422
625.000000	1.212141
626.000000	1.232345
627.000000	1.252972
628.000000	1.274116
629.000000	1.295793
630.000000	1.318098
631.000000	1.340804
632.000000	1.364164
633.000000	1.388106
634.000000	1.412488
635.000000	1.437497
636.000000	1.462944
637.000000	1.488955
638.000000	1.515670
639.000000	1.542975
640.000000	1.570861
641.000000	1.599286
642.000000	1.628313
643.000000	1.658048
644.000000	1.688484
645.000000	1.719467
646.000000	1.751001
647.000000	1.783111
648.000000	1.815873
649.000000	1.849192
650.000000	1.883278
651.000000	1.918064
652.000000	1.953527
653.000000	1.989659
654.000000	2.026428
655.000000	2.063928
656.000000	2.101955
657.000000	2.140603
658.000000	2.179984
659.000000	2.220066
660.000000	2.260974
661.000000	2.302502
662.000000	2.344724
663.000000	2.387581
664.000000	2.430973
665.000000	2.475008
666.000000	2.519976
667.000000	2.565512
668.000000	2.611848
669.000000	2.659040
670.000000	2.706868
671.000000	2.755329
672.000000	2.804476
673.000000	2.854217
674.000000	2.904591
675.000000	2.955678
676.000000	3.007512
677.000000	3.060196
678.000000	3.113380
679.000000	3.167063
680.000000	3.221492
681.000000	3.276654
682.000000	3.332640
683.000000	3.389412
684.000000	3.446896
685.000000	3.504968
686.000000	3.563758
687.000000	3.623266
688.000000	3.683529
689.000000	3.744371
690.000000	3.805874
691.000000	3.868310
692.000000	3.931519
693.000000	3.995139
694.000000	4.059313
695.000000	4.124197
696.000000	4.189784
697.000000	4.256143
698.000000	4.323277
699.000000	4.391186
700.000000	4.459819
701.000000	4.528979
702.000000	4.598934
703.000000	4.669351
704.000000	4.740454
705.000000	4.812400
706.000000	4.885065
707.000000	4.958215
708.000000	5.031939
709.000000	5.106391
710.000000	5.181754
711.000000	5.257785
712.000000	5.334311
713.000000	5.411737
714.000000	5.489895
715.000000	5.568648
716.000000	5.648074
717.000000	5.728018
718.000000	5.808507
719.000000	5.889789
720.000000	5.972029
721.000000	6.054791
722.000000	6.137875
723.000000	6.221639
724.000000	6.306288
725.000000	6.391585
726.000000	6.477196
727.000000	6.563285
728.000000	6.650203
729.000000	6.737847
730.000000	6.826187
731.000000	6.915339
732.000000	7.005074
733.000000	7.095737
734.000000	7.186964
735.000000	7.278346
736.000000	7.370364
737.000000	7.462869
738.000000	7.555947
739.000000	7.649587
740.000000	7.743745
741.000000	7.838490
742.000000	7.934354
743.000000	8.031065
744.000000	8.128129
745.000000	8.225505
746.000000	8.323394
747.000000	8.422005
748.000000	8.520822
749.000000	8.620164
750.000000	8.720339
751.000000	8.820800
752.000000	8.921863
753.000000	9.023264
754.000000	9.125242
755.000000	9.227512
756.000000	9.330466
757.000000	9.433730
758.000000	9.537920
759.000000	9.642637
760.000000	9.747818
761.000000	9.853906
762.000000	9.960300
763.000000	10.067354
764.000000	10.174795
765.000000	10.282231
766.000000	10.389903
767.000000	10.498277
768.000000	10.606896
769.000000	10.716059
770.000000	10.826657
771.000000	10.937386
772.000000	11.048512
773.000000	11.160046
774.000000	11.271527
775.000000	11.382900
776.000000	11.495189
777.000000	11.607707
778.000000	11.720048
779.000000	11.832848
780.000000	11.946500
781.000000	12.060611
782.000000	12.175267
783.000000	12.291112
784.000000	12.407098
785.000000	12.522822
786.000000	12.638494
787.000000	12.754871
788.000000	12.871790
789.000000	12.988713
790.000000	13.106310
791.000000	13.223382
792.000000	13.341650
793.000000	13.460407
794.000000	13.579308
795.000000	13.698541
796.000000	13.817654
797.000000	13.936916
798.000000	14.057149
799.000000	14.176972
800.000000	14.297686
801.000000	14.419056
802.000000	14.540444
803.000000	14.661386
804.000000	14.783065
805.000000	14.902221
806.000000	15.022361
807.000000	15.143273
808.000000	15.265202
809.000000	15.387112
810.000000	15.510456
811.000000	15.633141
812.000000	15.755815
813.000000	15.878617
814.000000	16.002160
815.000000	16.125927
816.000000	16.249527
817.000000	16.372442
818.000000	16.495235
819.000000	16.618804
820.000000	16.742501
821.000000	16.868788
822.000000	16.993990
823.000000	17.119744
824.000000	17.245277
825.000000	17.370055
826.000000	17.495706
827.000000	17.620352
828.000000	17.744303
829.000000	17.870378
830.000000	17.995120
831.000000	18.119656
832.000000	18.243448
833.000000	18.367256
834.000000	18.491960
835.000000	18.615915
836.000000	18.739955
837.000000	18.866684
838.000000	18.992576
839.000000	19.117628
840.000000	19.242747
841.000000	19.372087
842.000000	19.499100
843.000000	19.627339
844.000000	19.753647
845.000000	19.880130
846.000000	20.007518
847.000000	20.129847
848.000000	20.253022
849.000000	20.379679
850.000000	20.506202
851.000000	20.633992
852.000000	20.760321
853.000000	20.886303
854.000000	21.009011
855.000000	21.132818
856.000000	21.253937
857.000000	21.378570
858.000000	21.516213
859.000000	21.635046
860.000000	21.769843
861.000000	21.898403
862.000000	22.036711
863.000000	22.155713
864.000000	22.279229
865.000000	22.412174
866.000000	22.536981
867.000000	22.651957
868.000000	22.754743
869.000000	22.871186
870.000000	22.998790
871.000000	23.125249
872.000000	23.239765
873.000000	23.368256
874.000000	23.499311
875.000000	23.626667
876.000000	23.764481
877.000000	23.876296
878.000000	24.003159
879.000000	24.143063
880.000000	24.272466
881.000000	24.382533
882.000000	24.502903
883.000000	24.625778
884.000000	24.736874
885.000000	24.873725
886.000000	24.990671
887.000000	25.119365
888.000000	25.244530
889.000000	25.375413
890.000000	25.487184
891.000000	25.630033
892.000000	25.751055
893.000000	25.868322
894.000000	25.995699
895.000000	26.117863
896.000000	26.237287
897.000000	26.347014
898.000000	26.483489
899.000000	26.598366
900.000000	26.702575
901.000000	26.830622
902.000000	26.957670
903.000000	27.091772
904.000000	27.217041
905.000000	27.328448
906.000000	27.438622
907.000000	27.579414
908.000000	27.680138
909.000000	27.794117
910.000000	27.929147
911.000000	28.030121
912.000000	28.156383
913.000000	28.255499
914.000000	28.349315
915.000000	28.459850
916.000000	28.592886
917.000000	28.706688
918.000000	28.826266
919.000000	28.959581
920.000000	29.071209
921.000000	29.191841
922.000000	29.305010
923.000000	29.421696
924.000000	29.529590
925.000000	29.648667
926.000000	29.744967
927.000000	29.853462
928.000000	29.953644
929.000000	30.061615
930.000000	30.167680
931.000000	30.273231
932.000000	30.390946
933.000000	30.489030
934.000000	30.610257
935.000000	30.726788
936.000000	30.829145
937.000000	30.932503
938.000000	31.037483
939.000000	31.130096
940.000000	31.232148
941.000000	31.339791
942.000000	31.436793
943.000000	31.571200
944.000000	31.663667
945.000000	31.749429
946.000000	31.840071
947.000000	31.933072
948.000000	32.030595
949.000000	32.123479
950.000000	32.214367
951.000000	32.293626
952.000000	32.386661
953.000000	32.485170
954.000000	32.586071
955.000000	32.665336
956.000000	32.748913
957.000000	32.828860
958.000000	32.915350
959.000000	33.001107
960.000000	33.089785
961.000000	33.195597
962.000000	33.298148
963.000000	33.402212
964.000000	33.495812
965.000000	33.581952
966.000000	33.680492
967.000000	33.767021
968.000000	33.862772
969.000000	33.955514
970.000000	34.057314
971.000000	34.159412
972.000000	34.270757
973.000000	34.378278
974.000000	34.498870
975.000000	34.606266
976.000000	34.696967
977.000000	34.778675
978.000000	34.852463
979.000000	34.943466
980.000000	35.027521
981.000000	35.117912
982.000000	35.210739
983.000000	35.319658
984.000000	35.431797
985.000000	35.532465
986.000000	35.641243
987.000000	35.750696
988.000000	35.833002
989.000000	35.912635
990.000000	36.019790
991.000000	36.121342
992.000000	36.222201
993.000000	36.325889
994.000000	36.441320
995.000000	36.554448
996.000000	36.625218
997.000000	36.699623
998.000000	36.778963
999.000000	36.867257
1000.000000	36.953971
1001.000000	37.034833
1002.000000	37.114432
1003.000000	37.212968
1004.000000	37.303122
1005.000000	37.382359
1006.000000	37.462025
1007.000000	37.547618
1008.000000	37.628980
1009.000000	37.691038
1010.000000	37.763227
1011.000000	37.860836
1012.000000	37.968390
1013.000000	38.061836
1014.000000	38.154877
1015.000000	38.245725
1016.000000	38.350554
1017.000000	38.457739
1018.000000	38.545274
1019.000000	38.624810
1020.000000	38.706941
1021.000000	38.787497
1022.000000	38.871373
1023.000000	38.964337
1024.000000	39.041543
1025.000000	39.118552
1026.000000	39.206552
1027.000000	39.293354
1028.000000	39.358290
1029.000000	39.420596
1030.000000	39.494398
1031.000000	39.582147
1032.000000	39.670244
1033.000000	39.753568
1034.000000	39.842634
1035.000000	39.920355
1036.000000	39.990220
1037.000000	40.069464
1038.000000	40.129080
1039.000000	40.185708
1040.000000	40.255704
1041.000000	40.325845
1042.000000	40.394872
1043.000000	40.466092
1044.000000	40.554149
1045.000000	40.633918
1046.000000	40.696840
1047.000000	40.755103
1048.000000	40.825173
1049.000000	40.900500
1050.000000	40.972648
1051.000000	41.033511
1052.000000	41.091866
1053.000000	41.160413
1054.000000	41.237902
1055.000000	41.307583
1056.000000	41.375446
1057.000000	41.440870
1058.000000	41.511418
1059.000000	41.583793
1060.000000	41.645027
1061.000000	41.704548
1062.000000	41.766364
1063.000000	41.853376
1064.000000	41.941594
1065.000000	42.003309
1066.000000	42.074938
1067.000000	42.151138
1068.000000	42.220540
1069.000000	42.294452
1070.000000	42.386845
1071.000000	42.471624
1072.000000	42.535844
1073.000000	42.614928
1074.000000	42.705682
1075.000000	42.767524
1076.000000	42.826954
1077.000000	42.900677
1078.000000	42.964901
1079.000000	43.030956
1080.000000	43.104752
1081.000000	43.188423
1082.000000	43.248294
1083.000000	43.298791
1084.000000	43.362354
1085.000000	43.436893
1086.000000	43.510985
1087.000000	43.560027
1088.000000	43.634847
1089.000000	43.696508
1090.000000	43.767846
1091.000000	43.846731
1092.000000	43.919655
1093.000000	43.986029
1094.000000	44.046910
1095.000000	44.106779
1096.000000	44.180628
1097.000000	44.253440
1098.000000	44.317345
1099.000000	44.359829
1100.000000	44.443331
1101.000000	44.498468
1102.000000	44.554770
1103.000000	44.615868
1104.000000	44.661577
1105.000000	44.698245
1106.000000	44.744807
1107.000000	44.799035
1108.000000	44.845972
1109.000000	44.881434
1110.000000	44.956075
1111.000000	45.016347
1112.000000	45.049801
1113.000000	45.115767
1114.000000	45.176787
1115.000000	45.238877
1116.000000	45.275282
1117.000000	45.331138
1118.000000	45.393901
1119.000000	45.459082
1120.000000	45.484753
1121.000000	45.524253
1122.000000	45.593517
1123.000000	45.653923
1124.000000	45.688236
1125.000000	45.769794
1126.000000	45.802672
1127.000000	45.850271
1128.000000	45.906345
1129.000000	45.961077
1130.000000	46.012539
1131.000000	46.046569
1132.000000	46.077453
1133.000000	46.112805
1134.000000	46.178797
1135.000000	46.198440
1136.000000	46.242540
1137.000000	46.283844
1138.000000	46.324542
1139.000000	46.383989
1140.000000	46.449831
1141.000000	46.504027
1142.000000	46.546165
1143.000000	46.585518
1144.000000	46.645131
1145.000000	46.686270
1146.000000	46.729661
1147.000000	46.781526
1148.000000	46.838838
1149.000000	46.867228
1150.000000	46.891110
1151.000000	46.925704
1152.000000	46.979497
1153.000000	47.019657
1154.000000	47.037351
1155.000000	47.103956
1156.000000	47.163734
1157.000000	47.217216
1158.000000	47.224685
1159.000000	47.284625
1160.000000	47.275895
1161.000000	47.303142
1162.000000	47.323106
1163.000000	47.333611
1164.000000	47.363135
1165.000000	47.390842
1166.000000	47.452136
1167.000000	47.502240
1168.000000	47.529611
1169.000000	47.535233
1170.000000	47.571810
1171.000000	47.609612
1172.000000	47.639093
1173.000000	47.658051
1174.000000	47.672015
1175.000000	47.679441
1176.000000	47.703869
1177.000000	47.739166
1178.000000	47.791100
1179.000000	47.817046
1180.000000	47.841221
1181.000000	47.863922
1182.000000	47.890324
1183.000000	47.891530
1184.000000	47.927332
1185.000000	47.961543
1186.000000	47.995699
1187.000000	48.007394
1188.000000	48.041514
1189.000000	48.091076
1190.000000	48.124909
1191.000000	48.121196
1192.000000	48.129148
1193.000000	48.163539
1194.000000	48.181389
1195.000000	48.189611
1196.000000	48.226146
1197.000000	48.258044
1198.000000	48.302249
1199.000000	48.335184
1200.000000	48.362634
1201.000000	48.383276
1202.000000	48.403715
1203.000000	48.432467
1204.000000	48.464155
1205.000000	48.499610
1206.000000	48.529751
1207.000000	48.567105
1208.000000	48.617665
1209.000000	48.668093
1210.000000	48.717427
1211.000000	48.754436
1212.000000	48.806180
1213.000000	48.825058
1214.000000	48.854949
1215.000000	48.898407
1216.000000	48.931352
1217.000000	48.967611
1218.000000	49.008882
1219.000000	49.053134
1220.000000	49.080581
1221.000000	49.114181
1222.000000	49.144299
1223.000000	49.167713
1224.000000	49.192228
1225.000000	49.209272
1226.000000	49.273083
1227.000000	49.322436
1228.000000	49.351610
1229.000000	49.384480
1230.000000	49.466845
1231.000000	49.503907
1232.000000	49.543396
1233.000000	49.571164
1234.000000	49.608216
1235.000000	49.652380
1236.000000	49.679965
1237.000000	49.731287
1238.000000	49.774139
1239.000000	49.817037
1240.000000	49.851869
1241.000000	49.887257
1242.000000	49.938616
1243.000000	49.977849
1244.000000	50.009519
1245.000000	50.037217
1246.000000	50.061237
1247.000000	50.071912
1248.000000	50.105539
1249.000000	50.133324
1250.000000	50.145193
1251.000000	50.191363
1252.000000	50.229035
1253.000000	50.272015
1254.000000	50.310302
1255.000000	50.351346
1256.000000	50.389145
1257.000000	50.435540
1258.000000	50.479789
1259.000000	50.517316
1260.000000	50.564992
1261.000000	50.606617
1262.000000	50.634047
1263.000000	50.669806
1264.000000	50.710586
1265.000000	50.726684
1266.000000	50.760269
1267.000000	50.791092
1268.000000	50.826745
1269.000000	50.862467
1270.000000	50.893173
1271.000000	50.911935
1272.000000	50.931777
1273.000000	50.968827
1274.000000	51.010504
1275.000000	51.055060
1276.000000	51.090276
1277.000000	51.100907
1278.000000	51.111382
1279.000000	51.118119
1280.000000	51.123951
1281.000000	51.164287
1282.000000	51.212107
1283.000000	51.228949
1284.000000	51.249038
1285.000000	51.279757
1286.000000	51.296488
1287.000000	51.310813
1288.000000	51.319625
1289.000000	51.330352
1290.000000	51.349771
1291.000000	51.388676
1292.000000	51.416323
1293.000000	51.428412
1294.000000	51.443643
1295.000000	51.452659
1296.000000	51.448702
1297.000000	51.458861
1298.000000	51.471437
1299.000000	51.463672
1300.000000	51.469165
1301.000000	51.481439
1302.000000	51.497647
1303.000000	51.508694
1304.000000	51.517769
1305.000000	51.539919
1306.000000	51.561481
1307.000000	51.581896
1308.000000	51.599861
1309.000000	51.607780
1310.000000	51.607179
1311.000000	51.619501
1312.000000	51.641839
1313.000000	51.663260
1314.000000	51.682792
1315.000000	51.724191
1316.000000	51.738415
1317.000000	51.738802
1318.000000	51.754993
1319.000000	51.779849
1320.000000	51.816855
1321.000000	51.854274
1322.000000	51.877162
1323.000000	51.888421
1324.000000	51.905881
1325.000000	51.926821
1326.000000	51.934186
1327.000000	51.944514
1328.000000	51.973223
1329.000000	51.984645
1330.000000	51.993216
1331.000000	52.009940
1332.000000	52.015038
1333.000000	52.046265
1334.000000	52.081573
1335.000000	52.123815
1336.000000	52.156342
1337.000000	52.191173
1338.000000	52.198285
1339.000000	52.223380
1340.000000	52.233004
1341.000000	52.238079
1342.000000	52.239723
1343.000000	52.244034
1344.000000	52.256554
1345.000000	52.263419
1346.000000	52.248772
1347.000000	52.270780
1348.000000	52.288260
1349.000000	52.286257
1350.000000	52.248057
1351.000000	52.260062
1352.000000	52.250104
1353.000000	52.262853
1354.000000	52.354001
1355.000000	52.457774
1356.000000	52.458230
1357.000000	52.480200
1358.000000	52.497058
1359.000000	52.527905
1360.000000	52.571463
1361.000000	52.576965
1362.000000	52.288740
1363.000000	52.189054
1364.000000	52.346179
1365.000000	52.317362
1366.000000	52.325100
1367.000000	52.466776
1368.000000	52.582961
1369.000000	52.583970
1370.000000	52.585911
1371.000000	52.628798
1372.000000	52.604322
1373.000000	52.626869
1374.000000	52.617518
1375.000000	52.604604
1376.000000	52.554927
1377.000000	52.513054
1378.000000	52.595937
1379.000000	52.560973
1380.000000	52.732476
1381.000000	52.716082
1382.000000	52.890326
1383.000000	52.935892
1384.000000	52.972332
1385.000000	52.996624
1386.000000	52.961088
1387.000000	53.058660
1388.000000	52.928762
1389.000000	52.785721
1390.000000	52.652377
1391.000000	52.619376
1392.000000	52.478254
1393.000000	52.376596
1394.000000	52.286088
1395.000000	52.266108
1396.000000	52.265424
1397.000000	52.508224
1398.000000	52.590699
1399.000000	52.470401
1400.000000	52.621226
1401.000000	52.655481
1402.000000	52.463274
1403.000000	52.305303
1404.000000	52.251913
1405.000000	52.146058
1406.000000	52.083002
1407.000000	52.029379
1408.000000	51.998882
1409.000000	52.023270
1410.000000	52.010321
1411.000000	52.012355
1412.000000	52.002004
1413.000000	51.871411
1414.000000	51.834318
1415.000000	51.614988
1416.000000	51.591340
1417.000000	51.352018
1418.000000	51.242864
1419.000000	51.171022
1420.000000	51.128115
1421.000000	51.106858
1422.000000	50.978464
1423.000000	51.062336
1424.000000	51.056006
1425.000000	51.034776
1426.000000	50.976898
1427.000000	51.030448
1428.000000	51.063079
1429.000000	51.054314
1430.000000	50.936788
1431.000000	50.859565
1432.000000	50.831893
1433.000000	50.774012
1434.000000	50.673877
1435.000000	50.479813
1436.000000	50.368920
1437.000000	50.364288
1438.000000	50.315448
1439.000000	50.299775
1440.000000	50.305189
1441.000000	50.248252
1442.000000	50.235829
1443.000000	50.147534
1444.000000	50.038672
1445.000000	50.019267
1446.000000	49.980595
1447.000000	49.944882
1448.000000	49.901516
1449.000000	49.885242
1450.000000	49.867776
1451.000000	49.824231
1452.000000	49.776719
1453.000000	49.745925
1454.000000	49.715232
1455.000000	49.695799
1456.000000	49.667101
1457.000000	49.637946
1458.000000	49.601563
1459.000000	49.585581
1460.000000	49.550490
1461.000000	49.545588
1462.000000	49.516582
1463.000000	49.477593
1464.000000	49.460416
1465.000000	49.471445
1466.000000	49.453031
1467.000000	49.418857
1468.000000	49.389789
1469.000000	49.383776
1470.000000	49.373478
1471.000000	49.342081
1472.000000	49.316510
1473.000000	49.304777
1474.000000	49.271287
1475.000000	49.266595
1476.000000	49.237919
1477.000000	49.194704
1478.000000	49.202557
1479.000000	49.190961
1480.000000	49.136177
1481.000000	49.133206
1482.000000	49.125882
1483.000000	49.127988
1484.000000	49.118357
1485.000000	49.077218
1486.000000	49.086897
1487.000000	49.080098
1488.000000	49.068786
1489.000000	49.065461
1490.000000	49.035139
1491.000000	49.024095
1492.000000	48.992140
1493.000000	48.982216
1494.000000	48.974625
1495.000000	48.964701
1496.000000	48.957106
1497.000000	48.947702
1498.000000	48.940379
1499.000000	48.920852
1500.000000	48.900562
1501.000000	48.877321
1502.000000	48.876430
1503.000000	48.875696
1504.000000	48.856571
1505.000000	48.843473
1506.000000	48.850844
1507.000000	48.864084
1508.000000	48.864865
1509.000000	48.870413
1510.000000	48.877909
1511.000000	48.904715
1512.000000	48.929066
1513.000000	48.938727
1514.000000	48.949101
1515.000000	48.955058
1516.000000	48.968696
1517.000000	48.979614
1518.000000	48.968917
1519.000000	48.966710
1520.000000	48.983234
1521.000000	48.987538
1522.000000	49.004388
1523.000000	49.025350
1524.000000	49.037698
1525.000000	49.065393
1526.000000	49.082122
1527.000000	49.122022
1528.000000	49.145658
1529.000000	49.162128
1530.000000	49.181915
1531.000000	49.203823
1532.000000	49.239443
1533.000000	49.293356
1534.000000	49.336650
1535.000000	49.387407
1536.000000	49.440975
1537.000000	49.465368
1538.000000	49.496794
1539.000000	49.531770
1540.000000	49.580925
1541.000000	49.623884
1542.000000	49.646164
1543.000000	49.685295
1544.000000	49.714019
1545.000000	49.730607
1546.000000	49.749961
1547.000000	49.783887
1548.000000	49.822155
1549.000000	49.872339
1550.000000	49.916144
1551.000000	49.953320
1552.000000	50.004014
1553.000000	50.049292
1554.000000	50.097322
1555.000000	50.155812
1556.000000	50.192843
1557.000000	50.231309
1558.000000	50.269777
1559.000000	50.302812
1560.000000	50.339046
1561.000000	50.374418
1562.000000	50.396183
1563.000000	50.407263
1564.000000	50.420282
1565.000000	50.428968
1566.000000	50.448537
1567.000000	50.477845
1568.000000	50.496836
1569.000000	50.528738
1570.000000	50.537344
1571.000000	50.553819
1572.000000	50.609182
1573.000000	50.646687
1574.000000	50.664052
1575.000000	50.678169
1576.000000	50.685382
1577.000000	50.699589
1578.000000	50.715181
1579.000000	50.749814
1580.000000	50.784192
1581.000000	50.804144
1582.000000	50.839495
1583.000000	50.865786
1584.000000	50.869880
1585.000000	50.889020
1586.000000	50.894946
1587.000000	50.900215
1588.000000	50.918041
1589.000000	50.940677
1590.000000	50.947432
1591.000000	50.968177
1592.000000	50.972948
1593.000000	50.972089
1594.000000	50.982525
1595.000000	51.012321
1596.000000	51.029009
1597.000000	51.053784
1598.000000	51.085273
1599.000000	51.125961
1600.000000	51.161584
1601.000000	51.181216
1602.000000	51.208249
1603.000000	51.238822
1604.000000	51.241285
1605.000000	51.281036
1606.000000	51.301515
1607.000000	51.303771
1608.000000	51.310832
1609.000000	51.330588
1610.000000	51.379297
1611.000000	51.423150
1612.000000	51.451247
1613.000000	51.481054
1614.000000	51.501516
1615.000000	51.513454
1616.000000	51.543922
1617.000000	51.554957
1618.000000	51.555136
1619.000000	51.577799
1620.000000	51.611517
1621.000000	51.648786
1622.000000	51.676826
1623.000000	51.695863
1624.000000	51.716144
1625.000000	51.751614
1626.000000	51.776949
1627.000000	51.814519
1628.000000	51.859729
1629.000000	51.894328
1630.000000	51.902469
1631.000000	51.903285
1632.000000	51.918849
1633.000000	51.957547
1634.000000	51.968739
1635.000000	51.979448
1636.000000	51.998979
1637.000000	52.013644
1638.000000	52.005247
1639.000000	52.023331
1640.000000	52.014036
1641.000000	52.029700
1642.000000	52.054648
1643.000000	52.073248
1644.000000	52.106367
1645.000000	52.100286
1646.000000	52.107856
1647.000000	52.120325
1648.000000	52.139115
1649.000000	52.158965
1650.000000	52.195444
1651.000000	52.202379
1652.000000	52.214921
1653.000000	52.260925
1654.000000	52.277895
1655.000000	52.273447
1656.000000	52.286618
1657.000000	52.290532
1658.000000	52.313158
1659.000000	52.336625
1660.000000	52.334228
1661.000000	52.325435
1662.000000	52.322320
1663.000000	52.325390
1664.000000	52.335975
1665.000000	52.341100
1666.000000	52.353193
1667.000000	52.362426
1668.000000	52.360574
1669.000000	52.366018
1670.000000	52.374418
1671.000000	52.389401
1672.000000	52.384221
1673.000000	52.374938
1674.000000	52.352652
1675.000000	52.359542
1676.000000	52.342447
1677.000000	52.322275
1678.000000	52.319927
1679.000000	52.296970
1680.000000	52.270086
1681.000000	52.242252
1682.000000	52.232687
1683.000000	52.202895
1684.000000	52.159259
1685.000000	52.109300
1686.000000	52.068791
1687.000000	52.026963
1688.000000	51.971703
1689.000000	51.922506
1690.000000	51.896983
1691.000000	51.863774
1692.000000	51.823239
1693.000000	51.776871
1694.000000	51.728187
1695.000000	51.694015
1696.000000	51.666728
1697.000000	51.639275
1698.000000	51.596465
1699.000000	51.555432
1700.000000	51.534654
1701.000000	51.506966
1702.000000	51.493933
1703.000000	51.462724
1704.000000	51.449059
1705.000000	51.425338
1706.000000	51.395576
1707.000000	51.364944
1708.000000	51.359518
1709.000000	51.354735
1710.000000	51.327996
1711.000000	51.313592
1712.000000	51.292838
1713.000000	51.257067
1714.000000	51.224604
1715.000000	51.202856
1716.000000	51.185645
1717.000000	51.157927
1718.000000	51.119463
1719.000000	51.104271
1720.000000	51.083417
1721.000000	51.072265
1722.000000	51.055307
1723.000000	51.026651
1724.000000	51.004750
1725.000000	50.974723
1726.000000	50.934427
1727.000000	50.912407
1728.000000	50.904587
1729.000000	50.886550
1730.000000	50.864306
1731.000000	50.864511
1732.000000	50.850797
1733.000000	50.837135
1734.000000	50.805021
1735.000000	50.773912
1736.000000	50.776392
1737.000000	50.749678
1738.000000	50.731752
1739.000000	50.716908
1740.000000	50.695466
1741.000000	50.689211
1742.000000	50.700571
1743.000000	50.699729
1744.000000	50.694783
1745.000000	50.684299
1746.000000	50.692333
1747.000000	50.697137
1748.000000	50.710827
1749.000000	50.734125
1750.000000	50.765307
1751.000000	50.790198
1752.000000	50.812147
1753.000000	50.843790
1754.000000	50.867602
1755.000000	50.893076
1756.000000	50.918497
1757.000000	50.948820
1758.000000	50.990293
1759.000000	51.026636
1760.000000	51.048295
1761.000000	51.089458
1762.000000	51.142384
1763.000000	51.170789
1764.000000	51.190533
1765.000000	51.220690
1766.000000	51.241868
1767.000000	51.272677
1768.000000	51.309274
1769.000000	51.336347
1770.000000	51.350492
1771.000000	51.366658
1772.000000	51.391349
1773.000000	51.407791
1774.000000	51.425848
1775.000000	51.453715
1776.000000	51.456556
1777.000000	51.455181
1778.000000	51.472392
1779.000000	51.512295
1780.000000	51.561717
1781.000000	51.586816
1782.000000	51.601559
1783.000000	51.613658
1784.000000	51.609583
1785.000000	51.603664
1786.000000	51.617071
1787.000000	51.639259
1788.000000	51.662314
1789.000000	51.681878
1790.000000	51.694276
1791.000000	51.699579
1792.000000	51.716394
1793.000000	51.726276
1794.000000	51.747366
1795.000000	51.782761
1796.000000	51.800552
1797.000000	51.828966
1798.000000	51.853242
1799.000000	51.869307
1800.000000	51.893263
1801.000000	51.923007
1802.000000	51.936852
1803.000000	51.933915
1804.000000	51.957503
1805.000000	52.003710
1806.000000	52.040045
1807.000000	52.067854
1808.000000	52.095438
1809.000000	52.091760
1810.000000	52.110031
1811.000000	52.167489
1812.000000	52.250065
1813.000000	52.308696
1814.000000	52.312267
1815.000000	52.292189
1816.000000	52.312584
1817.000000	52.417459
1818.000000	52.486610
1819.000000	52.552121
1820.000000	52.579664
1821.000000	52.586627
1822.000000	52.608066
1823.000000	52.673033
1824.000000	52.721840
1825.000000	52.833737
1826.000000	52.890754
1827.000000	52.908350
1828.000000	52.945966
1829.000000	52.968726
1830.000000	53.030150
1831.000000	53.075019
1832.000000	53.075070
1833.000000	53.098983
1834.000000	53.157714
1835.000000	53.193299
1836.000000	53.165747
1837.000000	53.156990
1838.000000	53.169709
1839.000000	53.264772
1840.000000	53.273808
1841.000000	53.319678
1842.000000	53.335377
1843.000000	53.341590
1844.000000	53.369676
1845.000000	53.369454
1846.000000	53.410404
1847.000000	53.443064
1848.000000	53.428548
1849.000000	53.426966
1850.000000	53.437729
1851.000000	53.419489
1852.000000	53.375635
1853.000000	53.427231
1854.000000	53.428606
1855.000000	53.430153
1856.000000	53.331223
1857.000000	53.236166
1858.000000	53.134527
1859.000000	53.081718
1860.000000	52.967618
1861.000000	52.925881
1862.000000	52.935434
1863.000000	53.007429
1864.000000	53.068238
1865.000000	53.042934
1866.000000	53.018086
1867.000000	53.015429
1868.000000	52.960291
1869.000000	52.917935
1870.000000	53.078733
1871.000000	53.133057
1872.000000	53.223970
1873.000000	53.229600
1874.000000	53.140185
1875.000000	53.084256
1876.000000	53.082832
1877.000000	53.050977
1878.000000	53.020316
1879.000000	52.988651
1880.000000	53.003243
1881.000000	52.905413
1882.000000	52.789774
1883.000000	52.786762
1884.000000	52.731916
1885.000000	52.680221
1886.000000	52.681371
1887.000000	52.597557
1888.000000	52.429771
1889.000000	52.368175
1890.000000	52.261252
1891.000000	52.292070
1892.000000	52.272152
1893.000000	52.252082
1894.000000	52.155175
1895.000000	52.049188
1896.000000	51.920065
1897.000000	51.787049
1898.000000	51.549535
1899.000000	51.348424
1900.000000	51.169465
1901.000000	51.024307
1902.000000	51.072787
1903.000000	50.947772
1904.000000	50.743776
1905.000000	50.333476
1906.000000	50.147755
1907.000000	49.853858
1908.000000	49.636260
1909.000000	49.396296
1910.000000	49.196471
1911.000000	48.876785
1912.000000	48.602604
1913.000000	48.387354
1914.000000	48.138884
1915.000000	47.890242
1916.000000	47.697596
1917.000000	47.482692
1918.000000	47.177423
1919.000000	46.989649
1920.000000	46.858373
1921.000000	46.556142
1922.000000	46.302105
1923.000000	46.083707
1924.000000	45.763967
1925.000000	45.566170
1926.000000	45.346329
1927.000000	45.103932
1928.000000	44.903215
1929.000000	44.704270
1930.000000	44.519024
1931.000000	44.342503
1932.000000	44.140691
1933.000000	43.990251
1934.000000	43.779592
1935.000000	43.604979
1936.000000	43.433148
1937.000000	43.068162
1938.000000	42.892336
1939.000000	42.782920
1940.000000	42.694813
1941.000000	42.544792
1942.000000	42.440811
1943.000000	42.350237
1944.000000	42.296113
1945.000000	42.211856
1946.000000	42.157847
1947.000000	42.146703
1948.000000	42.088518
1949.000000	42.069695
1950.000000	42.001067
1951.000000	41.942588
1952.000000	41.910905
1953.000000	41.896490
1954.000000	41.862210
1955.000000	41.769193
1956.000000	41.786376
1957.000000	41.804030
1958.000000	41.818382
1959.000000	41.886749
1960.000000	41.919248
1961.000000	41.933898
1962.000000	42.013024
1963.000000	42.004315
1964.000000	42.036053
1965.000000	42.100149
1966.000000	42.161542
1967.000000	42.241864
1968.000000	42.298190
1969.000000	42.389861
1970.000000	42.472792
1971.000000	42.522406
1972.000000	42.563875
1973.000000	42.645825
1974.000000	42.726413
1975.000000	42.795792
1976.000000	42.882489
1977.000000	42.963047
1978.000000	43.048164
1979.000000	43.134402
1980.000000	43.234948
1981.000000	43.329846
1982.000000	43.418027
1983.000000	43.516008
1984.000000	43.609714
1985.000000	43.717467
1986.000000	43.791481
1987.000000	43.861257
1988.000000	43.954807
1989.000000	44.034133
1990.000000	44.117921
1991.000000	44.195744
1992.000000	44.283658
1993.000000	44.365135
1994.000000	44.448345
1995.000000	44.518405
1996.000000	44.594296
1997.000000	44.669178
1998.000000	44.753649
1999.000000	44.842020
2000.000000	44.899924
