PE UV       SUBTECH     SPECTRUM    ASCII       PEDS        4.00        
   -1
PLATY.001-TX3.ASC
23/11/30
15:38:45.00
23/11/30
15:38:45.00
Vinicio Soto Monge
PLATY 1
250,000000
1
Lambda 1050
1050L1511233
PerkinElmer UV WinLab 6.3.2.0749 / 2.02.05 Lambda 900 UV/VIS/NIR, Aug  7 2015 09:38:08

0
0
3350/servo 860,8/2
0
0
UV/VIS
1
1
1
DoubleDePol,CommonBeamDepol,RBeamAtt,SBeamAtt,60mm sphere, WB InGaAs Detector
0
0
0
0
Program
Program
3350/servo 860,8/2
3350/0,4 860,8/0,4
3350/0,4 860,8/0,4
0
20.00
 
 
 
0
 
860,8
319,2
860,8
Front
100
on
S:100 R:100
0
0
0
0
 
0
 
 
 
0
 
 
0
0
0
0
0
 
 
 
 
0
0


0
0
#HDR
-1
-1
#GR
nm
%T
1.0
0.0
2200,000000
-1,000000
1951
8
35,125412
0,217810
#DATA
284.000000	0.175198
285.000000	0.176097
286.000000	0.176803
287.000000	0.178296
288.000000	0.179496
289.000000	0.179957
290.000000	0.181057
291.000000	0.181959
292.000000	0.182591
293.000000	0.183776
294.000000	0.184641
295.000000	0.185886
296.000000	0.186993
297.000000	0.187703
298.000000	0.188966
299.000000	0.189742
300.000000	0.190833
301.000000	0.191778
302.000000	0.192624
303.000000	0.192919
304.000000	0.193952
305.000000	0.194691
306.000000	0.195276
307.000000	0.195892
308.000000	0.196926
309.000000	0.198154
310.000000	0.199433
311.000000	0.200764
312.000000	0.202062
313.000000	0.202778
314.000000	0.203865
315.000000	0.204895
316.000000	0.205807
317.000000	0.206051
318.000000	0.208018
319.000000	0.209844
320.000000	0.212167
321.000000	0.215589
322.000000	0.215672
323.000000	0.217006
324.000000	0.220000
325.000000	0.222014
326.000000	0.224521
327.000000	0.227607
328.000000	0.230217
329.000000	0.232876
330.000000	0.235076
331.000000	0.237748
332.000000	0.240742
333.000000	0.243458
334.000000	0.246087
335.000000	0.248188
336.000000	0.250805
337.000000	0.253073
338.000000	0.255534
339.000000	0.257732
340.000000	0.259922
341.000000	0.262493
342.000000	0.264844
343.000000	0.267179
344.000000	0.269409
345.000000	0.272072
346.000000	0.274150
347.000000	0.276434
348.000000	0.279822
349.000000	0.282536
350.000000	0.285810
351.000000	0.288916
352.000000	0.292729
353.000000	0.294923
354.000000	0.297432
355.000000	0.299190
356.000000	0.300871
357.000000	0.305396
358.000000	0.309107
359.000000	0.311333
360.000000	0.314163
361.000000	0.316481
362.000000	0.318577
363.000000	0.320782
364.000000	0.322650
365.000000	0.325053
366.000000	0.327123
367.000000	0.329437
368.000000	0.332122
369.000000	0.335047
370.000000	0.338580
371.000000	0.341813
372.000000	0.344594
373.000000	0.347478
374.000000	0.350657
375.000000	0.353909
376.000000	0.356723
377.000000	0.359562
378.000000	0.362140
379.000000	0.364965
380.000000	0.367353
381.000000	0.370087
382.000000	0.373061
383.000000	0.375309
384.000000	0.377868
385.000000	0.379896
386.000000	0.382277
387.000000	0.384683
388.000000	0.387060
389.000000	0.389400
390.000000	0.391736
391.000000	0.393357
392.000000	0.395035
393.000000	0.396669
394.000000	0.398485
395.000000	0.400239
396.000000	0.401879
397.000000	0.403494
398.000000	0.405261
399.000000	0.407365
400.000000	0.409273
401.000000	0.411028
402.000000	0.412691
403.000000	0.413923
404.000000	0.415328
405.000000	0.416367
406.000000	0.417328
407.000000	0.419102
408.000000	0.420786
409.000000	0.422174
410.000000	0.423590
411.000000	0.425094
412.000000	0.426736
413.000000	0.428237
414.000000	0.429652
415.000000	0.431073
416.000000	0.432456
417.000000	0.433884
418.000000	0.435308
419.000000	0.436611
420.000000	0.437910
421.000000	0.439194
422.000000	0.440459
423.000000	0.441692
424.000000	0.442974
425.000000	0.444272
426.000000	0.445565
427.000000	0.446871
428.000000	0.448126
429.000000	0.449292
430.000000	0.450584
431.000000	0.451965
432.000000	0.453310
433.000000	0.454620
434.000000	0.455931
435.000000	0.457290
436.000000	0.458652
437.000000	0.460090
438.000000	0.461525
439.000000	0.462954
440.000000	0.464429
441.000000	0.465978
442.000000	0.467536
443.000000	0.469105
444.000000	0.470617
445.000000	0.472164
446.000000	0.473699
447.000000	0.475180
448.000000	0.476706
449.000000	0.478253
450.000000	0.479828
451.000000	0.481524
452.000000	0.483253
453.000000	0.484949
454.000000	0.486714
455.000000	0.488530
456.000000	0.490395
457.000000	0.492229
458.000000	0.494102
459.000000	0.495956
460.000000	0.497845
461.000000	0.499811
462.000000	0.501826
463.000000	0.503939
464.000000	0.506158
465.000000	0.508332
466.000000	0.510448
467.000000	0.512597
468.000000	0.514833
469.000000	0.517220
470.000000	0.519683
471.000000	0.522211
472.000000	0.524864
473.000000	0.527585
474.000000	0.530332
475.000000	0.533164
476.000000	0.536058
477.000000	0.538960
478.000000	0.541942
479.000000	0.545052
480.000000	0.548282
481.000000	0.551714
482.000000	0.555342
483.000000	0.558979
484.000000	0.562740
485.000000	0.566442
486.000000	0.570256
487.000000	0.574221
488.000000	0.578490
489.000000	0.582863
490.000000	0.587391
491.000000	0.591952
492.000000	0.596708
493.000000	0.601618
494.000000	0.606806
495.000000	0.612274
496.000000	0.617778
497.000000	0.623422
498.000000	0.629240
499.000000	0.635322
500.000000	0.641580
501.000000	0.648006
502.000000	0.654693
503.000000	0.661736
504.000000	0.668944
505.000000	0.676440
506.000000	0.684286
507.000000	0.692383
508.000000	0.700740
509.000000	0.709482
510.000000	0.718488
511.000000	0.727763
512.000000	0.737405
513.000000	0.747439
514.000000	0.757848
515.000000	0.768724
516.000000	0.779775
517.000000	0.791219
518.000000	0.803033
519.000000	0.815109
520.000000	0.827638
521.000000	0.840587
522.000000	0.853852
523.000000	0.867367
524.000000	0.881255
525.000000	0.895491
526.000000	0.910132
527.000000	0.925097
528.000000	0.940445
529.000000	0.956055
530.000000	0.971833
531.000000	0.988093
532.000000	1.004627
533.000000	1.021490
534.000000	1.038556
535.000000	1.055956
536.000000	1.073623
537.000000	1.091495
538.000000	1.109469
539.000000	1.127722
540.000000	1.146134
541.000000	1.164749
542.000000	1.183473
543.000000	1.202377
544.000000	1.221469
545.000000	1.240698
546.000000	1.260240
547.000000	1.279766
548.000000	1.299358
549.000000	1.319155
550.000000	1.338799
551.000000	1.358583
552.000000	1.378417
553.000000	1.398393
554.000000	1.418522
555.000000	1.438716
556.000000	1.458801
557.000000	1.478965
558.000000	1.499153
559.000000	1.519402
560.000000	1.539664
561.000000	1.559936
562.000000	1.580290
563.000000	1.600587
564.000000	1.621002
565.000000	1.641476
566.000000	1.661839
567.000000	1.682265
568.000000	1.702584
569.000000	1.722868
570.000000	1.743050
571.000000	1.763423
572.000000	1.783575
573.000000	1.803841
574.000000	1.824080
575.000000	1.844195
576.000000	1.864081
577.000000	1.883946
578.000000	1.903872
579.000000	1.923531
580.000000	1.943075
581.000000	1.962326
582.000000	1.981639
583.000000	2.000645
584.000000	2.019503
585.000000	2.038219
586.000000	2.056890
587.000000	2.075134
588.000000	2.093262
589.000000	2.111086
590.000000	2.128659
591.000000	2.146045
592.000000	2.163185
593.000000	2.180082
594.000000	2.196702
595.000000	2.213147
596.000000	2.229336
597.000000	2.245301
598.000000	2.261030
599.000000	2.276396
600.000000	2.291415
601.000000	2.306370
602.000000	2.320960
603.000000	2.335393
604.000000	2.349621
605.000000	2.363614
606.000000	2.377317
607.000000	2.391020
608.000000	2.404359
609.000000	2.417486
610.000000	2.430365
611.000000	2.443174
612.000000	2.455806
613.000000	2.468244
614.000000	2.480727
615.000000	2.493202
616.000000	2.505590
617.000000	2.517756
618.000000	2.529948
619.000000	2.541825
620.000000	2.553675
621.000000	2.565398
622.000000	2.577241
623.000000	2.588787
624.000000	2.600308
625.000000	2.611891
626.000000	2.623516
627.000000	2.634937
628.000000	2.646328
629.000000	2.657620
630.000000	2.668673
631.000000	2.679652
632.000000	2.690501
633.000000	2.701285
634.000000	2.711890
635.000000	2.722488
636.000000	2.732874
637.000000	2.743227
638.000000	2.753538
639.000000	2.763453
640.000000	2.773336
641.000000	2.783025
642.000000	2.792537
643.000000	2.801935
644.000000	2.811101
645.000000	2.820327
646.000000	2.829432
647.000000	2.838295
648.000000	2.846946
649.000000	2.855569
650.000000	2.864120
651.000000	2.872721
652.000000	2.881391
653.000000	2.890080
654.000000	2.899114
655.000000	2.908256
656.000000	2.917495
657.000000	2.926870
658.000000	2.936648
659.000000	2.946788
660.000000	2.957430
661.000000	2.968274
662.000000	2.979769
663.000000	2.991850
664.000000	3.004627
665.000000	3.018468
666.000000	3.033103
667.000000	3.048675
668.000000	3.065230
669.000000	3.082944
670.000000	3.101853
671.000000	3.121879
672.000000	3.143405
673.000000	3.166429
674.000000	3.191237
675.000000	3.217684
676.000000	3.246005
677.000000	3.276243
678.000000	3.308426
679.000000	3.342901
680.000000	3.379818
681.000000	3.419066
682.000000	3.461030
683.000000	3.505674
684.000000	3.552843
685.000000	3.602885
686.000000	3.655608
687.000000	3.711160
688.000000	3.769746
689.000000	3.831280
690.000000	3.895767
691.000000	3.963090
692.000000	4.033572
693.000000	4.107144
694.000000	4.183582
695.000000	4.262589
696.000000	4.344369
697.000000	4.428687
698.000000	4.515282
699.000000	4.604195
700.000000	4.695327
701.000000	4.788752
702.000000	4.883919
703.000000	4.980888
704.000000	5.079527
705.000000	5.179649
706.000000	5.281070
707.000000	5.383142
708.000000	5.486017
709.000000	5.589695
710.000000	5.693704
711.000000	5.797890
712.000000	5.902549
713.000000	6.007687
714.000000	6.112371
715.000000	6.216260
716.000000	6.319600
717.000000	6.421934
718.000000	6.523112
719.000000	6.623425
720.000000	6.722558
721.000000	6.820369
722.000000	6.916532
723.000000	7.010935
724.000000	7.103589
725.000000	7.194345
726.000000	7.283368
727.000000	7.370433
728.000000	7.455145
729.000000	7.537623
730.000000	7.618009
731.000000	7.696555
732.000000	7.773067
733.000000	7.848101
734.000000	7.921401
735.000000	7.992149
736.000000	8.060741
737.000000	8.127779
738.000000	8.193225
739.000000	8.257179
740.000000	8.319509
741.000000	8.380422
742.000000	8.440171
743.000000	8.498428
744.000000	8.555250
745.000000	8.611322
746.000000	8.666157
747.000000	8.719740
748.000000	8.772337
749.000000	8.823631
750.000000	8.873794
751.000000	8.923587
752.000000	8.972743
753.000000	9.021363
754.000000	9.068895
755.000000	9.115904
756.000000	9.162665
757.000000	9.208533
758.000000	9.253697
759.000000	9.298260
760.000000	9.342512
761.000000	9.386798
762.000000	9.430292
763.000000	9.473790
764.000000	9.517084
765.000000	9.560111
766.000000	9.602347
767.000000	9.644501
768.000000	9.685702
769.000000	9.726422
770.000000	9.767416
771.000000	9.808663
772.000000	9.849721
773.000000	9.890463
774.000000	9.930443
775.000000	9.970019
776.000000	10.009878
777.000000	10.049566
778.000000	10.089283
779.000000	10.128980
780.000000	10.167902
781.000000	10.206622
782.000000	10.245494
783.000000	10.283528
784.000000	10.321977
785.000000	10.360195
786.000000	10.398126
787.000000	10.436166
788.000000	10.473624
789.000000	10.511435
790.000000	10.548438
791.000000	10.585060
792.000000	10.621791
793.000000	10.659104
794.000000	10.695898
795.000000	10.732746
796.000000	10.768405
797.000000	10.804275
798.000000	10.839466
799.000000	10.875593
800.000000	10.911918
801.000000	10.947588
802.000000	10.982331
803.000000	11.017080
804.000000	11.052024
805.000000	11.087068
806.000000	11.120990
807.000000	11.154842
808.000000	11.189190
809.000000	11.223186
810.000000	11.257434
811.000000	11.291184
812.000000	11.324928
813.000000	11.357611
814.000000	11.390235
815.000000	11.422693
816.000000	11.455977
817.000000	11.488130
818.000000	11.521149
819.000000	11.553634
820.000000	11.585837
821.000000	11.617885
822.000000	11.649239
823.000000	11.681440
824.000000	11.712418
825.000000	11.744345
826.000000	11.776758
827.000000	11.808374
828.000000	11.839159
829.000000	11.871668
830.000000	11.902070
831.000000	11.933621
832.000000	11.964436
833.000000	11.996128
834.000000	12.026483
835.000000	12.055793
836.000000	12.085648
837.000000	12.116592
838.000000	12.147523
839.000000	12.177260
840.000000	12.207141
841.000000	12.237155
842.000000	12.267163
843.000000	12.295461
844.000000	12.324662
845.000000	12.354204
846.000000	12.381884
847.000000	12.412314
848.000000	12.440377
849.000000	12.469026
850.000000	12.499123
851.000000	12.527451
852.000000	12.557269
853.000000	12.586346
854.000000	12.614891
855.000000	12.645779
856.000000	12.674034
857.000000	12.705552
858.000000	12.751840
859.000000	12.791378
860.000000	12.822624
861.000000	12.860944
862.000000	12.904271
863.000000	12.948644
864.000000	12.975359
865.000000	13.023387
866.000000	13.065740
867.000000	13.094752
868.000000	13.131880
869.000000	13.170792
870.000000	13.212818
871.000000	13.234237
872.000000	13.303105
873.000000	13.348482
874.000000	13.399537
875.000000	13.411466
876.000000	13.451700
877.000000	13.494138
878.000000	13.538307
879.000000	13.568976
880.000000	13.616567
881.000000	13.659019
882.000000	13.686518
883.000000	13.725652
884.000000	13.749333
885.000000	13.773131
886.000000	13.803143
887.000000	13.846237
888.000000	13.890572
889.000000	13.934048
890.000000	13.967885
891.000000	14.017586
892.000000	14.029677
893.000000	14.049082
894.000000	14.090674
895.000000	14.115967
896.000000	14.135983
897.000000	14.152857
898.000000	14.178013
899.000000	14.216402
900.000000	14.221767
901.000000	14.240686
902.000000	14.267863
903.000000	14.268659
904.000000	14.290202
905.000000	14.305562
906.000000	14.339862
907.000000	14.321144
908.000000	14.325928
909.000000	14.338316
910.000000	14.387461
911.000000	14.412766
912.000000	14.440122
913.000000	14.456155
914.000000	14.491212
915.000000	14.522731
916.000000	14.527576
917.000000	14.549724
918.000000	14.554088
919.000000	14.592171
920.000000	14.616605
921.000000	14.625906
922.000000	14.653291
923.000000	14.658487
924.000000	14.667268
925.000000	14.686930
926.000000	14.686264
927.000000	14.730019
928.000000	14.735423
929.000000	14.726308
930.000000	14.736341
931.000000	14.759666
932.000000	14.795301
933.000000	14.797113
934.000000	14.811511
935.000000	14.846459
936.000000	14.862970
937.000000	14.882905
938.000000	14.925338
939.000000	14.950052
940.000000	14.963159
941.000000	14.975291
942.000000	14.996624
943.000000	15.021330
944.000000	15.026748
945.000000	15.034654
946.000000	15.050902
947.000000	15.078135
948.000000	15.101865
949.000000	15.109660
950.000000	15.099817
951.000000	15.118091
952.000000	15.131716
953.000000	15.177105
954.000000	15.188309
955.000000	15.203374
956.000000	15.232551
957.000000	15.232439
958.000000	15.242083
959.000000	15.247945
960.000000	15.253649
961.000000	15.274864
962.000000	15.287269
963.000000	15.306453
964.000000	15.334885
965.000000	15.370895
966.000000	15.383488
967.000000	15.384562
968.000000	15.412540
969.000000	15.417317
970.000000	15.424326
971.000000	15.455436
972.000000	15.492114
973.000000	15.498999
974.000000	15.502774
975.000000	15.526420
976.000000	15.538543
977.000000	15.542550
978.000000	15.544722
979.000000	15.556607
980.000000	15.576369
981.000000	15.578503
982.000000	15.579820
983.000000	15.596464
984.000000	15.612295
985.000000	15.633098
986.000000	15.649082
987.000000	15.658068
988.000000	15.643263
989.000000	15.662179
990.000000	15.684298
991.000000	15.701887
992.000000	15.713976
993.000000	15.736121
994.000000	15.775242
995.000000	15.809692
996.000000	15.816472
997.000000	15.816789
998.000000	15.836127
999.000000	15.850044
1000.000000	15.858142
1001.000000	15.872324
1002.000000	15.894013
1003.000000	15.921043
1004.000000	15.941461
1005.000000	15.956491
1006.000000	15.986171
1007.000000	16.008199
1008.000000	16.034774
1009.000000	16.051459
1010.000000	16.065927
1011.000000	16.078567
1012.000000	16.098528
1013.000000	16.130418
1014.000000	16.155855
1015.000000	16.175532
1016.000000	16.205662
1017.000000	16.219491
1018.000000	16.230642
1019.000000	16.247646
1020.000000	16.249408
1021.000000	16.275462
1022.000000	16.308826
1023.000000	16.343444
1024.000000	16.372493
1025.000000	16.396379
1026.000000	16.422973
1027.000000	16.446595
1028.000000	16.467693
1029.000000	16.474398
1030.000000	16.487739
1031.000000	16.516406
1032.000000	16.544143
1033.000000	16.583175
1034.000000	16.613967
1035.000000	16.638508
1036.000000	16.663791
1037.000000	16.680497
1038.000000	16.682518
1039.000000	16.711786
1040.000000	16.737652
1041.000000	16.732169
1042.000000	16.721873
1043.000000	16.751873
1044.000000	16.799294
1045.000000	16.821921
1046.000000	16.845246
1047.000000	16.873929
1048.000000	16.886373
1049.000000	16.887693
1050.000000	16.892580
1051.000000	16.898821
1052.000000	16.911540
1053.000000	16.925336
1054.000000	16.947223
1055.000000	16.982710
1056.000000	16.996382
1057.000000	17.021762
1058.000000	17.042701
1059.000000	17.045357
1060.000000	17.062230
1061.000000	17.069567
1062.000000	17.069158
1063.000000	17.087222
1064.000000	17.097683
1065.000000	17.111716
1066.000000	17.109332
1067.000000	17.114113
1068.000000	17.117746
1069.000000	17.129324
1070.000000	17.142525
1071.000000	17.146079
1072.000000	17.150216
1073.000000	17.162562
1074.000000	17.168061
1075.000000	17.172310
1076.000000	17.189802
1077.000000	17.210659
1078.000000	17.206397
1079.000000	17.199510
1080.000000	17.202821
1081.000000	17.217951
1082.000000	17.232983
1083.000000	17.262765
1084.000000	17.298496
1085.000000	17.338733
1086.000000	17.363281
1087.000000	17.358851
1088.000000	17.368241
1089.000000	17.367927
1090.000000	17.382888
1091.000000	17.415191
1092.000000	17.435447
1093.000000	17.461304
1094.000000	17.466824
1095.000000	17.462128
1096.000000	17.481324
1097.000000	17.538977
1098.000000	17.547863
1099.000000	17.585006
1100.000000	17.621153
1101.000000	17.657045
1102.000000	17.683517
1103.000000	17.692717
1104.000000	17.693615
1105.000000	17.689313
1106.000000	17.708316
1107.000000	17.737525
1108.000000	17.752031
1109.000000	17.770539
1110.000000	17.786213
1111.000000	17.809120
1112.000000	17.807522
1113.000000	17.813694
1114.000000	17.832491
1115.000000	17.856119
1116.000000	17.884844
1117.000000	17.919823
1118.000000	17.921726
1119.000000	17.915763
1120.000000	17.922835
1121.000000	17.932756
1122.000000	17.953977
1123.000000	18.013043
1124.000000	18.027439
1125.000000	18.051688
1126.000000	18.026539
1127.000000	18.027454
1128.000000	18.025313
1129.000000	18.057796
1130.000000	18.102586
1131.000000	18.104418
1132.000000	18.078625
1133.000000	18.070469
1134.000000	18.083106
1135.000000	18.077773
1136.000000	18.075237
1137.000000	18.087536
1138.000000	18.093242
1139.000000	18.107245
1140.000000	18.144762
1141.000000	18.189531
1142.000000	18.176084
1143.000000	18.207529
1144.000000	18.234108
1145.000000	18.268055
1146.000000	18.272144
1147.000000	18.284559
1148.000000	18.321407
1149.000000	18.337941
1150.000000	18.371412
1151.000000	18.399379
1152.000000	18.394047
1153.000000	18.386060
1154.000000	18.419155
1155.000000	18.420931
1156.000000	18.460708
1157.000000	18.488484
1158.000000	18.453838
1159.000000	18.484674
1160.000000	18.475525
1161.000000	18.504616
1162.000000	18.497368
1163.000000	18.515264
1164.000000	18.516051
1165.000000	18.497745
1166.000000	18.520028
1167.000000	18.544586
1168.000000	18.583651
1169.000000	18.578105
1170.000000	18.572216
1171.000000	18.584833
1172.000000	18.605655
1173.000000	18.616394
1174.000000	18.601265
1175.000000	18.582911
1176.000000	18.538686
1177.000000	18.546366
1178.000000	18.545418
1179.000000	18.540564
1180.000000	18.510514
1181.000000	18.502106
1182.000000	18.512771
1183.000000	18.497115
1184.000000	18.499054
1185.000000	18.483638
1186.000000	18.449741
1187.000000	18.439580
1188.000000	18.465710
1189.000000	18.466381
1190.000000	18.482950
1191.000000	18.461680
1192.000000	18.459076
1193.000000	18.456527
1194.000000	18.455175
1195.000000	18.465827
1196.000000	18.474386
1197.000000	18.509558
1198.000000	18.519845
1199.000000	18.532777
1200.000000	18.567298
1201.000000	18.569483
1202.000000	18.565689
1203.000000	18.564636
1204.000000	18.587203
1205.000000	18.620266
1206.000000	18.627685
1207.000000	18.635372
1208.000000	18.666172
1209.000000	18.708703
1210.000000	18.741847
1211.000000	18.771214
1212.000000	18.812119
1213.000000	18.807689
1214.000000	18.795086
1215.000000	18.821719
1216.000000	18.856683
1217.000000	18.900383
1218.000000	18.950339
1219.000000	18.967810
1220.000000	18.992878
1221.000000	19.032836
1222.000000	19.075579
1223.000000	19.089014
1224.000000	19.115873
1225.000000	19.124942
1226.000000	19.130904
1227.000000	19.145200
1228.000000	19.174867
1229.000000	19.192131
1230.000000	19.201560
1231.000000	19.212086
1232.000000	19.210164
1233.000000	19.203381
1234.000000	19.200613
1235.000000	19.200058
1236.000000	19.225644
1237.000000	19.253923
1238.000000	19.266292
1239.000000	19.265374
1240.000000	19.258877
1241.000000	19.279680
1242.000000	19.286551
1243.000000	19.278225
1244.000000	19.273050
1245.000000	19.276020
1246.000000	19.311864
1247.000000	19.325155
1248.000000	19.342516
1249.000000	19.372872
1250.000000	19.377862
1251.000000	19.367980
1252.000000	19.358053
1253.000000	19.348060
1254.000000	19.370296
1255.000000	19.398778
1256.000000	19.422162
1257.000000	19.428615
1258.000000	19.450670
1259.000000	19.456841
1260.000000	19.481850
1261.000000	19.526527
1262.000000	19.565783
1263.000000	19.593720
1264.000000	19.604000
1265.000000	19.618104
1266.000000	19.640989
1267.000000	19.659650
1268.000000	19.673945
1269.000000	19.692198
1270.000000	19.702403
1271.000000	19.715050
1272.000000	19.742075
1273.000000	19.768940
1274.000000	19.782150
1275.000000	19.815767
1276.000000	19.829751
1277.000000	19.830625
1278.000000	19.842710
1279.000000	19.871609
1280.000000	19.898417
1281.000000	19.900520
1282.000000	19.906657
1283.000000	19.938737
1284.000000	19.973050
1285.000000	20.011798
1286.000000	20.045619
1287.000000	20.072626
1288.000000	20.087183
1289.000000	20.082955
1290.000000	20.067667
1291.000000	20.078915
1292.000000	20.093632
1293.000000	20.107547
1294.000000	20.131804
1295.000000	20.140884
1296.000000	20.133139
1297.000000	20.126336
1298.000000	20.127784
1299.000000	20.154503
1300.000000	20.180329
1301.000000	20.194218
1302.000000	20.201341
1303.000000	20.216246
1304.000000	20.228772
1305.000000	20.253222
1306.000000	20.256588
1307.000000	20.249326
1308.000000	20.260980
1309.000000	20.292340
1310.000000	20.301419
1311.000000	20.318397
1312.000000	20.342646
1313.000000	20.351542
1314.000000	20.349395
1315.000000	20.362317
1316.000000	20.360354
1317.000000	20.363924
1318.000000	20.356539
1319.000000	20.347567
1320.000000	20.364253
1321.000000	20.375215
1322.000000	20.382592
1323.000000	20.388541
1324.000000	20.396917
1325.000000	20.419421
1326.000000	20.429500
1327.000000	20.430543
1328.000000	20.421304
1329.000000	20.409628
1330.000000	20.419319
1331.000000	20.437588
1332.000000	20.456403
1333.000000	20.465800
1334.000000	20.455999
1335.000000	20.467740
1336.000000	20.486996
1337.000000	20.491196
1338.000000	20.488636
1339.000000	20.505375
1340.000000	20.510978
1341.000000	20.518081
1342.000000	20.512901
1343.000000	20.525167
1344.000000	20.523676
1345.000000	20.527966
1346.000000	20.519305
1347.000000	20.519503
1348.000000	20.541740
1349.000000	20.560616
1350.000000	20.553172
1351.000000	20.526412
1352.000000	20.493623
1353.000000	20.494774
1354.000000	20.553054
1355.000000	20.566023
1356.000000	20.615002
1357.000000	20.614003
1358.000000	20.621586
1359.000000	20.629668
1360.000000	20.701380
1361.000000	20.672845
1362.000000	20.515633
1363.000000	20.489263
1364.000000	20.455783
1365.000000	20.384411
1366.000000	20.436182
1367.000000	20.533888
1368.000000	20.527327
1369.000000	20.543319
1370.000000	20.610204
1371.000000	20.609917
1372.000000	20.591231
1373.000000	20.573975
1374.000000	20.576109
1375.000000	20.510541
1376.000000	20.438950
1377.000000	20.397492
1378.000000	20.416608
1379.000000	20.357994
1380.000000	20.007273
1381.000000	19.961427
1382.000000	20.000963
1383.000000	20.023161
1384.000000	20.078612
1385.000000	20.083639
1386.000000	20.109768
1387.000000	20.237258
1388.000000	20.209462
1389.000000	20.165638
1390.000000	20.129650
1391.000000	20.136602
1392.000000	20.050712
1393.000000	20.045743
1394.000000	20.066360
1395.000000	19.992980
1396.000000	19.852535
1397.000000	19.920496
1398.000000	19.908503
1399.000000	19.997621
1400.000000	20.099118
1401.000000	20.017882
1402.000000	19.886933
1403.000000	19.857803
1404.000000	19.852759
1405.000000	19.725796
1406.000000	19.722481
1407.000000	19.718128
1408.000000	19.760505
1409.000000	19.742338
1410.000000	19.783256
1411.000000	19.815419
1412.000000	19.844803
1413.000000	19.786514
1414.000000	19.839019
1415.000000	20.149113
1416.000000	20.169556
1417.000000	20.112658
1418.000000	20.076308
1419.000000	19.992077
1420.000000	19.984579
1421.000000	19.974935
1422.000000	19.869318
1423.000000	19.858745
1424.000000	19.822957
1425.000000	19.807869
1426.000000	19.713555
1427.000000	19.761400
1428.000000	19.727213
1429.000000	19.689746
1430.000000	19.658819
1431.000000	19.793283
1432.000000	19.843593
1433.000000	19.873004
1434.000000	19.769366
1435.000000	19.699787
1436.000000	19.689101
1437.000000	19.715357
1438.000000	19.718586
1439.000000	19.669188
1440.000000	19.673283
1441.000000	19.634903
1442.000000	19.639977
1443.000000	19.586595
1444.000000	19.559661
1445.000000	19.604620
1446.000000	19.620192
1447.000000	19.598998
1448.000000	19.588415
1449.000000	19.553952
1450.000000	19.567270
1451.000000	19.571592
1452.000000	19.572906
1453.000000	19.553599
1454.000000	19.553039
1455.000000	19.521700
1456.000000	19.501894
1457.000000	19.486260
1458.000000	19.508443
1459.000000	19.481989
1460.000000	19.465800
1461.000000	19.456298
1462.000000	19.453521
1463.000000	19.439302
1464.000000	19.405085
1465.000000	19.407577
1466.000000	19.402543
1467.000000	19.409029
1468.000000	19.396441
1469.000000	19.440702
1470.000000	19.460894
1471.000000	19.446656
1472.000000	19.414876
1473.000000	19.405982
1474.000000	19.406967
1475.000000	19.410266
1476.000000	19.394834
1477.000000	19.378200
1478.000000	19.387441
1479.000000	19.404386
1480.000000	19.349773
1481.000000	19.348951
1482.000000	19.374672
1483.000000	19.398783
1484.000000	19.383754
1485.000000	19.360826
1486.000000	19.360544
1487.000000	19.352679
1488.000000	19.344438
1489.000000	19.345224
1490.000000	19.345512
1491.000000	19.352203
1492.000000	19.348225
1493.000000	19.349133
1494.000000	19.392579
1495.000000	19.411723
1496.000000	19.423468
1497.000000	19.434348
1498.000000	19.467517
1499.000000	19.483084
1500.000000	19.473502
1501.000000	19.479063
1502.000000	19.482798
1503.000000	19.493916
1504.000000	19.487095
1505.000000	19.475596
1506.000000	19.501475
1507.000000	19.513739
1508.000000	19.537353
1509.000000	19.553479
1510.000000	19.577740
1511.000000	19.610289
1512.000000	19.635059
1513.000000	19.659331
1514.000000	19.684986
1515.000000	19.703605
1516.000000	19.722535
1517.000000	19.729464
1518.000000	19.715518
1519.000000	19.749556
1520.000000	19.790424
1521.000000	19.816253
1522.000000	19.836163
1523.000000	19.864774
1524.000000	19.892006
1525.000000	19.930730
1526.000000	19.968455
1527.000000	20.009231
1528.000000	20.020119
1529.000000	20.016352
1530.000000	20.029149
1531.000000	20.046137
1532.000000	20.067241
1533.000000	20.072661
1534.000000	20.092083
1535.000000	20.127367
1536.000000	20.165434
1537.000000	20.200677
1538.000000	20.227549
1539.000000	20.251709
1540.000000	20.276454
1541.000000	20.294325
1542.000000	20.315301
1543.000000	20.339999
1544.000000	20.363848
1545.000000	20.393505
1546.000000	20.428666
1547.000000	20.460729
1548.000000	20.491111
1549.000000	20.512488
1550.000000	20.545700
1551.000000	20.575950
1552.000000	20.614138
1553.000000	20.668419
1554.000000	20.687136
1555.000000	20.707352
1556.000000	20.734331
1557.000000	20.772785
1558.000000	20.821147
1559.000000	20.858744
1560.000000	20.893767
1561.000000	20.922968
1562.000000	20.951223
1563.000000	20.987574
1564.000000	21.030774
1565.000000	21.060633
1566.000000	21.093626
1567.000000	21.122061
1568.000000	21.152915
1569.000000	21.200354
1570.000000	21.223244
1571.000000	21.233362
1572.000000	21.247245
1573.000000	21.266017
1574.000000	21.293528
1575.000000	21.341650
1576.000000	21.384718
1577.000000	21.408287
1578.000000	21.436356
1579.000000	21.462416
1580.000000	21.487140
1581.000000	21.515092
1582.000000	21.546554
1583.000000	21.576151
1584.000000	21.586252
1585.000000	21.588217
1586.000000	21.617356
1587.000000	21.632373
1588.000000	21.663657
1589.000000	21.714661
1590.000000	21.751898
1591.000000	21.770113
1592.000000	21.797254
1593.000000	21.806541
1594.000000	21.820323
1595.000000	21.841979
1596.000000	21.857942
1597.000000	21.864826
1598.000000	21.900416
1599.000000	21.929628
1600.000000	21.944355
1601.000000	21.975811
1602.000000	22.009723
1603.000000	22.034528
1604.000000	22.033979
1605.000000	22.072149
1606.000000	22.100977
1607.000000	22.132576
1608.000000	22.171995
1609.000000	22.175733
1610.000000	22.194419
1611.000000	22.192177
1612.000000	22.225699
1613.000000	22.234068
1614.000000	22.289072
1615.000000	22.328293
1616.000000	22.335351
1617.000000	22.355083
1618.000000	22.362234
1619.000000	22.396492
1620.000000	22.450974
1621.000000	22.468807
1622.000000	22.497621
1623.000000	22.523145
1624.000000	22.548727
1625.000000	22.568877
1626.000000	22.592061
1627.000000	22.597907
1628.000000	22.633905
1629.000000	22.661385
1630.000000	22.667551
1631.000000	22.704728
1632.000000	22.752629
1633.000000	22.808300
1634.000000	22.827350
1635.000000	22.858458
1636.000000	22.873863
1637.000000	22.878140
1638.000000	22.905713
1639.000000	22.919511
1640.000000	22.917505
1641.000000	22.906474
1642.000000	22.935762
1643.000000	22.971205
1644.000000	23.021594
1645.000000	23.038501
1646.000000	23.072117
1647.000000	23.094939
1648.000000	23.138024
1649.000000	23.142509
1650.000000	23.146800
1651.000000	23.172015
1652.000000	23.200042
1653.000000	23.230298
1654.000000	23.242590
1655.000000	23.244857
1656.000000	23.278969
1657.000000	23.300579
1658.000000	23.294824
1659.000000	23.291115
1660.000000	23.304780
1661.000000	23.328402
1662.000000	23.366618
1663.000000	23.358214
1664.000000	23.373624
1665.000000	23.386022
1666.000000	23.388169
1667.000000	23.383533
1668.000000	23.350031
1669.000000	23.362729
1670.000000	23.393468
1671.000000	23.398903
1672.000000	23.433303
1673.000000	23.437353
1674.000000	23.460911
1675.000000	23.484838
1676.000000	23.499396
1677.000000	23.489499
1678.000000	23.451320
1679.000000	23.445781
1680.000000	23.422222
1681.000000	23.431641
1682.000000	23.421494
1683.000000	23.432679
1684.000000	23.421767
1685.000000	23.412351
1686.000000	23.419292
1687.000000	23.378435
1688.000000	23.384117
1689.000000	23.402764
1690.000000	23.407390
1691.000000	23.397524
1692.000000	23.400728
1693.000000	23.410209
1694.000000	23.408804
1695.000000	23.397776
1696.000000	23.411422
1697.000000	23.401807
1698.000000	23.395552
1699.000000	23.381969
1700.000000	23.388386
1701.000000	23.378129
1702.000000	23.387925
1703.000000	23.388604
1704.000000	23.403281
1705.000000	23.394766
1706.000000	23.420947
1707.000000	23.422224
1708.000000	23.420502
1709.000000	23.430256
1710.000000	23.432086
1711.000000	23.457889
1712.000000	23.474782
1713.000000	23.506270
1714.000000	23.512396
1715.000000	23.519068
1716.000000	23.539848
1717.000000	23.552559
1718.000000	23.532140
1719.000000	23.538768
1720.000000	23.531023
1721.000000	23.516326
1722.000000	23.531679
1723.000000	23.525153
1724.000000	23.506698
1725.000000	23.495120
1726.000000	23.473959
1727.000000	23.459454
1728.000000	23.455974
1729.000000	23.452143
1730.000000	23.448473
1731.000000	23.405854
1732.000000	23.418842
1733.000000	23.438720
1734.000000	23.443478
1735.000000	23.446119
1736.000000	23.459423
1737.000000	23.461311
1738.000000	23.477273
1739.000000	23.468850
1740.000000	23.478181
1741.000000	23.463554
1742.000000	23.468619
1743.000000	23.488200
1744.000000	23.502205
1745.000000	23.507431
1746.000000	23.515785
1747.000000	23.529019
1748.000000	23.552800
1749.000000	23.584937
1750.000000	23.631589
1751.000000	23.632236
1752.000000	23.659951
1753.000000	23.695111
1754.000000	23.730437
1755.000000	23.769312
1756.000000	23.807589
1757.000000	23.878056
1758.000000	23.912586
1759.000000	23.940076
1760.000000	23.974612
1761.000000	24.025462
1762.000000	24.070245
1763.000000	24.099512
1764.000000	24.154434
1765.000000	24.185362
1766.000000	24.230545
1767.000000	24.244184
1768.000000	24.264059
1769.000000	24.292129
1770.000000	24.327079
1771.000000	24.379496
1772.000000	24.422482
1773.000000	24.441240
1774.000000	24.479995
1775.000000	24.502475
1776.000000	24.537288
1777.000000	24.550588
1778.000000	24.578516
1779.000000	24.616005
1780.000000	24.665250
1781.000000	24.696368
1782.000000	24.708760
1783.000000	24.718936
1784.000000	24.726359
1785.000000	24.734054
1786.000000	24.760443
1787.000000	24.782897
1788.000000	24.797225
1789.000000	24.816040
1790.000000	24.845984
1791.000000	24.860101
1792.000000	24.858439
1793.000000	24.883915
1794.000000	24.911997
1795.000000	24.923944
1796.000000	24.928478
1797.000000	24.951610
1798.000000	24.994931
1799.000000	25.011011
1800.000000	25.044761
1801.000000	25.100881
1802.000000	25.132321
1803.000000	25.155504
1804.000000	25.188330
1805.000000	25.226464
1806.000000	25.240919
1807.000000	25.242738
1808.000000	25.259221
1809.000000	25.260582
1810.000000	25.269191
1811.000000	25.337011
1812.000000	25.436406
1813.000000	25.482448
1814.000000	25.490002
1815.000000	25.484799
1816.000000	25.543132
1817.000000	25.734239
1818.000000	25.846745
1819.000000	25.919882
1820.000000	25.988598
1821.000000	26.002898
1822.000000	26.020502
1823.000000	26.052918
1824.000000	26.073207
1825.000000	26.190971
1826.000000	26.278582
1827.000000	26.311777
1828.000000	26.332323
1829.000000	26.358825
1830.000000	26.419531
1831.000000	26.468309
1832.000000	26.480308
1833.000000	26.479037
1834.000000	26.522356
1835.000000	26.615317
1836.000000	26.655304
1837.000000	26.659170
1838.000000	26.630968
1839.000000	26.470211
1840.000000	26.360030
1841.000000	26.395315
1842.000000	26.438195
1843.000000	26.484294
1844.000000	26.556509
1845.000000	26.595690
1846.000000	26.627152
1847.000000	26.709133
1848.000000	26.739858
1849.000000	26.754182
1850.000000	26.725786
1851.000000	26.701295
1852.000000	26.583186
1853.000000	26.556957
1854.000000	26.545339
1855.000000	26.552386
1856.000000	26.540838
1857.000000	26.524623
1858.000000	26.537130
1859.000000	26.542940
1860.000000	26.449736
1861.000000	26.405276
1862.000000	26.427427
1863.000000	26.611331
1864.000000	26.759690
1865.000000	26.807056
1866.000000	26.801189
1867.000000	26.734055
1868.000000	26.728987
1869.000000	26.727844
1870.000000	26.803762
1871.000000	26.801696
1872.000000	26.951183
1873.000000	27.031582
1874.000000	27.217193
1875.000000	27.329890
1876.000000	27.436597
1877.000000	27.459950
1878.000000	27.441119
1879.000000	27.391592
1880.000000	27.408240
1881.000000	27.349656
1882.000000	27.209634
1883.000000	27.223767
1884.000000	27.215331
1885.000000	27.267199
1886.000000	27.263137
1887.000000	27.227649
1888.000000	27.150303
1889.000000	27.146858
1890.000000	27.063686
1891.000000	27.092175
1892.000000	27.071133
1893.000000	26.993363
1894.000000	26.936121
1895.000000	26.897424
1896.000000	26.848169
1897.000000	26.784574
1898.000000	26.533205
1899.000000	26.313982
1900.000000	26.153150
1901.000000	26.111877
1902.000000	26.390432
1903.000000	26.366659
1904.000000	26.265890
1905.000000	25.979517
1906.000000	25.851020
1907.000000	25.594391
1908.000000	25.431642
1909.000000	25.301909
1910.000000	25.140817
1911.000000	24.802305
1912.000000	24.582682
1913.000000	24.460664
1914.000000	24.305488
1915.000000	24.166784
1916.000000	23.932741
1917.000000	23.724467
1918.000000	23.477361
1919.000000	23.370495
1920.000000	23.256093
1921.000000	23.108171
1922.000000	22.959279
1923.000000	22.855442
1924.000000	22.632938
1925.000000	22.511747
1926.000000	22.374342
1927.000000	22.227280
1928.000000	22.136802
1929.000000	22.015053
1930.000000	21.933740
1931.000000	21.795014
1932.000000	21.657956
1933.000000	21.585703
1934.000000	21.481962
1935.000000	21.415225
1936.000000	21.284839
1937.000000	20.935341
1938.000000	20.836203
1939.000000	20.744622
1940.000000	20.721959
1941.000000	20.654285
1942.000000	20.620016
1943.000000	20.598475
1944.000000	20.584825
1945.000000	20.574194
1946.000000	20.622252
1947.000000	20.657825
1948.000000	20.633471
1949.000000	20.652479
1950.000000	20.612343
1951.000000	20.714718
1952.000000	20.788526
1953.000000	20.821195
1954.000000	20.805910
1955.000000	20.772463
1956.000000	20.789890
1957.000000	20.817617
1958.000000	20.837887
1959.000000	20.913855
1960.000000	20.957978
1961.000000	20.951297
1962.000000	21.026424
1963.000000	21.079956
1964.000000	21.143718
1965.000000	21.149527
1966.000000	21.219078
1967.000000	21.269759
1968.000000	21.300060
1969.000000	21.372235
1970.000000	21.412253
1971.000000	21.459723
1972.000000	21.515454
1973.000000	21.552009
1974.000000	21.634816
1975.000000	21.700276
1976.000000	21.776389
1977.000000	21.833121
1978.000000	21.904507
1979.000000	21.959774
1980.000000	22.052799
1981.000000	22.131731
1982.000000	22.187433
1983.000000	22.282193
1984.000000	22.365327
1985.000000	22.434769
1986.000000	22.486062
1987.000000	22.540933
1988.000000	22.635275
1989.000000	22.707346
1990.000000	22.804411
1991.000000	22.899358
1992.000000	22.975580
1993.000000	23.022343
1994.000000	23.081184
1995.000000	23.147696
1996.000000	23.233929
1997.000000	23.308089
1998.000000	23.370471
1999.000000	23.437490
2000.000000	23.500978
