PE UV       SUBTECH     SPECTRUM    ASCII       PEDS        4.00        
   -1
C.CHRY.MV84-TX3.ASC
23/11/29
15:25:22.00
23/11/29
15:25:22.00
Vinicio Soto Monge
C. CHRYSARGYREA #84 MV23
250,000000
1
Lambda 1050
1050L1511233
PerkinElmer UV WinLab 6.3.2.0749 / 2.02.05 Lambda 900 UV/VIS/NIR, Aug  7 2015 09:38:08

0
0
3350/servo 860,8/2
0
0
UV/VIS
1
1
1
DoubleDePol,CommonBeamDepol,RBeamAtt,SBeamAtt,60mm sphere, WB InGaAs Detector
0
0
0
0
Program
Program
3350/servo 860,8/2
3350/0,4 860,8/0,4
3350/0,4 860,8/0,4
0
20.00
 
 
 
0
 
860,8
319,2
860,8
Front
100
on
S:100 R:100
0
0
0
0
 
0
 
 
 
0
 
 
0
0
0
0
0
 
 
 
 
0
0


0
0
#HDR
-1
-1
#GR
nm
%T
1.0
0.0
2200,000000
-1,000000
1951
8
82,444112
0,255158
#DATA
284.000000	0.233663
285.000000	0.234523
286.000000	0.234988
287.000000	0.235835
288.000000	0.236621
289.000000	0.237485
290.000000	0.238867
291.000000	0.239484
292.000000	0.240196
293.000000	0.240856
294.000000	0.241587
295.000000	0.242425
296.000000	0.243319
297.000000	0.243850
298.000000	0.244274
299.000000	0.244522
300.000000	0.244864
301.000000	0.246199
302.000000	0.246571
303.000000	0.246824
304.000000	0.247174
305.000000	0.248465
306.000000	0.249840
307.000000	0.250190
308.000000	0.251010
309.000000	0.251929
310.000000	0.252389
311.000000	0.253153
312.000000	0.253850
313.000000	0.254539
314.000000	0.255170
315.000000	0.256119
316.000000	0.256515
317.000000	0.256755
318.000000	0.258231
319.000000	0.259372
320.000000	0.261552
321.000000	0.264411
322.000000	0.265374
323.000000	0.267211
324.000000	0.268878
325.000000	0.270165
326.000000	0.271079
327.000000	0.272628
328.000000	0.276379
329.000000	0.278882
330.000000	0.281574
331.000000	0.283694
332.000000	0.286009
333.000000	0.287550
334.000000	0.289584
335.000000	0.292036
336.000000	0.294029
337.000000	0.295741
338.000000	0.298063
339.000000	0.300593
340.000000	0.302736
341.000000	0.304392
342.000000	0.307081
343.000000	0.309324
344.000000	0.310973
345.000000	0.313040
346.000000	0.315644
347.000000	0.318173
348.000000	0.320509
349.000000	0.323146
350.000000	0.325435
351.000000	0.328283
352.000000	0.332120
353.000000	0.334211
354.000000	0.336755
355.000000	0.338100
356.000000	0.339071
357.000000	0.342478
358.000000	0.344798
359.000000	0.347536
360.000000	0.349429
361.000000	0.352287
362.000000	0.354803
363.000000	0.354944
364.000000	0.356491
365.000000	0.358326
366.000000	0.360876
367.000000	0.363223
368.000000	0.366456
369.000000	0.369266
370.000000	0.371605
371.000000	0.373706
372.000000	0.376519
373.000000	0.378720
374.000000	0.380927
375.000000	0.383637
376.000000	0.386914
377.000000	0.388852
378.000000	0.390974
379.000000	0.393577
380.000000	0.396128
381.000000	0.398321
382.000000	0.400372
383.000000	0.402486
384.000000	0.404698
385.000000	0.406630
386.000000	0.408442
387.000000	0.409796
388.000000	0.411332
389.000000	0.413133
390.000000	0.415077
391.000000	0.416953
392.000000	0.418147
393.000000	0.419372
394.000000	0.420564
395.000000	0.422307
396.000000	0.423836
397.000000	0.425166
398.000000	0.426865
399.000000	0.428329
400.000000	0.429354
401.000000	0.430583
402.000000	0.431657
403.000000	0.432539
404.000000	0.433357
405.000000	0.434162
406.000000	0.435267
407.000000	0.436341
408.000000	0.437321
409.000000	0.438061
410.000000	0.438303
411.000000	0.438138
412.000000	0.439076
413.000000	0.440021
414.000000	0.440857
415.000000	0.441601
416.000000	0.442267
417.000000	0.442979
418.000000	0.443683
419.000000	0.444357
420.000000	0.444860
421.000000	0.445318
422.000000	0.445693
423.000000	0.445982
424.000000	0.446317
425.000000	0.446673
426.000000	0.447017
427.000000	0.447336
428.000000	0.447674
429.000000	0.447998
430.000000	0.448306
431.000000	0.448637
432.000000	0.448951
433.000000	0.449215
434.000000	0.449459
435.000000	0.449630
436.000000	0.449684
437.000000	0.449804
438.000000	0.449934
439.000000	0.450033
440.000000	0.450048
441.000000	0.450110
442.000000	0.450213
443.000000	0.450286
444.000000	0.450348
445.000000	0.450407
446.000000	0.450469
447.000000	0.450504
448.000000	0.450482
449.000000	0.450520
450.000000	0.450541
451.000000	0.450492
452.000000	0.450398
453.000000	0.450282
454.000000	0.450094
455.000000	0.449934
456.000000	0.449844
457.000000	0.449791
458.000000	0.449743
459.000000	0.449674
460.000000	0.449609
461.000000	0.449565
462.000000	0.449528
463.000000	0.449525
464.000000	0.449504
465.000000	0.449403
466.000000	0.449300
467.000000	0.449216
468.000000	0.449116
469.000000	0.449005
470.000000	0.448861
471.000000	0.448784
472.000000	0.448691
473.000000	0.448595
474.000000	0.448557
475.000000	0.448564
476.000000	0.448569
477.000000	0.448658
478.000000	0.448791
479.000000	0.448963
480.000000	0.449173
481.000000	0.449439
482.000000	0.449778
483.000000	0.450158
484.000000	0.450519
485.000000	0.450949
486.000000	0.451483
487.000000	0.452112
488.000000	0.452744
489.000000	0.453451
490.000000	0.454218
491.000000	0.455048
492.000000	0.455933
493.000000	0.456936
494.000000	0.458062
495.000000	0.459226
496.000000	0.460547
497.000000	0.462074
498.000000	0.463761
499.000000	0.465558
500.000000	0.467639
501.000000	0.469871
502.000000	0.472371
503.000000	0.475082
504.000000	0.477969
505.000000	0.481076
506.000000	0.484448
507.000000	0.488163
508.000000	0.492206
509.000000	0.496580
510.000000	0.501298
511.000000	0.506379
512.000000	0.511794
513.000000	0.517685
514.000000	0.524069
515.000000	0.530943
516.000000	0.538437
517.000000	0.546365
518.000000	0.554845
519.000000	0.563906
520.000000	0.573624
521.000000	0.583984
522.000000	0.594927
523.000000	0.606552
524.000000	0.618954
525.000000	0.631948
526.000000	0.645718
527.000000	0.660216
528.000000	0.675440
529.000000	0.691406
530.000000	0.708240
531.000000	0.725802
532.000000	0.744209
533.000000	0.763536
534.000000	0.783812
535.000000	0.805004
536.000000	0.827202
537.000000	0.850376
538.000000	0.874660
539.000000	0.900094
540.000000	0.926623
541.000000	0.954419
542.000000	0.983396
543.000000	1.013659
544.000000	1.045126
545.000000	1.077987
546.000000	1.112259
547.000000	1.147981
548.000000	1.185119
549.000000	1.223778
550.000000	1.263878
551.000000	1.305457
552.000000	1.348569
553.000000	1.393342
554.000000	1.439539
555.000000	1.487327
556.000000	1.536753
557.000000	1.587853
558.000000	1.640593
559.000000	1.694876
560.000000	1.751036
561.000000	1.808673
562.000000	1.868097
563.000000	1.929475
564.000000	1.992720
565.000000	2.057882
566.000000	2.125095
567.000000	2.194265
568.000000	2.265215
569.000000	2.338042
570.000000	2.412786
571.000000	2.489553
572.000000	2.568132
573.000000	2.648313
574.000000	2.730430
575.000000	2.814312
576.000000	2.899800
577.000000	2.986880
578.000000	3.075516
579.000000	3.165729
580.000000	3.257525
581.000000	3.350727
582.000000	3.445506
583.000000	3.541868
584.000000	3.639834
585.000000	3.739367
586.000000	3.840350
587.000000	3.943202
588.000000	4.047676
589.000000	4.154023
590.000000	4.261998
591.000000	4.371608
592.000000	4.482820
593.000000	4.595785
594.000000	4.710502
595.000000	4.826927
596.000000	4.945418
597.000000	5.065722
598.000000	5.187882
599.000000	5.312059
600.000000	5.438088
601.000000	5.566133
602.000000	5.696266
603.000000	5.828855
604.000000	5.963638
605.000000	6.100497
606.000000	6.239695
607.000000	6.381310
608.000000	6.525259
609.000000	6.671542
610.000000	6.820498
611.000000	6.971688
612.000000	7.125455
613.000000	7.281813
614.000000	7.440594
615.000000	7.601634
616.000000	7.765038
617.000000	7.930587
618.000000	8.098330
619.000000	8.267782
620.000000	8.439712
621.000000	8.613842
622.000000	8.789960
623.000000	8.967882
624.000000	9.147932
625.000000	9.329983
626.000000	9.513869
627.000000	9.699816
628.000000	9.887441
629.000000	10.077248
630.000000	10.268625
631.000000	10.461687
632.000000	10.656553
633.000000	10.852971
634.000000	11.050879
635.000000	11.250115
636.000000	11.450293
637.000000	11.651558
638.000000	11.853220
639.000000	12.055516
640.000000	12.258411
641.000000	12.461444
642.000000	12.664645
643.000000	12.868303
644.000000	13.071908
645.000000	13.275306
646.000000	13.478567
647.000000	13.681556
648.000000	13.884047
649.000000	14.086558
650.000000	14.288940
651.000000	14.491151
652.000000	14.693057
653.000000	14.894611
654.000000	15.096125
655.000000	15.296944
656.000000	15.496874
657.000000	15.696362
658.000000	15.895179
659.000000	16.092664
660.000000	16.289420
661.000000	16.485453
662.000000	16.680511
663.000000	16.874885
664.000000	17.068012
665.000000	17.259787
666.000000	17.449802
667.000000	17.638070
668.000000	17.824808
669.000000	18.009451
670.000000	18.192473
671.000000	18.373813
672.000000	18.552987
673.000000	18.730458
674.000000	18.905945
675.000000	19.079290
676.000000	19.250759
677.000000	19.420336
678.000000	19.587562
679.000000	19.752622
680.000000	19.915966
681.000000	20.077621
682.000000	20.237234
683.000000	20.394838
684.000000	20.549871
685.000000	20.702513
686.000000	20.852763
687.000000	21.000580
688.000000	21.145985
689.000000	21.288261
690.000000	21.428045
691.000000	21.565796
692.000000	21.700839
693.000000	21.833226
694.000000	21.963206
695.000000	22.090223
696.000000	22.214439
697.000000	22.335994
698.000000	22.454291
699.000000	22.569255
700.000000	22.681204
701.000000	22.790342
702.000000	22.896988
703.000000	23.000514
704.000000	23.101215
705.000000	23.199166
706.000000	23.294322
707.000000	23.386991
708.000000	23.477339
709.000000	23.565706
710.000000	23.651884
711.000000	23.735439
712.000000	23.817251
713.000000	23.897701
714.000000	23.975859
715.000000	24.051313
716.000000	24.124086
717.000000	24.195070
718.000000	24.263930
719.000000	24.330286
720.000000	24.394726
721.000000	24.457311
722.000000	24.517922
723.000000	24.576716
724.000000	24.634811
725.000000	24.691463
726.000000	24.746299
727.000000	24.799559
728.000000	24.851770
729.000000	24.902814
730.000000	24.952736
731.000000	25.001420
732.000000	25.049322
733.000000	25.096985
734.000000	25.143817
735.000000	25.190488
736.000000	25.236904
737.000000	25.282401
738.000000	25.327825
739.000000	25.373164
740.000000	25.418281
741.000000	25.463799
742.000000	25.509287
743.000000	25.554408
744.000000	25.599381
745.000000	25.644482
746.000000	25.689780
747.000000	25.734163
748.000000	25.778220
749.000000	25.823033
750.000000	25.868898
751.000000	25.915010
752.000000	25.960621
753.000000	26.006239
754.000000	26.053014
755.000000	26.100374
756.000000	26.147719
757.000000	26.195842
758.000000	26.245739
759.000000	26.296011
760.000000	26.345692
761.000000	26.396315
762.000000	26.448182
763.000000	26.500917
764.000000	26.554542
765.000000	26.609063
766.000000	26.663993
767.000000	26.719784
768.000000	26.776206
769.000000	26.833379
770.000000	26.891367
771.000000	26.949800
772.000000	27.008561
773.000000	27.067494
774.000000	27.128322
775.000000	27.190211
776.000000	27.252338
777.000000	27.315176
778.000000	27.378424
779.000000	27.442496
780.000000	27.506974
781.000000	27.571764
782.000000	27.637980
783.000000	27.704295
784.000000	27.771579
785.000000	27.839125
786.000000	27.907810
787.000000	27.976634
788.000000	28.046212
789.000000	28.117382
790.000000	28.188319
791.000000	28.260539
792.000000	28.333366
793.000000	28.405320
794.000000	28.477747
795.000000	28.552049
796.000000	28.625875
797.000000	28.699615
798.000000	28.773459
799.000000	28.847148
800.000000	28.920494
801.000000	28.994971
802.000000	29.069401
803.000000	29.144929
804.000000	29.221352
805.000000	29.297860
806.000000	29.376383
807.000000	29.455333
808.000000	29.535782
809.000000	29.615397
810.000000	29.692960
811.000000	29.770382
812.000000	29.849297
813.000000	29.927770
814.000000	30.006764
815.000000	30.086443
816.000000	30.167466
817.000000	30.249019
818.000000	30.330965
819.000000	30.412470
820.000000	30.494397
821.000000	30.576781
822.000000	30.659615
823.000000	30.743032
824.000000	30.825467
825.000000	30.911392
826.000000	30.997685
827.000000	31.083274
828.000000	31.166764
829.000000	31.252557
830.000000	31.336926
831.000000	31.424691
832.000000	31.510761
833.000000	31.597152
834.000000	31.682212
835.000000	31.770023
836.000000	31.855462
837.000000	31.942062
838.000000	32.028475
839.000000	32.112970
840.000000	32.193708
841.000000	32.277512
842.000000	32.362430
843.000000	32.446286
844.000000	32.529635
845.000000	32.616506
846.000000	32.699975
847.000000	32.785316
848.000000	32.867528
849.000000	32.951875
850.000000	33.035511
851.000000	33.114722
852.000000	33.194508
853.000000	33.275561
854.000000	33.354549
855.000000	33.430360
856.000000	33.508751
857.000000	33.587620
858.000000	33.719268
859.000000	33.802790
860.000000	33.896383
861.000000	33.995829
862.000000	34.095039
863.000000	34.176097
864.000000	34.277099
865.000000	34.366417
866.000000	34.438318
867.000000	34.539170
868.000000	34.634657
869.000000	34.725428
870.000000	34.804229
871.000000	34.897843
872.000000	34.977269
873.000000	35.059691
874.000000	35.149818
875.000000	35.237397
876.000000	35.323248
877.000000	35.422876
878.000000	35.512461
879.000000	35.597911
880.000000	35.687383
881.000000	35.776064
882.000000	35.854063
883.000000	35.944942
884.000000	36.026862
885.000000	36.124101
886.000000	36.208783
887.000000	36.311679
888.000000	36.410310
889.000000	36.507469
890.000000	36.607088
891.000000	36.699987
892.000000	36.811908
893.000000	36.860900
894.000000	36.956873
895.000000	37.026755
896.000000	37.103533
897.000000	37.196222
898.000000	37.287482
899.000000	37.361243
900.000000	37.463758
901.000000	37.577251
902.000000	37.667173
903.000000	37.742430
904.000000	37.843239
905.000000	37.949478
906.000000	38.053745
907.000000	38.179506
908.000000	38.307935
909.000000	38.418458
910.000000	38.529288
911.000000	38.634335
912.000000	38.736547
913.000000	38.851989
914.000000	38.967065
915.000000	39.081591
916.000000	39.204224
917.000000	39.331691
918.000000	39.446354
919.000000	39.576407
920.000000	39.695375
921.000000	39.833041
922.000000	39.945648
923.000000	40.071185
924.000000	40.196814
925.000000	40.342016
926.000000	40.491442
927.000000	40.623302
928.000000	40.757989
929.000000	40.897643
930.000000	41.054062
931.000000	41.219071
932.000000	41.355008
933.000000	41.503756
934.000000	41.651197
935.000000	41.800948
936.000000	41.949954
937.000000	42.109390
938.000000	42.291730
939.000000	42.444255
940.000000	42.627699
941.000000	42.789731
942.000000	42.941449
943.000000	43.095136
944.000000	43.267019
945.000000	43.439162
946.000000	43.625538
947.000000	43.800648
948.000000	43.971097
949.000000	44.164150
950.000000	44.359485
951.000000	44.555064
952.000000	44.756838
953.000000	44.968904
954.000000	45.170646
955.000000	45.369970
956.000000	45.567098
957.000000	45.775149
958.000000	45.984474
959.000000	46.206291
960.000000	46.405053
961.000000	46.612627
962.000000	46.816315
963.000000	47.037554
964.000000	47.257986
965.000000	47.476399
966.000000	47.680855
967.000000	47.892627
968.000000	48.114306
969.000000	48.344574
970.000000	48.570647
971.000000	48.804207
972.000000	49.025618
973.000000	49.245714
974.000000	49.487010
975.000000	49.701081
976.000000	49.928416
977.000000	50.155709
978.000000	50.389168
979.000000	50.631987
980.000000	50.880696
981.000000	51.117736
982.000000	51.354613
983.000000	51.599176
984.000000	51.837860
985.000000	52.058162
986.000000	52.281004
987.000000	52.506284
988.000000	52.725775
989.000000	52.958593
990.000000	53.185865
991.000000	53.419001
992.000000	53.656508
993.000000	53.877445
994.000000	54.087325
995.000000	54.304978
996.000000	54.518951
997.000000	54.735018
998.000000	54.953450
999.000000	55.189476
1000.000000	55.424951
1001.000000	55.644018
1002.000000	55.869705
1003.000000	56.101575
1004.000000	56.327474
1005.000000	56.550053
1006.000000	56.770170
1007.000000	56.991584
1008.000000	57.211378
1009.000000	57.418936
1010.000000	57.643922
1011.000000	57.871111
1012.000000	58.089241
1013.000000	58.289894
1014.000000	58.485271
1015.000000	58.680177
1016.000000	58.865843
1017.000000	59.062616
1018.000000	59.259974
1019.000000	59.439901
1020.000000	59.647028
1021.000000	59.853306
1022.000000	60.041175
1023.000000	60.235384
1024.000000	60.425829
1025.000000	60.611887
1026.000000	60.784599
1027.000000	60.953465
1028.000000	61.139306
1029.000000	61.335270
1030.000000	61.514223
1031.000000	61.682488
1032.000000	61.861904
1033.000000	62.025881
1034.000000	62.181486
1035.000000	62.337836
1036.000000	62.498218
1037.000000	62.658024
1038.000000	62.819239
1039.000000	62.961512
1040.000000	63.099596
1041.000000	63.244670
1042.000000	63.394892
1043.000000	63.542600
1044.000000	63.687960
1045.000000	63.810563
1046.000000	63.942819
1047.000000	64.070565
1048.000000	64.192586
1049.000000	64.319849
1050.000000	64.432409
1051.000000	64.550371
1052.000000	64.669041
1053.000000	64.787088
1054.000000	64.906880
1055.000000	65.007526
1056.000000	65.110218
1057.000000	65.221007
1058.000000	65.320957
1059.000000	65.415208
1060.000000	65.524096
1061.000000	65.637731
1062.000000	65.736305
1063.000000	65.825577
1064.000000	65.902147
1065.000000	66.000410
1066.000000	66.103961
1067.000000	66.191755
1068.000000	66.288379
1069.000000	66.380100
1070.000000	66.463440
1071.000000	66.543506
1072.000000	66.614152
1073.000000	66.681793
1074.000000	66.765618
1075.000000	66.835337
1076.000000	66.897863
1077.000000	66.960682
1078.000000	67.013415
1079.000000	67.085843
1080.000000	67.163994
1081.000000	67.228866
1082.000000	67.309847
1083.000000	67.397022
1084.000000	67.453694
1085.000000	67.519563
1086.000000	67.592310
1087.000000	67.652613
1088.000000	67.714394
1089.000000	67.793957
1090.000000	67.859715
1091.000000	67.912653
1092.000000	67.965923
1093.000000	68.034601
1094.000000	68.096954
1095.000000	68.145489
1096.000000	68.188334
1097.000000	68.247551
1098.000000	68.306656
1099.000000	68.366696
1100.000000	68.433328
1101.000000	68.488589
1102.000000	68.536079
1103.000000	68.573869
1104.000000	68.607269
1105.000000	68.646941
1106.000000	68.685873
1107.000000	68.736255
1108.000000	68.791483
1109.000000	68.829037
1110.000000	68.878397
1111.000000	68.925374
1112.000000	68.961290
1113.000000	69.013173
1114.000000	69.033735
1115.000000	69.072334
1116.000000	69.093999
1117.000000	69.127838
1118.000000	69.159835
1119.000000	69.175452
1120.000000	69.209799
1121.000000	69.262732
1122.000000	69.295629
1123.000000	69.339075
1124.000000	69.350190
1125.000000	69.393422
1126.000000	69.433685
1127.000000	69.466511
1128.000000	69.490261
1129.000000	69.524970
1130.000000	69.551873
1131.000000	69.590080
1132.000000	69.611217
1133.000000	69.641131
1134.000000	69.727738
1135.000000	69.709200
1136.000000	69.694911
1137.000000	69.732734
1138.000000	69.752887
1139.000000	69.784488
1140.000000	69.804226
1141.000000	69.833082
1142.000000	69.884156
1143.000000	69.900463
1144.000000	69.927914
1145.000000	69.945423
1146.000000	69.988512
1147.000000	70.018714
1148.000000	70.033054
1149.000000	70.086403
1150.000000	70.087677
1151.000000	70.113850
1152.000000	70.149247
1153.000000	70.157294
1154.000000	70.187501
1155.000000	70.231773
1156.000000	70.237491
1157.000000	70.260435
1158.000000	70.255855
1159.000000	70.279601
1160.000000	70.283883
1161.000000	70.304034
1162.000000	70.319224
1163.000000	70.321299
1164.000000	70.331814
1165.000000	70.347770
1166.000000	70.374902
1167.000000	70.392602
1168.000000	70.388646
1169.000000	70.341393
1170.000000	70.396709
1171.000000	70.434262
1172.000000	70.430862
1173.000000	70.434743
1174.000000	70.441822
1175.000000	70.460416
1176.000000	70.467813
1177.000000	70.459937
1178.000000	70.473355
1179.000000	70.488262
1180.000000	70.493310
1181.000000	70.471280
1182.000000	70.448749
1183.000000	70.461497
1184.000000	70.448746
1185.000000	70.460539
1186.000000	70.464898
1187.000000	70.439280
1188.000000	70.437606
1189.000000	70.456679
1190.000000	70.444623
1191.000000	70.446235
1192.000000	70.453366
1193.000000	70.464120
1194.000000	70.479013
1195.000000	70.485759
1196.000000	70.480484
1197.000000	70.483541
1198.000000	70.501282
1199.000000	70.507831
1200.000000	70.524939
1201.000000	70.524587
1202.000000	70.536990
1203.000000	70.565584
1204.000000	70.583610
1205.000000	70.586980
1206.000000	70.606698
1207.000000	70.633269
1208.000000	70.673757
1209.000000	70.689572
1210.000000	70.704926
1211.000000	70.723628
1212.000000	70.731191
1213.000000	70.741608
1214.000000	70.758827
1215.000000	70.785471
1216.000000	70.815123
1217.000000	70.863336
1218.000000	70.883678
1219.000000	70.904107
1220.000000	70.932175
1221.000000	70.948853
1222.000000	70.981045
1223.000000	71.015882
1224.000000	71.035665
1225.000000	71.064522
1226.000000	71.092448
1227.000000	71.105845
1228.000000	71.134581
1229.000000	71.148580
1230.000000	71.164405
1231.000000	71.192643
1232.000000	71.233603
1233.000000	71.250997
1234.000000	71.260800
1235.000000	71.265040
1236.000000	71.272440
1237.000000	71.290708
1238.000000	71.306738
1239.000000	71.322155
1240.000000	71.330040
1241.000000	71.347323
1242.000000	71.375903
1243.000000	71.395137
1244.000000	71.417305
1245.000000	71.439014
1246.000000	71.465362
1247.000000	71.481985
1248.000000	71.489155
1249.000000	71.496772
1250.000000	71.517942
1251.000000	71.539225
1252.000000	71.547126
1253.000000	71.558321
1254.000000	71.567375
1255.000000	71.569305
1256.000000	71.591664
1257.000000	71.608434
1258.000000	71.623842
1259.000000	71.645277
1260.000000	71.660943
1261.000000	71.670385
1262.000000	71.691713
1263.000000	71.705948
1264.000000	71.722928
1265.000000	71.741560
1266.000000	71.740671
1267.000000	71.736500
1268.000000	71.750792
1269.000000	71.760037
1270.000000	71.774109
1271.000000	71.782084
1272.000000	71.776259
1273.000000	71.773253
1274.000000	71.774236
1275.000000	71.786514
1276.000000	71.804251
1277.000000	71.798716
1278.000000	71.791322
1279.000000	71.790126
1280.000000	71.786319
1281.000000	71.783231
1282.000000	71.803949
1283.000000	71.833349
1284.000000	71.848820
1285.000000	71.846135
1286.000000	71.840978
1287.000000	71.848735
1288.000000	71.853332
1289.000000	71.864871
1290.000000	71.897686
1291.000000	71.914862
1292.000000	71.923177
1293.000000	71.930819
1294.000000	71.935640
1295.000000	71.946704
1296.000000	71.961938
1297.000000	71.962502
1298.000000	71.968395
1299.000000	71.986281
1300.000000	72.005111
1301.000000	72.012910
1302.000000	72.019330
1303.000000	72.032029
1304.000000	72.048805
1305.000000	72.066980
1306.000000	72.090863
1307.000000	72.120136
1308.000000	72.141914
1309.000000	72.157772
1310.000000	72.180374
1311.000000	72.193202
1312.000000	72.209187
1313.000000	72.242449
1314.000000	72.265302
1315.000000	72.278796
1316.000000	72.294207
1317.000000	72.300426
1318.000000	72.313727
1319.000000	72.329286
1320.000000	72.340914
1321.000000	72.356811
1322.000000	72.378323
1323.000000	72.393778
1324.000000	72.404495
1325.000000	72.402303
1326.000000	72.399447
1327.000000	72.393613
1328.000000	72.401479
1329.000000	72.405787
1330.000000	72.404370
1331.000000	72.408011
1332.000000	72.416872
1333.000000	72.404018
1334.000000	72.398850
1335.000000	72.398746
1336.000000	72.408997
1337.000000	72.419574
1338.000000	72.432981
1339.000000	72.452647
1340.000000	72.441983
1341.000000	72.435202
1342.000000	72.444897
1343.000000	72.462621
1344.000000	72.454023
1345.000000	72.436409
1346.000000	72.401268
1347.000000	72.398405
1348.000000	72.382270
1349.000000	72.387731
1350.000000	72.350125
1351.000000	72.302346
1352.000000	72.251648
1353.000000	72.218600
1354.000000	72.290376
1355.000000	72.402943
1356.000000	72.480057
1357.000000	72.448729
1358.000000	72.368550
1359.000000	72.337166
1360.000000	72.428501
1361.000000	72.466240
1362.000000	72.271689
1363.000000	72.192911
1364.000000	72.213661
1365.000000	72.086706
1366.000000	72.117092
1367.000000	72.236819
1368.000000	72.287899
1369.000000	72.327430
1370.000000	72.439489
1371.000000	72.438675
1372.000000	72.374722
1373.000000	72.318130
1374.000000	72.334593
1375.000000	72.354093
1376.000000	72.376645
1377.000000	72.302073
1378.000000	72.348775
1379.000000	72.298142
1380.000000	72.362620
1381.000000	72.333133
1382.000000	72.490938
1383.000000	72.555784
1384.000000	72.631376
1385.000000	72.646978
1386.000000	72.644828
1387.000000	72.783235
1388.000000	72.714104
1389.000000	72.654107
1390.000000	72.539395
1391.000000	72.418263
1392.000000	72.268401
1393.000000	72.315785
1394.000000	72.402385
1395.000000	72.254179
1396.000000	72.115305
1397.000000	72.236391
1398.000000	72.263133
1399.000000	72.288956
1400.000000	72.527232
1401.000000	72.480656
1402.000000	72.328721
1403.000000	72.229506
1404.000000	72.201185
1405.000000	71.996986
1406.000000	71.992838
1407.000000	71.982220
1408.000000	71.989752
1409.000000	71.944449
1410.000000	71.883722
1411.000000	71.795493
1412.000000	71.785389
1413.000000	71.652713
1414.000000	71.666551
1415.000000	71.547348
1416.000000	71.550555
1417.000000	71.358118
1418.000000	71.267772
1419.000000	71.104563
1420.000000	71.065077
1421.000000	71.042618
1422.000000	70.886998
1423.000000	70.951811
1424.000000	70.862874
1425.000000	70.811956
1426.000000	70.767050
1427.000000	70.849252
1428.000000	70.817207
1429.000000	70.697692
1430.000000	70.666122
1431.000000	70.695834
1432.000000	70.704299
1433.000000	70.667128
1434.000000	70.528385
1435.000000	70.341210
1436.000000	70.280443
1437.000000	70.294520
1438.000000	70.271366
1439.000000	70.202510
1440.000000	70.217829
1441.000000	70.160635
1442.000000	70.168295
1443.000000	70.110682
1444.000000	70.052095
1445.000000	70.082519
1446.000000	70.061262
1447.000000	70.042656
1448.000000	70.021960
1449.000000	69.984259
1450.000000	69.980794
1451.000000	69.946766
1452.000000	69.895415
1453.000000	69.823941
1454.000000	69.814631
1455.000000	69.790839
1456.000000	69.778812
1457.000000	69.768159
1458.000000	69.706465
1459.000000	69.690826
1460.000000	69.658310
1461.000000	69.653441
1462.000000	69.641211
1463.000000	69.597320
1464.000000	69.550154
1465.000000	69.521719
1466.000000	69.493200
1467.000000	69.468471
1468.000000	69.463790
1469.000000	69.485506
1470.000000	69.471603
1471.000000	69.440423
1472.000000	69.382851
1473.000000	69.365475
1474.000000	69.317770
1475.000000	69.284922
1476.000000	69.233434
1477.000000	69.187173
1478.000000	69.190311
1479.000000	69.176069
1480.000000	69.111343
1481.000000	69.114788
1482.000000	69.099738
1483.000000	69.099608
1484.000000	69.101972
1485.000000	69.059731
1486.000000	69.038913
1487.000000	69.008261
1488.000000	69.002119
1489.000000	68.989465
1490.000000	68.991566
1491.000000	68.986924
1492.000000	68.960474
1493.000000	68.937644
1494.000000	68.917786
1495.000000	68.915982
1496.000000	68.919855
1497.000000	68.925925
1498.000000	68.935542
1499.000000	68.947583
1500.000000	68.967543
1501.000000	68.977356
1502.000000	68.983597
1503.000000	68.989556
1504.000000	68.972351
1505.000000	68.963997
1506.000000	68.975762
1507.000000	68.970405
1508.000000	68.976634
1509.000000	68.977050
1510.000000	68.998458
1511.000000	69.040677
1512.000000	69.071614
1513.000000	69.085095
1514.000000	69.091398
1515.000000	69.095487
1516.000000	69.099352
1517.000000	69.121071
1518.000000	69.123738
1519.000000	69.127897
1520.000000	69.156296
1521.000000	69.183563
1522.000000	69.210782
1523.000000	69.233579
1524.000000	69.263503
1525.000000	69.282897
1526.000000	69.298658
1527.000000	69.330413
1528.000000	69.372963
1529.000000	69.407508
1530.000000	69.426304
1531.000000	69.457474
1532.000000	69.492570
1533.000000	69.526800
1534.000000	69.566664
1535.000000	69.607482
1536.000000	69.641189
1537.000000	69.672518
1538.000000	69.702625
1539.000000	69.740518
1540.000000	69.773469
1541.000000	69.796211
1542.000000	69.818711
1543.000000	69.855107
1544.000000	69.897669
1545.000000	69.930990
1546.000000	69.950541
1547.000000	69.971953
1548.000000	69.993051
1549.000000	70.015877
1550.000000	70.039367
1551.000000	70.064938
1552.000000	70.098038
1553.000000	70.132296
1554.000000	70.166045
1555.000000	70.206785
1556.000000	70.236507
1557.000000	70.257633
1558.000000	70.297441
1559.000000	70.328514
1560.000000	70.351415
1561.000000	70.379399
1562.000000	70.405666
1563.000000	70.429783
1564.000000	70.446199
1565.000000	70.460878
1566.000000	70.456222
1567.000000	70.467505
1568.000000	70.479731
1569.000000	70.490957
1570.000000	70.498042
1571.000000	70.500856
1572.000000	70.512795
1573.000000	70.523757
1574.000000	70.536124
1575.000000	70.557789
1576.000000	70.581937
1577.000000	70.597279
1578.000000	70.615592
1579.000000	70.625519
1580.000000	70.636909
1581.000000	70.646974
1582.000000	70.661289
1583.000000	70.676479
1584.000000	70.697354
1585.000000	70.719546
1586.000000	70.747905
1587.000000	70.761582
1588.000000	70.776899
1589.000000	70.782740
1590.000000	70.787441
1591.000000	70.809648
1592.000000	70.846933
1593.000000	70.854289
1594.000000	70.845529
1595.000000	70.857383
1596.000000	70.868065
1597.000000	70.868594
1598.000000	70.866551
1599.000000	70.893987
1600.000000	70.923256
1601.000000	70.952337
1602.000000	70.968542
1603.000000	70.976098
1604.000000	70.981792
1605.000000	70.992124
1606.000000	71.022259
1607.000000	71.044293
1608.000000	71.073854
1609.000000	71.083323
1610.000000	71.104263
1611.000000	71.133387
1612.000000	71.157902
1613.000000	71.178018
1614.000000	71.199865
1615.000000	71.215761
1616.000000	71.250748
1617.000000	71.281433
1618.000000	71.305031
1619.000000	71.339750
1620.000000	71.370872
1621.000000	71.387213
1622.000000	71.414434
1623.000000	71.434381
1624.000000	71.459131
1625.000000	71.476538
1626.000000	71.485354
1627.000000	71.485591
1628.000000	71.511640
1629.000000	71.537438
1630.000000	71.543032
1631.000000	71.564659
1632.000000	71.605357
1633.000000	71.650984
1634.000000	71.648643
1635.000000	71.665339
1636.000000	71.674076
1637.000000	71.687898
1638.000000	71.709311
1639.000000	71.739633
1640.000000	71.764540
1641.000000	71.780815
1642.000000	71.813514
1643.000000	71.823728
1644.000000	71.861561
1645.000000	71.868970
1646.000000	71.862494
1647.000000	71.878115
1648.000000	71.885935
1649.000000	71.891841
1650.000000	71.893021
1651.000000	71.877699
1652.000000	71.889046
1653.000000	71.903282
1654.000000	71.899221
1655.000000	71.900407
1656.000000	71.908968
1657.000000	71.894421
1658.000000	71.902009
1659.000000	71.886223
1660.000000	71.889461
1661.000000	71.893733
1662.000000	71.898190
1663.000000	71.900862
1664.000000	71.891688
1665.000000	71.913679
1666.000000	71.925339
1667.000000	71.895236
1668.000000	71.842535
1669.000000	71.866564
1670.000000	71.865296
1671.000000	71.868913
1672.000000	71.862262
1673.000000	71.860100
1674.000000	71.840022
1675.000000	71.839774
1676.000000	71.816808
1677.000000	71.798980
1678.000000	71.783346
1679.000000	71.736679
1680.000000	71.715280
1681.000000	71.693343
1682.000000	71.664453
1683.000000	71.633831
1684.000000	71.619282
1685.000000	71.598263
1686.000000	71.591090
1687.000000	71.557055
1688.000000	71.517630
1689.000000	71.479053
1690.000000	71.452264
1691.000000	71.430700
1692.000000	71.435589
1693.000000	71.422222
1694.000000	71.409462
1695.000000	71.395849
1696.000000	71.385033
1697.000000	71.382421
1698.000000	71.372274
1699.000000	71.365114
1700.000000	71.343883
1701.000000	71.314146
1702.000000	71.335185
1703.000000	71.352786
1704.000000	71.323582
1705.000000	71.308383
1706.000000	71.289708
1707.000000	71.270343
1708.000000	71.258887
1709.000000	71.263488
1710.000000	71.247213
1711.000000	71.233361
1712.000000	71.201802
1713.000000	71.183609
1714.000000	71.175722
1715.000000	71.166257
1716.000000	71.166345
1717.000000	71.152766
1718.000000	71.149660
1719.000000	71.132140
1720.000000	71.120093
1721.000000	71.106357
1722.000000	71.092964
1723.000000	71.088984
1724.000000	71.071861
1725.000000	71.055304
1726.000000	71.041379
1727.000000	71.029404
1728.000000	71.012122
1729.000000	71.005152
1730.000000	70.994508
1731.000000	70.972559
1732.000000	70.944219
1733.000000	70.919830
1734.000000	70.920236
1735.000000	70.903221
1736.000000	70.897002
1737.000000	70.856281
1738.000000	70.838157
1739.000000	70.824088
1740.000000	70.808102
1741.000000	70.824896
1742.000000	70.842409
1743.000000	70.852101
1744.000000	70.840346
1745.000000	70.828062
1746.000000	70.841783
1747.000000	70.849224
1748.000000	70.841839
1749.000000	70.840592
1750.000000	70.839163
1751.000000	70.843269
1752.000000	70.863689
1753.000000	70.873308
1754.000000	70.869695
1755.000000	70.876560
1756.000000	70.863753
1757.000000	70.869165
1758.000000	70.880672
1759.000000	70.900927
1760.000000	70.916122
1761.000000	70.924590
1762.000000	70.922666
1763.000000	70.919320
1764.000000	70.940242
1765.000000	70.945451
1766.000000	70.948611
1767.000000	70.964472
1768.000000	70.967754
1769.000000	70.963790
1770.000000	70.964402
1771.000000	70.970786
1772.000000	70.992826
1773.000000	71.009551
1774.000000	71.019863
1775.000000	71.028949
1776.000000	71.019257
1777.000000	71.024347
1778.000000	71.027620
1779.000000	71.031618
1780.000000	71.028481
1781.000000	71.020372
1782.000000	71.030769
1783.000000	71.057659
1784.000000	71.079950
1785.000000	71.085620
1786.000000	71.091176
1787.000000	71.095865
1788.000000	71.107635
1789.000000	71.135589
1790.000000	71.160599
1791.000000	71.195553
1792.000000	71.217913
1793.000000	71.218916
1794.000000	71.225524
1795.000000	71.231169
1796.000000	71.236139
1797.000000	71.251160
1798.000000	71.272171
1799.000000	71.279461
1800.000000	71.294632
1801.000000	71.330578
1802.000000	71.350702
1803.000000	71.359350
1804.000000	71.377191
1805.000000	71.426285
1806.000000	71.476548
1807.000000	71.494257
1808.000000	71.497087
1809.000000	71.514164
1810.000000	71.542632
1811.000000	71.569622
1812.000000	71.587286
1813.000000	71.599340
1814.000000	71.619795
1815.000000	71.629076
1816.000000	71.654395
1817.000000	71.765561
1818.000000	71.833300
1819.000000	71.935687
1820.000000	72.007041
1821.000000	72.018185
1822.000000	72.022817
1823.000000	72.022236
1824.000000	72.018270
1825.000000	72.177879
1826.000000	72.267876
1827.000000	72.280433
1828.000000	72.295664
1829.000000	72.322705
1830.000000	72.437165
1831.000000	72.504439
1832.000000	72.498666
1833.000000	72.499592
1834.000000	72.541975
1835.000000	72.653028
1836.000000	72.658662
1837.000000	72.605796
1838.000000	72.550599
1839.000000	72.513902
1840.000000	72.432240
1841.000000	72.442168
1842.000000	72.432389
1843.000000	72.419319
1844.000000	72.392200
1845.000000	72.340483
1846.000000	72.385725
1847.000000	72.515507
1848.000000	72.529686
1849.000000	72.516124
1850.000000	72.479900
1851.000000	72.434929
1852.000000	72.361987
1853.000000	72.376250
1854.000000	72.298497
1855.000000	72.262356
1856.000000	72.151846
1857.000000	72.069341
1858.000000	72.019212
1859.000000	72.003453
1860.000000	71.806162
1861.000000	71.704331
1862.000000	71.698930
1863.000000	71.831915
1864.000000	71.915644
1865.000000	71.853384
1866.000000	71.799333
1867.000000	71.775568
1868.000000	71.736810
1869.000000	71.662597
1870.000000	71.724346
1871.000000	71.698667
1872.000000	71.889904
1873.000000	71.953333
1874.000000	71.986959
1875.000000	71.984089
1876.000000	72.027127
1877.000000	72.034085
1878.000000	72.019621
1879.000000	72.012938
1880.000000	72.045755
1881.000000	71.963022
1882.000000	71.790406
1883.000000	71.862612
1884.000000	71.827997
1885.000000	71.806614
1886.000000	71.834304
1887.000000	71.754015
1888.000000	71.596981
1889.000000	71.577757
1890.000000	71.444181
1891.000000	71.531239
1892.000000	71.498142
1893.000000	71.469120
1894.000000	71.397532
1895.000000	71.322484
1896.000000	71.211983
1897.000000	71.111494
1898.000000	70.855902
1899.000000	70.629309
1900.000000	70.412271
1901.000000	70.274203
1902.000000	70.353574
1903.000000	70.219169
1904.000000	70.089867
1905.000000	69.685216
1906.000000	69.563827
1907.000000	69.190120
1908.000000	68.978097
1909.000000	68.751821
1910.000000	68.548083
1911.000000	68.183364
1912.000000	67.895948
1913.000000	67.706747
1914.000000	67.471867
1915.000000	67.228463
1916.000000	66.939273
1917.000000	66.654560
1918.000000	66.255638
1919.000000	66.058866
1920.000000	65.898138
1921.000000	65.582458
1922.000000	65.307772
1923.000000	65.146530
1924.000000	64.809120
1925.000000	64.600782
1926.000000	64.357519
1927.000000	64.129328
1928.000000	63.925233
1929.000000	63.701290
1930.000000	63.494404
1931.000000	63.288428
1932.000000	63.067545
1933.000000	62.903393
1934.000000	62.693156
1935.000000	62.525773
1936.000000	62.323258
1937.000000	61.966550
1938.000000	61.838958
1939.000000	61.675390
1940.000000	61.596701
1941.000000	61.407259
1942.000000	61.307073
1943.000000	61.202987
1944.000000	61.139730
1945.000000	61.094180
1946.000000	61.075013
1947.000000	61.049339
1948.000000	60.968883
1949.000000	60.937045
1950.000000	60.890342
1951.000000	60.908786
1952.000000	60.946963
1953.000000	60.944469
1954.000000	60.882778
1955.000000	60.829206
1956.000000	60.885958
1957.000000	60.927637
1958.000000	60.883380
1959.000000	60.949509
1960.000000	61.010344
1961.000000	61.006806
1962.000000	61.093235
1963.000000	61.114453
1964.000000	61.180376
1965.000000	61.240146
1966.000000	61.331811
1967.000000	61.406449
1968.000000	61.454819
1969.000000	61.551854
1970.000000	61.654427
1971.000000	61.738037
1972.000000	61.813486
1973.000000	61.870137
1974.000000	61.948566
1975.000000	62.033160
1976.000000	62.130557
1977.000000	62.248708
1978.000000	62.336693
1979.000000	62.421916
1980.000000	62.510654
1981.000000	62.579756
1982.000000	62.671836
1983.000000	62.783903
1984.000000	62.893102
1985.000000	62.981492
1986.000000	63.076816
1987.000000	63.151819
1988.000000	63.248723
1989.000000	63.358854
1990.000000	63.454913
1991.000000	63.533975
1992.000000	63.610256
1993.000000	63.695337
1994.000000	63.772986
1995.000000	63.864440
1996.000000	63.957973
1997.000000	64.028680
1998.000000	64.123183
1999.000000	64.192857
2000.000000	64.262382
