PE UV       SUBTECH     SPECTRUM    ASCII       PEDS        4.00        
   -1
PELID.001-TX3.ASC
23/11/30
15:17:19.00
23/11/30
15:17:19.00
Vinicio Soto Monge
PELID 1
250,000000
1
Lambda 1050
1050L1511233
PerkinElmer UV WinLab 6.3.2.0749 / 2.02.05 Lambda 900 UV/VIS/NIR, Aug  7 2015 09:38:08

0
0
3350/servo 860,8/2
0
0
UV/VIS
1
1
1
DoubleDePol,CommonBeamDepol,RBeamAtt,SBeamAtt,60mm sphere, WB InGaAs Detector
0
0
0
0
Program
Program
3350/servo 860,8/2
3350/0,4 860,8/0,4
3350/0,4 860,8/0,4
0
20.00
 
 
 
0
 
860,8
319,2
860,8
Front
100
on
S:100 R:100
0
0
0
0
 
0
 
 
 
0
 
 
0
0
0
0
0
 
 
 
 
0
0


0
0
#HDR
-1
-1
#GR
nm
%T
1.0
0.0
2200,000000
-1,000000
1951
8
42,961348
0,210139
#DATA
284.000000	0.238559
285.000000	0.239309
286.000000	0.239674
287.000000	0.240372
288.000000	0.241508
289.000000	0.242073
290.000000	0.242811
291.000000	0.243412
292.000000	0.243824
293.000000	0.244345
294.000000	0.245097
295.000000	0.245788
296.000000	0.246321
297.000000	0.246698
298.000000	0.247749
299.000000	0.248340
300.000000	0.248939
301.000000	0.249698
302.000000	0.250021
303.000000	0.250372
304.000000	0.251320
305.000000	0.251889
306.000000	0.252991
307.000000	0.253987
308.000000	0.255014
309.000000	0.256374
310.000000	0.257162
311.000000	0.258253
312.000000	0.259295
313.000000	0.260148
314.000000	0.261378
315.000000	0.262689
316.000000	0.263552
317.000000	0.264159
318.000000	0.265962
319.000000	0.267130
320.000000	0.269483
321.000000	0.271094
322.000000	0.271597
323.000000	0.273465
324.000000	0.276556
325.000000	0.278997
326.000000	0.281967
327.000000	0.285557
328.000000	0.289235
329.000000	0.292859
330.000000	0.295970
331.000000	0.299115
332.000000	0.302124
333.000000	0.304681
334.000000	0.308338
335.000000	0.311629
336.000000	0.314220
337.000000	0.316726
338.000000	0.320632
339.000000	0.323490
340.000000	0.326264
341.000000	0.329189
342.000000	0.332670
343.000000	0.336112
344.000000	0.339241
345.000000	0.342931
346.000000	0.346580
347.000000	0.350355
348.000000	0.354980
349.000000	0.358853
350.000000	0.362691
351.000000	0.367188
352.000000	0.372228
353.000000	0.376060
354.000000	0.380400
355.000000	0.384323
356.000000	0.389761
357.000000	0.396298
358.000000	0.400950
359.000000	0.405394
360.000000	0.410544
361.000000	0.415352
362.000000	0.420411
363.000000	0.425130
364.000000	0.429795
365.000000	0.435210
366.000000	0.440655
367.000000	0.447098
368.000000	0.454257
369.000000	0.460950
370.000000	0.468352
371.000000	0.476813
372.000000	0.485418
373.000000	0.493305
374.000000	0.501967
375.000000	0.510847
376.000000	0.519501
377.000000	0.528630
378.000000	0.537901
379.000000	0.547908
380.000000	0.558217
381.000000	0.568697
382.000000	0.579837
383.000000	0.590937
384.000000	0.603006
385.000000	0.615317
386.000000	0.628171
387.000000	0.641380
388.000000	0.655344
389.000000	0.669823
390.000000	0.684249
391.000000	0.698668
392.000000	0.713419
393.000000	0.729114
394.000000	0.745039
395.000000	0.761499
396.000000	0.778410
397.000000	0.795153
398.000000	0.812555
399.000000	0.830670
400.000000	0.849395
401.000000	0.868894
402.000000	0.888547
403.000000	0.908108
404.000000	0.928359
405.000000	0.948844
406.000000	0.969810
407.000000	0.991706
408.000000	1.014002
409.000000	1.036902
410.000000	1.060626
411.000000	1.084985
412.000000	1.109627
413.000000	1.134782
414.000000	1.160493
415.000000	1.186910
416.000000	1.213958
417.000000	1.241624
418.000000	1.269841
419.000000	1.298596
420.000000	1.328102
421.000000	1.358280
422.000000	1.389083
423.000000	1.420493
424.000000	1.452695
425.000000	1.485543
426.000000	1.518948
427.000000	1.553032
428.000000	1.587742
429.000000	1.622952
430.000000	1.658825
431.000000	1.695342
432.000000	1.732404
433.000000	1.770165
434.000000	1.808491
435.000000	1.847343
436.000000	1.886734
437.000000	1.926705
438.000000	1.967304
439.000000	2.008457
440.000000	2.050247
441.000000	2.092545
442.000000	2.135244
443.000000	2.178532
444.000000	2.222232
445.000000	2.266427
446.000000	2.311198
447.000000	2.356199
448.000000	2.401431
449.000000	2.447017
450.000000	2.492726
451.000000	2.538840
452.000000	2.585227
453.000000	2.631817
454.000000	2.678691
455.000000	2.725818
456.000000	2.773222
457.000000	2.820854
458.000000	2.868829
459.000000	2.917024
460.000000	2.965597
461.000000	3.014559
462.000000	3.063819
463.000000	3.113400
464.000000	3.163405
465.000000	3.213669
466.000000	3.264248
467.000000	3.315255
468.000000	3.366607
469.000000	3.418380
470.000000	3.470577
471.000000	3.523305
472.000000	3.576485
473.000000	3.630136
474.000000	3.684213
475.000000	3.738667
476.000000	3.793615
477.000000	3.849123
478.000000	3.904961
479.000000	3.961323
480.000000	4.018245
481.000000	4.075651
482.000000	4.133712
483.000000	4.192422
484.000000	4.251571
485.000000	4.311361
486.000000	4.371652
487.000000	4.432611
488.000000	4.494328
489.000000	4.556650
490.000000	4.619475
491.000000	4.682963
492.000000	4.747550
493.000000	4.812854
494.000000	4.879064
495.000000	4.946106
496.000000	5.013884
497.000000	5.082416
498.000000	5.151795
499.000000	5.222187
500.000000	5.293452
501.000000	5.365741
502.000000	5.438836
503.000000	5.512748
504.000000	5.587755
505.000000	5.663613
506.000000	5.740200
507.000000	5.817611
508.000000	5.895958
509.000000	5.975210
510.000000	6.055324
511.000000	6.136498
512.000000	6.218548
513.000000	6.301576
514.000000	6.385603
515.000000	6.470288
516.000000	6.555731
517.000000	6.641913
518.000000	6.728874
519.000000	6.816485
520.000000	6.904817
521.000000	6.994093
522.000000	7.083989
523.000000	7.174599
524.000000	7.265863
525.000000	7.357610
526.000000	7.449843
527.000000	7.542278
528.000000	7.635062
529.000000	7.728165
530.000000	7.821524
531.000000	7.915192
532.000000	8.009009
533.000000	8.103122
534.000000	8.196994
535.000000	8.290830
536.000000	8.384527
537.000000	8.478329
538.000000	8.572102
539.000000	8.665519
540.000000	8.758785
541.000000	8.851830
542.000000	8.944717
543.000000	9.037349
544.000000	9.129728
545.000000	9.221752
546.000000	9.313289
547.000000	9.404643
548.000000	9.495326
549.000000	9.585431
550.000000	9.675275
551.000000	9.764518
552.000000	9.853289
553.000000	9.941470
554.000000	10.029279
555.000000	10.116534
556.000000	10.202695
557.000000	10.287771
558.000000	10.372042
559.000000	10.455350
560.000000	10.537730
561.000000	10.619489
562.000000	10.700513
563.000000	10.780758
564.000000	10.860280
565.000000	10.939131
566.000000	11.017330
567.000000	11.094954
568.000000	11.171745
569.000000	11.248519
570.000000	11.324941
571.000000	11.401661
572.000000	11.478235
573.000000	11.555068
574.000000	11.631857
575.000000	11.709055
576.000000	11.786774
577.000000	11.864677
578.000000	11.943107
579.000000	12.022212
580.000000	12.102186
581.000000	12.183292
582.000000	12.265553
583.000000	12.349209
584.000000	12.434507
585.000000	12.520939
586.000000	12.608918
587.000000	12.698591
588.000000	12.789963
589.000000	12.883192
590.000000	12.977708
591.000000	13.074415
592.000000	13.173650
593.000000	13.274750
594.000000	13.378337
595.000000	13.483963
596.000000	13.591818
597.000000	13.701403
598.000000	13.812733
599.000000	13.925979
600.000000	14.041041
601.000000	14.158124
602.000000	14.277211
603.000000	14.398083
604.000000	14.520228
605.000000	14.644059
606.000000	14.768764
607.000000	14.894616
608.000000	15.021053
609.000000	15.148691
610.000000	15.276635
611.000000	15.404852
612.000000	15.533823
613.000000	15.662981
614.000000	15.792476
615.000000	15.922021
616.000000	16.051225
617.000000	16.179839
618.000000	16.308200
619.000000	16.435705
620.000000	16.562852
621.000000	16.689374
622.000000	16.815362
623.000000	16.940542
624.000000	17.064678
625.000000	17.188325
626.000000	17.310920
627.000000	17.432303
628.000000	17.552649
629.000000	17.671759
630.000000	17.790153
631.000000	17.907243
632.000000	18.023737
633.000000	18.139636
634.000000	18.254422
635.000000	18.368212
636.000000	18.481073
637.000000	18.593276
638.000000	18.704549
639.000000	18.814765
640.000000	18.924158
641.000000	19.032661
642.000000	19.140880
643.000000	19.248644
644.000000	19.355522
645.000000	19.462305
646.000000	19.568734
647.000000	19.674202
648.000000	19.779340
649.000000	19.884016
650.000000	19.988502
651.000000	20.092665
652.000000	20.196108
653.000000	20.299019
654.000000	20.401799
655.000000	20.504483
656.000000	20.606822
657.000000	20.708665
658.000000	20.809866
659.000000	20.911057
660.000000	21.012100
661.000000	21.112709
662.000000	21.213212
663.000000	21.313528
664.000000	21.413582
665.000000	21.513120
666.000000	21.611989
667.000000	21.710469
668.000000	21.808565
669.000000	21.906599
670.000000	22.004199
671.000000	22.101439
672.000000	22.198087
673.000000	22.294368
674.000000	22.390502
675.000000	22.486111
676.000000	22.581599
677.000000	22.675980
678.000000	22.770247
679.000000	22.864427
680.000000	22.957912
681.000000	23.051082
682.000000	23.144208
683.000000	23.236688
684.000000	23.328408
685.000000	23.419739
686.000000	23.510621
687.000000	23.601413
688.000000	23.692087
689.000000	23.782497
690.000000	23.872278
691.000000	23.961494
692.000000	24.050117
693.000000	24.138540
694.000000	24.226193
695.000000	24.313648
696.000000	24.400464
697.000000	24.486526
698.000000	24.572596
699.000000	24.658312
700.000000	24.743411
701.000000	24.828558
702.000000	24.913102
703.000000	24.996849
704.000000	25.080084
705.000000	25.163113
706.000000	25.245793
707.000000	25.327985
708.000000	25.409645
709.000000	25.490716
710.000000	25.571358
711.000000	25.651020
712.000000	25.730641
713.000000	25.810498
714.000000	25.889919
715.000000	25.968578
716.000000	26.046734
717.000000	26.124589
718.000000	26.202713
719.000000	26.280544
720.000000	26.357414
721.000000	26.434182
722.000000	26.510553
723.000000	26.586321
724.000000	26.661260
725.000000	26.736353
726.000000	26.811422
727.000000	26.885781
728.000000	26.959733
729.000000	27.033057
730.000000	27.106077
731.000000	27.179387
732.000000	27.252389
733.000000	27.324538
734.000000	27.395944
735.000000	27.467901
736.000000	27.539017
737.000000	27.609488
738.000000	27.679997
739.000000	27.749788
740.000000	27.819358
741.000000	27.888512
742.000000	27.957964
743.000000	28.027300
744.000000	28.096557
745.000000	28.165050
746.000000	28.233406
747.000000	28.301862
748.000000	28.369796
749.000000	28.435939
750.000000	28.501912
751.000000	28.568878
752.000000	28.635640
753.000000	28.701255
754.000000	28.766417
755.000000	28.830953
756.000000	28.895116
757.000000	28.959325
758.000000	29.022642
759.000000	29.086403
760.000000	29.148669
761.000000	29.209584
762.000000	29.271778
763.000000	29.333835
764.000000	29.396411
765.000000	29.458032
766.000000	29.518880
767.000000	29.579695
768.000000	29.640368
769.000000	29.700835
770.000000	29.760563
771.000000	29.820306
772.000000	29.880250
773.000000	29.938846
774.000000	29.997871
775.000000	30.056571
776.000000	30.114623
777.000000	30.171481
778.000000	30.228341
779.000000	30.285778
780.000000	30.343036
781.000000	30.399665
782.000000	30.455458
783.000000	30.510978
784.000000	30.567623
785.000000	30.623773
786.000000	30.677787
787.000000	30.731941
788.000000	30.785197
789.000000	30.839270
790.000000	30.894411
791.000000	30.948786
792.000000	31.001010
793.000000	31.053185
794.000000	31.105179
795.000000	31.157190
796.000000	31.208777
797.000000	31.260254
798.000000	31.310589
799.000000	31.360828
800.000000	31.412255
801.000000	31.463957
802.000000	31.514160
803.000000	31.562275
804.000000	31.611512
805.000000	31.659387
806.000000	31.707538
807.000000	31.754510
808.000000	31.804894
809.000000	31.852661
810.000000	31.898868
811.000000	31.945586
812.000000	31.993040
813.000000	32.037944
814.000000	32.082626
815.000000	32.127033
816.000000	32.171979
817.000000	32.216004
818.000000	32.259725
819.000000	32.304212
820.000000	32.347236
821.000000	32.390813
822.000000	32.433781
823.000000	32.477727
824.000000	32.519867
825.000000	32.560199
826.000000	32.602602
827.000000	32.647680
828.000000	32.689170
829.000000	32.730116
830.000000	32.770118
831.000000	32.812321
832.000000	32.853927
833.000000	32.896989
834.000000	32.935009
835.000000	32.973143
836.000000	33.011227
837.000000	33.051661
838.000000	33.092305
839.000000	33.130502
840.000000	33.170879
841.000000	33.208751
842.000000	33.247647
843.000000	33.283155
844.000000	33.322392
845.000000	33.360367
846.000000	33.397927
847.000000	33.434566
848.000000	33.472220
849.000000	33.505324
850.000000	33.540015
851.000000	33.580012
852.000000	33.616125
853.000000	33.649585
854.000000	33.679161
855.000000	33.716672
856.000000	33.748547
857.000000	33.785156
858.000000	33.815334
859.000000	33.866720
860.000000	33.921945
861.000000	33.971120
862.000000	34.023029
863.000000	34.088968
864.000000	34.142894
865.000000	34.222342
866.000000	34.287208
867.000000	34.330573
868.000000	34.371926
869.000000	34.430959
870.000000	34.477178
871.000000	34.516996
872.000000	34.577327
873.000000	34.634244
874.000000	34.670831
875.000000	34.727193
876.000000	34.781800
877.000000	34.845757
878.000000	34.889756
879.000000	34.936215
880.000000	34.984275
881.000000	35.032464
882.000000	35.077561
883.000000	35.125106
884.000000	35.181512
885.000000	35.229126
886.000000	35.272045
887.000000	35.323816
888.000000	35.376659
889.000000	35.426293
890.000000	35.466880
891.000000	35.528712
892.000000	35.563363
893.000000	35.598119
894.000000	35.649697
895.000000	35.680297
896.000000	35.696627
897.000000	35.729790
898.000000	35.767105
899.000000	35.783010
900.000000	35.784358
901.000000	35.791871
902.000000	35.818375
903.000000	35.845345
904.000000	35.871045
905.000000	35.905639
906.000000	35.937807
907.000000	35.955340
908.000000	35.967153
909.000000	36.010552
910.000000	36.032488
911.000000	36.062573
912.000000	36.061141
913.000000	36.090190
914.000000	36.111801
915.000000	36.150320
916.000000	36.181680
917.000000	36.215083
918.000000	36.240086
919.000000	36.250901
920.000000	36.286189
921.000000	36.310820
922.000000	36.338119
923.000000	36.365672
924.000000	36.383552
925.000000	36.417053
926.000000	36.419713
927.000000	36.445978
928.000000	36.486521
929.000000	36.492970
930.000000	36.507878
931.000000	36.549149
932.000000	36.550321
933.000000	36.535892
934.000000	36.573647
935.000000	36.611342
936.000000	36.638607
937.000000	36.648947
938.000000	36.671994
939.000000	36.684764
940.000000	36.693556
941.000000	36.702702
942.000000	36.723559
943.000000	36.752935
944.000000	36.764370
945.000000	36.771251
946.000000	36.787147
947.000000	36.821564
948.000000	36.829763
949.000000	36.841677
950.000000	36.834188
951.000000	36.826829
952.000000	36.823181
953.000000	36.824953
954.000000	36.849601
955.000000	36.851636
956.000000	36.854864
957.000000	36.866177
958.000000	36.878897
959.000000	36.891139
960.000000	36.882897
961.000000	36.907617
962.000000	36.926840
963.000000	36.938791
964.000000	36.958256
965.000000	36.971139
966.000000	36.980835
967.000000	36.998189
968.000000	37.013765
969.000000	37.020523
970.000000	37.014470
971.000000	37.042334
972.000000	37.081363
973.000000	37.088633
974.000000	37.098519
975.000000	37.123578
976.000000	37.140027
977.000000	37.141828
978.000000	37.158944
979.000000	37.168148
980.000000	37.172900
981.000000	37.164060
982.000000	37.163187
983.000000	37.190813
984.000000	37.212556
985.000000	37.231248
986.000000	37.256265
987.000000	37.269862
988.000000	37.286239
989.000000	37.302385
990.000000	37.316479
991.000000	37.330749
992.000000	37.331495
993.000000	37.328280
994.000000	37.336935
995.000000	37.365813
996.000000	37.370813
997.000000	37.364938
998.000000	37.372559
999.000000	37.378898
1000.000000	37.401836
1001.000000	37.412456
1002.000000	37.424287
1003.000000	37.433603
1004.000000	37.438653
1005.000000	37.449284
1006.000000	37.435332
1007.000000	37.436960
1008.000000	37.455281
1009.000000	37.455278
1010.000000	37.458906
1011.000000	37.481340
1012.000000	37.479614
1013.000000	37.457589
1014.000000	37.462325
1015.000000	37.480417
1016.000000	37.502912
1017.000000	37.507701
1018.000000	37.503967
1019.000000	37.514476
1020.000000	37.529196
1021.000000	37.542609
1022.000000	37.552443
1023.000000	37.562136
1024.000000	37.572673
1025.000000	37.587408
1026.000000	37.599789
1027.000000	37.607247
1028.000000	37.618414
1029.000000	37.632975
1030.000000	37.648983
1031.000000	37.659417
1032.000000	37.682859
1033.000000	37.701524
1034.000000	37.726228
1035.000000	37.744419
1036.000000	37.755073
1037.000000	37.770784
1038.000000	37.792973
1039.000000	37.812073
1040.000000	37.827091
1041.000000	37.855556
1042.000000	37.878851
1043.000000	37.889569
1044.000000	37.910268
1045.000000	37.921721
1046.000000	37.932547
1047.000000	37.962883
1048.000000	38.003069
1049.000000	38.020356
1050.000000	38.028848
1051.000000	38.043278
1052.000000	38.059069
1053.000000	38.065470
1054.000000	38.085667
1055.000000	38.100072
1056.000000	38.120249
1057.000000	38.138714
1058.000000	38.153585
1059.000000	38.155864
1060.000000	38.168025
1061.000000	38.190237
1062.000000	38.191758
1063.000000	38.195565
1064.000000	38.218635
1065.000000	38.228936
1066.000000	38.237789
1067.000000	38.254050
1068.000000	38.264654
1069.000000	38.243478
1070.000000	38.231043
1071.000000	38.232213
1072.000000	38.232968
1073.000000	38.220933
1074.000000	38.221231
1075.000000	38.215602
1076.000000	38.215357
1077.000000	38.218597
1078.000000	38.243649
1079.000000	38.256436
1080.000000	38.255906
1081.000000	38.251679
1082.000000	38.250617
1083.000000	38.257374
1084.000000	38.277648
1085.000000	38.302739
1086.000000	38.299272
1087.000000	38.313691
1088.000000	38.331435
1089.000000	38.317617
1090.000000	38.317330
1091.000000	38.330237
1092.000000	38.343155
1093.000000	38.369750
1094.000000	38.381536
1095.000000	38.377948
1096.000000	38.403438
1097.000000	38.425213
1098.000000	38.449918
1099.000000	38.460763
1100.000000	38.476658
1101.000000	38.487656
1102.000000	38.486285
1103.000000	38.500919
1104.000000	38.514812
1105.000000	38.522620
1106.000000	38.548391
1107.000000	38.582683
1108.000000	38.606787
1109.000000	38.612353
1110.000000	38.626105
1111.000000	38.641422
1112.000000	38.640964
1113.000000	38.638725
1114.000000	38.645180
1115.000000	38.701934
1116.000000	38.721804
1117.000000	38.734170
1118.000000	38.739764
1119.000000	38.738818
1120.000000	38.731529
1121.000000	38.735569
1122.000000	38.753999
1123.000000	38.817691
1124.000000	38.814387
1125.000000	38.839865
1126.000000	38.819451
1127.000000	38.844955
1128.000000	38.833792
1129.000000	38.879208
1130.000000	38.892421
1131.000000	38.863967
1132.000000	38.878399
1133.000000	38.889590
1134.000000	38.922409
1135.000000	38.903582
1136.000000	38.888426
1137.000000	38.896162
1138.000000	38.885213
1139.000000	38.897379
1140.000000	38.934170
1141.000000	38.940153
1142.000000	38.937121
1143.000000	38.959329
1144.000000	38.956464
1145.000000	38.957274
1146.000000	38.945680
1147.000000	38.957240
1148.000000	38.963609
1149.000000	38.977214
1150.000000	38.920216
1151.000000	38.894393
1152.000000	38.906111
1153.000000	38.895090
1154.000000	38.893609
1155.000000	38.899934
1156.000000	38.934222
1157.000000	38.942396
1158.000000	38.894475
1159.000000	38.906314
1160.000000	38.888976
1161.000000	38.911100
1162.000000	38.897951
1163.000000	38.885513
1164.000000	38.839919
1165.000000	38.830492
1166.000000	38.835842
1167.000000	38.842356
1168.000000	38.821329
1169.000000	38.776245
1170.000000	38.766421
1171.000000	38.757844
1172.000000	38.745206
1173.000000	38.731644
1174.000000	38.723571
1175.000000	38.672438
1176.000000	38.646531
1177.000000	38.602299
1178.000000	38.578629
1179.000000	38.577797
1180.000000	38.571174
1181.000000	38.576318
1182.000000	38.567210
1183.000000	38.552212
1184.000000	38.550556
1185.000000	38.566817
1186.000000	38.579355
1187.000000	38.559787
1188.000000	38.562418
1189.000000	38.552458
1190.000000	38.563223
1191.000000	38.519393
1192.000000	38.481398
1193.000000	38.464828
1194.000000	38.468331
1195.000000	38.453194
1196.000000	38.431555
1197.000000	38.440701
1198.000000	38.466267
1199.000000	38.478546
1200.000000	38.490541
1201.000000	38.502889
1202.000000	38.471651
1203.000000	38.482850
1204.000000	38.506571
1205.000000	38.530177
1206.000000	38.553602
1207.000000	38.563644
1208.000000	38.572950
1209.000000	38.592999
1210.000000	38.635595
1211.000000	38.646685
1212.000000	38.692340
1213.000000	38.709940
1214.000000	38.731984
1215.000000	38.741084
1216.000000	38.748377
1217.000000	38.750795
1218.000000	38.767240
1219.000000	38.772264
1220.000000	38.788607
1221.000000	38.805819
1222.000000	38.831413
1223.000000	38.846816
1224.000000	38.857880
1225.000000	38.840520
1226.000000	38.874658
1227.000000	38.920341
1228.000000	38.943080
1229.000000	38.951950
1230.000000	38.975491
1231.000000	38.992406
1232.000000	38.977871
1233.000000	38.971701
1234.000000	38.958090
1235.000000	38.954857
1236.000000	38.962341
1237.000000	39.007132
1238.000000	39.027188
1239.000000	39.028719
1240.000000	39.030499
1241.000000	39.051651
1242.000000	39.084272
1243.000000	39.115731
1244.000000	39.114480
1245.000000	39.108018
1246.000000	39.118323
1247.000000	39.121654
1248.000000	39.111611
1249.000000	39.108264
1250.000000	39.139040
1251.000000	39.144209
1252.000000	39.140867
1253.000000	39.140444
1254.000000	39.142023
1255.000000	39.137925
1256.000000	39.150988
1257.000000	39.155857
1258.000000	39.156328
1259.000000	39.169664
1260.000000	39.196391
1261.000000	39.215606
1262.000000	39.228436
1263.000000	39.248429
1264.000000	39.262789
1265.000000	39.264741
1266.000000	39.268257
1267.000000	39.281691
1268.000000	39.294527
1269.000000	39.316345
1270.000000	39.333849
1271.000000	39.333402
1272.000000	39.336033
1273.000000	39.350769
1274.000000	39.367687
1275.000000	39.392641
1276.000000	39.392418
1277.000000	39.376236
1278.000000	39.367830
1279.000000	39.374936
1280.000000	39.384594
1281.000000	39.402721
1282.000000	39.407148
1283.000000	39.418204
1284.000000	39.428343
1285.000000	39.417395
1286.000000	39.432618
1287.000000	39.456037
1288.000000	39.466630
1289.000000	39.482634
1290.000000	39.502309
1291.000000	39.513440
1292.000000	39.508735
1293.000000	39.512998
1294.000000	39.535049
1295.000000	39.539295
1296.000000	39.517050
1297.000000	39.487814
1298.000000	39.472667
1299.000000	39.483246
1300.000000	39.501421
1301.000000	39.517336
1302.000000	39.524813
1303.000000	39.519818
1304.000000	39.518871
1305.000000	39.530558
1306.000000	39.532588
1307.000000	39.540970
1308.000000	39.545239
1309.000000	39.552792
1310.000000	39.554863
1311.000000	39.570485
1312.000000	39.584783
1313.000000	39.590538
1314.000000	39.588036
1315.000000	39.585026
1316.000000	39.572705
1317.000000	39.585780
1318.000000	39.608019
1319.000000	39.622912
1320.000000	39.643981
1321.000000	39.649337
1322.000000	39.648713
1323.000000	39.653206
1324.000000	39.665665
1325.000000	39.673903
1326.000000	39.674059
1327.000000	39.675092
1328.000000	39.692386
1329.000000	39.682924
1330.000000	39.689773
1331.000000	39.722789
1332.000000	39.728329
1333.000000	39.727921
1334.000000	39.722880
1335.000000	39.716300
1336.000000	39.708430
1337.000000	39.705392
1338.000000	39.705581
1339.000000	39.711106
1340.000000	39.686410
1341.000000	39.679252
1342.000000	39.668236
1343.000000	39.644991
1344.000000	39.623924
1345.000000	39.616422
1346.000000	39.597859
1347.000000	39.592855
1348.000000	39.591773
1349.000000	39.610310
1350.000000	39.587165
1351.000000	39.530510
1352.000000	39.464917
1353.000000	39.410515
1354.000000	39.439550
1355.000000	39.482640
1356.000000	39.500632
1357.000000	39.490555
1358.000000	39.496155
1359.000000	39.464087
1360.000000	39.534294
1361.000000	39.489114
1362.000000	39.292420
1363.000000	39.208370
1364.000000	39.196801
1365.000000	39.081283
1366.000000	39.104552
1367.000000	39.259993
1368.000000	39.277460
1369.000000	39.307039
1370.000000	39.406239
1371.000000	39.381420
1372.000000	39.321583
1373.000000	39.268729
1374.000000	39.269348
1375.000000	39.237803
1376.000000	39.191206
1377.000000	39.132897
1378.000000	39.186499
1379.000000	39.110787
1380.000000	38.832788
1381.000000	38.776958
1382.000000	38.866056
1383.000000	38.893970
1384.000000	38.920935
1385.000000	38.957714
1386.000000	38.988618
1387.000000	39.167795
1388.000000	39.107294
1389.000000	39.068642
1390.000000	38.983721
1391.000000	38.921962
1392.000000	38.763125
1393.000000	38.701006
1394.000000	38.725575
1395.000000	38.635114
1396.000000	38.477394
1397.000000	38.523712
1398.000000	38.484229
1399.000000	38.491562
1400.000000	38.688892
1401.000000	38.612136
1402.000000	38.402336
1403.000000	38.321726
1404.000000	38.246302
1405.000000	38.061735
1406.000000	38.089512
1407.000000	38.075774
1408.000000	38.074787
1409.000000	38.035025
1410.000000	38.016888
1411.000000	37.997461
1412.000000	37.967636
1413.000000	37.845950
1414.000000	37.895146
1415.000000	38.086384
1416.000000	38.074499
1417.000000	37.924139
1418.000000	37.857333
1419.000000	37.734453
1420.000000	37.677864
1421.000000	37.630334
1422.000000	37.436954
1423.000000	37.464229
1424.000000	37.378032
1425.000000	37.361707
1426.000000	37.316600
1427.000000	37.380953
1428.000000	37.338937
1429.000000	37.233687
1430.000000	37.154409
1431.000000	37.284390
1432.000000	37.360520
1433.000000	37.382583
1434.000000	37.284621
1435.000000	37.099566
1436.000000	37.047904
1437.000000	37.044577
1438.000000	37.009538
1439.000000	36.973316
1440.000000	36.968155
1441.000000	36.889386
1442.000000	36.862039
1443.000000	36.813142
1444.000000	36.754928
1445.000000	36.784530
1446.000000	36.756528
1447.000000	36.738475
1448.000000	36.735423
1449.000000	36.675675
1450.000000	36.681665
1451.000000	36.658826
1452.000000	36.608414
1453.000000	36.555847
1454.000000	36.535781
1455.000000	36.474818
1456.000000	36.447631
1457.000000	36.400992
1458.000000	36.380670
1459.000000	36.353655
1460.000000	36.267119
1461.000000	36.216077
1462.000000	36.201604
1463.000000	36.174991
1464.000000	36.160384
1465.000000	36.140890
1466.000000	36.104119
1467.000000	36.062516
1468.000000	36.047541
1469.000000	36.086930
1470.000000	36.105379
1471.000000	36.064135
1472.000000	36.013524
1473.000000	35.986033
1474.000000	35.947604
1475.000000	35.923682
1476.000000	35.888430
1477.000000	35.867404
1478.000000	35.865025
1479.000000	35.870861
1480.000000	35.800198
1481.000000	35.803019
1482.000000	35.796592
1483.000000	35.781510
1484.000000	35.765925
1485.000000	35.740590
1486.000000	35.726163
1487.000000	35.724601
1488.000000	35.686395
1489.000000	35.665766
1490.000000	35.667063
1491.000000	35.666843
1492.000000	35.677341
1493.000000	35.660641
1494.000000	35.662410
1495.000000	35.688180
1496.000000	35.696966
1497.000000	35.704017
1498.000000	35.730192
1499.000000	35.725372
1500.000000	35.694519
1501.000000	35.670747
1502.000000	35.687576
1503.000000	35.688019
1504.000000	35.646764
1505.000000	35.612917
1506.000000	35.630352
1507.000000	35.654674
1508.000000	35.687851
1509.000000	35.703300
1510.000000	35.717016
1511.000000	35.722846
1512.000000	35.744373
1513.000000	35.757549
1514.000000	35.754872
1515.000000	35.763675
1516.000000	35.760115
1517.000000	35.769963
1518.000000	35.770504
1519.000000	35.776228
1520.000000	35.779913
1521.000000	35.808648
1522.000000	35.833595
1523.000000	35.870515
1524.000000	35.902966
1525.000000	35.928002
1526.000000	35.964294
1527.000000	35.998740
1528.000000	36.046930
1529.000000	36.086351
1530.000000	36.100999
1531.000000	36.126931
1532.000000	36.148764
1533.000000	36.170546
1534.000000	36.204035
1535.000000	36.258673
1536.000000	36.320197
1537.000000	36.353044
1538.000000	36.383376
1539.000000	36.407407
1540.000000	36.435810
1541.000000	36.464768
1542.000000	36.480563
1543.000000	36.513805
1544.000000	36.550110
1545.000000	36.588069
1546.000000	36.628577
1547.000000	36.669791
1548.000000	36.725889
1549.000000	36.767541
1550.000000	36.803397
1551.000000	36.840806
1552.000000	36.880800
1553.000000	36.927062
1554.000000	36.972015
1555.000000	37.004347
1556.000000	37.018246
1557.000000	37.043746
1558.000000	37.083535
1559.000000	37.114290
1560.000000	37.133360
1561.000000	37.140719
1562.000000	37.161766
1563.000000	37.174930
1564.000000	37.187580
1565.000000	37.208570
1566.000000	37.248016
1567.000000	37.274158
1568.000000	37.287931
1569.000000	37.324861
1570.000000	37.345280
1571.000000	37.352990
1572.000000	37.361413
1573.000000	37.369568
1574.000000	37.385194
1575.000000	37.409743
1576.000000	37.429081
1577.000000	37.435583
1578.000000	37.432520
1579.000000	37.439990
1580.000000	37.447415
1581.000000	37.467933
1582.000000	37.476226
1583.000000	37.468504
1584.000000	37.475726
1585.000000	37.481368
1586.000000	37.507277
1587.000000	37.516876
1588.000000	37.534003
1589.000000	37.544279
1590.000000	37.555618
1591.000000	37.578360
1592.000000	37.587881
1593.000000	37.578618
1594.000000	37.575636
1595.000000	37.598641
1596.000000	37.610643
1597.000000	37.609950
1598.000000	37.618088
1599.000000	37.626188
1600.000000	37.634887
1601.000000	37.646304
1602.000000	37.662786
1603.000000	37.676921
1604.000000	37.667124
1605.000000	37.692874
1606.000000	37.714770
1607.000000	37.735732
1608.000000	37.758191
1609.000000	37.765754
1610.000000	37.789599
1611.000000	37.804478
1612.000000	37.834127
1613.000000	37.882334
1614.000000	37.927966
1615.000000	37.957297
1616.000000	37.958488
1617.000000	37.968413
1618.000000	37.983327
1619.000000	38.013013
1620.000000	38.043759
1621.000000	38.055887
1622.000000	38.075130
1623.000000	38.073606
1624.000000	38.098609
1625.000000	38.117316
1626.000000	38.130706
1627.000000	38.146496
1628.000000	38.180438
1629.000000	38.215363
1630.000000	38.223977
1631.000000	38.256030
1632.000000	38.299958
1633.000000	38.338526
1634.000000	38.354495
1635.000000	38.379769
1636.000000	38.383633
1637.000000	38.408974
1638.000000	38.428757
1639.000000	38.452979
1640.000000	38.466034
1641.000000	38.470415
1642.000000	38.508038
1643.000000	38.545361
1644.000000	38.583398
1645.000000	38.591626
1646.000000	38.604597
1647.000000	38.606484
1648.000000	38.599599
1649.000000	38.606168
1650.000000	38.607940
1651.000000	38.640288
1652.000000	38.657159
1653.000000	38.675627
1654.000000	38.650111
1655.000000	38.659662
1656.000000	38.694604
1657.000000	38.735188
1658.000000	38.734122
1659.000000	38.742466
1660.000000	38.755187
1661.000000	38.775174
1662.000000	38.815517
1663.000000	38.823555
1664.000000	38.833392
1665.000000	38.843955
1666.000000	38.830200
1667.000000	38.812460
1668.000000	38.778287
1669.000000	38.786719
1670.000000	38.794023
1671.000000	38.801074
1672.000000	38.781074
1673.000000	38.753719
1674.000000	38.736305
1675.000000	38.724175
1676.000000	38.713123
1677.000000	38.681815
1678.000000	38.664345
1679.000000	38.631716
1680.000000	38.623136
1681.000000	38.602067
1682.000000	38.597648
1683.000000	38.576790
1684.000000	38.538052
1685.000000	38.513194
1686.000000	38.476446
1687.000000	38.437593
1688.000000	38.419411
1689.000000	38.415205
1690.000000	38.386227
1691.000000	38.344959
1692.000000	38.286558
1693.000000	38.265893
1694.000000	38.229557
1695.000000	38.205925
1696.000000	38.188254
1697.000000	38.155777
1698.000000	38.128987
1699.000000	38.100699
1700.000000	38.066706
1701.000000	38.044771
1702.000000	38.036638
1703.000000	38.028618
1704.000000	38.024072
1705.000000	38.007960
1706.000000	38.002285
1707.000000	38.008088
1708.000000	38.021272
1709.000000	38.018082
1710.000000	38.008313
1711.000000	37.993371
1712.000000	37.966579
1713.000000	37.939403
1714.000000	37.919266
1715.000000	37.881174
1716.000000	37.872218
1717.000000	37.852235
1718.000000	37.813346
1719.000000	37.771688
1720.000000	37.731893
1721.000000	37.717218
1722.000000	37.707964
1723.000000	37.685882
1724.000000	37.658383
1725.000000	37.629373
1726.000000	37.611964
1727.000000	37.585445
1728.000000	37.554209
1729.000000	37.527106
1730.000000	37.496464
1731.000000	37.450515
1732.000000	37.423307
1733.000000	37.415937
1734.000000	37.385759
1735.000000	37.361550
1736.000000	37.354989
1737.000000	37.334985
1738.000000	37.326708
1739.000000	37.294666
1740.000000	37.284815
1741.000000	37.270327
1742.000000	37.245924
1743.000000	37.238379
1744.000000	37.241240
1745.000000	37.243008
1746.000000	37.244553
1747.000000	37.258004
1748.000000	37.263895
1749.000000	37.293914
1750.000000	37.314149
1751.000000	37.336865
1752.000000	37.350139
1753.000000	37.387473
1754.000000	37.422791
1755.000000	37.454639
1756.000000	37.475096
1757.000000	37.506206
1758.000000	37.513997
1759.000000	37.521807
1760.000000	37.533644
1761.000000	37.545863
1762.000000	37.584449
1763.000000	37.638866
1764.000000	37.679301
1765.000000	37.705709
1766.000000	37.728615
1767.000000	37.739418
1768.000000	37.747541
1769.000000	37.767030
1770.000000	37.797271
1771.000000	37.818136
1772.000000	37.842991
1773.000000	37.861852
1774.000000	37.891918
1775.000000	37.916084
1776.000000	37.919885
1777.000000	37.929618
1778.000000	37.945674
1779.000000	37.964345
1780.000000	37.981798
1781.000000	37.997342
1782.000000	38.001612
1783.000000	38.015994
1784.000000	38.018371
1785.000000	38.028087
1786.000000	38.036267
1787.000000	38.062622
1788.000000	38.088645
1789.000000	38.120585
1790.000000	38.148096
1791.000000	38.154527
1792.000000	38.168447
1793.000000	38.211457
1794.000000	38.262371
1795.000000	38.289916
1796.000000	38.295205
1797.000000	38.305161
1798.000000	38.311160
1799.000000	38.311434
1800.000000	38.330587
1801.000000	38.375766
1802.000000	38.413500
1803.000000	38.433191
1804.000000	38.460712
1805.000000	38.496718
1806.000000	38.541734
1807.000000	38.562354
1808.000000	38.565462
1809.000000	38.565478
1810.000000	38.574518
1811.000000	38.624127
1812.000000	38.681035
1813.000000	38.708096
1814.000000	38.714184
1815.000000	38.697173
1816.000000	38.750201
1817.000000	38.927272
1818.000000	39.031896
1819.000000	39.113034
1820.000000	39.165649
1821.000000	39.167356
1822.000000	39.186718
1823.000000	39.224092
1824.000000	39.253079
1825.000000	39.393372
1826.000000	39.480607
1827.000000	39.523897
1828.000000	39.543641
1829.000000	39.559540
1830.000000	39.657463
1831.000000	39.710839
1832.000000	39.706541
1833.000000	39.716598
1834.000000	39.766122
1835.000000	39.865308
1836.000000	39.867837
1837.000000	39.822576
1838.000000	39.788771
1839.000000	39.698441
1840.000000	39.610389
1841.000000	39.629305
1842.000000	39.626988
1843.000000	39.638609
1844.000000	39.651644
1845.000000	39.659827
1846.000000	39.700511
1847.000000	39.778884
1848.000000	39.785637
1849.000000	39.794466
1850.000000	39.792414
1851.000000	39.749826
1852.000000	39.611430
1853.000000	39.578327
1854.000000	39.537127
1855.000000	39.518033
1856.000000	39.480422
1857.000000	39.433128
1858.000000	39.383590
1859.000000	39.362638
1860.000000	39.242033
1861.000000	39.192253
1862.000000	39.191755
1863.000000	39.343996
1864.000000	39.465630
1865.000000	39.424514
1866.000000	39.383640
1867.000000	39.327433
1868.000000	39.280805
1869.000000	39.251591
1870.000000	39.304353
1871.000000	39.312805
1872.000000	39.480171
1873.000000	39.523652
1874.000000	39.614154
1875.000000	39.673835
1876.000000	39.730003
1877.000000	39.743169
1878.000000	39.715331
1879.000000	39.699091
1880.000000	39.684230
1881.000000	39.597963
1882.000000	39.467871
1883.000000	39.506710
1884.000000	39.458011
1885.000000	39.448549
1886.000000	39.463207
1887.000000	39.407290
1888.000000	39.294420
1889.000000	39.258582
1890.000000	39.158524
1891.000000	39.164091
1892.000000	39.095924
1893.000000	39.025157
1894.000000	38.916014
1895.000000	38.818877
1896.000000	38.721763
1897.000000	38.611848
1898.000000	38.321132
1899.000000	38.058350
1900.000000	37.895643
1901.000000	37.814240
1902.000000	38.013312
1903.000000	37.920907
1904.000000	37.758670
1905.000000	37.430095
1906.000000	37.249172
1907.000000	36.933660
1908.000000	36.735657
1909.000000	36.555407
1910.000000	36.355465
1911.000000	36.001096
1912.000000	35.727005
1913.000000	35.546724
1914.000000	35.351375
1915.000000	35.160003
1916.000000	34.907602
1917.000000	34.627700
1918.000000	34.298092
1919.000000	34.172707
1920.000000	34.064463
1921.000000	33.794068
1922.000000	33.596300
1923.000000	33.452342
1924.000000	33.184855
1925.000000	33.014389
1926.000000	32.836200
1927.000000	32.645554
1928.000000	32.499902
1929.000000	32.351301
1930.000000	32.235096
1931.000000	32.048007
1932.000000	31.863688
1933.000000	31.765398
1934.000000	31.602567
1935.000000	31.472945
1936.000000	31.305422
1937.000000	30.941162
1938.000000	30.844046
1939.000000	30.758303
1940.000000	30.704307
1941.000000	30.618030
1942.000000	30.561572
1943.000000	30.510844
1944.000000	30.476626
1945.000000	30.450808
1946.000000	30.453832
1947.000000	30.474508
1948.000000	30.444842
1949.000000	30.430869
1950.000000	30.397062
1951.000000	30.457471
1952.000000	30.545930
1953.000000	30.571567
1954.000000	30.508369
1955.000000	30.415029
1956.000000	30.444324
1957.000000	30.477583
1958.000000	30.477702
1959.000000	30.533122
1960.000000	30.578509
1961.000000	30.581568
1962.000000	30.671932
1963.000000	30.715282
1964.000000	30.754347
1965.000000	30.766177
1966.000000	30.842214
1967.000000	30.907298
1968.000000	30.905653
1969.000000	31.006530
1970.000000	31.071915
1971.000000	31.148468
1972.000000	31.199035
1973.000000	31.260267
1974.000000	31.331187
1975.000000	31.406105
1976.000000	31.469263
1977.000000	31.536760
1978.000000	31.609118
1979.000000	31.666676
1980.000000	31.751325
1981.000000	31.846230
1982.000000	31.922032
1983.000000	32.005226
1984.000000	32.067224
1985.000000	32.131897
1986.000000	32.193443
1987.000000	32.246090
1988.000000	32.354823
1989.000000	32.440288
1990.000000	32.542814
1991.000000	32.637836
1992.000000	32.700584
1993.000000	32.754064
1994.000000	32.843069
1995.000000	32.896546
1996.000000	32.952543
1997.000000	33.015441
1998.000000	33.060789
1999.000000	33.139722
2000.000000	33.194893
