PE UV       SUBTECH     SPECTRUM    ASCII       PEDS        4.00        
   -1
CICIMAUCR0210-2.Sample.ASC
24/06/12
12:45:38.00
24/06/12
12:45:38.00
Vinicio Soto Monge
C. resplendens. Sex F. Ventral
250,000000
1
Lambda 1050
1050L1511233
PerkinElmer UV WinLab 6.3.2.0749 / 2.02.05 Lambda 900 UV/VIS/NIR, Aug  7 2015 09:38:08

0
0
3350/servo 860,8/2
0
0
UV/VIS
1
1
1
DoubleDePol,CommonBeamDepol,RBeamAtt,SBeamAtt,60mm sphere, WB InGaAs Detector
0
0
0
0
Program
Program
3350/servo 860,8/2
3350/0,2 860,8/0,2
3350/0,2 860,8/0,2
0
15.00
 
 
 
0
 
860,8
319,2
860,8
Front
100
on
S:100 R:100
0
0
0
0
 
0
 
 
 
0
 
 
0
0
0
0
0
 
 
 
 
0
0


0
0
#HDR
-1
-1
#GR
nm
%R
1.0
0.0
2500,000000
-1,000000
2251
8
50,736000
2,900900
#DATA
2482.000000	5.417458
2481.000000	5.172223
2480.000000	5.221743
2479.000000	5.316479
2478.000000	5.110645
2477.000000	5.289565
2476.000000	5.199567
2475.000000	5.105047
2474.000000	5.267173
2473.000000	5.197952
2472.000000	5.110860
2471.000000	5.139496
2470.000000	5.125609
2469.000000	5.209578
2468.000000	5.214531
2467.000000	5.214315
2466.000000	5.115812
2465.000000	5.199459
2464.000000	5.234339
2463.000000	5.216361
2462.000000	5.196337
2461.000000	5.229925
2460.000000	5.203873
2459.000000	5.184818
2458.000000	5.174806
2457.000000	5.246181
2456.000000	5.256838
2455.000000	5.249087
2454.000000	5.292795
2453.000000	5.247580
2452.000000	5.296563
2451.000000	5.363416
2450.000000	5.369121
2449.000000	5.404001
2448.000000	5.428546
2447.000000	5.432206
2446.000000	5.428331
2445.000000	5.439527
2444.000000	5.524896
2443.000000	5.555578
2442.000000	5.551487
2441.000000	5.573233
2440.000000	5.598101
2439.000000	5.631581
2438.000000	5.676473
2437.000000	5.673674
2436.000000	5.728577
2435.000000	5.743864
2434.000000	5.752046
2433.000000	5.759151
2432.000000	5.826434
2431.000000	5.852271
2430.000000	5.855931
2429.000000	5.834616
2428.000000	5.909435
2427.000000	5.922892
2426.000000	5.928059
2425.000000	5.936133
2424.000000	5.930535
2423.000000	5.971013
2422.000000	6.008261
2421.000000	6.037005
2420.000000	6.069301
2419.000000	6.107949
2418.000000	6.095676
2417.000000	6.076191
2416.000000	6.134324
2415.000000	6.157685
2414.000000	6.167266
2413.000000	6.173725
2412.000000	6.181907
2411.000000	6.236057
2410.000000	6.223892
2409.000000	6.224107
2408.000000	6.239825
2407.000000	6.260171
2406.000000	6.271152
2405.000000	6.275566
2404.000000	6.270613
2403.000000	6.277934
2402.000000	6.303663
2401.000000	6.336498
2400.000000	6.344141
2399.000000	6.366318
2398.000000	6.355445
2397.000000	6.357705
2396.000000	6.388279
2395.000000	6.416807
2394.000000	6.427896
2393.000000	6.438661
2392.000000	6.438769
2391.000000	6.451364
2390.000000	6.462668
2389.000000	6.466005
2388.000000	6.489473
2387.000000	6.504007
2386.000000	6.513588
2385.000000	6.511112
2384.000000	6.523277
2383.000000	6.500777
2382.000000	6.509820
2381.000000	6.515310
2380.000000	6.505406
2379.000000	6.513157
2378.000000	6.510574
2377.000000	6.532212
2376.000000	6.547391
2375.000000	6.525322
2374.000000	6.530274
2373.000000	6.536088
2372.000000	6.532750
2371.000000	6.538671
2370.000000	6.523815
2369.000000	6.523169
2368.000000	6.535549
2367.000000	6.535980
2366.000000	6.505514
2365.000000	6.484521
2364.000000	6.488289
2363.000000	6.483660
2362.000000	6.496040
2361.000000	6.487213
2360.000000	6.450072
2359.000000	6.441029
2358.000000	6.439737
2357.000000	6.415838
2356.000000	6.402489
2355.000000	6.398721
2354.000000	6.396030
2353.000000	6.399690
2352.000000	6.400229
2351.000000	6.378483
2350.000000	6.375253
2349.000000	6.398614
2348.000000	6.407980
2347.000000	6.411748
2346.000000	6.421867
2345.000000	6.437369
2344.000000	6.447704
2343.000000	6.465036
2342.000000	6.478385
2341.000000	6.470634
2340.000000	6.493995
2339.000000	6.512188
2338.000000	6.507559
2337.000000	6.516495
2336.000000	6.533612
2335.000000	6.538025
2334.000000	6.521447
2333.000000	6.530059
2332.000000	6.541363
2331.000000	6.530813
2330.000000	6.525537
2329.000000	6.518325
2328.000000	6.511758
2327.000000	6.498086
2326.000000	6.472249
2325.000000	6.455024
2324.000000	6.465790
2323.000000	6.463206
2322.000000	6.425204
2321.000000	6.392370
2320.000000	6.376868
2319.000000	6.360397
2318.000000	6.339835
2317.000000	6.304094
2316.000000	6.254358
2315.000000	6.208282
2314.000000	6.189443
2313.000000	6.162314
2312.000000	6.135508
2311.000000	6.094277
2310.000000	6.068655
2309.000000	6.059935
2308.000000	6.037005
2307.000000	6.015044
2306.000000	6.010414
2305.000000	6.014075
2304.000000	6.000618
2303.000000	5.996419
2302.000000	6.021826
2301.000000	6.020319
2300.000000	6.030869
2299.000000	6.045617
2298.000000	6.068978
2297.000000	6.096107
2296.000000	6.129157
2295.000000	6.158977
2294.000000	6.176955
2293.000000	6.210112
2292.000000	6.237564
2291.000000	6.251774
2290.000000	6.269429
2289.000000	6.304632
2288.000000	6.317658
2287.000000	6.316797
2286.000000	6.323256
2285.000000	6.321211
2284.000000	6.326701
2283.000000	6.323364
2282.000000	6.311737
2281.000000	6.288915
2280.000000	6.290314
2279.000000	6.280195
2278.000000	6.277288
2277.000000	6.247037
2276.000000	6.247360
2275.000000	6.223354
2274.000000	6.205914
2273.000000	6.208713
2272.000000	6.196871
2271.000000	6.206237
2270.000000	6.203545
2269.000000	6.205591
2268.000000	6.201069
2267.000000	6.234011
2266.000000	6.259633
2265.000000	6.288484
2264.000000	6.323687
2263.000000	6.377191
2262.000000	6.421975
2261.000000	6.482153
2260.000000	6.564616
2259.000000	6.628239
2258.000000	6.701228
2257.000000	6.811466
2256.000000	6.881441
2255.000000	6.977898
2254.000000	7.066174
2253.000000	7.160048
2252.000000	7.266303
2251.000000	7.338000
2250.000000	7.430475
2249.000000	7.514875
2248.000000	7.596907
2247.000000	7.683246
2246.000000	7.740733
2245.000000	7.809631
2244.000000	7.872931
2243.000000	7.942691
2242.000000	7.996733
2241.000000	8.043885
2240.000000	8.092653
2239.000000	8.132377
2238.000000	8.166826
2237.000000	8.204720
2236.000000	8.252088
2235.000000	8.270389
2234.000000	8.303223
2233.000000	8.337027
2232.000000	8.358665
2231.000000	8.355866
2230.000000	8.353605
2229.000000	8.355758
2228.000000	8.379442
2227.000000	8.380303
2226.000000	8.367600
2225.000000	8.369215
2224.000000	8.383210
2223.000000	8.368461
2222.000000	8.352206
2221.000000	8.331106
2220.000000	8.337134
2219.000000	8.318510
2218.000000	8.307099
2217.000000	8.263391
2216.000000	8.268236
2215.000000	8.250042
2214.000000	8.230772
2213.000000	8.200306
2212.000000	8.196108
2211.000000	8.182543
2210.000000	8.177053
2209.000000	8.145295
2208.000000	8.133130
2207.000000	8.127425
2206.000000	8.113107
2205.000000	8.092760
2204.000000	8.075859
2203.000000	8.058849
2202.000000	8.084040
2201.000000	8.062617
2200.000000	8.030321
2199.000000	8.022893
2198.000000	8.031721
2197.000000	8.033981
2196.000000	8.001255
2195.000000	8.029245
2194.000000	7.993611
2193.000000	8.000070
2192.000000	7.999532
2191.000000	8.000716
2190.000000	7.954641
2189.000000	7.970035
2188.000000	7.965621
2187.000000	7.960992
2186.000000	7.939784
2185.000000	7.948504
2184.000000	7.929342
2183.000000	7.937308
2182.000000	7.907919
2181.000000	7.895539
2180.000000	7.892309
2179.000000	7.901029
2178.000000	7.896400
2177.000000	7.880682
2176.000000	7.870563
2175.000000	7.859798
2174.000000	7.853338
2173.000000	7.862274
2172.000000	7.859259
2171.000000	7.871640
2170.000000	7.854738
2169.000000	7.848494
2168.000000	7.857645
2167.000000	7.864750
2166.000000	7.873685
2165.000000	7.869163
2164.000000	7.876053
2163.000000	7.895754
2162.000000	7.909534
2161.000000	7.918469
2160.000000	7.912225
2159.000000	7.942045
2158.000000	7.949258
2157.000000	7.957117
2156.000000	7.982738
2155.000000	7.998563
2154.000000	8.012774
2153.000000	8.031075
2152.000000	8.050022
2151.000000	8.074351
2150.000000	8.084471
2149.000000	8.115906
2148.000000	8.147341
2147.000000	8.183943
2146.000000	8.189756
2145.000000	8.215270
2144.000000	8.246705
2143.000000	8.261346
2142.000000	8.274372
2141.000000	8.279862
2140.000000	8.296010
2139.000000	8.312912
2138.000000	8.343270
2137.000000	8.362756
2136.000000	8.368892
2135.000000	8.381810
2134.000000	8.388593
2133.000000	8.403557
2132.000000	8.410231
2131.000000	8.412276
2130.000000	8.420889
2129.000000	8.428747
2128.000000	8.435530
2127.000000	8.439836
2126.000000	8.446187
2125.000000	8.444465
2124.000000	8.447695
2123.000000	8.441128
2122.000000	8.432731
2121.000000	8.438006
2120.000000	8.437575
2119.000000	8.418951
2118.000000	8.434453
2117.000000	8.436929
2116.000000	8.415398
2115.000000	8.413784
2114.000000	8.402372
2113.000000	8.403341
2112.000000	8.388593
2111.000000	8.364263
2110.000000	8.353282
2109.000000	8.327338
2108.000000	8.308498
2107.000000	8.300532
2106.000000	8.301716
2105.000000	8.286752
2104.000000	8.280185
2103.000000	8.262853
2102.000000	8.243583
2101.000000	8.233464
2100.000000	8.214086
2099.000000	8.201706
2098.000000	8.190725
2097.000000	8.180390
2096.000000	8.164673
2095.000000	8.157998
2094.000000	8.150570
2093.000000	8.138513
2092.000000	8.126348
2091.000000	8.133669
2090.000000	8.133561
2089.000000	8.103418
2088.000000	8.088562
2087.000000	8.078658
2086.000000	8.068430
2085.000000	8.057880
2084.000000	8.048730
2083.000000	8.048945
2082.000000	8.034950
2081.000000	8.002439
2080.000000	7.986075
2079.000000	7.964114
2078.000000	7.927942
2077.000000	7.910933
2076.000000	7.891232
2075.000000	7.869163
2074.000000	7.844080
2073.000000	7.818459
2072.000000	7.801772
2071.000000	7.771199
2070.000000	7.741486
2069.000000	7.713927
2068.000000	7.690135
2067.000000	7.649442
2066.000000	7.606381
2065.000000	7.586465
2064.000000	7.551693
2063.000000	7.519074
2062.000000	7.488931
2061.000000	7.466754
2060.000000	7.453190
2059.000000	7.428322
2058.000000	7.407760
2057.000000	7.402592
2056.000000	7.395487
2055.000000	7.393549
2054.000000	7.383645
2053.000000	7.380954
2052.000000	7.394411
2051.000000	7.399793
2050.000000	7.390212
2049.000000	7.398609
2048.000000	7.428429
2047.000000	7.434242
2046.000000	7.475366
2045.000000	7.496682
2044.000000	7.507339
2043.000000	7.546095
2042.000000	7.558475
2041.000000	7.591955
2040.000000	7.623821
2039.000000	7.652457
2038.000000	7.669251
2037.000000	7.670973
2036.000000	7.700362
2035.000000	7.715434
2034.000000	7.737180
2033.000000	7.759141
2032.000000	7.771522
2031.000000	7.796174
2030.000000	7.801772
2029.000000	7.797789
2028.000000	7.797358
2027.000000	7.797358
2026.000000	7.801772
2025.000000	7.809093
2024.000000	7.806186
2023.000000	7.799296
2022.000000	7.816951
2021.000000	7.810277
2020.000000	7.789930
2019.000000	7.798650
2018.000000	7.775828
2017.000000	7.776797
2016.000000	7.760003
2015.000000	7.769261
2014.000000	7.757419
2013.000000	7.738580
2012.000000	7.713173
2011.000000	7.713604
2010.000000	7.686260
2009.000000	7.668928
2008.000000	7.658162
2007.000000	7.637708
2006.000000	7.616393
2005.000000	7.583666
2004.000000	7.565472
2003.000000	7.538559
2002.000000	7.520473
2001.000000	7.504433
2000.000000	7.465247
1999.000000	7.435319
1998.000000	7.409374
1997.000000	7.383322
1996.000000	7.349950
1995.000000	7.335739
1994.000000	7.291817
1993.000000	7.252954
1992.000000	7.247248
1991.000000	7.205371
1990.000000	7.161879
1989.000000	7.130551
1988.000000	7.100516
1987.000000	7.077478
1986.000000	7.054333
1985.000000	7.005135
1984.000000	6.970901
1983.000000	6.925794
1982.000000	6.904048
1981.000000	6.880687
1980.000000	6.812973
1979.000000	6.804684
1978.000000	6.772603
1977.000000	6.729864
1976.000000	6.711455
1975.000000	6.662473
1974.000000	6.637067
1973.000000	6.620380
1972.000000	6.593252
1971.000000	6.562893
1970.000000	6.534903
1969.000000	6.494318
1968.000000	6.467835
1967.000000	6.435647
1966.000000	6.399583
1965.000000	6.396676
1964.000000	6.367717
1963.000000	6.343818
1962.000000	6.320027
1961.000000	6.298496
1960.000000	6.268676
1959.000000	6.248222
1958.000000	6.221308
1957.000000	6.187182
1956.000000	6.175555
1955.000000	6.146273
1954.000000	6.129479
1953.000000	6.122590
1952.000000	6.111071
1951.000000	6.069516
1950.000000	6.051861
1949.000000	6.019673
1948.000000	6.016120
1947.000000	5.969183
1946.000000	5.950990
1945.000000	5.956372
1944.000000	5.981886
1943.000000	5.935703
1942.000000	5.921385
1941.000000	5.911481
1940.000000	5.905344
1939.000000	5.873802
1938.000000	5.892857
1937.000000	5.926229
1936.000000	5.883706
1935.000000	5.912665
1934.000000	5.892318
1933.000000	5.923000
1932.000000	5.901900
1931.000000	5.918478
1930.000000	5.930751
1929.000000	5.932473
1928.000000	5.964985
1927.000000	5.984470
1926.000000	6.000726
1925.000000	6.042065
1924.000000	6.088463
1923.000000	6.092985
1922.000000	6.143474
1921.000000	6.165543
1920.000000	6.243485
1919.000000	6.274381
1918.000000	6.325086
1917.000000	6.363519
1916.000000	6.438015
1915.000000	6.462129
1914.000000	6.520262
1913.000000	6.598957
1912.000000	6.696815
1911.000000	6.762053
1910.000000	6.844085
1909.000000	6.911368
1908.000000	6.964980
1907.000000	7.046151
1906.000000	7.156281
1905.000000	7.251662
1904.000000	7.366744
1903.000000	7.492053
1902.000000	7.613594
1901.000000	7.759034
1900.000000	7.876161
1899.000000	8.055943
1898.000000	8.217208
1897.000000	8.392038
1896.000000	8.539308
1895.000000	8.681518
1894.000000	8.844829
1893.000000	9.029563
1892.000000	9.219679
1891.000000	9.504639
1890.000000	9.757517
1889.000000	10.024498
1888.000000	10.279207
1887.000000	10.539083
1886.000000	10.788194
1885.000000	11.105988
1884.000000	11.437669
1883.000000	11.770749
1882.000000	12.095648
1881.000000	12.442616
1880.000000	12.766223
1879.000000	13.075620
1878.000000	13.379526
1877.000000	13.714760
1876.000000	14.036645
1875.000000	14.365527
1874.000000	14.683428
1873.000000	15.034056
1872.000000	15.382101
1871.000000	15.695373
1870.000000	16.028992
1869.000000	16.337958
1868.000000	16.629700
1867.000000	16.843069
1866.000000	17.035769
1865.000000	17.202956
1864.000000	17.367881
1863.000000	17.491683
1862.000000	17.628403
1861.000000	17.795266
1860.000000	17.961699
1859.000000	18.127916
1858.000000	18.307375
1857.000000	18.419873
1856.000000	18.510733
1855.000000	18.588997
1854.000000	18.677812
1853.000000	18.763396
1852.000000	18.814209
1851.000000	18.882569
1850.000000	18.895164
1849.000000	18.895595
1848.000000	18.958142
1847.000000	19.070748
1846.000000	19.109395
1845.000000	19.083235
1844.000000	19.054923
1843.000000	19.017567
1842.000000	19.027256
1841.000000	19.068164
1840.000000	19.083989
1839.000000	19.102183
1838.000000	19.110580
1837.000000	19.104551
1836.000000	19.115639
1835.000000	19.106058
1834.000000	19.058475
1833.000000	19.010892
1832.000000	18.961264
1831.000000	18.939195
1830.000000	18.929614
1829.000000	18.911205
1828.000000	18.879124
1827.000000	18.830249
1826.000000	18.806027
1825.000000	18.772870
1824.000000	18.722918
1823.000000	18.663601
1822.000000	18.630552
1821.000000	18.643685
1820.000000	18.662525
1819.000000	18.665862
1818.000000	18.627645
1817.000000	18.578985
1816.000000	18.553472
1815.000000	18.550350
1814.000000	18.531080
1813.000000	18.512886
1812.000000	18.494262
1811.000000	18.475961
1810.000000	18.467133
1809.000000	18.428593
1808.000000	18.375305
1807.000000	18.351083
1806.000000	18.338379
1805.000000	18.300378
1804.000000	18.251288
1803.000000	18.219960
1802.000000	18.197138
1801.000000	18.174100
1800.000000	18.128670
1799.000000	18.079795
1798.000000	18.046530
1797.000000	18.013481
1796.000000	17.977201
1795.000000	17.942752
1794.000000	17.911209
1793.000000	17.892155
1792.000000	17.851139
1791.000000	17.808615
1790.000000	17.767061
1789.000000	17.733581
1788.000000	17.704407
1787.000000	17.678355
1786.000000	17.661345
1785.000000	17.619899
1784.000000	17.587387
1783.000000	17.566610
1782.000000	17.536359
1781.000000	17.496097
1780.000000	17.461217
1779.000000	17.431720
1778.000000	17.404483
1777.000000	17.377247
1776.000000	17.320083
1775.000000	17.265933
1774.000000	17.214798
1773.000000	17.168829
1772.000000	17.128029
1771.000000	17.075817
1770.000000	17.031571
1769.000000	16.981835
1768.000000	16.933606
1767.000000	16.877949
1766.000000	16.844469
1765.000000	16.810235
1764.000000	16.776862
1763.000000	16.756193
1762.000000	16.758346
1761.000000	16.758992
1760.000000	16.783752
1759.000000	16.812173
1758.000000	16.853189
1757.000000	16.898942
1756.000000	16.952661
1755.000000	16.987325
1754.000000	17.041260
1753.000000	17.072049
1752.000000	17.097778
1751.000000	17.124153
1750.000000	17.145792
1749.000000	17.144930
1748.000000	17.139117
1747.000000	17.128998
1746.000000	17.099393
1745.000000	17.074094
1744.000000	17.030602
1743.000000	16.987541
1742.000000	16.910245
1741.000000	16.832089
1740.000000	16.753609
1739.000000	16.670608
1738.000000	16.562954
1737.000000	16.477154
1736.000000	16.369608
1735.000000	16.290483
1734.000000	16.224814
1733.000000	16.167219
1732.000000	16.134708
1731.000000	16.119098
1730.000000	16.149887
1729.000000	16.188104
1728.000000	16.219108
1727.000000	16.245699
1726.000000	16.298449
1725.000000	16.362073
1724.000000	16.407610
1723.000000	16.449487
1722.000000	16.503637
1721.000000	16.557033
1720.000000	16.596758
1719.000000	16.673299
1718.000000	16.728741
1717.000000	16.805606
1716.000000	16.879349
1715.000000	16.957075
1714.000000	17.033293
1713.000000	17.133088
1712.000000	17.197573
1711.000000	17.255491
1710.000000	17.311901
1709.000000	17.359377
1708.000000	17.374340
1707.000000	17.389627
1706.000000	17.410512
1705.000000	17.400393
1704.000000	17.373910
1703.000000	17.327726
1702.000000	17.268517
1701.000000	17.234175
1700.000000	17.170983
1699.000000	17.098532
1698.000000	17.003904
1697.000000	16.927578
1696.000000	16.858033
1695.000000	16.814756
1694.000000	16.770080
1693.000000	16.770726
1692.000000	16.788166
1691.000000	16.839947
1690.000000	16.908200
1689.000000	16.971823
1688.000000	17.041260
1687.000000	17.130397
1686.000000	17.174643
1685.000000	17.251292
1684.000000	17.336769
1683.000000	17.421062
1682.000000	17.564672
1681.000000	17.744346
1680.000000	17.922083
1679.000000	18.170332
1678.000000	18.449586
1677.000000	18.723995
1676.000000	18.997866
1675.000000	19.278950
1674.000000	19.499532
1673.000000	19.720222
1672.000000	19.912707
1671.000000	20.121556
1670.000000	20.270441
1669.000000	20.387998
1668.000000	20.518367
1667.000000	20.651750
1666.000000	20.748746
1665.000000	20.825826
1664.000000	20.894294
1663.000000	20.944353
1662.000000	21.005715
1661.000000	21.060834
1660.000000	21.123919
1659.000000	21.154924
1658.000000	21.192172
1657.000000	21.224468
1656.000000	21.237709
1655.000000	21.226406
1654.000000	21.221669
1653.000000	21.250951
1652.000000	21.248690
1651.000000	21.238570
1650.000000	21.217040
1649.000000	21.191203
1648.000000	21.172902
1647.000000	21.131670
1646.000000	21.111539
1645.000000	21.067724
1644.000000	21.021110
1643.000000	21.001302
1642.000000	20.966745
1641.000000	20.922930
1640.000000	20.899246
1639.000000	20.842082
1638.000000	20.795575
1637.000000	20.758758
1636.000000	20.703639
1635.000000	20.673711
1634.000000	20.612887
1633.000000	20.537637
1632.000000	20.489731
1631.000000	20.459481
1630.000000	20.401993
1629.000000	20.324698
1628.000000	20.258491
1627.000000	20.210585
1626.000000	20.140933
1625.000000	20.098841
1624.000000	20.017454
1623.000000	19.955661
1622.000000	19.912815
1621.000000	19.840472
1620.000000	19.783738
1619.000000	19.727543
1618.000000	19.644757
1617.000000	19.597174
1616.000000	19.563586
1615.000000	19.499209
1614.000000	19.446674
1613.000000	19.384451
1612.000000	19.332131
1611.000000	19.265601
1610.000000	19.216618
1609.000000	19.147935
1608.000000	19.098092
1607.000000	19.037375
1606.000000	18.975259
1605.000000	18.910021
1604.000000	18.854902
1603.000000	18.790094
1602.000000	18.720873
1601.000000	18.667262
1600.000000	18.610097
1599.000000	18.525266
1598.000000	18.451631
1597.000000	18.393283
1596.000000	18.340640
1595.000000	18.282722
1594.000000	18.223836
1593.000000	18.168179
1592.000000	18.124687
1591.000000	18.053097
1590.000000	18.013911
1589.000000	17.950718
1588.000000	17.881066
1587.000000	17.841665
1586.000000	17.781164
1585.000000	17.724323
1584.000000	17.684814
1583.000000	17.638846
1582.000000	17.577914
1581.000000	17.533022
1580.000000	17.481456
1579.000000	17.459817
1578.000000	17.414172
1577.000000	17.358085
1576.000000	17.330095
1575.000000	17.305550
1574.000000	17.282512
1573.000000	17.258290
1572.000000	17.218565
1571.000000	17.190360
1570.000000	17.162370
1569.000000	17.142024
1568.000000	17.137395
1567.000000	17.115756
1566.000000	17.096163
1565.000000	17.075171
1564.000000	17.047396
1563.000000	17.028018
1562.000000	17.012301
1561.000000	16.984849
1560.000000	16.955352
1559.000000	16.919826
1558.000000	16.898619
1557.000000	16.856957
1556.000000	16.814972
1555.000000	16.778585
1554.000000	16.733263
1553.000000	16.710225
1552.000000	16.682127
1551.000000	16.626685
1550.000000	16.568875
1549.000000	16.522692
1548.000000	16.478123
1547.000000	16.415684
1546.000000	16.385649
1545.000000	16.339896
1544.000000	16.309107
1543.000000	16.270459
1542.000000	16.239778
1541.000000	16.188212
1540.000000	16.148165
1539.000000	16.127926
1538.000000	16.073776
1537.000000	16.042664
1536.000000	16.005954
1535.000000	15.958802
1534.000000	15.918432
1533.000000	15.883767
1532.000000	15.851148
1531.000000	15.800335
1530.000000	15.746724
1529.000000	15.693112
1528.000000	15.653819
1527.000000	15.625721
1526.000000	15.573832
1525.000000	15.511931
1524.000000	15.464133
1523.000000	15.407615
1522.000000	15.339685
1521.000000	15.284244
1520.000000	15.241828
1519.000000	15.179819
1518.000000	15.119749
1517.000000	15.061939
1516.000000	15.001330
1515.000000	14.957192
1514.000000	14.913269
1513.000000	14.840280
1512.000000	14.768798
1511.000000	14.721215
1510.000000	14.668787
1509.000000	14.600535
1508.000000	14.537557
1507.000000	14.477271
1506.000000	14.430873
1505.000000	14.376400
1504.000000	14.303518
1503.000000	14.239787
1502.000000	14.180255
1501.000000	14.125674
1500.000000	14.073355
1499.000000	14.025126
1498.000000	13.973344
1497.000000	13.929745
1496.000000	13.870858
1495.000000	13.819938
1494.000000	13.777845
1493.000000	13.735968
1492.000000	13.696028
1491.000000	13.672129
1490.000000	13.618625
1489.000000	13.573626
1488.000000	13.541330
1487.000000	13.505804
1486.000000	13.476738
1485.000000	13.447779
1484.000000	13.418389
1483.000000	13.382756
1482.000000	13.356166
1481.000000	13.320425
1480.000000	13.298678
1479.000000	13.275964
1478.000000	13.247005
1477.000000	13.227089
1476.000000	13.206635
1475.000000	13.189410
1474.000000	13.182412
1473.000000	13.167233
1472.000000	13.157975
1471.000000	13.152485
1470.000000	13.148286
1469.000000	13.148932
1468.000000	13.133538
1467.000000	13.148502
1466.000000	13.158621
1465.000000	13.162497
1464.000000	13.150978
1463.000000	13.159805
1462.000000	13.166910
1461.000000	13.184350
1460.000000	13.220522
1459.000000	13.233440
1458.000000	13.243452
1457.000000	13.257555
1456.000000	13.279624
1455.000000	13.337649
1454.000000	13.377266
1453.000000	13.423234
1452.000000	13.449178
1451.000000	13.495147
1450.000000	13.548220
1449.000000	13.572765
1448.000000	13.612920
1447.000000	13.669115
1446.000000	13.735107
1445.000000	13.798622
1444.000000	13.830488
1443.000000	13.863645
1442.000000	13.919840
1441.000000	13.995521
1440.000000	14.071417
1439.000000	14.132241
1438.000000	14.207922
1437.000000	14.281880
1436.000000	14.354008
1435.000000	14.426243
1434.000000	14.517319
1433.000000	14.609685
1432.000000	14.719277
1431.000000	14.794742
1430.000000	14.904980
1429.000000	15.020384
1428.000000	15.137296
1427.000000	15.252701
1426.000000	15.358632
1425.000000	15.498474
1424.000000	15.644238
1423.000000	15.814546
1422.000000	15.963323
1421.000000	16.120067
1420.000000	16.293497
1419.000000	16.485874
1418.000000	16.698275
1417.000000	16.873212
1416.000000	17.043413
1415.000000	17.265180
1414.000000	17.528178
1413.000000	17.801080
1412.000000	18.011543
1411.000000	18.211456
1410.000000	18.514824
1409.000000	18.822821
1408.000000	19.160423
1407.000000	19.496949
1406.000000	19.787183
1405.000000	20.121986
1404.000000	20.530747
1403.000000	20.907428
1402.000000	21.195509
1401.000000	21.584031
1400.000000	22.049956
1399.000000	22.514482
1398.000000	22.825817
1397.000000	23.105393
1396.000000	23.498545
1395.000000	24.040366
1394.000000	24.499617
1393.000000	24.871130
1392.000000	25.321660
1391.000000	25.809655
1390.000000	26.249205
1389.000000	26.659688
1388.000000	27.205062
1387.000000	27.807277
1386.000000	28.330797
1385.000000	28.824820
1384.000000	29.350708
1383.000000	29.907709
1382.000000	30.463955
1381.000000	31.020310
1380.000000	31.427994
1379.000000	31.775501
1378.000000	32.106428
1377.000000	32.338852
1376.000000	32.588501
1375.000000	32.834167
1374.000000	33.066699
1373.000000	33.283621
1372.000000	33.535101
1371.000000	33.857739
1370.000000	34.177901
1369.000000	34.398483
1368.000000	34.670847
1367.000000	34.935029
1366.000000	35.111689
1365.000000	35.319999
1364.000000	35.515714
1363.000000	35.649850
1362.000000	35.806379
1361.000000	35.988206
1360.000000	36.202867
1359.000000	36.287591
1358.000000	36.373283
1357.000000	36.474800
1356.000000	36.602370
1355.000000	36.765573
1354.000000	37.029325
1353.000000	37.283926
1352.000000	37.544448
1351.000000	37.816919
1350.000000	38.144510
1349.000000	38.448524
1348.000000	38.747370
1347.000000	39.052461
1346.000000	39.345387
1345.000000	39.614306
1344.000000	39.897004
1343.000000	40.206293
1342.000000	40.447868
1341.000000	40.710221
1340.000000	40.989474
1339.000000	41.266252
1338.000000	41.517946
1337.000000	41.791602
1336.000000	42.057076
1335.000000	42.310924
1334.000000	42.562941
1333.000000	42.810437
1332.000000	43.076880
1331.000000	43.287450
1330.000000	43.549587
1329.000000	43.786210
1328.000000	44.022618
1327.000000	44.258918
1326.000000	44.475194
1325.000000	44.672631
1324.000000	44.878680
1323.000000	45.068581
1322.000000	45.270109
1321.000000	45.442785
1320.000000	45.632471
1319.000000	45.833030
1318.000000	45.994726
1317.000000	46.162558
1316.000000	46.316826
1315.000000	46.463989
1314.000000	46.617395
1313.000000	46.773385
1312.000000	46.905476
1311.000000	47.047795
1310.000000	47.152326
1309.000000	47.290554
1308.000000	47.419092
1307.000000	47.509844
1306.000000	47.612115
1305.000000	47.701899
1304.000000	47.784577
1303.000000	47.871561
1302.000000	47.952193
1301.000000	48.010649
1300.000000	48.075565
1299.000000	48.153075
1298.000000	48.203242
1297.000000	48.252332
1296.000000	48.301099
1295.000000	48.327259
1294.000000	48.381193
1293.000000	48.418442
1292.000000	48.437927
1291.000000	48.462580
1290.000000	48.464195
1289.000000	48.485079
1288.000000	48.497567
1287.000000	48.498321
1286.000000	48.510378
1285.000000	48.495414
1284.000000	48.467316
1283.000000	48.449446
1282.000000	48.439111
1281.000000	48.424470
1280.000000	48.389483
1279.000000	48.381086
1278.000000	48.353204
1277.000000	48.320154
1276.000000	48.304652
1275.000000	48.285059
1274.000000	48.269880
1273.000000	48.253301
1272.000000	48.237691
1271.000000	48.209378
1270.000000	48.194522
1269.000000	48.168793
1268.000000	48.157920
1267.000000	48.150061
1266.000000	48.114751
1265.000000	48.094404
1264.000000	48.075026
1263.000000	48.039393
1262.000000	48.008712
1261.000000	47.987934
1260.000000	47.959729
1259.000000	47.921297
1258.000000	47.866824
1257.000000	47.830652
1256.000000	47.797387
1255.000000	47.763046
1254.000000	47.723537
1253.000000	47.668849
1252.000000	47.601781
1251.000000	47.542571
1250.000000	47.492297
1249.000000	47.428458
1248.000000	47.359344
1247.000000	47.285063
1246.000000	47.201309
1245.000000	47.125090
1244.000000	47.049302
1243.000000	46.972437
1242.000000	46.893204
1241.000000	46.800837
1240.000000	46.698566
1239.000000	46.624931
1238.000000	46.546774
1237.000000	46.464957
1236.000000	46.377004
1235.000000	46.283669
1234.000000	46.196900
1233.000000	46.111207
1232.000000	46.018948
1231.000000	45.906558
1230.000000	45.802241
1229.000000	45.690389
1228.000000	45.577460
1227.000000	45.473897
1226.000000	45.362153
1225.000000	45.243195
1224.000000	45.125638
1223.000000	45.007864
1222.000000	44.878788
1221.000000	44.750141
1220.000000	44.639904
1219.000000	44.512011
1218.000000	44.384765
1217.000000	44.269791
1216.000000	44.145020
1215.000000	44.030369
1214.000000	43.933373
1213.000000	43.818937
1212.000000	43.697934
1211.000000	43.596309
1210.000000	43.488009
1209.000000	43.376372
1208.000000	43.279161
1207.000000	43.170969
1206.000000	43.078172
1205.000000	42.988496
1204.000000	42.911416
1203.000000	42.828630
1202.000000	42.748644
1201.000000	42.688465
1200.000000	42.643143
1199.000000	42.586302
1198.000000	42.501794
1197.000000	42.421807
1196.000000	42.324919
1195.000000	42.216081
1194.000000	42.080006
1193.000000	41.928538
1192.000000	41.751447
1191.000000	41.544644
1190.000000	41.306514
1189.000000	41.091961
1188.000000	40.901414
1187.000000	40.715065
1186.000000	40.595246
1185.000000	40.541958
1184.000000	40.537867
1183.000000	40.618607
1182.000000	40.793006
1181.000000	40.994749
1180.000000	41.233418
1179.000000	41.526020
1178.000000	41.816793
1177.000000	42.099815
1176.000000	42.352155
1175.000000	42.573168
1174.000000	42.783523
1173.000000	42.987958
1172.000000	43.174306
1171.000000	43.369052
1170.000000	43.572517
1169.000000	43.772000
1168.000000	43.979341
1167.000000	44.195617
1166.000000	44.430087
1165.000000	44.674568
1164.000000	44.916897
1163.000000	45.168807
1162.000000	45.435896
1161.000000	45.691788
1160.000000	45.939500
1159.000000	46.196469
1158.000000	46.451824
1157.000000	46.696843
1156.000000	46.951767
1155.000000	47.193127
1154.000000	47.399822
1153.000000	47.601565
1152.000000	47.784254
1151.000000	47.951978
1150.000000	48.121210
1149.000000	48.268588
1148.000000	48.419841
1147.000000	48.579061
1146.000000	48.770362
1145.000000	48.955741
1144.000000	49.170188
1143.000000	49.434370
1142.000000	49.688540
1141.000000	49.965641
1140.000000	50.269009
1139.000000	50.602520
1138.000000	50.926343
1137.000000	51.258347
1136.000000	51.604453
1135.000000	51.977150
1134.000000	52.358029
1133.000000	52.723083
1132.000000	52.981344
1131.000000	53.213230
1130.000000	53.454590
1129.000000	53.698103
1128.000000	53.891341
1127.000000	54.010621
1126.000000	54.145619
1125.000000	54.254780
1124.000000	54.326585
1123.000000	54.420890
1122.000000	54.471595
1121.000000	54.513472
1120.000000	54.553304
1119.000000	54.587107
1118.000000	54.597119
1117.000000	54.616820
1116.000000	54.609714
1115.000000	54.607131
1114.000000	54.619188
1113.000000	54.601963
1112.000000	54.604978
1111.000000	54.586461
1110.000000	54.566330
1109.000000	54.574619
1108.000000	54.539739
1107.000000	54.533711
1106.000000	54.513041
1105.000000	54.497001
1104.000000	54.485051
1103.000000	54.481822
1102.000000	54.457815
1101.000000	54.439622
1100.000000	54.417875
1099.000000	54.397206
1098.000000	54.380197
1097.000000	54.388594
1096.000000	54.345963
1095.000000	54.318080
1094.000000	54.315604
1093.000000	54.278249
1092.000000	54.253273
1091.000000	54.192879
1090.000000	54.177700
1089.000000	54.137007
1088.000000	54.099113
1087.000000	54.057774
1086.000000	53.993289
1085.000000	53.944737
1084.000000	53.918793
1083.000000	53.862813
1082.000000	53.799943
1081.000000	53.745147
1080.000000	53.695950
1079.000000	53.645891
1078.000000	53.591418
1077.000000	53.549971
1076.000000	53.471922
1075.000000	53.427461
1074.000000	53.394412
1073.000000	53.315394
1072.000000	53.242297
1071.000000	53.204295
1070.000000	53.137012
1069.000000	53.063915
1068.000000	53.017193
1067.000000	52.969072
1066.000000	52.888116
1065.000000	52.805438
1064.000000	52.734710
1063.000000	52.684758
1062.000000	52.590777
1061.000000	52.551806
1060.000000	52.475372
1059.000000	52.397431
1058.000000	52.346618
1057.000000	52.257265
1056.000000	52.190520
1055.000000	52.105043
1054.000000	52.051216
1053.000000	51.962940
1052.000000	51.891458
1051.000000	51.795862
1050.000000	51.742358
1049.000000	51.662586
1048.000000	51.587767
1047.000000	51.518330
1046.000000	51.477637
1045.000000	51.391299
1044.000000	51.313896
1043.000000	51.243706
1042.000000	51.181267
1041.000000	51.091160
1040.000000	51.027106
1039.000000	50.952610
1038.000000	50.899752
1037.000000	50.811368
1036.000000	50.712865
1035.000000	50.644613
1034.000000	50.579375
1033.000000	50.496158
1032.000000	50.396579
1031.000000	50.306042
1030.000000	50.223149
1029.000000	50.128736
1028.000000	50.070603
1027.000000	49.989109
1026.000000	49.896958
1025.000000	49.806313
1024.000000	49.725681
1023.000000	49.634498
1022.000000	49.540624
1021.000000	49.463221
1020.000000	49.379789
1019.000000	49.299049
1018.000000	49.215510
1017.000000	49.129602
1016.000000	49.077067
1015.000000	48.991052
1014.000000	48.904391
1013.000000	48.837645
1012.000000	48.773699
1011.000000	48.737958
1010.000000	48.679287
1009.000000	48.625352
1008.000000	48.548810
1007.000000	48.496921
1006.000000	48.455259
1005.000000	48.417150
1004.000000	48.377964
1003.000000	48.313049
1002.000000	48.269664
1001.000000	48.231770
1000.000000	48.188278
999.000000	48.153937
998.000000	48.099356
997.000000	48.055433
996.000000	48.024967
995.000000	47.998162
994.000000	47.957576
993.000000	47.912469
992.000000	47.883941
991.000000	47.854336
990.000000	47.834636
989.000000	47.823440
988.000000	47.772304
987.000000	47.731826
986.000000	47.718370
985.000000	47.690057
984.000000	47.661636
983.000000	47.655930
982.000000	47.635584
981.000000	47.617498
980.000000	47.611577
979.000000	47.585094
978.000000	47.577343
977.000000	47.585310
976.000000	47.575405
975.000000	47.535035
974.000000	47.535358
973.000000	47.547631
972.000000	47.533528
971.000000	47.525562
970.000000	47.509198
969.000000	47.517380
968.000000	47.511029
967.000000	47.504785
966.000000	47.494235
965.000000	47.509737
964.000000	47.520179
963.000000	47.523624
962.000000	47.545155
961.000000	47.551937
960.000000	47.575621
959.000000	47.597797
958.000000	47.592630
957.000000	47.608993
956.000000	47.636122
955.000000	47.662713
954.000000	47.688334
953.000000	47.703621
952.000000	47.734518
951.000000	47.765737
950.000000	47.800725
949.000000	47.808368
948.000000	47.814612
947.000000	47.837219
946.000000	47.861226
945.000000	47.889647
944.000000	47.887709
943.000000	47.878020
942.000000	47.872314
941.000000	47.858212
940.000000	47.857028
939.000000	47.850245
938.000000	47.828284
937.000000	47.813105
936.000000	47.802017
935.000000	47.821394
934.000000	47.829145
933.000000	47.815581
932.000000	47.808045
931.000000	47.786837
930.000000	47.793512
929.000000	47.784361
928.000000	47.726228
927.000000	47.702544
926.000000	47.680906
925.000000	47.645919
924.000000	47.620512
923.000000	47.590477
922.000000	47.557966
921.000000	47.563025
920.000000	47.548600
919.000000	47.515119
918.000000	47.452250
917.000000	47.416939
916.000000	47.391210
915.000000	47.338244
914.000000	47.290661
913.000000	47.243617
912.000000	47.192912
911.000000	47.143391
910.000000	47.091610
909.000000	47.056192
908.000000	47.019589
907.000000	46.970715
906.000000	46.930237
905.000000	46.901709
904.000000	46.870920
903.000000	46.831195
902.000000	46.790502
901.000000	46.764881
900.000000	46.734092
899.000000	46.707178
898.000000	46.679834
897.000000	46.655397
896.000000	46.628483
895.000000	46.638603
894.000000	46.670899
893.000000	46.695875
892.000000	46.688339
891.000000	46.731616
890.000000	46.760897
889.000000	46.767249
888.000000	46.771340
887.000000	46.795993
886.000000	46.809234
885.000000	46.817200
884.000000	46.834963
883.000000	46.864568
882.000000	46.859078
881.000000	46.903323
880.000000	46.898694
879.000000	46.913658
878.000000	46.941971
877.000000	46.943909
876.000000	46.947031
875.000000	46.954028
874.000000	46.967485
873.000000	46.971683
872.000000	46.989554
871.000000	47.010439
870.000000	47.023250
869.000000	47.027663
868.000000	47.037460
867.000000	47.061467
866.000000	47.038213
865.000000	47.060175
864.000000	47.089349
863.000000	47.122183
862.000000	47.097531
861.000000	47.126167
860.000000	47.110018
859.000000	47.103775
858.000000	47.097100
857.000000	47.547600
856.000000	47.100300
855.000000	46.643400
854.000000	46.852700
853.000000	48.175100
852.000000	47.776800
851.000000	47.402100
850.000000	48.175900
849.000000	47.785400
848.000000	48.228000
847.000000	48.072300
846.000000	48.564600
845.000000	48.779900
844.000000	48.652200
843.000000	48.643100
842.000000	48.685000
841.000000	48.596800
840.000000	48.454800
839.000000	48.485200
838.000000	48.313300
837.000000	48.401400
836.000000	48.609500
835.000000	48.325900
834.000000	48.149100
833.000000	48.232300
832.000000	48.623800
831.000000	48.439200
830.000000	48.140000
829.000000	48.098600
828.000000	48.169200
827.000000	48.176700
826.000000	47.947400
825.000000	48.041900
824.000000	48.110200
823.000000	48.049800
822.000000	47.924600
821.000000	47.777900
820.000000	47.652100
819.000000	47.972300
818.000000	47.450400
817.000000	47.524600
816.000000	47.234400
815.000000	47.543800
814.000000	47.377800
813.000000	47.408100
812.000000	47.524300
811.000000	47.234700
810.000000	47.028200
809.000000	47.029300
808.000000	46.977800
807.000000	47.096600
806.000000	46.785700
805.000000	46.712200
804.000000	46.641900
803.000000	46.501200
802.000000	46.441900
801.000000	46.278600
800.000000	46.338800
799.000000	46.306200
798.000000	46.027400
797.000000	46.081700
796.000000	46.109300
795.000000	45.554100
794.000000	45.692700
793.000000	45.799200
792.000000	45.514200
791.000000	45.595100
790.000000	45.274900
789.000000	45.324900
788.000000	45.068400
787.000000	45.066300
786.000000	44.862000
785.000000	44.887500
784.000000	44.671000
783.000000	44.707300
782.000000	44.474000
781.000000	44.394600
780.000000	44.199700
779.000000	44.300700
778.000000	44.030600
777.000000	43.906300
776.000000	43.792900
775.000000	43.568500
774.000000	43.489800
773.000000	43.435600
772.000000	43.222200
771.000000	43.283800
770.000000	43.175800
769.000000	43.013500
768.000000	42.909000
767.000000	42.650200
766.000000	42.602200
765.000000	42.502600
764.000000	42.394100
763.000000	42.219500
762.000000	42.051200
761.000000	41.873600
760.000000	41.802900
759.000000	41.459400
758.000000	41.220400
757.000000	41.267600
756.000000	41.027600
755.000000	40.881200
754.000000	40.777800
753.000000	40.619400
752.000000	40.446400
751.000000	40.356000
750.000000	40.376200
749.000000	40.096300
748.000000	39.968800
747.000000	39.781200
746.000000	39.672200
745.000000	39.512900
744.000000	39.377000
743.000000	39.262100
742.000000	38.976600
741.000000	38.625600
740.000000	38.623900
739.000000	38.454500
738.000000	38.246000
737.000000	38.093800
736.000000	37.980400
735.000000	37.830900
734.000000	37.716300
733.000000	37.372800
732.000000	37.229600
731.000000	37.213600
730.000000	37.035000
729.000000	36.909400
728.000000	36.715900
727.000000	36.563200
726.000000	36.368700
725.000000	36.103300
724.000000	35.902400
723.000000	35.711700
722.000000	35.628700
721.000000	35.401400
720.000000	35.159500
719.000000	35.071900
718.000000	34.908000
717.000000	34.708800
716.000000	34.444800
715.000000	34.361100
714.000000	34.214800
713.000000	33.974200
712.000000	33.843000
711.000000	33.614800
710.000000	33.455100
709.000000	33.259000
708.000000	33.027400
707.000000	32.816500
706.000000	32.631500
705.000000	32.448800
704.000000	32.283200
703.000000	32.090500
702.000000	31.871800
701.000000	31.705400
700.000000	31.524100
699.000000	31.438700
698.000000	31.238500
697.000000	31.003400
696.000000	30.863000
695.000000	30.657200
694.000000	30.510700
693.000000	30.298500
692.000000	30.097000
691.000000	29.916100
690.000000	29.758100
689.000000	29.535100
688.000000	29.378700
687.000000	29.232300
686.000000	29.081300
685.000000	28.888900
684.000000	28.781200
683.000000	28.618100
682.000000	28.437700
681.000000	28.278600
680.000000	28.149600
679.000000	27.974000
678.000000	27.808400
677.000000	27.643500
676.000000	27.474600
675.000000	27.367600
674.000000	27.248300
673.000000	27.072800
672.000000	26.919700
671.000000	26.787000
670.000000	26.690500
669.000000	26.561100
668.000000	26.458800
667.000000	26.358800
666.000000	26.257400
665.000000	26.121800
664.000000	26.012400
663.000000	25.879500
662.000000	25.706500
661.000000	25.626400
660.000000	25.522200
659.000000	25.401900
658.000000	25.308900
657.000000	25.223000
656.000000	25.140700
655.000000	25.059000
654.000000	24.957600
653.000000	24.853500
652.000000	24.777200
651.000000	24.679500
650.000000	24.589100
649.000000	24.531300
648.000000	24.457400
647.000000	24.376100
646.000000	24.323200
645.000000	24.285300
644.000000	24.201700
643.000000	24.114400
642.000000	24.055100
641.000000	24.001500
640.000000	23.970900
639.000000	23.925700
638.000000	23.869600
637.000000	23.815500
636.000000	23.790000
635.000000	23.734300
634.000000	23.694400
633.000000	23.672100
632.000000	23.644900
631.000000	23.637100
630.000000	23.617100
629.000000	23.592400
628.000000	23.584200
627.000000	23.576100
626.000000	23.566400
625.000000	23.600300
624.000000	23.627100
623.000000	23.618400
622.000000	23.612100
621.000000	23.625100
620.000000	23.652800
619.000000	23.679600
618.000000	23.727900
617.000000	23.741100
616.000000	23.757900
615.000000	23.808000
614.000000	23.869600
613.000000	23.911200
612.000000	23.938500
611.000000	23.989500
610.000000	24.016100
609.000000	24.040800
608.000000	24.085300
607.000000	24.139500
606.000000	24.202000
605.000000	24.271900
604.000000	24.321300
603.000000	24.372400
602.000000	24.413200
601.000000	24.426500
600.000000	24.489400
599.000000	24.552500
598.000000	24.592900
597.000000	24.649900
596.000000	24.676500
595.000000	24.733800
594.000000	24.781900
593.000000	24.844100
592.000000	24.909200
591.000000	24.928700
590.000000	24.975100
589.000000	25.011500
588.000000	25.044400
587.000000	25.026600
586.000000	25.029400
585.000000	25.075400
584.000000	25.054900
583.000000	25.067800
582.000000	25.102500
581.000000	25.076400
580.000000	25.067700
579.000000	25.048700
578.000000	25.013400
577.000000	24.974500
576.000000	24.920100
575.000000	24.864200
574.000000	24.809600
573.000000	24.758100
572.000000	24.653300
571.000000	24.588500
570.000000	24.503600
569.000000	24.438400
568.000000	24.333600
567.000000	24.220100
566.000000	24.083600
565.000000	23.949200
564.000000	23.844700
563.000000	23.710200
562.000000	23.578000
561.000000	23.391500
560.000000	23.260300
559.000000	23.167600
558.000000	22.963400
557.000000	22.789800
556.000000	22.632900
555.000000	22.402000
554.000000	22.202100
553.000000	21.986900
552.000000	21.790200
551.000000	21.563900
550.000000	21.336000
549.000000	21.132400
548.000000	20.884100
547.000000	20.644600
546.000000	20.384100
545.000000	20.153800
544.000000	19.876600
543.000000	19.601600
542.000000	19.345500
541.000000	19.058600
540.000000	18.780900
539.000000	18.501400
538.000000	18.216100
537.000000	17.943200
536.000000	17.645100
535.000000	17.362000
534.000000	17.086100
533.000000	16.806300
532.000000	16.514000
531.000000	16.228200
530.000000	15.947300
529.000000	15.657400
528.000000	15.382800
527.000000	15.097300
526.000000	14.816900
525.000000	14.531000
524.000000	14.268600
523.000000	14.011400
522.000000	13.726300
521.000000	13.461300
520.000000	13.195400
519.000000	12.959800
518.000000	12.716200
517.000000	12.511700
516.000000	12.283000
515.000000	12.036600
514.000000	11.805800
513.000000	11.623300
512.000000	11.409100
511.000000	11.216900
510.000000	11.035700
509.000000	10.868600
508.000000	10.734800
507.000000	10.512700
506.000000	10.370500
505.000000	10.234100
504.000000	10.076700
503.000000	9.962500
502.000000	9.813200
501.000000	9.678400
500.000000	9.558700
499.000000	9.450800
498.000000	9.329400
497.000000	9.264300
496.000000	9.156000
495.000000	9.037300
494.000000	8.929800
493.000000	8.893800
492.000000	8.802400
491.000000	8.686900
490.000000	8.628100
489.000000	8.574000
488.000000	8.494500
487.000000	8.427900
486.000000	8.379600
485.000000	8.317600
484.000000	8.235900
483.000000	8.185100
482.000000	8.119400
481.000000	8.073500
480.000000	8.003100
479.000000	7.920500
478.000000	7.869300
477.000000	7.819300
476.000000	7.750600
475.000000	7.680200
474.000000	7.625000
473.000000	7.580100
472.000000	7.546200
471.000000	7.487400
470.000000	7.437200
469.000000	7.397300
468.000000	7.334000
467.000000	7.298200
466.000000	7.272400
465.000000	7.206800
464.000000	7.162000
463.000000	7.144300
462.000000	7.059000
461.000000	7.020600
460.000000	6.990200
459.000000	6.923600
458.000000	6.924900
457.000000	6.859400
456.000000	6.832400
455.000000	6.803900
454.000000	6.743300
453.000000	6.708700
452.000000	6.667800
451.000000	6.640100
450.000000	6.610800
449.000000	6.542600
448.000000	6.519100
447.000000	6.469100
446.000000	6.411400
445.000000	6.400000
444.000000	6.343000
443.000000	6.296000
442.000000	6.255400
441.000000	6.215500
440.000000	6.175500
439.000000	6.111200
438.000000	6.066700
437.000000	6.041400
436.000000	5.977400
435.000000	5.964700
434.000000	5.899600
433.000000	5.865000
432.000000	5.844800
431.000000	5.760400
430.000000	5.742500
429.000000	5.741100
428.000000	5.690700
427.000000	5.621900
426.000000	5.574900
425.000000	5.572000
424.000000	5.533100
423.000000	5.473400
422.000000	5.431800
421.000000	5.419000
420.000000	5.386100
419.000000	5.335700
418.000000	5.330900
417.000000	5.316400
416.000000	5.248500
415.000000	5.238700
414.000000	5.181300
413.000000	5.125400
412.000000	5.119100
411.000000	5.078600
410.000000	5.039800
409.000000	4.998600
408.000000	4.937800
407.000000	4.937200
406.000000	4.921300
405.000000	4.882300
404.000000	4.846500
403.000000	4.818000
402.000000	4.790600
401.000000	4.791600
400.000000	4.712000
399.000000	4.702900
398.000000	4.648900
397.000000	4.613100
396.000000	4.605000
395.000000	4.547500
394.000000	4.528200
393.000000	4.490500
392.000000	4.495800
391.000000	4.467900
390.000000	4.435400
389.000000	4.412500
388.000000	4.364100
387.000000	4.338100
386.000000	4.332800
385.000000	4.259800
384.000000	4.228200
383.000000	4.203900
382.000000	4.216700
381.000000	4.159800
380.000000	4.145800
379.000000	4.157300
378.000000	4.139900
377.000000	4.169500
376.000000	3.956600
375.000000	3.239600
374.000000	2.900900
373.000000	3.381400
372.000000	3.708200
371.000000	3.716900
370.000000	3.504500
369.000000	3.811900
368.000000	3.753600
367.000000	3.746100
366.000000	3.831800
365.000000	4.003300
364.000000	3.725900
363.000000	3.553900
362.000000	3.899800
361.000000	4.157600
360.000000	4.046400
359.000000	4.175900
358.000000	4.328400
357.000000	4.591900
356.000000	4.319800
355.000000	4.061500
354.000000	3.926400
353.000000	3.485400
352.000000	3.581200
351.000000	4.578600
350.000000	4.946500
349.000000	4.415100
348.000000	4.439300
347.000000	4.254500
346.000000	3.989600
345.000000	4.304700
344.000000	3.940400
343.000000	3.800200
342.000000	4.362900
341.000000	4.137900
340.000000	4.131400
339.000000	4.508500
338.000000	4.437500
337.000000	3.793300
336.000000	4.179200
335.000000	4.611700
334.000000	4.265500
333.000000	4.249400
332.000000	4.441900
331.000000	4.673600
330.000000	5.360000
329.000000	4.824700
328.000000	3.433300
327.000000	4.518500
326.000000	5.016000
325.000000	5.578500
324.000000	5.858500
323.000000	5.561500
322.000000	5.133200
321.000000	5.857500
320.000000	5.956700
319.000000	5.539800
318.000000	7.819800
317.000000	10.326500
316.000000	7.015100
315.000000	3.807400
314.000000	3.828800
313.000000	3.810700
312.000000	3.786600
311.000000	3.905500
310.000000	3.972400
309.000000	3.896000
308.000000	3.879500
307.000000	3.900900
306.000000	3.904300
305.000000	3.762700
304.000000	3.766500
303.000000	3.853500
302.000000	3.877100
301.000000	3.809300
300.000000	3.839800
299.000000	3.880600
298.000000	3.910200
297.000000	3.869700
296.000000	3.905400
295.000000	3.863100
294.000000	3.769000
293.000000	3.743600
292.000000	3.830900
291.000000	3.892200
290.000000	3.925200
289.000000	3.862500
288.000000	3.834800
287.000000	3.902400
286.000000	3.849600
285.000000	3.896600
284.000000	3.979600
283.000000	3.987700
282.000000	3.974200
281.000000	3.896100
280.000000	3.961200
279.000000	4.006900
278.000000	3.960100
277.000000	4.074900
276.000000	4.076000
275.000000	4.114800
274.000000	4.115400
273.000000	4.065000
272.000000	4.043600
271.000000	4.040700
270.000000	4.061900
269.000000	4.008500
268.000000	4.145000
267.000000	4.204700
266.000000	4.084300
265.000000	4.151700
264.000000	4.130200
263.000000	4.161100
262.000000	4.186500
261.000000	4.188400
260.000000	4.170200
259.000000	4.173300
258.000000	4.165700
257.000000	4.247000
256.000000	4.252600
255.000000	4.206900
254.000000	4.240900
253.000000	4.148300
252.000000	4.248900
251.000000	4.289300
250.000000	4.210800
