PE UV       SUBTECH     SPECTRUM    ASCII       PEDS        4.00        
   -1
CICIMAUCR0232-3.ASC
24/06/14
13:58:39.00
24/06/14
13:58:39.00
Vinicio Soto Monge
C. resplendens. Sex M. Ventral 
250,000000
1
Lambda 1050
1050L1511233
PerkinElmer UV WinLab 6.3.2.0749 / 2.02.05 Lambda 900 UV/VIS/NIR, Aug  7 2015 09:38:08

0
0
3350/servo 860,8/2
0
0
UV/VIS
1
1
1
DoubleDePol,CommonBeamDepol,RBeamAtt,SBeamAtt,60mm sphere, WB InGaAs Detector
0
0
0
0
Program
Program
3350/servo 860,8/2
3350/0,2 860,8/0,2
3350/0,2 860,8/0,2
0
15.00
 
 
 
0
 
860,8
319,2
860,8
Front
100
on
S:100 R:100
0
0
0
0
 
0
 
 
 
0
 
 
0
0
0
0
0
 
 
 
 
0
0


0
0
#HDR
-1
-1
#GR
nm
%R
1.0
0.0
2500,000000
-1,000000
2251
8
57,706600
4,549600
#DATA
2482.000000	5.403977
2481.000000	5.438442
2480.000000	5.383853
2479.000000	5.381424
2478.000000	5.368586
2477.000000	5.329148
2476.000000	5.455328
2475.000000	5.385125
2474.000000	5.405018
2473.000000	5.379921
2472.000000	5.385472
2471.000000	5.375179
2470.000000	5.330073
2469.000000	5.364886
2468.000000	5.361185
2467.000000	5.355517
2466.000000	5.312725
2465.000000	5.346959
2464.000000	5.348809
2463.000000	5.336550
2462.000000	5.376220
2461.000000	5.384778
2460.000000	5.391949
2459.000000	5.381540
2458.000000	5.425489
2457.000000	5.392411
2456.000000	5.457872
2455.000000	5.455790
2454.000000	5.448620
2453.000000	5.453477
2452.000000	5.508876
2451.000000	5.526455
2450.000000	5.554444
2449.000000	5.574799
2448.000000	5.597699
2447.000000	5.603829
2446.000000	5.654601
2445.000000	5.671140
2444.000000	5.668248
2443.000000	5.668017
2442.000000	5.710000
2441.000000	5.726192
2440.000000	5.761698
2439.000000	5.773841
2438.000000	5.812586
2437.000000	5.833404
2436.000000	5.858501
2435.000000	5.865556
2434.000000	5.893429
2433.000000	5.921764
2432.000000	5.937493
2431.000000	5.945126
2430.000000	5.990000
2429.000000	6.007233
2428.000000	6.018683
2427.000000	6.054767
2426.000000	6.072115
2425.000000	6.068530
2424.000000	6.094321
2423.000000	6.116643
2422.000000	6.115602
2421.000000	6.146829
2420.000000	6.141277
2419.000000	6.159088
2418.000000	6.186151
2417.000000	6.192512
2416.000000	6.204425
2415.000000	6.220501
2414.000000	6.228597
2413.000000	6.231257
2412.000000	6.263409
2411.000000	6.264681
2410.000000	6.261096
2409.000000	6.283186
2408.000000	6.291050
2407.000000	6.300187
2406.000000	6.311059
2405.000000	6.325284
2404.000000	6.336734
2403.000000	6.332570
2402.000000	6.356742
2401.000000	6.389820
2400.000000	6.405664
2399.000000	6.424632
2398.000000	6.449382
2397.000000	6.463839
2396.000000	6.478296
2395.000000	6.494719
2394.000000	6.509638
2393.000000	6.512298
2392.000000	6.537627
2391.000000	6.553471
2390.000000	6.567697
2389.000000	6.570588
2388.000000	6.581922
2387.000000	6.597073
2386.000000	6.610720
2385.000000	6.619395
2384.000000	6.617428
2383.000000	6.611646
2382.000000	6.613381
2381.000000	6.621592
2380.000000	6.637784
2379.000000	6.637668
2378.000000	6.644954
2377.000000	6.640328
2376.000000	6.641253
2375.000000	6.654322
2374.000000	6.650506
2373.000000	6.625987
2372.000000	6.606904
2371.000000	6.604244
2370.000000	6.600659
2369.000000	6.591522
2368.000000	6.587358
2367.000000	6.581460
2366.000000	6.559370
2365.000000	6.530687
2364.000000	6.514033
2363.000000	6.501889
2362.000000	6.484194
2361.000000	6.478643
2360.000000	6.465227
2359.000000	6.451695
2358.000000	6.430877
2357.000000	6.402310
2356.000000	6.380567
2355.000000	6.377444
2354.000000	6.384499
2353.000000	6.364954
2352.000000	6.372009
2351.000000	6.390167
2350.000000	6.377329
2349.000000	6.380914
2348.000000	6.390860
2347.000000	6.395371
2346.000000	6.424400
2345.000000	6.452505
2344.000000	6.469853
2343.000000	6.494950
2342.000000	6.502352
2341.000000	6.532075
2340.000000	6.560526
2339.000000	6.562377
2338.000000	6.568275
2337.000000	6.574174
2336.000000	6.571860
2335.000000	6.583542
2334.000000	6.580419
2333.000000	6.586664
2332.000000	6.584814
2331.000000	6.570357
2330.000000	6.561105
2329.000000	6.547920
2328.000000	6.528490
2327.000000	6.503393
2326.000000	6.494025
2325.000000	6.470547
2324.000000	6.439320
2323.000000	6.402426
2322.000000	6.367151
2321.000000	6.351075
2320.000000	6.324128
2319.000000	6.287696
2318.000000	6.267225
2317.000000	6.209629
2316.000000	6.171463
2315.000000	6.145556
2314.000000	6.121616
2313.000000	6.072694
2312.000000	6.023540
2311.000000	6.004110
2310.000000	5.964556
2309.000000	5.945705
2308.000000	5.937724
2307.000000	5.925118
2306.000000	5.915634
2305.000000	5.912743
2304.000000	5.898864
2303.000000	5.906960
2302.000000	5.917022
2301.000000	5.947439
2300.000000	5.992892
2299.000000	6.004920
2298.000000	6.042392
2297.000000	6.073735
2296.000000	6.096172
2295.000000	6.136998
2294.000000	6.165680
2293.000000	6.192975
2292.000000	6.209860
2291.000000	6.239699
2290.000000	6.235073
2289.000000	6.255544
2288.000000	6.270232
2287.000000	6.284805
2286.000000	6.281914
2285.000000	6.266763
2284.000000	6.260517
2283.000000	6.253578
2282.000000	6.226630
2281.000000	6.219575
2280.000000	6.206275
2279.000000	6.196560
2278.000000	6.186961
2277.000000	6.156197
2276.000000	6.131678
2275.000000	6.137692
2274.000000	6.103805
2273.000000	6.097097
2272.000000	6.092818
2271.000000	6.100335
2270.000000	6.113404
2269.000000	6.116643
2268.000000	6.121963
2267.000000	6.127977
2266.000000	6.177708
2265.000000	6.220501
2264.000000	6.257163
2263.000000	6.298105
2262.000000	6.385425
2261.000000	6.427754
2260.000000	6.503393
2259.000000	6.596264
2258.000000	6.689250
2257.000000	6.806756
2256.000000	6.895000
2255.000000	7.013431
2254.000000	7.117520
2253.000000	7.247864
2252.000000	7.344898
2251.000000	7.445633
2250.000000	7.556662
2249.000000	7.678678
2248.000000	7.794796
2247.000000	7.881884
2246.000000	7.967931
2245.000000	8.054904
2244.000000	8.158530
2243.000000	8.233012
2242.000000	8.285057
2241.000000	8.355838
2240.000000	8.419679
2239.000000	8.482249
2238.000000	8.554533
2237.000000	8.607503
2236.000000	8.671460
2235.000000	8.701877
2234.000000	8.749874
2233.000000	8.780985
2232.000000	8.801688
2231.000000	8.849800
2230.000000	8.865298
2229.000000	8.906008
2228.000000	8.926017
2227.000000	8.937582
2226.000000	8.953196
2225.000000	8.935153
2224.000000	8.949495
2223.000000	8.964645
2222.000000	8.954815
2221.000000	8.954815
2220.000000	8.949495
2219.000000	8.944059
2218.000000	8.946950
2217.000000	8.916533
2216.000000	8.904042
2215.000000	8.893055
2214.000000	8.879292
2213.000000	8.848181
2212.000000	8.868420
2211.000000	8.863679
2210.000000	8.848297
2209.000000	8.835921
2208.000000	8.810940
2207.000000	8.831758
2206.000000	8.815682
2205.000000	8.788619
2204.000000	8.803075
2203.000000	8.781332
2202.000000	8.772427
2201.000000	8.764678
2200.000000	8.759705
2199.000000	8.754963
2198.000000	8.755541
2197.000000	8.757045
2196.000000	8.755079
2195.000000	8.748139
2194.000000	8.743282
2193.000000	8.738077
2192.000000	8.709395
2191.000000	8.720729
2190.000000	8.734261
2189.000000	8.702918
2188.000000	8.687421
2187.000000	8.691468
2186.000000	8.692509
2185.000000	8.660589
2184.000000	8.666371
2183.000000	8.663827
2182.000000	8.652146
2181.000000	8.635260
2180.000000	8.648329
2179.000000	8.623579
2178.000000	8.636301
2177.000000	8.629362
2176.000000	8.610626
2175.000000	8.610047
2174.000000	8.627974
2173.000000	8.617565
2172.000000	8.601373
2171.000000	8.609122
2170.000000	8.618490
2169.000000	8.609816
2168.000000	8.631559
2167.000000	8.614558
2166.000000	8.655731
2165.000000	8.650758
2164.000000	8.652261
2163.000000	8.653418
2162.000000	8.668916
2161.000000	8.684067
2160.000000	8.690312
2159.000000	8.694475
2158.000000	8.713905
2157.000000	8.714831
2156.000000	8.755773
2155.000000	8.766528
2154.000000	8.769767
2153.000000	8.767222
2152.000000	8.795905
2151.000000	8.808511
2150.000000	8.821233
2149.000000	8.847718
2148.000000	8.871428
2147.000000	8.896756
2146.000000	8.901151
2145.000000	8.920581
2144.000000	8.949032
2143.000000	8.964298
2142.000000	8.979565
2141.000000	8.997376
2140.000000	8.992981
2139.000000	9.000383
2138.000000	9.028140
2137.000000	9.045488
2136.000000	9.059251
2135.000000	9.066306
2134.000000	9.079491
2133.000000	9.079375
2132.000000	9.089668
2131.000000	9.099268
2130.000000	9.105513
2129.000000	9.105744
2128.000000	9.105050
2127.000000	9.118929
2126.000000	9.120201
2125.000000	9.092097
2124.000000	9.089437
2123.000000	9.101696
2122.000000	9.080532
2121.000000	9.067810
2120.000000	9.071164
2119.000000	9.050461
2118.000000	9.038896
2117.000000	9.033576
2116.000000	9.029065
2115.000000	9.024208
2114.000000	9.003852
2113.000000	8.974592
2112.000000	8.964067
2111.000000	8.951229
2110.000000	8.927867
2109.000000	8.915608
2108.000000	8.904620
2107.000000	8.887966
2106.000000	8.862753
2105.000000	8.841820
2104.000000	8.834418
2103.000000	8.820655
2102.000000	8.813716
2101.000000	8.803769
2100.000000	8.765950
2099.000000	8.748486
2098.000000	8.735533
2097.000000	8.724893
2096.000000	8.708354
2095.000000	8.680366
2094.000000	8.679672
2093.000000	8.677359
2092.000000	8.655500
2091.000000	8.648907
2090.000000	8.643472
2089.000000	8.630634
2088.000000	8.627743
2087.000000	8.620109
2086.000000	8.604149
2085.000000	8.596284
2084.000000	8.599176
2083.000000	8.580787
2082.000000	8.537532
2081.000000	8.508618
2080.000000	8.503414
2079.000000	8.499828
2078.000000	8.498440
2077.000000	8.466635
2076.000000	8.448593
2075.000000	8.442926
2074.000000	8.413318
2073.000000	8.411005
2072.000000	8.392038
2071.000000	8.357688
2070.000000	8.331666
2069.000000	8.315243
2068.000000	8.296622
2067.000000	8.287370
2066.000000	8.282513
2065.000000	8.251170
2064.000000	8.227808
2063.000000	8.208956
2062.000000	8.208725
2061.000000	8.198894
2060.000000	8.180274
2059.000000	8.164545
2058.000000	8.155523
2057.000000	8.156217
2056.000000	8.152863
2055.000000	8.158415
2054.000000	8.169980
2053.000000	8.177151
2052.000000	8.190104
2051.000000	8.218324
2050.000000	8.234053
2049.000000	8.260076
2048.000000	8.301364
2047.000000	8.347626
2046.000000	8.387412
2045.000000	8.411237
2044.000000	8.466057
2043.000000	8.519605
2042.000000	8.585066
2041.000000	8.635838
2040.000000	8.659663
2039.000000	8.708817
2038.000000	8.767454
2037.000000	8.806429
2036.000000	8.835806
2035.000000	8.871774
2034.000000	8.914104
2033.000000	8.947066
2032.000000	8.977483
2031.000000	9.005587
2030.000000	9.037971
2029.000000	9.064687
2028.000000	9.077062
2027.000000	9.097070
2026.000000	9.121011
2025.000000	9.165538
2024.000000	9.190519
2023.000000	9.197574
2022.000000	9.187744
2021.000000	9.204167
2020.000000	9.216426
2019.000000	9.223019
2018.000000	9.250891
2017.000000	9.252395
2016.000000	9.251007
2015.000000	9.249157
2014.000000	9.241292
2013.000000	9.247190
2012.000000	9.247075
2011.000000	9.242911
2010.000000	9.233312
2009.000000	9.224522
2008.000000	9.209140
2007.000000	9.202432
2006.000000	9.180920
2005.000000	9.157442
2004.000000	9.142870
2003.000000	9.132229
2002.000000	9.098689
2001.000000	9.078103
2000.000000	9.047223
1999.000000	9.012411
1998.000000	8.986735
1997.000000	8.957359
1996.000000	8.932262
1995.000000	8.879755
1994.000000	8.840201
1993.000000	8.813369
1992.000000	8.790122
1991.000000	8.739465
1990.000000	8.704884
1989.000000	8.659779
1988.000000	8.620803
1987.000000	8.582753
1986.000000	8.547247
1985.000000	8.495549
1984.000000	8.464091
1983.000000	8.415169
1982.000000	8.344388
1981.000000	8.338721
1980.000000	8.288295
1979.000000	8.234747
1978.000000	8.199472
1977.000000	8.151360
1976.000000	8.110302
1975.000000	8.085437
1974.000000	8.050509
1973.000000	7.995110
1972.000000	7.970938
1971.000000	7.943528
1970.000000	7.881537
1969.000000	7.849616
1968.000000	7.814341
1967.000000	7.791442
1966.000000	7.750500
1965.000000	7.717191
1964.000000	7.673011
1963.000000	7.653118
1962.000000	7.612755
1961.000000	7.597141
1960.000000	7.558166
1959.000000	7.551920
1958.000000	7.489467
1957.000000	7.472118
1956.000000	7.448872
1955.000000	7.401338
1954.000000	7.383989
1953.000000	7.350565
1952.000000	7.312515
1951.000000	7.307773
1950.000000	7.276199
1949.000000	7.226930
1948.000000	7.231787
1947.000000	7.207847
1946.000000	7.203221
1945.000000	7.150019
1944.000000	7.131977
1943.000000	7.136488
1942.000000	7.136488
1941.000000	7.102601
1940.000000	7.099941
1939.000000	7.091614
1938.000000	7.138454
1937.000000	7.112316
1936.000000	7.129549
1935.000000	7.093464
1934.000000	7.109887
1933.000000	7.143543
1932.000000	7.145740
1931.000000	7.174307
1930.000000	7.188301
1929.000000	7.206228
1928.000000	7.232944
1927.000000	7.254803
1926.000000	7.275505
1925.000000	7.310202
1924.000000	7.368492
1923.000000	7.416257
1922.000000	7.457777
1921.000000	7.515373
1920.000000	7.572970
1919.000000	7.612061
1918.000000	7.675324
1917.000000	7.742057
1916.000000	7.808327
1915.000000	7.905131
1914.000000	7.974177
1913.000000	8.064619
1912.000000	8.159687
1911.000000	8.255449
1910.000000	8.354913
1909.000000	8.441422
1908.000000	8.545281
1907.000000	8.631675
1906.000000	8.779944
1905.000000	8.923125
1904.000000	9.066306
1903.000000	9.185893
1902.000000	9.314386
1901.000000	9.463003
1900.000000	9.620062
1899.000000	9.800368
1898.000000	9.985185
1897.000000	10.165259
1896.000000	10.350192
1895.000000	10.536627
1894.000000	10.716124
1893.000000	10.931473
1892.000000	11.139536
1891.000000	11.394903
1890.000000	11.661950
1889.000000	11.915581
1888.000000	12.188642
1887.000000	12.500795
1886.000000	12.796409
1885.000000	13.169859
1884.000000	13.528967
1883.000000	13.967531
1882.000000	14.404013
1881.000000	14.866285
1880.000000	15.332837
1879.000000	15.813962
1878.000000	16.234252
1877.000000	16.701267
1876.000000	17.185977
1875.000000	17.633330
1874.000000	18.053851
1873.000000	18.461997
1872.000000	18.883328
1871.000000	19.270541
1870.000000	19.635432
1869.000000	19.961579
1868.000000	20.306694
1867.000000	20.566108
1866.000000	20.802506
1865.000000	21.013577
1864.000000	21.200591
1863.000000	21.367828
1862.000000	21.500600
1861.000000	21.674892
1860.000000	21.827556
1859.000000	21.940898
1858.000000	22.042790
1857.000000	22.124211
1856.000000	22.205401
1855.000000	22.267623
1854.000000	22.302204
1853.000000	22.340370
1852.000000	22.344302
1851.000000	22.350316
1850.000000	22.356562
1849.000000	22.347888
1848.000000	22.354480
1847.000000	22.317933
1846.000000	22.282774
1845.000000	22.237322
1844.000000	22.194645
1843.000000	22.189209
1842.000000	22.176950
1841.000000	22.155785
1840.000000	22.126987
1839.000000	22.099808
1838.000000	22.079568
1837.000000	22.045681
1836.000000	22.007053
1835.000000	21.973975
1834.000000	21.917883
1833.000000	21.858667
1832.000000	21.788580
1831.000000	21.730869
1830.000000	21.672925
1829.000000	21.591967
1828.000000	21.533561
1827.000000	21.448092
1826.000000	21.375345
1825.000000	21.315089
1824.000000	21.259575
1823.000000	21.209612
1822.000000	21.179426
1821.000000	21.151900
1820.000000	21.132239
1819.000000	21.088174
1818.000000	21.033238
1817.000000	21.006637
1816.000000	20.997963
1815.000000	20.999235
1814.000000	20.991140
1813.000000	20.967199
1812.000000	20.960491
1811.000000	20.951123
1810.000000	20.916773
1809.000000	20.871205
1808.000000	20.832924
1807.000000	20.796377
1806.000000	20.755319
1805.000000	20.708710
1804.000000	20.640936
1803.000000	20.600689
1802.000000	20.551535
1801.000000	20.487694
1800.000000	20.436805
1799.000000	20.380713
1798.000000	20.327396
1797.000000	20.275236
1796.000000	20.228511
1795.000000	20.185025
1794.000000	20.126272
1793.000000	20.064397
1792.000000	20.013508
1791.000000	19.956606
1790.000000	19.902248
1789.000000	19.845693
1788.000000	19.770633
1787.000000	19.707485
1786.000000	19.640290
1785.000000	19.559794
1784.000000	19.504395
1783.000000	19.438472
1782.000000	19.352887
1781.000000	19.271582
1780.000000	19.176398
1779.000000	19.103535
1778.000000	19.027550
1777.000000	18.928202
1776.000000	18.857306
1775.000000	18.762585
1774.000000	18.642303
1773.000000	18.528962
1772.000000	18.427185
1771.000000	18.316619
1770.000000	18.181997
1769.000000	18.070274
1768.000000	17.960749
1767.000000	17.845210
1766.000000	17.745978
1765.000000	17.651256
1764.000000	17.595742
1763.000000	17.548439
1762.000000	17.526118
1761.000000	17.531785
1760.000000	17.550637
1759.000000	17.596320
1758.000000	17.680633
1757.000000	17.761707
1756.000000	17.817915
1755.000000	17.881063
1754.000000	17.947102
1753.000000	17.976709
1752.000000	17.992207
1751.000000	17.994173
1750.000000	17.990588
1749.000000	17.964219
1748.000000	17.921426
1747.000000	17.866837
1746.000000	17.793396
1745.000000	17.714635
1744.000000	17.608927
1743.000000	17.479509
1742.000000	17.321640
1741.000000	17.150355
1740.000000	16.951428
1739.000000	16.740011
1738.000000	16.542010
1737.000000	16.339961
1736.000000	16.164975
1735.000000	16.039027
1734.000000	15.962579
1733.000000	15.891682
1732.000000	15.860918
1731.000000	15.893070
1730.000000	15.968477
1729.000000	16.050592
1728.000000	16.146239
1727.000000	16.251832
1726.000000	16.361241
1725.000000	16.449023
1724.000000	16.526049
1723.000000	16.580176
1722.000000	16.640895
1721.000000	16.673163
1720.000000	16.692593
1719.000000	16.718384
1718.000000	16.730065
1717.000000	16.775517
1716.000000	16.833692
1715.000000	16.891982
1714.000000	16.968777
1713.000000	17.033196
1712.000000	17.108488
1711.000000	17.173948
1710.000000	17.199046
1709.000000	17.221483
1708.000000	17.208645
1707.000000	17.186208
1706.000000	17.166084
1705.000000	17.122482
1704.000000	17.079227
1703.000000	17.020474
1702.000000	16.937665
1701.000000	16.833807
1700.000000	16.722779
1699.000000	16.577053
1698.000000	16.437111
1697.000000	16.294740
1696.000000	16.170411
1695.000000	16.100786
1694.000000	16.083785
1693.000000	16.130047
1692.000000	16.191344
1691.000000	16.355690
1690.000000	16.500721
1689.000000	16.641242
1688.000000	16.748454
1687.000000	16.845373
1686.000000	16.905282
1685.000000	16.935815
1684.000000	16.988669
1683.000000	17.081424
1682.000000	17.235361
1681.000000	17.544507
1680.000000	17.910092
1679.000000	18.379651
1678.000000	18.908194
1677.000000	19.446568
1676.000000	19.944578
1675.000000	20.442357
1674.000000	20.866926
1673.000000	21.233784
1672.000000	21.575081
1671.000000	21.861212
1670.000000	22.090440
1669.000000	22.311341
1668.000000	22.484360
1667.000000	22.685600
1666.000000	22.827856
1665.000000	22.951491
1664.000000	23.045171
1663.000000	23.128558
1662.000000	23.221776
1661.000000	23.297530
1660.000000	23.354780
1659.000000	23.396994
1658.000000	23.475408
1657.000000	23.493218
1656.000000	23.466849
1655.000000	23.498192
1654.000000	23.528262
1653.000000	23.495994
1652.000000	23.488361
1651.000000	23.474020
1650.000000	23.469856
1649.000000	23.435507
1648.000000	23.375829
1647.000000	23.330145
1646.000000	23.293714
1645.000000	23.232879
1644.000000	23.178174
1643.000000	23.111210
1642.000000	23.042396
1641.000000	23.004345
1640.000000	22.923040
1639.000000	22.878397
1638.000000	22.788880
1637.000000	22.698669
1636.000000	22.661081
1635.000000	22.573762
1634.000000	22.476149
1633.000000	22.422138
1632.000000	22.358991
1631.000000	22.242873
1630.000000	22.138784
1629.000000	22.072629
1628.000000	22.011447
1627.000000	21.898221
1626.000000	21.810323
1625.000000	21.732025
1624.000000	21.649563
1623.000000	21.555073
1622.000000	21.444391
1621.000000	21.388299
1620.000000	21.297047
1619.000000	21.223375
1618.000000	21.130388
1617.000000	21.030115
1616.000000	20.976451
1615.000000	20.885200
1614.000000	20.788628
1613.000000	20.716922
1612.000000	20.664646
1611.000000	20.595368
1610.000000	20.502266
1609.000000	20.424777
1608.000000	20.362439
1607.000000	20.293162
1606.000000	20.210237
1605.000000	20.130783
1604.000000	20.043116
1603.000000	19.983901
1602.000000	19.927692
1601.000000	19.853673
1600.000000	19.779076
1599.000000	19.710377
1598.000000	19.639827
1597.000000	19.548344
1596.000000	19.468195
1595.000000	19.410368
1594.000000	19.358670
1593.000000	19.279909
1592.000000	19.220925
1591.000000	19.176398
1590.000000	19.113019
1589.000000	19.051375
1588.000000	19.004535
1587.000000	18.965096
1586.000000	18.910045
1585.000000	18.873729
1584.000000	18.822725
1583.000000	18.760618
1582.000000	18.734480
1581.000000	18.706145
1580.000000	18.658380
1579.000000	18.639296
1578.000000	18.607376
1577.000000	18.567012
1576.000000	18.536479
1575.000000	18.519709
1574.000000	18.500511
1573.000000	18.497388
1572.000000	18.498313
1571.000000	18.494381
1570.000000	18.468821
1569.000000	18.468243
1568.000000	18.472522
1567.000000	18.479693
1566.000000	18.481196
1565.000000	18.486863
1564.000000	18.498429
1563.000000	18.509647
1562.000000	18.516355
1561.000000	18.486401
1560.000000	18.494265
1559.000000	18.523295
1558.000000	18.508259
1557.000000	18.482237
1556.000000	18.483856
1555.000000	18.478305
1554.000000	18.453208
1553.000000	18.441989
1552.000000	18.421634
1551.000000	18.391679
1550.000000	18.366235
1549.000000	18.335934
1548.000000	18.316157
1547.000000	18.292679
1546.000000	18.270242
1545.000000	18.255438
1544.000000	18.231844
1543.000000	18.210679
1542.000000	18.192406
1541.000000	18.166846
1540.000000	18.154008
1539.000000	18.136429
1538.000000	18.124401
1537.000000	18.107978
1536.000000	18.082418
1535.000000	18.071315
1534.000000	18.052463
1533.000000	18.025284
1532.000000	18.001575
1531.000000	17.958667
1530.000000	17.924665
1529.000000	17.896445
1528.000000	17.860939
1527.000000	17.824970
1526.000000	17.797329
1525.000000	17.765176
1524.000000	17.725044
1523.000000	17.680633
1522.000000	17.638881
1521.000000	17.591463
1520.000000	17.539071
1519.000000	17.491190
1518.000000	17.449554
1517.000000	17.398435
1516.000000	17.357493
1515.000000	17.325919
1514.000000	17.267166
1513.000000	17.225993
1512.000000	17.190603
1511.000000	17.118897
1510.000000	17.069512
1509.000000	17.029148
1508.000000	16.975832
1507.000000	16.925637
1506.000000	16.853931
1505.000000	16.785579
1504.000000	16.752502
1503.000000	16.713410
1502.000000	16.648875
1501.000000	16.594633
1500.000000	16.558664
1499.000000	16.519688
1498.000000	16.484067
1497.000000	16.437342
1496.000000	16.391543
1495.000000	16.355343
1494.000000	16.317986
1493.000000	16.286181
1492.000000	16.256573
1491.000000	16.230551
1490.000000	16.197474
1489.000000	16.158729
1488.000000	16.124033
1487.000000	16.106338
1486.000000	16.078118
1485.000000	16.064239
1484.000000	16.044231
1483.000000	16.017283
1482.000000	16.005024
1481.000000	15.996119
1480.000000	15.990798
1479.000000	15.975532
1478.000000	15.946850
1477.000000	15.940373
1476.000000	15.949163
1475.000000	15.937828
1474.000000	15.943033
1473.000000	15.956565
1472.000000	15.969865
1471.000000	15.956218
1470.000000	15.956565
1469.000000	15.965470
1468.000000	15.944652
1467.000000	15.971715
1466.000000	15.983743
1465.000000	15.994384
1464.000000	16.006527
1463.000000	16.030237
1462.000000	16.048279
1461.000000	16.074648
1460.000000	16.102984
1459.000000	16.141612
1458.000000	16.192848
1457.000000	16.225347
1456.000000	16.279126
1455.000000	16.335450
1454.000000	16.411320
1453.000000	16.448214
1452.000000	16.520845
1451.000000	16.605157
1450.000000	16.671659
1449.000000	16.737929
1448.000000	16.808016
1447.000000	16.890131
1446.000000	16.989132
1445.000000	17.066852
1444.000000	17.175221
1443.000000	17.244151
1442.000000	17.310884
1441.000000	17.415320
1440.000000	17.550058
1439.000000	17.642698
1438.000000	17.732677
1437.000000	17.853074
1436.000000	17.946176
1435.000000	18.049341
1434.000000	18.168003
1433.000000	18.288284
1432.000000	18.421865
1431.000000	18.516240
1430.000000	18.673530
1429.000000	18.795893
1428.000000	18.946823
1427.000000	19.118455
1426.000000	19.285808
1425.000000	19.474672
1424.000000	19.662496
1423.000000	19.864545
1422.000000	20.076887
1421.000000	20.269915
1420.000000	20.519383
1419.000000	20.744679
1418.000000	20.986398
1417.000000	21.238525
1416.000000	21.466597
1415.000000	21.723467
1414.000000	22.021509
1413.000000	22.309375
1412.000000	22.590647
1411.000000	22.848327
1410.000000	23.189046
1409.000000	23.562033
1408.000000	23.952253
1407.000000	24.366182
1406.000000	24.778954
1405.000000	25.202483
1404.000000	25.684879
1403.000000	26.094067
1402.000000	26.579239
1401.000000	27.016762
1400.000000	27.538019
1399.000000	28.020184
1398.000000	28.411213
1397.000000	28.713420
1396.000000	29.083978
1395.000000	29.544285
1394.000000	29.926987
1393.000000	30.222948
1392.000000	30.535679
1391.000000	30.940587
1390.000000	31.318547
1389.000000	31.701018
1388.000000	32.126397
1387.000000	32.680153
1386.000000	33.191579
1385.000000	33.772051
1384.000000	34.351945
1383.000000	35.019852
1382.000000	35.712394
1381.000000	36.354163
1380.000000	36.871950
1379.000000	37.254074
1378.000000	37.575248
1377.000000	37.817314
1376.000000	38.073721
1375.000000	38.314399
1374.000000	38.590929
1373.000000	38.922975
1372.000000	39.314004
1371.000000	39.728627
1370.000000	40.214840
1369.000000	40.589215
1368.000000	40.974231
1367.000000	41.365723
1366.000000	41.697305
1365.000000	41.959611
1364.000000	42.235910
1363.000000	42.474969
1362.000000	42.724321
1361.000000	42.950658
1360.000000	43.140563
1359.000000	43.251014
1358.000000	43.350361
1357.000000	43.480936
1356.000000	43.693163
1355.000000	43.991205
1354.000000	44.414271
1353.000000	44.906036
1352.000000	45.423360
1351.000000	46.049863
1350.000000	46.670815
1349.000000	47.251171
1348.000000	47.780524
1347.000000	48.264424
1346.000000	48.782789
1345.000000	49.182724
1344.000000	49.593877
1343.000000	50.043197
1342.000000	50.454813
1341.000000	50.835780
1340.000000	51.241729
1339.000000	51.629289
1338.000000	51.985275
1337.000000	52.359071
1336.000000	52.710547
1335.000000	53.064913
1334.000000	53.404823
1333.000000	53.760115
1332.000000	54.052491
1331.000000	54.389972
1330.000000	54.680497
1329.000000	54.991146
1328.000000	55.257500
1327.000000	55.539698
1326.000000	55.802003
1325.000000	56.039096
1324.000000	56.286597
1323.000000	56.526813
1322.000000	56.762749
1321.000000	56.947218
1320.000000	57.165459
1319.000000	57.376529
1318.000000	57.561577
1317.000000	57.746741
1316.000000	57.907733
1315.000000	58.114061
1314.000000	58.246948
1313.000000	58.396606
1312.000000	58.541175
1311.000000	58.698465
1310.000000	58.813311
1309.000000	58.959267
1308.000000	59.060234
1307.000000	59.167909
1306.000000	59.255691
1305.000000	59.337228
1304.000000	59.410090
1303.000000	59.479136
1302.000000	59.525167
1301.000000	59.581144
1300.000000	59.639897
1299.000000	59.686737
1298.000000	59.696336
1297.000000	59.730917
1296.000000	59.754973
1295.000000	59.765613
1294.000000	59.794065
1293.000000	59.794527
1292.000000	59.786778
1291.000000	59.776601
1290.000000	59.776948
1289.000000	59.765613
1288.000000	59.729413
1287.000000	59.680723
1286.000000	59.639434
1285.000000	59.603581
1284.000000	59.531875
1283.000000	59.462944
1282.000000	59.395055
1281.000000	59.330635
1280.000000	59.256269
1279.000000	59.181325
1278.000000	59.115170
1277.000000	59.059193
1276.000000	58.990841
1275.000000	58.932782
1274.000000	58.871254
1273.000000	58.819093
1272.000000	58.766008
1271.000000	58.721712
1270.000000	58.674640
1269.000000	58.629998
1268.000000	58.583273
1267.000000	58.529031
1266.000000	58.476292
1265.000000	58.405049
1264.000000	58.347800
1263.000000	58.295408
1262.000000	58.235614
1261.000000	58.173276
1260.000000	58.103421
1259.000000	58.035069
1258.000000	57.985568
1257.000000	57.924965
1256.000000	57.839612
1255.000000	57.752408
1254.000000	57.659190
1253.000000	57.568748
1252.000000	57.474142
1251.000000	57.366583
1250.000000	57.273250
1249.000000	57.169160
1248.000000	57.050614
1247.000000	56.940279
1246.000000	56.801609
1245.000000	56.664442
1244.000000	56.525078
1243.000000	56.366399
1242.000000	56.196618
1241.000000	56.021863
1240.000000	55.861218
1239.000000	55.701615
1238.000000	55.531949
1237.000000	55.347017
1236.000000	55.158268
1235.000000	54.964661
1234.000000	54.775797
1233.000000	54.572938
1232.000000	54.348336
1231.000000	54.140967
1230.000000	53.921570
1229.000000	53.689334
1228.000000	53.470978
1227.000000	53.237008
1226.000000	53.010324
1225.000000	52.784450
1224.000000	52.543078
1223.000000	52.301938
1222.000000	52.078261
1221.000000	51.845216
1220.000000	51.602804
1219.000000	51.377161
1218.000000	51.166206
1217.000000	50.949006
1216.000000	50.743025
1215.000000	50.552194
1214.000000	50.358357
1213.000000	50.158967
1212.000000	49.984097
1211.000000	49.816051
1210.000000	49.639214
1209.000000	49.474522
1208.000000	49.308325
1207.000000	49.173356
1206.000000	49.053538
1205.000000	48.933025
1204.000000	48.846053
1203.000000	48.778626
1202.000000	48.710505
1201.000000	48.666441
1200.000000	48.599708
1199.000000	48.526961
1198.000000	48.440335
1197.000000	48.300855
1196.000000	48.119855
1195.000000	47.906356
1194.000000	47.630982
1193.000000	47.280432
1192.000000	46.855862
1191.000000	46.382834
1190.000000	45.854175
1189.000000	45.332224
1188.000000	44.860352
1187.000000	44.465969
1186.000000	44.223787
1185.000000	44.120623
1184.000000	44.161912
1183.000000	44.366853
1182.000000	44.737874
1181.000000	45.233455
1180.000000	45.795885
1179.000000	46.413251
1178.000000	46.994301
1177.000000	47.551411
1176.000000	48.043292
1175.000000	48.450744
1174.000000	48.840039
1173.000000	49.230605
1172.000000	49.593068
1171.000000	49.977852
1170.000000	50.385998
1169.000000	50.789981
1168.000000	51.208883
1167.000000	51.606505
1166.000000	52.024019
1165.000000	52.459460
1164.000000	52.886920
1163.000000	53.338090
1162.000000	53.789492
1161.000000	54.244594
1160.000000	54.683504
1159.000000	55.129932
1158.000000	55.586422
1157.000000	55.982887
1156.000000	56.358419
1155.000000	56.713711
1154.000000	57.009672
1153.000000	57.253357
1152.000000	57.436670
1151.000000	57.555101
1150.000000	57.668789
1149.000000	57.743849
1148.000000	57.827468
1147.000000	57.916407
1146.000000	58.040042
1145.000000	58.228212
1144.000000	58.475598
1143.000000	58.798854
1142.000000	59.199251
1141.000000	59.630181
1140.000000	60.062500
1139.000000	60.503723
1138.000000	60.961948
1137.000000	61.453250
1136.000000	61.968377
1135.000000	62.508370
1134.000000	63.057037
1133.000000	63.581995
1132.000000	64.004598
1131.000000	64.436569
1130.000000	64.841593
1129.000000	65.193184
1128.000000	65.504180
1127.000000	65.751797
1126.000000	65.930137
1125.000000	66.109287
1124.000000	66.241827
1123.000000	66.375177
1122.000000	66.462497
1121.000000	66.549122
1120.000000	66.622101
1119.000000	66.658995
1118.000000	66.696351
1117.000000	66.718557
1116.000000	66.730701
1115.000000	66.740531
1114.000000	66.723067
1113.000000	66.719945
1112.000000	66.716244
1111.000000	66.694501
1110.000000	66.677499
1109.000000	66.679697
1108.000000	66.670791
1107.000000	66.650089
1106.000000	66.617359
1105.000000	66.612617
1104.000000	66.614236
1103.000000	66.581274
1102.000000	66.554789
1101.000000	66.533740
1100.000000	66.498812
1099.000000	66.471171
1098.000000	66.469205
1097.000000	66.444339
1096.000000	66.398540
1095.000000	66.339440
1094.000000	66.310989
1093.000000	66.278605
1092.000000	66.209213
1091.000000	66.163991
1090.000000	66.112294
1089.000000	66.075168
1088.000000	66.011905
1087.000000	65.938696
1086.000000	65.887345
1085.000000	65.830327
1084.000000	65.756076
1083.000000	65.711665
1082.000000	65.637299
1081.000000	65.573342
1080.000000	65.516324
1079.000000	65.451557
1078.000000	65.384824
1077.000000	65.312540
1076.000000	65.263618
1075.000000	65.197926
1074.000000	65.134084
1073.000000	65.043179
1072.000000	64.996455
1071.000000	64.924517
1070.000000	64.876058
1069.000000	64.823435
1068.000000	64.731952
1067.000000	64.645905
1066.000000	64.587036
1065.000000	64.513480
1064.000000	64.464095
1063.000000	64.397941
1062.000000	64.326350
1061.000000	64.238568
1060.000000	64.159229
1059.000000	64.088217
1058.000000	64.015354
1057.000000	63.939831
1056.000000	63.850777
1055.000000	63.783466
1054.000000	63.717543
1053.000000	63.612297
1052.000000	63.532842
1051.000000	63.486001
1050.000000	63.443440
1049.000000	63.351263
1048.000000	63.285456
1047.000000	63.217798
1046.000000	63.168644
1045.000000	63.090693
1044.000000	63.042233
1043.000000	62.994121
1042.000000	62.914666
1041.000000	62.861696
1040.000000	62.824802
1039.000000	62.760729
1038.000000	62.676879
1037.000000	62.617433
1036.000000	62.567239
1035.000000	62.493913
1034.000000	62.440018
1033.000000	62.383579
1032.000000	62.286775
1031.000000	62.210559
1030.000000	62.156317
1029.000000	62.084379
1028.000000	62.003652
1027.000000	61.915060
1026.000000	61.845205
1025.000000	61.750599
1024.000000	61.667212
1023.000000	61.573647
1022.000000	61.494192
1021.000000	61.405369
1020.000000	61.333200
1019.000000	61.266930
1018.000000	61.202857
1017.000000	61.098305
1016.000000	61.041981
1015.000000	60.969928
1014.000000	60.925401
1013.000000	60.876826
1012.000000	60.838082
1011.000000	60.781411
1010.000000	60.746714
1009.000000	60.747524
1008.000000	60.740353
1007.000000	60.728788
1006.000000	60.708779
1005.000000	60.685648
1004.000000	60.688077
1003.000000	60.680791
1002.000000	60.672811
1001.000000	60.651877
1000.000000	60.645054
999.000000	60.658470
998.000000	60.663327
997.000000	60.636842
996.000000	60.623310
995.000000	60.630597
994.000000	60.642972
993.000000	60.637073
992.000000	60.628862
991.000000	60.641468
990.000000	60.645863
989.000000	60.635107
988.000000	60.628168
987.000000	60.650374
986.000000	60.655578
985.000000	60.642278
984.000000	60.652340
983.000000	60.677437
982.000000	60.687499
981.000000	60.668994
980.000000	60.693744
979.000000	60.730638
978.000000	60.725896
977.000000	60.714678
976.000000	60.735496
975.000000	60.738271
974.000000	60.748333
973.000000	60.770655
972.000000	60.785690
971.000000	60.790547
970.000000	60.773893
969.000000	60.787887
968.000000	60.815066
967.000000	60.836925
966.000000	60.834612
965.000000	60.848028
964.000000	60.868846
963.000000	60.857859
962.000000	60.891630
961.000000	60.920197
960.000000	60.927830
959.000000	60.953390
958.000000	60.966690
957.000000	60.998264
956.000000	61.009598
955.000000	61.021857
954.000000	61.030069
953.000000	61.013415
952.000000	60.994794
951.000000	61.004509
950.000000	61.041172
949.000000	61.036430
948.000000	61.008326
947.000000	60.992018
946.000000	60.990862
945.000000	61.004509
944.000000	60.997223
943.000000	60.973861
942.000000	60.945294
941.000000	60.930259
940.000000	60.918693
939.000000	60.868962
938.000000	60.831952
937.000000	60.841667
936.000000	60.821427
935.000000	60.765219
934.000000	60.738618
933.000000	60.702303
932.000000	60.693166
931.000000	60.664946
930.000000	60.604112
929.000000	60.568143
928.000000	60.561204
927.000000	60.528589
926.000000	60.462666
925.000000	60.404260
924.000000	60.339609
923.000000	60.330241
922.000000	60.292422
921.000000	60.229737
920.000000	60.178849
919.000000	60.103095
918.000000	60.021095
917.000000	59.961417
916.000000	59.903474
915.000000	59.840558
914.000000	59.756477
913.000000	59.706282
912.000000	59.644523
911.000000	59.517649
910.000000	59.416104
909.000000	59.362787
908.000000	59.296054
907.000000	59.243084
906.000000	59.185373
905.000000	59.126967
904.000000	59.079201
903.000000	59.033749
902.000000	59.001366
901.000000	58.959036
900.000000	58.898780
899.000000	58.852171
898.000000	58.818515
897.000000	58.778036
896.000000	58.741952
895.000000	58.712575
894.000000	58.656483
893.000000	58.546263
892.000000	58.461835
891.000000	58.408518
890.000000	58.282108
889.000000	58.162173
888.000000	58.065833
887.000000	57.921727
886.000000	57.801446
885.000000	57.640917
884.000000	57.528616
883.000000	57.407178
882.000000	57.229995
881.000000	57.068887
880.000000	56.865103
879.000000	56.709432
878.000000	56.517676
877.000000	56.278848
876.000000	56.072867
875.000000	55.812412
874.000000	55.513097
873.000000	55.215401
872.000000	54.896309
871.000000	54.642678
870.000000	54.511525
869.000000	54.474169
868.000000	54.473128
867.000000	54.482149
866.000000	54.479952
865.000000	54.470930
864.000000	54.468155
863.000000	54.447684
862.000000	54.432070
861.000000	54.429989
860.000000	54.404545
859.000000	54.427213
858.000000	54.409633
857.000000	53.586000
856.000000	54.961900
855.000000	54.681000
854.000000	54.574700
853.000000	54.711600
852.000000	54.605600
851.000000	54.385600
850.000000	54.356700
849.000000	54.611600
848.000000	54.247900
847.000000	54.618100
846.000000	54.971500
845.000000	54.653000
844.000000	54.753700
843.000000	55.072900
842.000000	54.957600
841.000000	54.837600
840.000000	54.697500
839.000000	54.599900
838.000000	54.492500
837.000000	54.579500
836.000000	54.637500
835.000000	54.659200
834.000000	54.450900
833.000000	54.536100
832.000000	54.548800
831.000000	54.477900
830.000000	54.513500
829.000000	54.355100
828.000000	54.109700
827.000000	54.218600
826.000000	54.084800
825.000000	54.191100
824.000000	54.107700
823.000000	54.019700
822.000000	53.876400
821.000000	53.955500
820.000000	53.874300
819.000000	53.773700
818.000000	53.911700
817.000000	53.603600
816.000000	53.632600
815.000000	53.736300
814.000000	53.416800
813.000000	53.374700
812.000000	53.422500
811.000000	53.413200
810.000000	53.239500
809.000000	53.158100
808.000000	53.020500
807.000000	53.081400
806.000000	53.124900
805.000000	52.829700
804.000000	52.797800
803.000000	52.816100
802.000000	52.655100
801.000000	52.563000
800.000000	52.463200
799.000000	52.396000
798.000000	52.333100
797.000000	52.218400
796.000000	52.295900
795.000000	52.137500
794.000000	52.033400
793.000000	51.837300
792.000000	51.847600
791.000000	51.794900
790.000000	51.838200
789.000000	51.726100
788.000000	51.552400
787.000000	51.362200
786.000000	51.449400
785.000000	51.281900
784.000000	51.163600
783.000000	51.144400
782.000000	50.974400
781.000000	50.801700
780.000000	50.702900
779.000000	50.659200
778.000000	50.637200
777.000000	50.446400
776.000000	50.246300
775.000000	50.153300
774.000000	50.069000
773.000000	50.033100
772.000000	49.895100
771.000000	49.862600
770.000000	49.704100
769.000000	49.603600
768.000000	49.488200
767.000000	49.410300
766.000000	49.317200
765.000000	49.229100
764.000000	49.099800
763.000000	49.060300
762.000000	48.844100
761.000000	48.747100
760.000000	48.567400
759.000000	48.599100
758.000000	48.331600
757.000000	48.200800
756.000000	48.196700
755.000000	47.970900
754.000000	47.868100
753.000000	47.685800
752.000000	47.589600
751.000000	47.493300
750.000000	47.269000
749.000000	47.169100
748.000000	47.002300
747.000000	46.949700
746.000000	46.773100
745.000000	46.603600
744.000000	46.452900
743.000000	46.333500
742.000000	46.190600
741.000000	46.030100
740.000000	45.828300
739.000000	45.710400
738.000000	45.598200
737.000000	45.442400
736.000000	45.307000
735.000000	45.075000
734.000000	44.931600
733.000000	44.799800
732.000000	44.581700
731.000000	44.382200
730.000000	44.275300
729.000000	44.148500
728.000000	43.939300
727.000000	43.750600
726.000000	43.564600
725.000000	43.410100
724.000000	43.219100
723.000000	43.015400
722.000000	42.847200
721.000000	42.619900
720.000000	42.374700
719.000000	42.200600
718.000000	41.994400
717.000000	41.758200
716.000000	41.614500
715.000000	41.417700
714.000000	41.138700
713.000000	40.909300
712.000000	40.727800
711.000000	40.535000
710.000000	40.289300
709.000000	40.086100
708.000000	39.894400
707.000000	39.642300
706.000000	39.438700
705.000000	39.191400
704.000000	38.979400
703.000000	38.795200
702.000000	38.568700
701.000000	38.380300
700.000000	38.156700
699.000000	37.914300
698.000000	37.735600
697.000000	37.564900
696.000000	37.363000
695.000000	37.176500
694.000000	36.969300
693.000000	36.760900
692.000000	36.563100
691.000000	36.388600
690.000000	36.172900
689.000000	35.980700
688.000000	35.777300
687.000000	35.602600
686.000000	35.418100
685.000000	35.223700
684.000000	35.044900
683.000000	34.897600
682.000000	34.709300
681.000000	34.518500
680.000000	34.339700
679.000000	34.174100
678.000000	33.980500
677.000000	33.804900
676.000000	33.625700
675.000000	33.448900
674.000000	33.315100
673.000000	33.171200
672.000000	32.980000
671.000000	32.814400
670.000000	32.684900
669.000000	32.523900
668.000000	32.359600
667.000000	32.232600
666.000000	32.107200
665.000000	31.972300
664.000000	31.828000
663.000000	31.701100
662.000000	31.562500
661.000000	31.446800
660.000000	31.334600
659.000000	31.223500
658.000000	31.098100
657.000000	30.978100
656.000000	30.875600
655.000000	30.769000
654.000000	30.640400
653.000000	30.541300
652.000000	30.439100
651.000000	30.326000
650.000000	30.277800
649.000000	30.187300
648.000000	30.073400
647.000000	29.975500
646.000000	29.886000
645.000000	29.797500
644.000000	29.699400
643.000000	29.598400
642.000000	29.520900
641.000000	29.470000
640.000000	29.402100
639.000000	29.332100
638.000000	29.251900
637.000000	29.183200
636.000000	29.157100
635.000000	29.094200
634.000000	29.040600
633.000000	29.013500
632.000000	28.961400
631.000000	28.924000
630.000000	28.908100
629.000000	28.878200
628.000000	28.870000
627.000000	28.875900
626.000000	28.876800
625.000000	28.893700
624.000000	28.898600
623.000000	28.897300
622.000000	28.938900
621.000000	29.005400
620.000000	29.054200
619.000000	29.078700
618.000000	29.132100
617.000000	29.199600
616.000000	29.263900
615.000000	29.324400
614.000000	29.389900
613.000000	29.473900
612.000000	29.557900
611.000000	29.639700
610.000000	29.732700
609.000000	29.817000
608.000000	29.915700
607.000000	29.995400
606.000000	30.077000
605.000000	30.178200
604.000000	30.283700
603.000000	30.384700
602.000000	30.471800
601.000000	30.555700
600.000000	30.654200
599.000000	30.741700
598.000000	30.820800
597.000000	30.912200
596.000000	30.986000
595.000000	31.048300
594.000000	31.123800
593.000000	31.190100
592.000000	31.236200
591.000000	31.306600
590.000000	31.366500
589.000000	31.405000
588.000000	31.468800
587.000000	31.503900
586.000000	31.539000
585.000000	31.578500
584.000000	31.608100
583.000000	31.635800
582.000000	31.646100
581.000000	31.669400
580.000000	31.645800
579.000000	31.654200
578.000000	31.661800
577.000000	31.649400
576.000000	31.648800
575.000000	31.623000
574.000000	31.575400
573.000000	31.526400
572.000000	31.486000
571.000000	31.420600
570.000000	31.352300
569.000000	31.276100
568.000000	31.193400
567.000000	31.091500
566.000000	30.994500
565.000000	30.897100
564.000000	30.781600
563.000000	30.624200
562.000000	30.482600
561.000000	30.308700
560.000000	30.163100
559.000000	29.950800
558.000000	29.761100
557.000000	29.565700
556.000000	29.331800
555.000000	29.135400
554.000000	28.904600
553.000000	28.663400
552.000000	28.381600
551.000000	28.118300
550.000000	27.848500
549.000000	27.548800
548.000000	27.272900
547.000000	26.991200
546.000000	26.698600
545.000000	26.381300
544.000000	26.049200
543.000000	25.717300
542.000000	25.390600
541.000000	25.040100
540.000000	24.693700
539.000000	24.331100
538.000000	23.994700
537.000000	23.647500
536.000000	23.284900
535.000000	22.926600
534.000000	22.562900
533.000000	22.194500
532.000000	21.829900
531.000000	21.445600
530.000000	21.081500
529.000000	20.722200
528.000000	20.376100
527.000000	19.999200
526.000000	19.652500
525.000000	19.295400
524.000000	18.940400
523.000000	18.588600
522.000000	18.247000
521.000000	17.915300
520.000000	17.586700
519.000000	17.267200
518.000000	16.963500
517.000000	16.653900
516.000000	16.364800
515.000000	16.074900
514.000000	15.795100
513.000000	15.523500
512.000000	15.258400
511.000000	15.011800
510.000000	14.767600
509.000000	14.529700
508.000000	14.313000
507.000000	14.093500
506.000000	13.873400
505.000000	13.649700
504.000000	13.485100
503.000000	13.288600
502.000000	13.109600
501.000000	12.931000
500.000000	12.751600
499.000000	12.608000
498.000000	12.412300
497.000000	12.261100
496.000000	12.122700
495.000000	11.989800
494.000000	11.862600
493.000000	11.731300
492.000000	11.609400
491.000000	11.472400
490.000000	11.375000
489.000000	11.241100
488.000000	11.129700
487.000000	11.016900
486.000000	10.928000
485.000000	10.811600
484.000000	10.689600
483.000000	10.602200
482.000000	10.493200
481.000000	10.361800
480.000000	10.246900
479.000000	10.146200
478.000000	10.022000
477.000000	9.921900
476.000000	9.802300
475.000000	9.706900
474.000000	9.605600
473.000000	9.500800
472.000000	9.399400
471.000000	9.301900
470.000000	9.186000
469.000000	9.091900
468.000000	9.021000
467.000000	8.914900
466.000000	8.825600
465.000000	8.755500
464.000000	8.672600
463.000000	8.575900
462.000000	8.490200
461.000000	8.416100
460.000000	8.331700
459.000000	8.262800
458.000000	8.181300
457.000000	8.108400
456.000000	8.036500
455.000000	7.955300
454.000000	7.887500
453.000000	7.821500
452.000000	7.753600
451.000000	7.686100
450.000000	7.587800
449.000000	7.525700
448.000000	7.470300
447.000000	7.405000
446.000000	7.338100
445.000000	7.284600
444.000000	7.217300
443.000000	7.142600
442.000000	7.073400
441.000000	7.020500
440.000000	6.977300
439.000000	6.904400
438.000000	6.843200
437.000000	6.782600
436.000000	6.716200
435.000000	6.672700
434.000000	6.618800
433.000000	6.554200
432.000000	6.518900
431.000000	6.449300
430.000000	6.397800
429.000000	6.347300
428.000000	6.284700
427.000000	6.250900
426.000000	6.221200
425.000000	6.171500
424.000000	6.122700
423.000000	6.081200
422.000000	6.038600
421.000000	5.990700
420.000000	5.949500
419.000000	5.909700
418.000000	5.884500
417.000000	5.843100
416.000000	5.811400
415.000000	5.779400
414.000000	5.752100
413.000000	5.697500
412.000000	5.675300
411.000000	5.632800
410.000000	5.622000
409.000000	5.593900
408.000000	5.570700
407.000000	5.522100
406.000000	5.513600
405.000000	5.511600
404.000000	5.462200
403.000000	5.424300
402.000000	5.404500
401.000000	5.381200
400.000000	5.368300
399.000000	5.335200
398.000000	5.319500
397.000000	5.320100
396.000000	5.296900
395.000000	5.261400
394.000000	5.259100
393.000000	5.244100
392.000000	5.225400
391.000000	5.216700
390.000000	5.186600
389.000000	5.169900
388.000000	5.173900
387.000000	5.162300
386.000000	5.134500
385.000000	5.127700
384.000000	5.118600
383.000000	5.097000
382.000000	5.098800
381.000000	5.094200
380.000000	5.091700
379.000000	5.077000
378.000000	5.078400
377.000000	5.084100
376.000000	5.052900
375.000000	4.816500
374.000000	4.549600
373.000000	4.758700
372.000000	4.732700
371.000000	4.826200
370.000000	4.885100
369.000000	4.675300
368.000000	4.644000
367.000000	4.713600
366.000000	4.816600
365.000000	4.981500
364.000000	5.151100
363.000000	5.047500
362.000000	4.933300
361.000000	4.929700
360.000000	4.974700
359.000000	4.917100
358.000000	4.805600
357.000000	4.948400
356.000000	5.096200
355.000000	5.062900
354.000000	4.907200
353.000000	4.898700
352.000000	4.970200
351.000000	5.014400
350.000000	5.139500
349.000000	5.202500
348.000000	5.100000
347.000000	5.190200
346.000000	4.986200
345.000000	4.877600
344.000000	5.059600
343.000000	5.225800
342.000000	5.174200
341.000000	4.998300
340.000000	5.121300
339.000000	5.239600
338.000000	5.206400
337.000000	5.180100
336.000000	5.111900
335.000000	5.236600
334.000000	5.322800
333.000000	5.070600
332.000000	5.301800
331.000000	5.513200
330.000000	5.425600
329.000000	5.330500
328.000000	5.186900
327.000000	5.375600
326.000000	5.476300
325.000000	5.248800
324.000000	5.135800
323.000000	4.926500
322.000000	5.074800
321.000000	5.851000
320.000000	6.196400
319.000000	6.121700
318.000000	6.076200
317.000000	6.324200
316.000000	5.639500
315.000000	4.923200
314.000000	4.905600
313.000000	4.943300
312.000000	4.946400
311.000000	4.902700
310.000000	4.900100
309.000000	4.963500
308.000000	4.936500
307.000000	4.926000
306.000000	4.955900
305.000000	4.935800
304.000000	4.913600
303.000000	4.954000
302.000000	4.935300
301.000000	4.967100
300.000000	4.973000
299.000000	4.999400
298.000000	4.979200
297.000000	4.992300
296.000000	5.023400
295.000000	4.992300
294.000000	5.009000
293.000000	4.985800
292.000000	4.979400
291.000000	4.960200
290.000000	4.965900
289.000000	4.952800
288.000000	4.969300
287.000000	4.993000
286.000000	5.024500
285.000000	5.014800
284.000000	5.020500
283.000000	5.031600
282.000000	4.995400
281.000000	4.999200
280.000000	5.009400
279.000000	5.020800
278.000000	5.025300
277.000000	5.055200
276.000000	5.038000
275.000000	5.065600
274.000000	5.081200
273.000000	5.107300
272.000000	5.105200
271.000000	5.086600
270.000000	5.075700
269.000000	5.114900
268.000000	5.107300
267.000000	5.152200
266.000000	5.170600
265.000000	5.174400
264.000000	5.204200
263.000000	5.216900
262.000000	5.208500
261.000000	5.230100
260.000000	5.270300
259.000000	5.276500
258.000000	5.294200
257.000000	5.320300
256.000000	5.348800
255.000000	5.340500
254.000000	5.355300
253.000000	5.346800
252.000000	5.406400
251.000000	5.416900
250.000000	5.416400
