PE UV       SUBTECH     SPECTRUM    ASCII       PEDS        4.00        
   -1
CICIMAUCR0015-1.Sample.ASC
24/04/12
10:05:24.00
24/04/12
10:05:24.00
Vinicio Soto Monge
C. resplendens
250,000000
1
Lambda 1050
1050L1511233
PerkinElmer UV WinLab 6.3.2.0749 / 2.02.05 Lambda 900 UV/VIS/NIR, Aug  7 2015 09:38:08

0
0
3350/servo 860,8/2
0
0
UV/VIS
1
1
1
DoubleDePol,CommonBeamDepol,RBeamAtt,SBeamAtt,60mm sphere, WB InGaAs Detector
0
0
0
0
Program
Program
3350/servo 860,8/2
3350/0,2 860,8/0,2
3350/0,2 860,8/0,2
0
15.00
 
 
 
0
 
860,8
319,2
860,8
Front
100
on
S:100 R:100
0
0
0
0
 
0
 
 
 
0
 
 
0
0
0
0
0
 
 
 
 
0
0


0
0
#HDR
-1
-1
#GR
nm
%R
1.0
0.0
2500,000000
-1,000000
2251
8
95,380100
5,607500
#DATA
2482.000000	9.406332
2481.000000	9.403696
2480.000000	9.376178
2479.000000	9.436169
2478.000000	9.431741
2477.000000	9.373542
2476.000000	9.390095
2475.000000	9.387670
2474.000000	9.433533
2473.000000	9.444287
2472.000000	9.412130
2471.000000	9.424466
2470.000000	9.431530
2469.000000	9.428156
2468.000000	9.493840
2467.000000	9.462843
2466.000000	9.475811
2465.000000	9.532112
2464.000000	9.549192
2463.000000	9.586937
2462.000000	9.603595
2461.000000	9.668858
2460.000000	9.726002
2459.000000	9.766066
2458.000000	9.833015
2457.000000	9.908610
2456.000000	9.967125
2455.000000	10.043985
2454.000000	10.117576
2453.000000	10.227015
2452.000000	10.315051
2451.000000	10.390962
2450.000000	10.490806
2449.000000	10.585168
2448.000000	10.677104
2447.000000	10.789179
2446.000000	10.858342
2445.000000	10.931301
2444.000000	11.035890
2443.000000	11.133941
2442.000000	11.224086
2441.000000	11.312860
2440.000000	11.398260
2439.000000	11.482289
2438.000000	11.571906
2437.000000	11.640648
2436.000000	11.735958
2435.000000	11.804700
2434.000000	11.887886
2433.000000	11.965273
2432.000000	12.029376
2431.000000	12.089683
2430.000000	12.136495
2429.000000	12.156421
2428.000000	12.199649
2427.000000	12.249940
2426.000000	12.288633
2425.000000	12.343142
2424.000000	12.385314
2423.000000	12.435078
2422.000000	12.459539
2421.000000	12.492012
2420.000000	12.531760
2419.000000	12.579731
2418.000000	12.615894
2417.000000	12.658911
2416.000000	12.694968
2415.000000	12.716582
2414.000000	12.758017
2413.000000	12.774780
2412.000000	12.809784
2411.000000	12.865874
2410.000000	12.873992
2409.000000	12.896449
2408.000000	12.940309
2407.000000	12.965085
2406.000000	12.999983
2405.000000	13.018223
2404.000000	13.061556
2403.000000	13.102674
2402.000000	13.122706
2401.000000	13.143898
2400.000000	13.185544
2399.000000	13.207790
2398.000000	13.238049
2397.000000	13.284439
2396.000000	13.309110
2395.000000	13.332621
2394.000000	13.360666
2393.000000	13.397357
2392.000000	13.422450
2391.000000	13.445539
2390.000000	13.465360
2389.000000	13.477591
2388.000000	13.503527
2387.000000	13.514808
2386.000000	13.518498
2385.000000	13.521767
2384.000000	13.511118
2383.000000	13.505952
2382.000000	13.511223
2381.000000	13.487396
2380.000000	13.467153
2379.000000	13.455661
2378.000000	13.437632
2377.000000	13.412855
2376.000000	13.392191
2375.000000	13.362775
2374.000000	13.324714
2373.000000	13.283701
2372.000000	13.253864
2371.000000	13.226451
2370.000000	13.170362
2369.000000	13.117329
2368.000000	13.065035
2367.000000	13.000194
2366.000000	12.933034
2365.000000	12.872200
2364.000000	12.798503
2363.000000	12.715106
2362.000000	12.636243
2361.000000	12.569188
2360.000000	12.497283
2359.000000	12.431705
2358.000000	12.373295
2357.000000	12.306451
2356.000000	12.247515
2355.000000	12.210086
2354.000000	12.170866
2353.000000	12.159901
2352.000000	12.167281
2351.000000	12.196275
2350.000000	12.230224
2349.000000	12.259534
2348.000000	12.306240
2347.000000	12.346726
2346.000000	12.396596
2345.000000	12.460171
2344.000000	12.512465
2343.000000	12.563916
2342.000000	12.611044
2341.000000	12.647629
2340.000000	12.664604
2339.000000	12.694441
2338.000000	12.708253
2337.000000	12.708042
2336.000000	12.690540
2335.000000	12.668610
2334.000000	12.635294
2333.000000	12.604719
2332.000000	12.566763
2331.000000	12.507405
2330.000000	12.460593
2329.000000	12.401235
2328.000000	12.327854
2327.000000	12.253313
2326.000000	12.158952
2325.000000	12.071654
2324.000000	11.988468
2323.000000	11.896110
2322.000000	11.786671
2321.000000	11.643178
2320.000000	11.525621
2319.000000	11.408592
2318.000000	11.275642
2317.000000	11.141427
2316.000000	11.012905
2315.000000	10.867093
2314.000000	10.738360
2313.000000	10.622912
2312.000000	10.494074
2311.000000	10.384952
2310.000000	10.308936
2309.000000	10.256009
2308.000000	10.220478
2307.000000	10.190641
2306.000000	10.193909
2305.000000	10.214890
2304.000000	10.274986
2303.000000	10.337191
2302.000000	10.416160
2301.000000	10.513263
2300.000000	10.605516
2299.000000	10.725603
2298.000000	10.826607
2297.000000	10.941001
2296.000000	11.031567
2295.000000	11.142060
2294.000000	11.208060
2293.000000	11.286818
2292.000000	11.335738
2291.000000	11.369266
2290.000000	11.409119
2289.000000	11.424090
2288.000000	11.409119
2287.000000	11.393304
2286.000000	11.374959
2285.000000	11.335844
2284.000000	11.306006
2283.000000	11.246227
2282.000000	11.219763
2281.000000	11.151759
2280.000000	11.098516
2279.000000	11.032832
2278.000000	10.991503
2277.000000	10.945745
2276.000000	10.903361
2275.000000	10.870256
2274.000000	10.854968
2273.000000	10.820492
2272.000000	10.817540
2271.000000	10.855074
2270.000000	10.918965
2269.000000	10.959662
2268.000000	11.038314
2267.000000	11.140267
2266.000000	11.273955
2265.000000	11.448972
2264.000000	11.635271
2263.000000	11.827052
2262.000000	12.025897
2261.000000	12.311301
2260.000000	12.581629
2259.000000	12.870513
2258.000000	13.147799
2257.000000	13.441744
2256.000000	13.740433
2255.000000	14.031952
2254.000000	14.341923
2253.000000	14.636711
2252.000000	14.879099
2251.000000	15.139411
2250.000000	15.400355
2249.000000	15.642954
2248.000000	15.858246
2247.000000	16.066264
2246.000000	16.244866
2245.000000	16.417036
2244.000000	16.590683
2243.000000	16.750834
2242.000000	16.880832
2241.000000	17.055954
2240.000000	17.129230
2239.000000	17.262812
2238.000000	17.377311
2237.000000	17.445210
2236.000000	17.556124
2235.000000	17.622546
2234.000000	17.701304
2233.000000	17.746007
2232.000000	17.785544
2231.000000	17.845113
2230.000000	17.877481
2229.000000	17.902679
2228.000000	17.945801
2227.000000	17.917229
2226.000000	17.927034
2225.000000	17.926191
2224.000000	17.903839
2223.000000	17.901309
2222.000000	17.860717
2221.000000	17.833621
2220.000000	17.831407
2219.000000	17.761717
2218.000000	17.741579
2217.000000	17.715643
2216.000000	17.665457
2215.000000	17.626447
2214.000000	17.593658
2213.000000	17.526709
2212.000000	17.504779
2211.000000	17.476839
2210.000000	17.497609
2209.000000	17.440465
2208.000000	17.410944
2207.000000	17.383743
2206.000000	17.347896
2205.000000	17.338196
2204.000000	17.321222
2203.000000	17.303298
2202.000000	17.304352
2201.000000	17.267346
2200.000000	17.255116
2199.000000	17.241515
2198.000000	17.238352
2197.000000	17.225489
2196.000000	17.213365
2195.000000	17.204087
2194.000000	17.181313
2193.000000	17.173828
2192.000000	17.161281
2191.000000	17.172668
2190.000000	17.155904
2189.000000	17.123326
2188.000000	17.124274
2187.000000	17.117843
2186.000000	17.087795
2185.000000	17.075038
2184.000000	17.053951
2183.000000	17.031494
2182.000000	17.029596
2181.000000	17.020108
2180.000000	17.007877
2179.000000	16.997861
2178.000000	16.977829
2177.000000	16.973296
2176.000000	16.945883
2175.000000	16.947887
2174.000000	16.966970
2173.000000	16.982574
2172.000000	17.007772
2171.000000	17.010197
2170.000000	17.023165
2169.000000	17.045622
2168.000000	17.080731
2167.000000	17.099076
2166.000000	17.127227
2165.000000	17.155904
2164.000000	17.184054
2163.000000	17.204719
2162.000000	17.261969
2161.000000	17.298765
2160.000000	17.324068
2159.000000	17.376046
2158.000000	17.411471
2157.000000	17.467245
2156.000000	17.518379
2155.000000	17.597664
2154.000000	17.654176
2153.000000	17.713323
2152.000000	17.758132
2151.000000	17.818861
2150.000000	17.887919
2149.000000	17.947910
2148.000000	18.002102
2147.000000	18.063885
2146.000000	18.126722
2145.000000	18.191563
2144.000000	18.238270
2143.000000	18.301951
2142.000000	18.348446
2141.000000	18.394836
2140.000000	18.440805
2139.000000	18.495102
2138.000000	18.545288
2137.000000	18.589675
2136.000000	18.631109
2135.000000	18.664215
2134.000000	18.695634
2133.000000	18.715244
2132.000000	18.755519
2131.000000	18.790312
2130.000000	18.814667
2129.000000	18.835648
2128.000000	18.848405
2127.000000	18.864852
2126.000000	18.867804
2125.000000	18.861268
2124.000000	18.856418
2123.000000	18.849775
2122.000000	18.852517
2121.000000	18.843871
2120.000000	18.821309
2119.000000	18.810871
2118.000000	18.794213
2117.000000	18.771756
2116.000000	18.746030
2115.000000	18.731481
2114.000000	18.704596
2113.000000	18.673071
2112.000000	18.661052
2111.000000	18.631109
2110.000000	18.584508
2109.000000	18.565847
2108.000000	18.548767
2107.000000	18.516294
2106.000000	18.484770
2105.000000	18.454405
2104.000000	18.413603
2103.000000	18.391357
2102.000000	18.375120
2101.000000	18.340644
2100.000000	18.320612
2099.000000	18.304586
2098.000000	18.270637
2097.000000	18.237953
2096.000000	18.217394
2095.000000	18.200947
2094.000000	18.195886
2093.000000	18.185554
2092.000000	18.154240
2091.000000	18.137898
2090.000000	18.126722
2089.000000	18.111119
2088.000000	18.091508
2087.000000	18.086342
2086.000000	18.079383
2085.000000	18.051444
2084.000000	18.036789
2083.000000	18.014754
2082.000000	17.986076
2081.000000	17.944536
2080.000000	17.920076
2079.000000	17.904155
2078.000000	17.875794
2077.000000	17.834254
2076.000000	17.796931
2075.000000	17.756445
2074.000000	17.703307
2073.000000	17.662611
2072.000000	17.626658
2071.000000	17.592709
2070.000000	17.540837
2069.000000	17.488859
2068.000000	17.456491
2067.000000	17.395024
2066.000000	17.348634
2065.000000	17.305828
2064.000000	17.259227
2063.000000	17.249633
2062.000000	17.222643
2061.000000	17.162019
2060.000000	17.129546
2059.000000	17.127859
2058.000000	17.137137
2057.000000	17.139773
2056.000000	17.165288
2055.000000	17.212627
2054.000000	17.267978
2053.000000	17.315317
2052.000000	17.416427
2051.000000	17.515006
2050.000000	17.622757
2049.000000	17.757921
2048.000000	17.872947
2047.000000	18.010958
2046.000000	18.187768
2045.000000	18.361098
2044.000000	18.526626
2043.000000	18.704068
2042.000000	18.873603
2041.000000	19.044508
2040.000000	19.210142
2039.000000	19.376619
2038.000000	19.554800
2037.000000	19.712737
2036.000000	19.852751
2035.000000	19.987493
2034.000000	20.137206
2033.000000	20.296198
2032.000000	20.425668
2031.000000	20.535634
2030.000000	20.656248
2029.000000	20.777390
2028.000000	20.893681
2027.000000	21.000800
2026.000000	21.101699
2025.000000	21.199751
2024.000000	21.283991
2023.000000	21.385311
2022.000000	21.493484
2021.000000	21.578779
2020.000000	21.651949
2019.000000	21.750106
2018.000000	21.840883
2017.000000	21.907727
2016.000000	21.955698
2015.000000	22.016533
2014.000000	22.072623
2013.000000	22.110051
2012.000000	22.176579
2011.000000	22.221493
2010.000000	22.265247
2009.000000	22.298669
2008.000000	22.309950
2007.000000	22.326187
2006.000000	22.335465
2005.000000	22.339366
2004.000000	22.354970
2003.000000	22.354126
2002.000000	22.349698
2001.000000	22.327663
2000.000000	22.316171
1999.000000	22.287599
1998.000000	22.255547
1997.000000	22.225815
1996.000000	22.172045
1995.000000	22.130294
1994.000000	22.108259
1993.000000	22.042258
1992.000000	21.993759
1991.000000	21.922593
1990.000000	21.864711
1989.000000	21.803876
1988.000000	21.729230
1987.000000	21.665444
1986.000000	21.573929
1985.000000	21.519526
1984.000000	21.422950
1983.000000	21.343454
1982.000000	21.261639
1981.000000	21.174131
1980.000000	21.097060
1979.000000	21.018829
1978.000000	20.943867
1977.000000	20.854988
1976.000000	20.775070
1975.000000	20.689987
1974.000000	20.597523
1973.000000	20.515286
1972.000000	20.431045
1971.000000	20.364940
1970.000000	20.297568
1969.000000	20.225242
1968.000000	20.146484
1967.000000	20.078692
1966.000000	19.991605
1965.000000	19.911476
1964.000000	19.832719
1963.000000	19.755015
1962.000000	19.685430
1961.000000	19.604353
1960.000000	19.542991
1959.000000	19.466658
1958.000000	19.377252
1957.000000	19.295859
1956.000000	19.229015
1955.000000	19.147410
1954.000000	19.054841
1953.000000	18.969546
1952.000000	18.912297
1951.000000	18.835331
1950.000000	18.788203
1949.000000	18.723152
1948.000000	18.676551
1947.000000	18.620882
1946.000000	18.553195
1945.000000	18.518086
1944.000000	18.485086
1943.000000	18.453773
1942.000000	18.456619
1941.000000	18.415923
1940.000000	18.430683
1939.000000	18.463578
1938.000000	18.446603
1937.000000	18.463683
1936.000000	18.483715
1935.000000	18.521565
1934.000000	18.580818
1933.000000	18.645343
1932.000000	18.706072
1931.000000	18.821625
1930.000000	18.897114
1929.000000	19.021524
1928.000000	19.132755
1927.000000	19.263913
1926.000000	19.386636
1925.000000	19.540988
1924.000000	19.707254
1923.000000	19.863610
1922.000000	20.063509
1921.000000	20.266361
1920.000000	20.499365
1919.000000	20.668162
1918.000000	20.888726
1917.000000	21.096743
1916.000000	21.314672
1915.000000	21.574667
1914.000000	21.876624
1913.000000	22.154016
1912.000000	22.450386
1911.000000	22.695937
1910.000000	22.963313
1909.000000	23.214873
1908.000000	23.498907
1907.000000	23.831967
1906.000000	24.186852
1905.000000	24.548800
1904.000000	24.892719
1903.000000	25.206274
1902.000000	25.518564
1901.000000	25.845087
1900.000000	26.201342
1899.000000	26.545050
1898.000000	26.894241
1897.000000	27.245435
1896.000000	27.542121
1895.000000	27.829002
1894.000000	28.175663
1893.000000	28.530441
1892.000000	28.877313
1891.000000	29.215012
1890.000000	29.536369
1889.000000	29.853719
1888.000000	30.225262
1887.000000	30.571184
1886.000000	30.957804
1885.000000	31.381957
1884.000000	31.848177
1883.000000	32.299848
1882.000000	32.763117
1881.000000	33.244414
1880.000000	33.706734
1879.000000	34.160513
1878.000000	34.578446
1877.000000	34.935544
1876.000000	35.284208
1875.000000	35.619271
1874.000000	35.935567
1873.000000	36.203576
1872.000000	36.440165
1871.000000	36.669585
1870.000000	36.846817
1869.000000	36.976814
1868.000000	37.077924
1867.000000	37.148352
1866.000000	37.188205
1865.000000	37.246615
1864.000000	37.314408
1863.000000	37.350676
1862.000000	37.390846
1861.000000	37.424268
1860.000000	37.444616
1859.000000	37.429856
1858.000000	37.406555
1857.000000	37.389264
1856.000000	37.336865
1855.000000	37.288788
1854.000000	37.239129
1853.000000	37.126211
1852.000000	37.043764
1851.000000	37.011291
1850.000000	36.985776
1849.000000	36.950562
1848.000000	36.858309
1847.000000	36.731579
1846.000000	36.626885
1845.000000	36.558671
1844.000000	36.507642
1843.000000	36.516287
1842.000000	36.511753
1841.000000	36.457350
1840.000000	36.388714
1839.000000	36.310905
1838.000000	36.253234
1837.000000	36.185968
1836.000000	36.102150
1835.000000	36.013903
1834.000000	35.922915
1833.000000	35.840889
1832.000000	35.775521
1831.000000	35.685272
1830.000000	35.595127
1829.000000	35.517424
1828.000000	35.400710
1827.000000	35.321426
1826.000000	35.257007
1825.000000	35.184680
1824.000000	35.150204
1823.000000	35.152313
1822.000000	35.147252
1821.000000	35.117836
1820.000000	35.074820
1819.000000	35.027692
1818.000000	35.018308
1817.000000	35.026321
1816.000000	35.030328
1815.000000	35.017359
1814.000000	35.015462
1813.000000	35.002283
1812.000000	34.972551
1811.000000	34.928059
1810.000000	34.876924
1809.000000	34.841077
1808.000000	34.814403
1807.000000	34.780032
1806.000000	34.717932
1805.000000	34.649929
1804.000000	34.601641
1803.000000	34.555989
1802.000000	34.512973
1801.000000	34.458042
1800.000000	34.387298
1799.000000	34.319505
1798.000000	34.282076
1797.000000	34.240958
1796.000000	34.190983
1795.000000	34.133523
1794.000000	34.064465
1793.000000	34.002998
1792.000000	33.950598
1791.000000	33.889869
1790.000000	33.821022
1789.000000	33.747114
1788.000000	33.684487
1787.000000	33.621017
1786.000000	33.538991
1785.000000	33.447160
1784.000000	33.341728
1783.000000	33.232500
1782.000000	33.146784
1781.000000	33.077093
1780.000000	32.973348
1779.000000	32.863488
1778.000000	32.747829
1777.000000	32.621416
1776.000000	32.507866
1775.000000	32.364689
1774.000000	32.192308
1773.000000	32.033000
1772.000000	31.885922
1771.000000	31.728090
1770.000000	31.555814
1769.000000	31.394819
1768.000000	31.276419
1767.000000	31.160339
1766.000000	31.044680
1765.000000	30.960967
1764.000000	30.923749
1763.000000	30.885477
1762.000000	30.916791
1761.000000	30.976571
1760.000000	31.029497
1759.000000	31.092862
1758.000000	31.160760
1757.000000	31.209997
1756.000000	31.250799
1755.000000	31.278528
1754.000000	31.280109
1753.000000	31.255122
1752.000000	31.216323
1751.000000	31.175837
1750.000000	31.111418
1749.000000	31.029181
1748.000000	30.927650
1747.000000	30.788163
1746.000000	30.656795
1745.000000	30.464065
1744.000000	30.256153
1743.000000	30.049717
1742.000000	29.799422
1741.000000	29.524877
1740.000000	29.256763
1739.000000	28.983272
1738.000000	28.750584
1737.000000	28.552688
1736.000000	28.418789
1735.000000	28.307558
1734.000000	28.263382
1733.000000	28.282043
1732.000000	28.341191
1731.000000	28.430808
1730.000000	28.561438
1729.000000	28.673091
1728.000000	28.798871
1727.000000	28.901141
1726.000000	28.978000
1725.000000	29.063822
1724.000000	29.083643
1723.000000	29.125289
1722.000000	29.151225
1721.000000	29.181590
1720.000000	29.235782
1719.000000	29.257501
1718.000000	29.316121
1717.000000	29.388026
1716.000000	29.495039
1715.000000	29.577698
1714.000000	29.665207
1713.000000	29.740696
1712.000000	29.811546
1711.000000	29.851189
1710.000000	29.902323
1709.000000	29.882502
1708.000000	29.877336
1707.000000	29.877230
1706.000000	29.850451
1705.000000	29.786032
1704.000000	29.720980
1703.000000	29.656983
1702.000000	29.535631
1701.000000	29.369048
1700.000000	29.210794
1699.000000	29.027975
1698.000000	28.902933
1697.000000	28.788223
1696.000000	28.716634
1695.000000	28.716424
1694.000000	28.798133
1693.000000	28.922860
1692.000000	29.085752
1691.000000	29.243373
1690.000000	29.409850
1689.000000	29.505477
1688.000000	29.571583
1687.000000	29.590877
1686.000000	29.624404
1685.000000	29.677753
1684.000000	29.851083
1683.000000	30.111290
1682.000000	30.513724
1681.000000	31.031606
1680.000000	31.648911
1679.000000	32.280027
1678.000000	32.889846
1677.000000	33.456332
1676.000000	33.983914
1675.000000	34.387403
1674.000000	34.771914
1673.000000	35.087788
1672.000000	35.381522
1671.000000	35.626968
1670.000000	35.856071
1669.000000	36.054284
1668.000000	36.225822
1667.000000	36.389979
1666.000000	36.513968
1665.000000	36.614339
1664.000000	36.718822
1663.000000	36.802957
1662.000000	36.865056
1661.000000	36.922200
1660.000000	36.995792
1659.000000	37.035856
1658.000000	37.056205
1657.000000	37.085304
1656.000000	37.105547
1655.000000	37.113876
1654.000000	37.109553
1653.000000	37.087518
1652.000000	37.074339
1651.000000	37.047770
1650.000000	37.024259
1649.000000	37.003067
1648.000000	36.940862
1647.000000	36.900481
1646.000000	36.843337
1645.000000	36.793046
1644.000000	36.749924
1643.000000	36.686349
1642.000000	36.627518
1641.000000	36.538849
1640.000000	36.495411
1639.000000	36.426459
1638.000000	36.364254
1637.000000	36.288870
1636.000000	36.222975
1635.000000	36.147802
1634.000000	36.048907
1633.000000	35.969516
1632.000000	35.884116
1631.000000	35.792918
1630.000000	35.704460
1629.000000	35.615159
1628.000000	35.533660
1627.000000	35.451212
1626.000000	35.362966
1625.000000	35.280940
1624.000000	35.172977
1623.000000	35.077983
1622.000000	34.990369
1621.000000	34.913614
1620.000000	34.819569
1619.000000	34.742287
1618.000000	34.669328
1617.000000	34.584772
1616.000000	34.512973
1615.000000	34.424726
1614.000000	34.352189
1613.000000	34.266472
1612.000000	34.189823
1611.000000	34.129411
1610.000000	34.046541
1609.000000	33.969049
1608.000000	33.912748
1607.000000	33.819335
1606.000000	33.732248
1605.000000	33.676264
1604.000000	33.605730
1603.000000	33.541311
1602.000000	33.450955
1601.000000	33.375677
1600.000000	33.308728
1599.000000	33.251056
1598.000000	33.187270
1597.000000	33.120742
1596.000000	33.058959
1595.000000	33.006876
1594.000000	32.943195
1593.000000	32.901127
1592.000000	32.851680
1591.000000	32.811826
1590.000000	32.773238
1589.000000	32.739078
1588.000000	32.714829
1587.000000	32.669177
1586.000000	32.634700
1585.000000	32.617620
1584.000000	32.589681
1583.000000	32.568067
1582.000000	32.551936
1581.000000	32.530428
1580.000000	32.523997
1579.000000	32.514086
1578.000000	32.512399
1577.000000	32.516827
1576.000000	32.525051
1575.000000	32.535700
1574.000000	32.553834
1573.000000	32.583882
1572.000000	32.615196
1571.000000	32.648301
1570.000000	32.675503
1569.000000	32.715778
1568.000000	32.757107
1567.000000	32.789791
1566.000000	32.844827
1565.000000	32.879303
1564.000000	32.905555
1563.000000	32.950997
1562.000000	32.984629
1561.000000	33.006876
1560.000000	33.026591
1559.000000	33.054109
1558.000000	33.080256
1557.000000	33.095333
1556.000000	33.099234
1555.000000	33.099445
1554.000000	33.101764
1553.000000	33.099129
1552.000000	33.098707
1551.000000	33.094595
1550.000000	33.089745
1549.000000	33.065918
1548.000000	33.045569
1547.000000	33.041141
1546.000000	33.029965
1545.000000	33.017946
1544.000000	33.022480
1543.000000	33.028384
1542.000000	33.020687
1541.000000	33.025010
1540.000000	33.025959
1539.000000	33.027224
1538.000000	33.023956
1537.000000	33.029543
1536.000000	33.038189
1535.000000	33.024061
1534.000000	33.023639
1533.000000	33.029016
1532.000000	33.015732
1531.000000	33.003185
1530.000000	32.986527
1529.000000	32.972294
1528.000000	32.952473
1527.000000	32.942562
1526.000000	32.920105
1525.000000	32.901127
1524.000000	32.877721
1523.000000	32.841136
1522.000000	32.826165
1521.000000	32.797277
1520.000000	32.775241
1519.000000	32.750570
1518.000000	32.731487
1517.000000	32.697854
1516.000000	32.671707
1515.000000	32.647036
1514.000000	32.612560
1513.000000	32.577029
1512.000000	32.562163
1511.000000	32.513664
1510.000000	32.484987
1509.000000	32.452092
1508.000000	32.429213
1507.000000	32.395159
1506.000000	32.401274
1505.000000	32.364056
1504.000000	32.315558
1503.000000	32.293311
1502.000000	32.277497
1501.000000	32.254091
1500.000000	32.256937
1499.000000	32.241861
1498.000000	32.246183
1497.000000	32.227627
1496.000000	32.232583
1495.000000	32.236905
1494.000000	32.248925
1493.000000	32.280765
1492.000000	32.301113
1491.000000	32.319037
1490.000000	32.345079
1489.000000	32.367008
1488.000000	32.398427
1487.000000	32.425102
1486.000000	32.436910
1485.000000	32.462003
1484.000000	32.522626
1483.000000	32.566591
1482.000000	32.629007
1481.000000	32.665170
1480.000000	32.695535
1479.000000	32.744139
1478.000000	32.816887
1477.000000	32.872239
1476.000000	32.917258
1475.000000	32.969658
1474.000000	33.052844
1473.000000	33.123378
1472.000000	33.195283
1471.000000	33.295865
1470.000000	33.332872
1469.000000	33.363974
1468.000000	33.466770
1467.000000	33.529081
1466.000000	33.597928
1465.000000	33.675104
1464.000000	33.757446
1463.000000	33.844744
1462.000000	33.951020
1461.000000	34.052445
1460.000000	34.143749
1459.000000	34.232734
1458.000000	34.367160
1457.000000	34.489988
1456.000000	34.610497
1455.000000	34.733009
1454.000000	34.837176
1453.000000	34.985097
1452.000000	35.149360
1451.000000	35.286844
1450.000000	35.389956
1449.000000	35.485583
1448.000000	35.664818
1447.000000	35.853541
1446.000000	36.026661
1445.000000	36.141054
1444.000000	36.254605
1443.000000	36.409906
1442.000000	36.595994
1441.000000	36.756672
1440.000000	36.880133
1439.000000	37.016246
1438.000000	37.207394
1437.000000	37.294586
1436.000000	37.451258
1435.000000	37.615943
1434.000000	37.747628
1433.000000	37.934137
1432.000000	38.098400
1431.000000	38.232510
1430.000000	38.414169
1429.000000	38.621554
1428.000000	38.801632
1427.000000	39.021247
1426.000000	39.227261
1425.000000	39.507605
1424.000000	39.770658
1423.000000	39.980784
1422.000000	40.227812
1421.000000	40.493184
1420.000000	40.769416
1419.000000	41.020450
1418.000000	41.207381
1417.000000	41.394945
1416.000000	41.664956
1415.000000	41.961536
1414.000000	42.196017
1413.000000	42.357117
1412.000000	42.520853
1411.000000	42.847693
1410.000000	43.148069
1409.000000	43.473327
1408.000000	43.825048
1407.000000	44.209875
1406.000000	44.614207
1405.000000	45.026552
1404.000000	45.361826
1403.000000	45.778071
1402.000000	46.179135
1401.000000	46.681097
1400.000000	46.956380
1399.000000	47.144049
1398.000000	47.351328
1397.000000	47.651915
1396.000000	47.932997
1395.000000	48.020822
1394.000000	48.080180
1393.000000	48.178865
1392.000000	48.366112
1391.000000	48.496637
1390.000000	48.674079
1389.000000	48.915624
1388.000000	49.188377
1387.000000	49.435299
1386.000000	49.735569
1385.000000	50.102367
1384.000000	50.474331
1383.000000	50.848826
1382.000000	51.093956
1381.000000	51.244934
1380.000000	51.314836
1379.000000	51.371347
1378.000000	51.410357
1377.000000	51.506933
1376.000000	51.630816
1375.000000	51.834932
1374.000000	52.142583
1373.000000	52.509697
1372.000000	52.915505
1371.000000	53.298962
1370.000000	53.625590
1369.000000	53.959493
1368.000000	54.300672
1367.000000	54.540424
1366.000000	54.732310
1365.000000	54.975858
1364.000000	55.143706
1363.000000	55.325049
1362.000000	55.485728
1361.000000	55.558687
1360.000000	55.559214
1359.000000	55.636707
1358.000000	55.762065
1357.000000	55.976514
1356.000000	56.346475
1355.000000	56.858875
1354.000000	57.422620
1353.000000	57.995749
1352.000000	58.693076
1351.000000	59.334420
1350.000000	59.922203
1349.000000	60.452843
1348.000000	60.943629
1347.000000	61.385706
1346.000000	61.768213
1345.000000	62.159050
1344.000000	62.550624
1343.000000	62.875988
1342.000000	63.200508
1341.000000	63.522919
1340.000000	63.792614
1339.000000	64.077070
1338.000000	64.357414
1337.000000	64.604652
1336.000000	64.828484
1335.000000	65.044831
1334.000000	65.275411
1333.000000	65.495869
1332.000000	65.690707
1331.000000	65.880274
1330.000000	66.036314
1329.000000	66.184446
1328.000000	66.324459
1327.000000	66.460361
1326.000000	66.596369
1325.000000	66.719724
1324.000000	66.835910
1323.000000	66.953573
1322.000000	67.051730
1321.000000	67.139871
1320.000000	67.238661
1319.000000	67.325959
1318.000000	67.398390
1317.000000	67.487164
1316.000000	67.568874
1315.000000	67.629287
1314.000000	67.691597
1313.000000	67.751061
1312.000000	67.809786
1311.000000	67.873889
1310.000000	67.919646
1309.000000	67.938519
1308.000000	67.970570
1307.000000	67.993133
1306.000000	68.001567
1305.000000	68.019174
1304.000000	68.017698
1303.000000	68.000302
1302.000000	68.001356
1301.000000	67.992711
1300.000000	67.973417
1299.000000	67.959184
1298.000000	67.933564
1297.000000	67.909103
1296.000000	67.886435
1295.000000	67.869355
1294.000000	67.842681
1293.000000	67.795448
1292.000000	67.742731
1291.000000	67.681581
1290.000000	67.618427
1289.000000	67.551794
1288.000000	67.477464
1287.000000	67.402397
1286.000000	67.343249
1285.000000	67.260485
1284.000000	67.158743
1283.000000	67.053733
1282.000000	66.961375
1281.000000	66.871230
1280.000000	66.770859
1279.000000	66.685670
1278.000000	66.598477
1277.000000	66.513921
1276.000000	66.447604
1275.000000	66.388035
1274.000000	66.309910
1273.000000	66.238638
1272.000000	66.183286
1271.000000	66.124982
1270.000000	66.062250
1269.000000	65.992454
1268.000000	65.944588
1267.000000	65.870680
1266.000000	65.798037
1265.000000	65.738046
1264.000000	65.693132
1263.000000	65.638519
1262.000000	65.560288
1261.000000	65.499981
1260.000000	65.444734
1259.000000	65.383584
1258.000000	65.314842
1257.000000	65.250318
1256.000000	65.168502
1255.000000	65.088269
1254.000000	65.018894
1253.000000	64.933705
1252.000000	64.848516
1251.000000	64.744560
1250.000000	64.623946
1249.000000	64.512293
1248.000000	64.409602
1247.000000	64.285298
1246.000000	64.140434
1245.000000	64.002108
1244.000000	63.816231
1243.000000	63.650175
1242.000000	63.478110
1241.000000	63.296345
1240.000000	63.115424
1239.000000	62.923854
1238.000000	62.723111
1237.000000	62.525743
1236.000000	62.331326
1235.000000	62.127209
1234.000000	61.930368
1233.000000	61.724353
1232.000000	61.508429
1231.000000	61.292609
1230.000000	61.088282
1229.000000	60.882900
1228.000000	60.664550
1227.000000	60.471293
1226.000000	60.263487
1225.000000	60.065064
1224.000000	59.867800
1223.000000	59.665793
1222.000000	59.491830
1221.000000	59.303423
1220.000000	59.128195
1219.000000	58.990289
1218.000000	58.830138
1217.000000	58.680319
1216.000000	58.527759
1215.000000	58.400713
1214.000000	58.271559
1213.000000	58.149363
1212.000000	58.032017
1211.000000	57.937761
1210.000000	57.815882
1209.000000	57.731325
1208.000000	57.659104
1207.000000	57.584248
1206.000000	57.520250
1205.000000	57.509391
1204.000000	57.495474
1203.000000	57.447502
1202.000000	57.433585
1201.000000	57.408492
1200.000000	57.320035
1199.000000	57.233053
1198.000000	57.108116
1197.000000	56.924032
1196.000000	56.698618
1195.000000	56.386539
1194.000000	56.004770
1193.000000	55.557843
1192.000000	55.060520
1191.000000	54.523766
1190.000000	54.055120
1189.000000	53.633708
1188.000000	53.359374
1187.000000	53.203229
1186.000000	53.213773
1185.000000	53.331329
1184.000000	53.593328
1183.000000	53.972778
1182.000000	54.471682
1181.000000	55.025728
1180.000000	55.552677
1179.000000	56.065499
1178.000000	56.496505
1177.000000	56.869840
1176.000000	57.204060
1175.000000	57.537436
1174.000000	57.840553
1173.000000	58.176776
1172.000000	58.531555
1171.000000	58.889918
1170.000000	59.266943
1169.000000	59.645233
1168.000000	60.028268
1167.000000	60.427434
1166.000000	60.832820
1165.000000	61.255075
1164.000000	61.645279
1163.000000	62.057624
1162.000000	62.471972
1161.000000	62.862176
1160.000000	63.240256
1159.000000	63.625821
1158.000000	63.955823
1157.000000	64.254512
1156.000000	64.528424
1155.000000	64.689208
1154.000000	64.811931
1153.000000	64.851152
1152.000000	64.889635
1151.000000	64.841768
1150.000000	64.807714
1149.000000	64.784308
1148.000000	64.746036
1147.000000	64.808874
1146.000000	64.921264
1145.000000	65.152055
1144.000000	65.402245
1143.000000	65.731826
1142.000000	66.087237
1141.000000	66.468585
1140.000000	66.837386
1139.000000	67.194590
1138.000000	67.596392
1137.000000	67.996401
1136.000000	68.427829
1135.000000	68.805592
1134.000000	69.140761
1133.000000	69.392427
1132.000000	69.685844
1131.000000	69.941306
1130.000000	70.171991
1129.000000	70.353018
1128.000000	70.486179
1127.000000	70.586761
1126.000000	70.672899
1125.000000	70.720554
1124.000000	70.799101
1123.000000	70.836635
1122.000000	70.882076
1121.000000	70.897680
1120.000000	70.888824
1119.000000	70.893568
1118.000000	70.872377
1117.000000	70.848654
1116.000000	70.809750
1115.000000	70.772743
1114.000000	70.717286
1113.000000	70.682493
1112.000000	70.650126
1111.000000	70.615439
1110.000000	70.562617
1109.000000	70.520550
1108.000000	70.488288
1107.000000	70.440527
1106.000000	70.399514
1105.000000	70.356814
1104.000000	70.292500
1103.000000	70.267197
1102.000000	70.222810
1101.000000	70.166614
1100.000000	70.109049
1099.000000	70.060234
1098.000000	70.002035
1097.000000	69.955961
1096.000000	69.900293
1095.000000	69.846417
1094.000000	69.781366
1093.000000	69.727806
1092.000000	69.646202
1091.000000	69.574297
1090.000000	69.500284
1089.000000	69.446935
1088.000000	69.362800
1087.000000	69.284675
1086.000000	69.207077
1085.000000	69.149828
1084.000000	69.080981
1083.000000	69.011290
1082.000000	68.923887
1081.000000	68.847659
1080.000000	68.805592
1079.000000	68.736429
1078.000000	68.674645
1077.000000	68.598840
1076.000000	68.512913
1075.000000	68.443011
1074.000000	68.374691
1073.000000	68.293298
1072.000000	68.214329
1071.000000	68.130300
1070.000000	68.053440
1069.000000	67.976053
1068.000000	67.898876
1067.000000	67.819486
1066.000000	67.733770
1065.000000	67.646367
1064.000000	67.565817
1063.000000	67.450579
1062.000000	67.349259
1061.000000	67.276722
1060.000000	67.177721
1059.000000	67.069864
1058.000000	66.965381
1057.000000	66.866802
1056.000000	66.776341
1055.000000	66.664583
1054.000000	66.558730
1053.000000	66.466476
1052.000000	66.379390
1051.000000	66.303900
1050.000000	66.200999
1049.000000	66.095356
1048.000000	66.025876
1047.000000	65.948700
1046.000000	65.862773
1045.000000	65.790973
1044.000000	65.727714
1043.000000	65.659710
1042.000000	65.572834
1041.000000	65.494077
1040.000000	65.439147
1039.000000	65.357120
1038.000000	65.262970
1037.000000	65.195282
1036.000000	65.122429
1035.000000	65.050946
1034.000000	64.968709
1033.000000	64.874874
1032.000000	64.792532
1031.000000	64.713141
1030.000000	64.632380
1029.000000	64.555204
1028.000000	64.472018
1027.000000	64.375653
1026.000000	64.283611
1025.000000	64.204221
1024.000000	64.114604
1023.000000	64.022456
1022.000000	63.945280
1021.000000	63.854186
1020.000000	63.783125
1019.000000	63.710588
1018.000000	63.643111
1017.000000	63.587865
1016.000000	63.501727
1015.000000	63.447957
1014.000000	63.414956
1013.000000	63.362135
1012.000000	63.335039
1011.000000	63.321438
1010.000000	63.292866
1009.000000	63.288016
1008.000000	63.267879
1007.000000	63.252697
1006.000000	63.256387
1005.000000	63.232243
1004.000000	63.224019
1003.000000	63.212843
1002.000000	63.193338
1001.000000	63.154856
1000.000000	63.143364
999.000000	63.153590
998.000000	63.145367
997.000000	63.146105
996.000000	63.121750
995.000000	63.102772
994.000000	63.108676
993.000000	63.086008
992.000000	63.065871
991.000000	63.065027
990.000000	63.063024
989.000000	63.068401
988.000000	63.070615
987.000000	63.064079
986.000000	63.053219
985.000000	63.038880
984.000000	63.043203
983.000000	63.026861
982.000000	63.021379
981.000000	63.015791
980.000000	63.012628
979.000000	62.994915
978.000000	63.006934
977.000000	63.002085
976.000000	62.998394
975.000000	62.976254
974.000000	62.968557
973.000000	62.978573
972.000000	62.983739
971.000000	62.977730
970.000000	62.984056
969.000000	62.990487
968.000000	63.001874
967.000000	62.996708
966.000000	63.003561
965.000000	63.033714
964.000000	63.059545
963.000000	63.110469
962.000000	63.140833
961.000000	63.172041
960.000000	63.219802
959.000000	63.281163
958.000000	63.337675
957.000000	63.395030
956.000000	63.441525
955.000000	63.504785
954.000000	63.572577
953.000000	63.625504
952.000000	63.681805
951.000000	63.768470
950.000000	63.825509
949.000000	63.894672
948.000000	63.988507
947.000000	64.051555
946.000000	64.125358
945.000000	64.231949
944.000000	64.314819
943.000000	64.388200
942.000000	64.510606
941.000000	64.602438
940.000000	64.688681
939.000000	64.797909
938.000000	64.954159
937.000000	65.038505
936.000000	65.149314
935.000000	65.291014
934.000000	65.380210
933.000000	65.514847
932.000000	65.625972
931.000000	65.757551
930.000000	65.851070
929.000000	65.958610
928.000000	66.089768
927.000000	66.236002
926.000000	66.340169
925.000000	66.441594
924.000000	66.572119
923.000000	66.706967
922.000000	66.865431
921.000000	67.001333
920.000000	67.132174
919.000000	67.257533
918.000000	67.409988
917.000000	67.544098
916.000000	67.712051
915.000000	67.858812
914.000000	68.040577
913.000000	68.211588
912.000000	68.417708
911.000000	68.584185
910.000000	68.789883
909.000000	69.006651
908.000000	69.253995
907.000000	69.535920
906.000000	69.772615
905.000000	70.064662
904.000000	70.335200
903.000000	70.656979
902.000000	70.976122
901.000000	71.300114
900.000000	71.629906
899.000000	71.935764
898.000000	72.294022
897.000000	72.628031
896.000000	72.936104
895.000000	73.264419
894.000000	73.630479
893.000000	73.955737
892.000000	74.280152
891.000000	74.585166
890.000000	74.923182
889.000000	75.217232
888.000000	75.477333
887.000000	75.755462
886.000000	76.059950
885.000000	76.322160
884.000000	76.596283
883.000000	76.833610
882.000000	77.072203
881.000000	77.285703
880.000000	77.510590
879.000000	77.730310
878.000000	77.906065
877.000000	78.111658
876.000000	78.305231
875.000000	78.465066
874.000000	78.662962
873.000000	78.810145
872.000000	78.959859
871.000000	79.105355
870.000000	79.213317
869.000000	79.386542
868.000000	79.522444
867.000000	79.626295
866.000000	79.739845
865.000000	79.839373
864.000000	79.943224
863.000000	80.012914
862.000000	80.102110
861.000000	80.060886
860.000000	79.983288
859.000000	79.970847
858.000000	80.726900
857.000000	80.554400
856.000000	80.638900
855.000000	80.987400
854.000000	82.076700
853.000000	82.351800
852.000000	82.361500
851.000000	83.088500
850.000000	83.982000
849.000000	84.846700
848.000000	85.280000
847.000000	85.488200
846.000000	86.288400
845.000000	86.811600
844.000000	87.244000
843.000000	87.947100
842.000000	88.188600
841.000000	88.739700
840.000000	89.276000
839.000000	89.502700
838.000000	90.258900
837.000000	90.639400
836.000000	90.939900
835.000000	91.436100
834.000000	91.721300
833.000000	91.823100
832.000000	92.338000
831.000000	92.501700
830.000000	92.607700
829.000000	92.707300
828.000000	92.792200
827.000000	92.994600
826.000000	93.003000
825.000000	92.890500
824.000000	92.961300
823.000000	93.122900
822.000000	93.069300
821.000000	93.024200
820.000000	93.158000
819.000000	93.266700
818.000000	93.184800
817.000000	93.074900
816.000000	93.266500
815.000000	93.452600
814.000000	93.370200
813.000000	93.386200
812.000000	93.492800
811.000000	93.642400
810.000000	93.867900
809.000000	94.045000
808.000000	94.214300
807.000000	94.322600
806.000000	94.525800
805.000000	94.630900
804.000000	94.807100
803.000000	95.005400
802.000000	95.038900
801.000000	95.124500
800.000000	95.079600
799.000000	95.170500
798.000000	95.208100
797.000000	95.227600
796.000000	95.261400
795.000000	95.380100
794.000000	95.261800
793.000000	95.241300
792.000000	95.237700
791.000000	95.167600
790.000000	95.068400
789.000000	94.883800
788.000000	94.767600
787.000000	94.737500
786.000000	94.651700
785.000000	94.424000
784.000000	94.315100
783.000000	94.172500
782.000000	94.117600
781.000000	93.983300
780.000000	93.893400
779.000000	93.763900
778.000000	93.574200
777.000000	93.574500
776.000000	93.478400
775.000000	93.446100
774.000000	93.510400
773.000000	93.550900
772.000000	93.587500
771.000000	93.582800
770.000000	93.590200
769.000000	93.676500
768.000000	93.765500
767.000000	93.743900
766.000000	93.797600
765.000000	93.840500
764.000000	93.873100
763.000000	93.906500
762.000000	93.931200
761.000000	93.929800
760.000000	93.884700
759.000000	93.927900
758.000000	93.914800
757.000000	93.793200
756.000000	93.687600
755.000000	93.618400
754.000000	93.505500
753.000000	93.398100
752.000000	93.277000
751.000000	93.018200
750.000000	92.754400
749.000000	92.487500
748.000000	92.234300
747.000000	91.954500
746.000000	91.594200
745.000000	91.228600
744.000000	90.810500
743.000000	90.369500
742.000000	89.902700
741.000000	89.356000
740.000000	88.907800
739.000000	88.444200
738.000000	87.889600
737.000000	87.329000
736.000000	86.784500
735.000000	86.196800
734.000000	85.622000
733.000000	85.013800
732.000000	84.398700
731.000000	83.808800
730.000000	83.115500
729.000000	82.506200
728.000000	81.934600
727.000000	81.354800
726.000000	80.743700
725.000000	80.112700
724.000000	79.532400
723.000000	79.021500
722.000000	78.555900
721.000000	78.168500
720.000000	77.723200
719.000000	77.285000
718.000000	76.982900
717.000000	76.661700
716.000000	76.408600
715.000000	76.219900
714.000000	75.997200
713.000000	75.767300
712.000000	75.669100
711.000000	75.580400
710.000000	75.517400
709.000000	75.494200
708.000000	75.500700
707.000000	75.529500
706.000000	75.586900
705.000000	75.687300
704.000000	75.809000
703.000000	75.889000
702.000000	76.003800
701.000000	76.118500
700.000000	76.239500
699.000000	76.398100
698.000000	76.521300
697.000000	76.628800
696.000000	76.739600
695.000000	76.834800
694.000000	76.877400
693.000000	77.007600
692.000000	77.074300
691.000000	77.062300
690.000000	77.102200
689.000000	77.152800
688.000000	77.158400
687.000000	77.221100
686.000000	77.235300
685.000000	77.211700
684.000000	77.149800
683.000000	77.133000
682.000000	77.078000
681.000000	76.966400
680.000000	76.875700
679.000000	76.791300
678.000000	76.665200
677.000000	76.457700
676.000000	76.251600
675.000000	76.055000
674.000000	75.774800
673.000000	75.476000
672.000000	75.129800
671.000000	74.822200
670.000000	74.404900
669.000000	74.030600
668.000000	73.627000
667.000000	73.161100
666.000000	72.720600
665.000000	72.199600
664.000000	71.685000
663.000000	71.036800
662.000000	70.425800
661.000000	69.770300
660.000000	69.044400
659.000000	68.286800
658.000000	67.506000
657.000000	66.681200
656.000000	65.752900
655.000000	64.879100
654.000000	63.978900
653.000000	63.080400
652.000000	62.171600
651.000000	61.310800
650.000000	60.487900
649.000000	59.718100
648.000000	59.017500
647.000000	58.397800
646.000000	57.890300
645.000000	57.404600
644.000000	57.040600
643.000000	56.724700
642.000000	56.550900
641.000000	56.465200
640.000000	56.434800
639.000000	56.614000
638.000000	56.789500
637.000000	57.114700
636.000000	57.536200
635.000000	58.045400
634.000000	58.613200
633.000000	59.322700
632.000000	60.065300
631.000000	60.904500
630.000000	61.839300
629.000000	62.811800
628.000000	63.872500
627.000000	64.983900
626.000000	66.102100
625.000000	67.277000
624.000000	68.409400
623.000000	69.668400
622.000000	70.853300
621.000000	72.025500
620.000000	73.173300
619.000000	74.309000
618.000000	75.358400
617.000000	76.414000
616.000000	77.394700
615.000000	78.365800
614.000000	79.280100
613.000000	80.192100
612.000000	81.044700
611.000000	81.857300
610.000000	82.699600
609.000000	83.471200
608.000000	84.220700
607.000000	84.933500
606.000000	85.604500
605.000000	86.269900
604.000000	86.833400
603.000000	87.474700
602.000000	88.008200
601.000000	88.487500
600.000000	88.995700
599.000000	89.425200
598.000000	89.825200
597.000000	90.241600
596.000000	90.572100
595.000000	90.857500
594.000000	91.195100
593.000000	91.444200
592.000000	91.656200
591.000000	91.931800
590.000000	92.145700
589.000000	92.333800
588.000000	92.483000
587.000000	92.582300
586.000000	92.724400
585.000000	92.807700
584.000000	92.884600
583.000000	92.924500
582.000000	92.975700
581.000000	92.946500
580.000000	92.940500
579.000000	92.922900
578.000000	92.846900
577.000000	92.745800
576.000000	92.658300
575.000000	92.559600
574.000000	92.442300
573.000000	92.334800
572.000000	92.226600
571.000000	92.031700
570.000000	91.861200
569.000000	91.711700
568.000000	91.527400
567.000000	91.304300
566.000000	91.075500
565.000000	90.819400
564.000000	90.580700
563.000000	90.287600
562.000000	90.016000
561.000000	89.647400
560.000000	89.312700
559.000000	88.983000
558.000000	88.638500
557.000000	88.256100
556.000000	87.832300
555.000000	87.383000
554.000000	86.971800
553.000000	86.497100
552.000000	86.008200
551.000000	85.476000
550.000000	84.962500
549.000000	84.404700
548.000000	83.818300
547.000000	83.228200
546.000000	82.574900
545.000000	81.956500
544.000000	81.314400
543.000000	80.643400
542.000000	79.913900
541.000000	79.209700
540.000000	78.453600
539.000000	77.696500
538.000000	76.940900
537.000000	76.127500
536.000000	75.294300
535.000000	74.445900
534.000000	73.536300
533.000000	72.594100
532.000000	71.621100
531.000000	70.616900
530.000000	69.561900
529.000000	68.478000
528.000000	67.396500
527.000000	66.217900
526.000000	65.028000
525.000000	63.753000
524.000000	62.446800
523.000000	61.083700
522.000000	59.677700
521.000000	58.188700
520.000000	56.709600
519.000000	55.199400
518.000000	53.682300
517.000000	52.179600
516.000000	50.674900
515.000000	49.176900
514.000000	47.684300
513.000000	46.245700
512.000000	44.870500
511.000000	43.551000
510.000000	42.290500
509.000000	41.110400
508.000000	39.991900
507.000000	39.016700
506.000000	38.088900
505.000000	37.279300
504.000000	36.535500
503.000000	35.891400
502.000000	35.344700
501.000000	34.874600
500.000000	34.494700
499.000000	34.200800
498.000000	33.994900
497.000000	33.851000
496.000000	33.745200
495.000000	33.702800
494.000000	33.662900
493.000000	33.636700
492.000000	33.624900
491.000000	33.634600
490.000000	33.629900
489.000000	33.585500
488.000000	33.532000
487.000000	33.451600
486.000000	33.359400
485.000000	33.234300
484.000000	33.053200
483.000000	32.814500
482.000000	32.527900
481.000000	32.186600
480.000000	31.809400
479.000000	31.399000
478.000000	30.953700
477.000000	30.465800
476.000000	29.949100
475.000000	29.416000
474.000000	28.842400
473.000000	28.254900
472.000000	27.634400
471.000000	27.018200
470.000000	26.412600
469.000000	25.804000
468.000000	25.214200
467.000000	24.654300
466.000000	24.138700
465.000000	23.657700
464.000000	23.212500
463.000000	22.825500
462.000000	22.497700
461.000000	22.229500
460.000000	22.000600
459.000000	21.838200
458.000000	21.754900
457.000000	21.736800
456.000000	21.751900
455.000000	21.785100
454.000000	21.865300
453.000000	22.004500
452.000000	22.163300
451.000000	22.349400
450.000000	22.564400
449.000000	22.772800
448.000000	22.967000
447.000000	23.166200
446.000000	23.370300
445.000000	23.589000
444.000000	23.814800
443.000000	23.990400
442.000000	24.135700
441.000000	24.270900
440.000000	24.387500
439.000000	24.503200
438.000000	24.600800
437.000000	24.645200
436.000000	24.679900
435.000000	24.710100
434.000000	24.706200
433.000000	24.688800
432.000000	24.660700
431.000000	24.593100
430.000000	24.501000
429.000000	24.401900
428.000000	24.304300
427.000000	24.181800
426.000000	24.018100
425.000000	23.830000
424.000000	23.643000
423.000000	23.439400
422.000000	23.228300
421.000000	22.988400
420.000000	22.738500
419.000000	22.482200
418.000000	22.202300
417.000000	21.912900
416.000000	21.610500
415.000000	21.299600
414.000000	20.992300
413.000000	20.658200
412.000000	20.300300
411.000000	19.928000
410.000000	19.545800
409.000000	19.161400
408.000000	18.779500
407.000000	18.388700
406.000000	17.984800
405.000000	17.578300
404.000000	17.143100
403.000000	16.722100
402.000000	16.300100
401.000000	15.867700
400.000000	15.439800
399.000000	15.019000
398.000000	14.608500
397.000000	14.186900
396.000000	13.771200
395.000000	13.360500
394.000000	12.971500
393.000000	12.584600
392.000000	12.202900
391.000000	11.820500
390.000000	11.456800
389.000000	11.114800
388.000000	10.787100
387.000000	10.473800
386.000000	10.170600
385.000000	9.884800
384.000000	9.606300
383.000000	9.355000
382.000000	9.101800
381.000000	8.888600
380.000000	8.671200
379.000000	8.463500
378.000000	8.257500
377.000000	8.102600
376.000000	7.993100
375.000000	7.705400
374.000000	7.528900
373.000000	7.380800
372.000000	7.348600
371.000000	7.349600
370.000000	7.144200
369.000000	7.066500
368.000000	6.972900
367.000000	6.980600
366.000000	6.932000
365.000000	6.793000
364.000000	6.757300
363.000000	6.718300
362.000000	6.696300
361.000000	6.611100
360.000000	6.468900
359.000000	6.398600
358.000000	6.368300
357.000000	6.350900
356.000000	6.275100
355.000000	6.205800
354.000000	6.178500
353.000000	6.011400
352.000000	5.947300
351.000000	6.048800
350.000000	6.047100
349.000000	5.956200
348.000000	5.944700
347.000000	5.977100
346.000000	5.937000
345.000000	5.887400
344.000000	5.901400
343.000000	5.942800
342.000000	6.000500
341.000000	5.872400
340.000000	5.868900
339.000000	5.896500
338.000000	5.882300
337.000000	5.817600
336.000000	5.844600
335.000000	5.810100
334.000000	5.782800
333.000000	5.886700
332.000000	5.802200
331.000000	5.786000
330.000000	5.880900
329.000000	5.673400
328.000000	5.817700
327.000000	5.865900
326.000000	5.867700
325.000000	5.864800
324.000000	6.067800
323.000000	6.080200
322.000000	5.803500
321.000000	5.955500
320.000000	5.978500
319.000000	6.096600
318.000000	6.250800
317.000000	5.819700
316.000000	5.626100
315.000000	5.664600
314.000000	5.718500
313.000000	5.607500
312.000000	5.647100
311.000000	5.665000
310.000000	5.628800
309.000000	5.648600
308.000000	5.707100
307.000000	5.691000
306.000000	5.685900
305.000000	5.693300
304.000000	5.736400
303.000000	5.692300
302.000000	5.703000
301.000000	5.705000
300.000000	5.729300
299.000000	5.792800
298.000000	5.698800
297.000000	5.771500
296.000000	5.780500
295.000000	5.777500
294.000000	5.750700
293.000000	5.803100
292.000000	5.802100
291.000000	5.810500
290.000000	5.749900
289.000000	5.795900
288.000000	5.830700
287.000000	5.820500
286.000000	5.827400
285.000000	5.837100
284.000000	5.906400
283.000000	5.889500
282.000000	5.976200
281.000000	5.913500
280.000000	5.879400
279.000000	5.873000
278.000000	5.868400
277.000000	5.956700
276.000000	5.936800
275.000000	5.971800
274.000000	5.900900
273.000000	5.943300
272.000000	5.927200
271.000000	5.941200
270.000000	5.996800
269.000000	5.995700
268.000000	6.019600
267.000000	6.056000
266.000000	6.032500
265.000000	6.017600
264.000000	6.075700
263.000000	6.070100
262.000000	6.131200
261.000000	6.130000
260.000000	6.172900
259.000000	6.197100
258.000000	6.215700
257.000000	6.220800
256.000000	6.253400
255.000000	6.208000
254.000000	6.308200
253.000000	6.271200
252.000000	6.322700
251.000000	6.343100
250.000000	6.328400
