PE UV       SUBTECH     SPECTRUM    ASCII       PEDS        4.00        
   -1
CICIMAUCR0247-1.ASC
24/06/27
12:42:33.00
24/06/27
12:42:33.00
Vinicio Soto Monge
C. resplendens. Sex M. Ventral
250,000000
1
Lambda 1050
1050L1511233
PerkinElmer UV WinLab 6.3.2.0749 / 2.02.05 Lambda 900 UV/VIS/NIR, Aug  7 2015 09:38:08

0
0
3350/servo 860,8/2
0
0
UV/VIS
1
1
1
DoubleDePol,CommonBeamDepol,RBeamAtt,SBeamAtt,60mm sphere, WB InGaAs Detector
0
0
0
0
Program
Program
3350/servo 860,8/2
3350/0,2 860,8/0,2
3350/0,2 860,8/0,2
0
15.00
 
 
 
0
 
860,8
319,2
860,8
Front
100
on
S:100 R:100
0
0
0
0
 
0
 
 
 
0
 
 
0
0
0
0
0
 
 
 
 
0
0


0
0
#HDR
-1
-1
#GR
nm
%R
1.0
0.0
2500,000000
-1,000000
2251
8
61,553100
3,472600
#DATA
2482.000000	6.526823
2481.000000	6.603074
2480.000000	6.435800
2479.000000	6.512571
2478.000000	6.520789
2477.000000	6.570306
2476.000000	6.576964
2475.000000	6.560215
2474.000000	6.569994
2473.000000	6.544507
2472.000000	6.512467
2471.000000	6.526511
2470.000000	6.513404
2469.000000	6.526719
2468.000000	6.537538
2467.000000	6.569786
2466.000000	6.600058
2465.000000	6.574987
2464.000000	6.603282
2463.000000	6.624192
2462.000000	6.659665
2461.000000	6.718127
2460.000000	6.679014
2459.000000	6.678910
2458.000000	6.701275
2457.000000	6.744342
2456.000000	6.744446
2455.000000	6.781792
2454.000000	6.768788
2453.000000	6.809463
2452.000000	6.868758
2451.000000	6.906103
2450.000000	6.947090
2449.000000	6.969559
2448.000000	7.023653
2447.000000	7.045811
2446.000000	7.079203
2445.000000	7.118941
2444.000000	7.146404
2443.000000	7.207051
2442.000000	7.272172
2441.000000	7.299323
2440.000000	7.324081
2439.000000	7.343222
2438.000000	7.416248
2437.000000	7.435909
2436.000000	7.471174
2435.000000	7.512369
2434.000000	7.567919
2433.000000	7.597670
2432.000000	7.645419
2431.000000	7.671425
2430.000000	7.712620
2429.000000	7.735713
2428.000000	7.773371
2427.000000	7.779405
2426.000000	7.824240
2425.000000	7.867723
2424.000000	7.884159
2423.000000	7.930763
2422.000000	7.969253
2421.000000	7.982984
2420.000000	8.000981
2419.000000	8.042071
2418.000000	8.075360
2417.000000	8.096165
2416.000000	8.129869
2415.000000	8.149010
2414.000000	8.177201
2413.000000	8.199983
2412.000000	8.228278
2411.000000	8.251684
2410.000000	8.269369
2409.000000	8.301409
2408.000000	8.329080
2407.000000	8.343228
2406.000000	8.355191
2405.000000	8.372355
2404.000000	8.403771
2403.000000	8.424056
2402.000000	8.437996
2401.000000	8.452663
2400.000000	8.481479
2399.000000	8.489489
2398.000000	8.486472
2397.000000	8.497291
2396.000000	8.497811
2395.000000	8.489281
2394.000000	8.495418
2393.000000	8.512895
2392.000000	8.523921
2391.000000	8.546495
2390.000000	8.558354
2389.000000	8.552008
2388.000000	8.556586
2387.000000	8.552321
2386.000000	8.561787
2385.000000	8.581032
2384.000000	8.575726
2383.000000	8.586753
2382.000000	8.599965
2381.000000	8.595595
2380.000000	8.582176
2379.000000	8.587481
2378.000000	8.576975
2377.000000	8.566988
2376.000000	8.565948
2375.000000	8.564492
2374.000000	8.563763
2373.000000	8.559914
2372.000000	8.535364
2371.000000	8.519136
2370.000000	8.515391
2369.000000	8.524962
2368.000000	8.518824
2367.000000	8.501452
2366.000000	8.495626
2365.000000	8.481999
2364.000000	8.465250
2363.000000	8.450063
2362.000000	8.446734
2361.000000	8.425824
2360.000000	8.405643
2359.000000	8.391808
2358.000000	8.370899
2357.000000	8.351862
2356.000000	8.338026
2355.000000	8.328768
2354.000000	8.312020
2353.000000	8.293295
2352.000000	8.281436
2351.000000	8.279251
2350.000000	8.286221
2349.000000	8.305882
2348.000000	8.311187
2347.000000	8.312852
2346.000000	8.312124
2345.000000	8.320342
2344.000000	8.325127
2343.000000	8.325023
2342.000000	8.330744
2341.000000	8.348221
2340.000000	8.353526
2339.000000	8.368298
2338.000000	8.387855
2337.000000	8.385774
2336.000000	8.378388
2335.000000	8.379117
2334.000000	8.397529
2333.000000	8.405435
2332.000000	8.410949
2331.000000	8.400130
2330.000000	8.379845
2329.000000	8.387647
2328.000000	8.369962
2327.000000	8.347805
2326.000000	8.330640
2325.000000	8.329912
2324.000000	8.310979
2323.000000	8.281124
2322.000000	8.255221
2321.000000	8.227550
2320.000000	8.205497
2319.000000	8.174705
2318.000000	8.133822
2317.000000	8.101782
2316.000000	8.057363
2315.000000	8.015232
2314.000000	7.985897
2313.000000	7.943974
2312.000000	7.887384
2311.000000	7.837243
2310.000000	7.806555
2309.000000	7.788663
2308.000000	7.751942
2307.000000	7.723126
2306.000000	7.693479
2305.000000	7.678811
2304.000000	7.652700
2303.000000	7.647603
2302.000000	7.663831
2301.000000	7.675066
2300.000000	7.690774
2299.000000	7.703673
2298.000000	7.735401
2297.000000	7.768170
2296.000000	7.791055
2295.000000	7.815606
2294.000000	7.857216
2293.000000	7.877501
2292.000000	7.908397
2291.000000	7.942622
2290.000000	7.973310
2289.000000	8.003061
2288.000000	8.003997
2287.000000	8.013152
2286.000000	8.036246
2285.000000	8.039575
2284.000000	8.035205
2283.000000	8.045088
2282.000000	8.031356
2281.000000	8.035830
2280.000000	8.025427
2279.000000	8.012736
2278.000000	7.985793
2277.000000	7.986417
2276.000000	7.984232
2275.000000	7.962907
2274.000000	7.935756
2273.000000	7.926394
2272.000000	7.922337
2271.000000	7.915887
2270.000000	7.895706
2269.000000	7.922545
2268.000000	7.941686
2267.000000	7.953233
2266.000000	7.976535
2265.000000	8.034165
2264.000000	8.081393
2263.000000	8.151923
2262.000000	8.215067
2261.000000	8.294543
2260.000000	8.401794
2259.000000	8.486680
2258.000000	8.593931
2257.000000	8.713145
2256.000000	8.844323
2255.000000	8.949285
2254.000000	9.069020
2253.000000	9.227348
2252.000000	9.324404
2251.000000	9.441538
2250.000000	9.583326
2249.000000	9.680174
2248.000000	9.805006
2247.000000	9.909241
2246.000000	10.028559
2245.000000	10.125303
2244.000000	10.229850
2243.000000	10.290081
2242.000000	10.388906
2241.000000	10.451114
2240.000000	10.529654
2239.000000	10.581979
2238.000000	10.628583
2237.000000	10.673834
2236.000000	10.724599
2235.000000	10.758824
2234.000000	10.776508
2233.000000	10.805636
2232.000000	10.829874
2231.000000	10.854008
2230.000000	10.859938
2229.000000	10.871797
2228.000000	10.857545
2227.000000	10.873565
2226.000000	10.856193
2225.000000	10.831018
2224.000000	10.843710
2223.000000	10.798354
2222.000000	10.777861
2221.000000	10.759032
2220.000000	10.723559
2219.000000	10.695056
2218.000000	10.673418
2217.000000	10.656670
2216.000000	10.600704
2215.000000	10.565751
2214.000000	10.526533
2213.000000	10.486691
2212.000000	10.477849
2211.000000	10.439359
2210.000000	10.398997
2209.000000	10.377255
2208.000000	10.355826
2207.000000	10.317128
2206.000000	10.324098
2205.000000	10.285920
2204.000000	10.274269
2203.000000	10.255440
2202.000000	10.245454
2201.000000	10.234427
2200.000000	10.195417
2199.000000	10.176900
2198.000000	10.176380
2197.000000	10.145693
2196.000000	10.161088
2195.000000	10.133521
2194.000000	10.111988
2193.000000	10.102626
2192.000000	10.106163
2191.000000	10.097736
2190.000000	10.077035
2189.000000	10.071106
2188.000000	10.052797
2187.000000	10.035945
2186.000000	10.020653
2185.000000	9.997871
2184.000000	10.007858
2183.000000	9.972073
2182.000000	9.967495
2181.000000	9.972593
2180.000000	9.969680
2179.000000	9.945546
2178.000000	9.939304
2177.000000	9.919123
2176.000000	9.908408
2175.000000	9.896861
2174.000000	9.919851
2173.000000	9.906744
2172.000000	9.901959
2171.000000	9.895301
2170.000000	9.903727
2169.000000	9.903311
2168.000000	9.914962
2167.000000	9.912673
2166.000000	9.936391
2165.000000	9.966247
2164.000000	9.958029
2163.000000	9.973425
2162.000000	9.996519
2161.000000	10.000264
2160.000000	10.027206
2159.000000	10.044475
2158.000000	10.080260
2157.000000	10.125823
2156.000000	10.140595
2155.000000	10.161088
2154.000000	10.194273
2153.000000	10.238796
2152.000000	10.272501
2151.000000	10.311199
2150.000000	10.353641
2149.000000	10.392651
2148.000000	10.427604
2147.000000	10.455587
2146.000000	10.496053
2145.000000	10.545050
2144.000000	10.597791
2143.000000	10.624526
2142.000000	10.655214
2141.000000	10.690791
2140.000000	10.727304
2139.000000	10.751958
2138.000000	10.775468
2137.000000	10.815934
2136.000000	10.839652
2135.000000	10.868572
2134.000000	10.924642
2133.000000	10.939102
2132.000000	10.954914
2131.000000	10.985602
2130.000000	11.000997
2129.000000	11.028044
2128.000000	11.035014
2127.000000	11.045105
2126.000000	11.058628
2125.000000	11.054363
2124.000000	11.061229
2123.000000	11.061125
2122.000000	11.065702
2121.000000	11.080786
2120.000000	11.090252
2119.000000	11.095869
2118.000000	11.092125
2117.000000	11.078809
2116.000000	11.061749
2115.000000	11.058940
2114.000000	11.043232
2113.000000	11.038031
2112.000000	11.034910
2111.000000	11.014105
2110.000000	10.997565
2109.000000	10.987890
2108.000000	10.971662
2107.000000	10.961779
2106.000000	10.956682
2105.000000	10.944303
2104.000000	10.919649
2103.000000	10.895723
2102.000000	10.866699
2101.000000	10.840589
2100.000000	10.845894
2099.000000	10.822904
2098.000000	10.807404
2097.000000	10.797522
2096.000000	10.772660
2095.000000	10.764025
2094.000000	10.749774
2093.000000	10.735106
2092.000000	10.721583
2091.000000	10.693808
2090.000000	10.676227
2089.000000	10.689750
2088.000000	10.679660
2087.000000	10.649076
2086.000000	10.621821
2085.000000	10.610482
2084.000000	10.604241
2083.000000	10.584060
2082.000000	10.563150
2081.000000	10.522996
2080.000000	10.489292
2079.000000	10.467238
2078.000000	10.427084
2077.000000	10.384121
2076.000000	10.349480
2075.000000	10.310470
2074.000000	10.268548
2073.000000	10.227561
2072.000000	10.178253
2071.000000	10.120310
2070.000000	10.071314
2069.000000	10.022421
2068.000000	9.958029
2067.000000	9.899982
2066.000000	9.852130
2065.000000	9.809583
2064.000000	9.769013
2063.000000	9.728755
2062.000000	9.682463
2061.000000	9.623792
2060.000000	9.561792
2059.000000	9.524239
2058.000000	9.497088
2057.000000	9.461927
2056.000000	9.436441
2055.000000	9.424166
2054.000000	9.420733
2053.000000	9.405649
2052.000000	9.411682
2051.000000	9.444035
2050.000000	9.445699
2049.000000	9.444971
2048.000000	9.478883
2047.000000	9.527152
2046.000000	9.555031
2045.000000	9.602779
2044.000000	9.662802
2043.000000	9.695154
2042.000000	9.743319
2041.000000	9.796476
2040.000000	9.860348
2039.000000	9.917043
2038.000000	9.931294
2037.000000	9.962398
2036.000000	10.015764
2035.000000	10.038441
2034.000000	10.078283
2033.000000	10.108867
2032.000000	10.133105
2031.000000	10.159528
2030.000000	10.187095
2029.000000	10.221216
2028.000000	10.238900
2027.000000	10.247846
2026.000000	10.261786
2025.000000	10.277494
2024.000000	10.278742
2023.000000	10.285088
2022.000000	10.283007
2021.000000	10.282799
2020.000000	10.306309
2019.000000	10.296323
2018.000000	10.289457
2017.000000	10.279679
2016.000000	10.265531
2015.000000	10.272605
2014.000000	10.259081
2013.000000	10.266051
2012.000000	10.239108
2011.000000	10.200098
2010.000000	10.192816
2009.000000	10.182726
2008.000000	10.148293
2007.000000	10.135290
2006.000000	10.107723
2005.000000	10.064864
2004.000000	10.028455
2003.000000	10.006297
2002.000000	9.967183
2001.000000	9.921204
2000.000000	9.900814
1999.000000	9.850674
1998.000000	9.806983
1997.000000	9.773070
1996.000000	9.705973
1995.000000	9.672164
1994.000000	9.620359
1993.000000	9.589255
1992.000000	9.545044
1991.000000	9.485957
1990.000000	9.433632
1989.000000	9.381307
1988.000000	9.343337
1987.000000	9.271559
1986.000000	9.224227
1985.000000	9.167949
1984.000000	9.100019
1983.000000	9.072869
1982.000000	9.013365
1981.000000	8.971027
1980.000000	8.913084
1979.000000	8.858366
1978.000000	8.805001
1977.000000	8.771400
1976.000000	8.717618
1975.000000	8.665709
1974.000000	8.601317
1973.000000	8.555233
1972.000000	8.503636
1971.000000	8.454536
1970.000000	8.400650
1969.000000	8.359976
1968.000000	8.332721
1967.000000	8.276235
1966.000000	8.250228
1965.000000	8.194054
1964.000000	8.128517
1963.000000	8.129349
1962.000000	8.061316
1961.000000	8.014088
1960.000000	7.994011
1959.000000	7.943038
1958.000000	7.902884
1957.000000	7.858881
1956.000000	7.826424
1955.000000	7.768586
1954.000000	7.752254
1953.000000	7.733425
1952.000000	7.675066
1951.000000	7.654157
1950.000000	7.608177
1949.000000	7.579362
1948.000000	7.573224
1947.000000	7.526724
1946.000000	7.507896
1945.000000	7.482409
1944.000000	7.448809
1943.000000	7.413128
1942.000000	7.397420
1941.000000	7.406782
1940.000000	7.375886
1939.000000	7.379631
1938.000000	7.354353
1937.000000	7.345615
1936.000000	7.349255
1935.000000	7.356121
1934.000000	7.367044
1933.000000	7.369957
1932.000000	7.391282
1931.000000	7.396067
1930.000000	7.434765
1929.000000	7.454530
1928.000000	7.481057
1927.000000	7.513825
1926.000000	7.538583
1925.000000	7.561469
1924.000000	7.623365
1923.000000	7.657590
1922.000000	7.732385
1921.000000	7.807284
1920.000000	7.881662
1919.000000	7.947823
1918.000000	7.990682
1917.000000	8.095957
1916.000000	8.160661
1915.000000	8.279043
1914.000000	8.356855
1913.000000	8.454640
1912.000000	8.601421
1911.000000	8.708672
1910.000000	8.825078
1909.000000	8.945540
1908.000000	9.058721
1907.000000	9.178351
1906.000000	9.353324
1905.000000	9.523719
1904.000000	9.718144
1903.000000	9.901855
1902.000000	10.093887
1901.000000	10.289873
1900.000000	10.488876
1899.000000	10.746965
1898.000000	11.022115
1897.000000	11.312660
1896.000000	11.568357
1895.000000	11.823846
1894.000000	12.095251
1893.000000	12.383404
1892.000000	12.717641
1891.000000	13.109612
1890.000000	13.504600
1889.000000	13.893243
1888.000000	14.260976
1887.000000	14.659501
1886.000000	15.045855
1885.000000	15.504611
1884.000000	15.937049
1883.000000	16.417443
1882.000000	16.877343
1881.000000	17.325177
1880.000000	17.773115
1879.000000	18.183395
1878.000000	18.582856
1877.000000	19.015085
1876.000000	19.451788
1875.000000	19.853122
1874.000000	20.275053
1873.000000	20.679820
1872.000000	21.086563
1871.000000	21.461786
1870.000000	21.812459
1869.000000	22.165004
1868.000000	22.519318
1867.000000	22.789370
1866.000000	23.021765
1865.000000	23.238452
1864.000000	23.438287
1863.000000	23.620333
1862.000000	23.781262
1861.000000	23.973607
1860.000000	24.180827
1859.000000	24.357880
1858.000000	24.552826
1857.000000	24.693365
1856.000000	24.817573
1855.000000	24.911925
1854.000000	25.024377
1853.000000	25.136622
1852.000000	25.199246
1851.000000	25.266447
1850.000000	25.311386
1849.000000	25.352372
1848.000000	25.417181
1847.000000	25.486670
1846.000000	25.537851
1845.000000	25.540036
1844.000000	25.509140
1843.000000	25.478244
1842.000000	25.487399
1841.000000	25.529321
1840.000000	25.553247
1839.000000	25.561673
1838.000000	25.552103
1837.000000	25.535355
1836.000000	25.530778
1835.000000	25.510596
1834.000000	25.470650
1833.000000	25.417285
1832.000000	25.352164
1831.000000	25.317732
1830.000000	25.302336
1829.000000	25.292557
1828.000000	25.261037
1827.000000	25.201846
1826.000000	25.155971
1825.000000	25.129340
1824.000000	25.082840
1823.000000	25.036652
1822.000000	25.019488
1821.000000	25.031763
1820.000000	25.034988
1819.000000	25.020424
1818.000000	24.974965
1817.000000	24.930025
1816.000000	24.903915
1815.000000	24.901314
1814.000000	24.885918
1813.000000	24.851901
1812.000000	24.831408
1811.000000	24.804361
1810.000000	24.788861
1809.000000	24.757758
1808.000000	24.700751
1807.000000	24.670271
1806.000000	24.642496
1805.000000	24.606711
1804.000000	24.561252
1803.000000	24.515584
1802.000000	24.478031
1801.000000	24.447343
1800.000000	24.409373
1799.000000	24.357256
1798.000000	24.317206
1797.000000	24.284958
1796.000000	24.237418
1795.000000	24.197263
1794.000000	24.167928
1793.000000	24.133599
1792.000000	24.092197
1791.000000	24.061093
1790.000000	24.031029
1789.000000	24.001070
1788.000000	23.972462
1787.000000	23.946040
1786.000000	23.917953
1785.000000	23.883208
1784.000000	23.853664
1783.000000	23.825161
1782.000000	23.780638
1781.000000	23.740380
1780.000000	23.712188
1779.000000	23.677756
1778.000000	23.644467
1777.000000	23.601296
1776.000000	23.542417
1775.000000	23.495293
1774.000000	23.448794
1773.000000	23.398237
1772.000000	23.347472
1771.000000	23.289113
1770.000000	23.242509
1769.000000	23.173436
1768.000000	23.111956
1767.000000	23.061295
1766.000000	23.009906
1765.000000	22.970792
1764.000000	22.913578
1763.000000	22.871343
1762.000000	22.872488
1761.000000	22.863021
1760.000000	22.875192
1759.000000	22.884347
1758.000000	22.917531
1757.000000	22.969128
1756.000000	23.009906
1755.000000	23.036433
1754.000000	23.084597
1753.000000	23.136819
1752.000000	23.154399
1751.000000	23.160224
1750.000000	23.170627
1749.000000	23.165114
1748.000000	23.166362
1747.000000	23.154295
1746.000000	23.115701
1745.000000	23.058487
1744.000000	23.021349
1743.000000	22.949259
1742.000000	22.873008
1741.000000	22.789370
1740.000000	22.696475
1739.000000	22.587663
1738.000000	22.463560
1737.000000	22.378154
1736.000000	22.274544
1735.000000	22.174991
1734.000000	22.105501
1733.000000	22.057649
1732.000000	22.001059
1731.000000	21.975052
1730.000000	21.972659
1729.000000	21.990760
1728.000000	22.015206
1727.000000	22.041213
1726.000000	22.055568
1725.000000	22.107061
1724.000000	22.153353
1723.000000	22.186746
1722.000000	22.235014
1721.000000	22.292645
1720.000000	22.374409
1719.000000	22.473858
1718.000000	22.584959
1717.000000	22.686592
1716.000000	22.794884
1715.000000	22.914514
1714.000000	23.049540
1713.000000	23.168026
1712.000000	23.272157
1711.000000	23.373895
1710.000000	23.457844
1709.000000	23.527750
1708.000000	23.584652
1707.000000	23.625743
1706.000000	23.645195
1705.000000	23.651021
1704.000000	23.638330
1703.000000	23.626991
1702.000000	23.571857
1701.000000	23.530662
1700.000000	23.473448
1699.000000	23.410720
1698.000000	23.344975
1697.000000	23.240013
1696.000000	23.169067
1695.000000	23.123191
1694.000000	23.059111
1693.000000	23.042779
1692.000000	23.027383
1691.000000	23.037889
1690.000000	23.082101
1689.000000	23.147013
1688.000000	23.205684
1687.000000	23.268204
1686.000000	23.365052
1685.000000	23.452331
1684.000000	23.589541
1683.000000	23.724984
1682.000000	23.862715
1681.000000	24.063381
1680.000000	24.313045
1679.000000	24.570926
1678.000000	24.863032
1677.000000	25.175319
1676.000000	25.463681
1675.000000	25.768894
1674.000000	26.059440
1673.000000	26.300469
1672.000000	26.558558
1671.000000	26.727809
1670.000000	26.935030
1669.000000	27.115515
1668.000000	27.276132
1667.000000	27.448400
1666.000000	27.557732
1665.000000	27.666855
1664.000000	27.798241
1663.000000	27.889992
1662.000000	27.988193
1661.000000	28.056850
1660.000000	28.146937
1659.000000	28.201863
1658.000000	28.235359
1657.000000	28.296215
1656.000000	28.345627
1655.000000	28.347188
1654.000000	28.379956
1653.000000	28.394104
1652.000000	28.394000
1651.000000	28.369969
1650.000000	28.364352
1649.000000	28.353741
1648.000000	28.338762
1647.000000	28.307346
1646.000000	28.282379
1645.000000	28.232967
1644.000000	28.189276
1643.000000	28.155571
1642.000000	28.114169
1641.000000	28.062155
1640.000000	28.030219
1639.000000	27.984448
1638.000000	27.951471
1637.000000	27.900498
1636.000000	27.857119
1635.000000	27.809267
1634.000000	27.754029
1633.000000	27.666647
1632.000000	27.627949
1631.000000	27.573648
1630.000000	27.507279
1629.000000	27.450792
1628.000000	27.359457
1627.000000	27.319407
1626.000000	27.231505
1625.000000	27.162847
1624.000000	27.093254
1623.000000	27.023036
1622.000000	26.939503
1621.000000	26.875735
1620.000000	26.808638
1619.000000	26.729682
1618.000000	26.661336
1617.000000	26.602665
1616.000000	26.536817
1615.000000	26.469928
1614.000000	26.413857
1613.000000	26.341455
1612.000000	26.252513
1611.000000	26.184375
1610.000000	26.129657
1609.000000	26.052366
1608.000000	25.971017
1607.000000	25.894766
1606.000000	25.831622
1605.000000	25.754018
1604.000000	25.661851
1603.000000	25.581959
1602.000000	25.494368
1601.000000	25.405634
1600.000000	25.334584
1599.000000	25.254796
1598.000000	25.159820
1597.000000	25.081384
1596.000000	25.000763
1595.000000	24.930337
1594.000000	24.855958
1593.000000	24.783972
1592.000000	24.701271
1591.000000	24.623772
1590.000000	24.559795
1589.000000	24.491138
1588.000000	24.435276
1587.000000	24.357984
1586.000000	24.278508
1585.000000	24.218485
1584.000000	24.155757
1583.000000	24.085539
1582.000000	24.045281
1581.000000	23.986402
1580.000000	23.924506
1579.000000	23.862299
1578.000000	23.815799
1577.000000	23.762433
1576.000000	23.724151
1575.000000	23.682437
1574.000000	23.629383
1573.000000	23.608682
1572.000000	23.588085
1571.000000	23.526917
1570.000000	23.508609
1569.000000	23.496022
1568.000000	23.459404
1567.000000	23.434958
1566.000000	23.416025
1565.000000	23.389915
1564.000000	23.366301
1563.000000	23.354026
1562.000000	23.340294
1561.000000	23.279751
1560.000000	23.234915
1559.000000	23.214838
1558.000000	23.190912
1557.000000	23.136194
1556.000000	23.078980
1555.000000	23.035497
1554.000000	22.975994
1553.000000	22.921796
1552.000000	22.863541
1551.000000	22.800189
1550.000000	22.730492
1549.000000	22.658609
1548.000000	22.589640
1547.000000	22.521711
1546.000000	22.456278
1545.000000	22.378154
1544.000000	22.310745
1543.000000	22.261541
1542.000000	22.215249
1541.000000	22.168021
1540.000000	22.118400
1539.000000	22.062018
1538.000000	22.014374
1537.000000	21.951854
1536.000000	21.905146
1535.000000	21.869569
1534.000000	21.806945
1533.000000	21.742137
1532.000000	21.698446
1531.000000	21.634158
1530.000000	21.576007
1529.000000	21.535228
1528.000000	21.459289
1527.000000	21.384806
1526.000000	21.319790
1525.000000	21.242498
1524.000000	21.167495
1523.000000	21.114026
1522.000000	21.051402
1521.000000	20.983785
1520.000000	20.918768
1519.000000	20.848030
1518.000000	20.777188
1517.000000	20.712068
1516.000000	20.640602
1515.000000	20.556548
1514.000000	20.487995
1513.000000	20.427868
1512.000000	20.352761
1511.000000	20.274013
1510.000000	20.183302
1509.000000	20.100289
1508.000000	20.022165
1507.000000	19.945185
1506.000000	19.866645
1505.000000	19.790810
1504.000000	19.726418
1503.000000	19.674197
1502.000000	19.611677
1501.000000	19.530328
1500.000000	19.441698
1499.000000	19.369711
1498.000000	19.300326
1497.000000	19.241135
1496.000000	19.198068
1495.000000	19.139813
1494.000000	19.078750
1493.000000	19.023824
1492.000000	18.985438
1491.000000	18.936650
1490.000000	18.898056
1489.000000	18.864767
1488.000000	18.825237
1487.000000	18.777801
1486.000000	18.738999
1485.000000	18.707063
1484.000000	18.670446
1483.000000	18.637366
1482.000000	18.608862
1481.000000	18.566108
1480.000000	18.536980
1479.000000	18.526057
1478.000000	18.502652
1477.000000	18.473836
1476.000000	18.462809
1475.000000	18.446997
1474.000000	18.425672
1473.000000	18.436595
1472.000000	18.425464
1471.000000	18.419951
1470.000000	18.414541
1469.000000	18.427961
1468.000000	18.422135
1467.000000	18.425360
1466.000000	18.435971
1465.000000	18.437323
1464.000000	18.443461
1463.000000	18.453863
1462.000000	18.481638
1461.000000	18.503588
1460.000000	18.532195
1459.000000	18.553728
1458.000000	18.591282
1457.000000	18.631644
1456.000000	18.687090
1455.000000	18.732238
1454.000000	18.773432
1453.000000	18.836888
1452.000000	18.884636
1451.000000	18.948717
1450.000000	19.014357
1449.000000	19.060441
1448.000000	19.112766
1447.000000	19.174974
1446.000000	19.258403
1445.000000	19.346201
1444.000000	19.407265
1443.000000	19.479251
1442.000000	19.535841
1441.000000	19.614173
1440.000000	19.705300
1439.000000	19.808807
1438.000000	19.899934
1437.000000	19.991685
1436.000000	20.091134
1435.000000	20.196305
1434.000000	20.306885
1433.000000	20.437230
1432.000000	20.548954
1431.000000	20.686477
1430.000000	20.824208
1429.000000	20.937805
1428.000000	21.077200
1427.000000	21.237609
1426.000000	21.403843
1425.000000	21.587866
1424.000000	21.772305
1423.000000	21.952686
1422.000000	22.167501
1421.000000	22.355476
1420.000000	22.570083
1419.000000	22.801958
1418.000000	23.056510
1417.000000	23.296915
1416.000000	23.535344
1415.000000	23.812574
1414.000000	24.106344
1413.000000	24.422793
1412.000000	24.735080
1411.000000	24.989008
1410.000000	25.325325
1409.000000	25.715008
1408.000000	26.107396
1407.000000	26.505505
1406.000000	26.915265
1405.000000	27.280917
1404.000000	27.707738
1403.000000	28.129877
1402.000000	28.576462
1401.000000	28.987886
1400.000000	29.495119
1399.000000	30.029918
1398.000000	30.456218
1397.000000	30.807203
1396.000000	31.258054
1395.000000	31.837481
1394.000000	32.382371
1393.000000	32.818762
1392.000000	33.281887
1391.000000	33.821576
1390.000000	34.355751
1389.000000	34.818877
1388.000000	35.384052
1387.000000	36.012371
1386.000000	36.606050
1385.000000	37.179235
1384.000000	37.712162
1383.000000	38.307921
1382.000000	38.905137
1381.000000	39.459701
1380.000000	39.960068
1379.000000	40.288896
1378.000000	40.643834
1377.000000	40.889336
1376.000000	41.161157
1375.000000	41.402810
1374.000000	41.651121
1373.000000	41.895167
1372.000000	42.172917
1371.000000	42.511523
1370.000000	42.802277
1369.000000	43.055269
1368.000000	43.294218
1367.000000	43.595790
1366.000000	43.804987
1365.000000	43.989426
1364.000000	44.206633
1363.000000	44.389511
1362.000000	44.565836
1361.000000	44.751211
1360.000000	44.954375
1359.000000	45.010653
1358.000000	45.131532
1357.000000	45.248977
1356.000000	45.377866
1355.000000	45.546285
1354.000000	45.788770
1353.000000	46.005665
1352.000000	46.214134
1351.000000	46.531935
1350.000000	46.841725
1349.000000	47.137472
1348.000000	47.453296
1347.000000	47.756013
1346.000000	48.072357
1345.000000	48.324517
1344.000000	48.607365
1343.000000	48.934944
1342.000000	49.200731
1341.000000	49.444153
1340.000000	49.748326
1339.000000	50.041785
1338.000000	50.278237
1337.000000	50.550057
1336.000000	50.820734
1335.000000	51.089434
1334.000000	51.329319
1333.000000	51.579502
1332.000000	51.846330
1331.000000	52.112326
1330.000000	52.356684
1329.000000	52.580756
1328.000000	52.824906
1327.000000	53.063647
1326.000000	53.252247
1325.000000	53.464668
1324.000000	53.679171
1323.000000	53.879526
1322.000000	54.068230
1321.000000	54.275762
1320.000000	54.457808
1319.000000	54.640375
1318.000000	54.829286
1317.000000	54.994792
1316.000000	55.147711
1315.000000	55.311241
1314.000000	55.471129
1313.000000	55.618951
1312.000000	55.766252
1311.000000	55.902423
1310.000000	56.028086
1309.000000	56.153542
1308.000000	56.275981
1307.000000	56.395612
1306.000000	56.496933
1305.000000	56.594510
1304.000000	56.677627
1303.000000	56.748261
1302.000000	56.839180
1301.000000	56.913559
1300.000000	56.980136
1299.000000	57.054203
1298.000000	57.093004
1297.000000	57.149387
1296.000000	57.210970
1295.000000	57.244363
1294.000000	57.291279
1293.000000	57.317285
1292.000000	57.363577
1291.000000	57.399674
1290.000000	57.425993
1289.000000	57.438060
1288.000000	57.445862
1287.000000	57.451167
1286.000000	57.448879
1285.000000	57.448671
1284.000000	57.432339
1283.000000	57.409869
1282.000000	57.396449
1281.000000	57.374188
1280.000000	57.352862
1279.000000	57.329664
1278.000000	57.310940
1277.000000	57.302097
1276.000000	57.272658
1275.000000	57.251229
1274.000000	57.244363
1273.000000	57.229383
1272.000000	57.206809
1271.000000	57.207850
1270.000000	57.202544
1269.000000	57.192246
1268.000000	57.185380
1267.000000	57.160310
1266.000000	57.150635
1265.000000	57.135551
1264.000000	57.108192
1263.000000	57.095917
1262.000000	57.078129
1261.000000	57.056803
1260.000000	57.037246
1259.000000	57.012800
1258.000000	56.987522
1257.000000	56.956626
1256.000000	56.917408
1255.000000	56.878086
1254.000000	56.831170
1253.000000	56.789872
1252.000000	56.742124
1251.000000	56.685741
1250.000000	56.629671
1249.000000	56.549259
1248.000000	56.484762
1247.000000	56.419746
1246.000000	56.342766
1245.000000	56.268075
1244.000000	56.184750
1243.000000	56.100593
1242.000000	56.009362
1241.000000	55.927909
1240.000000	55.854154
1239.000000	55.768541
1238.000000	55.673773
1237.000000	55.589823
1236.000000	55.523246
1235.000000	55.449076
1234.000000	55.355972
1233.000000	55.260060
1232.000000	55.172678
1231.000000	55.081863
1230.000000	54.977628
1229.000000	54.878075
1228.000000	54.778418
1227.000000	54.682401
1226.000000	54.573382
1225.000000	54.447406
1224.000000	54.345772
1223.000000	54.246115
1222.000000	54.124716
1221.000000	54.000820
1220.000000	53.875885
1219.000000	53.757503
1218.000000	53.642866
1217.000000	53.517930
1216.000000	53.408390
1215.000000	53.302075
1214.000000	53.181925
1213.000000	53.065727
1212.000000	52.950050
1211.000000	52.846024
1210.000000	52.747303
1209.000000	52.646605
1208.000000	52.525206
1207.000000	52.423885
1206.000000	52.322147
1205.000000	52.211567
1204.000000	52.128866
1203.000000	52.040235
1202.000000	51.952853
1201.000000	51.879723
1200.000000	51.816058
1199.000000	51.755827
1198.000000	51.670109
1197.000000	51.589905
1196.000000	51.494097
1195.000000	51.382372
1194.000000	51.255356
1193.000000	51.118562
1192.000000	50.953784
1191.000000	50.751661
1190.000000	50.551098
1189.000000	50.360209
1188.000000	50.183364
1187.000000	50.013905
1186.000000	49.890530
1185.000000	49.840702
1184.000000	49.838517
1183.000000	49.895523
1182.000000	50.006936
1181.000000	50.185341
1180.000000	50.387464
1179.000000	50.649091
1178.000000	50.921224
1177.000000	51.173696
1176.000000	51.419302
1175.000000	51.631828
1174.000000	51.823132
1173.000000	52.030041
1172.000000	52.215936
1171.000000	52.411609
1170.000000	52.597193
1169.000000	52.795155
1168.000000	53.017043
1167.000000	53.241428
1166.000000	53.472054
1165.000000	53.702993
1164.000000	53.937988
1163.000000	54.188692
1162.000000	54.459265
1161.000000	54.714441
1160.000000	54.965041
1159.000000	55.230204
1158.000000	55.494639
1157.000000	55.764692
1156.000000	56.019244
1155.000000	56.255904
1154.000000	56.475504
1153.000000	56.709459
1152.000000	56.900764
1151.000000	57.115994
1150.000000	57.267665
1149.000000	57.425265
1148.000000	57.592851
1147.000000	57.769800
1146.000000	57.978581
1145.000000	58.181641
1144.000000	58.387405
1143.000000	58.638108
1142.000000	58.892661
1141.000000	59.173844
1140.000000	59.480306
1139.000000	59.797690
1138.000000	60.115699
1137.000000	60.460338
1136.000000	60.800713
1135.000000	61.194869
1134.000000	61.573316
1133.000000	61.954469
1132.000000	62.222753
1131.000000	62.504665
1130.000000	62.734771
1129.000000	62.983394
1128.000000	63.171370
1127.000000	63.340100
1126.000000	63.494684
1125.000000	63.623780
1124.000000	63.719485
1123.000000	63.807595
1122.000000	63.882078
1121.000000	63.939500
1120.000000	63.976534
1119.000000	63.992554
1118.000000	64.009198
1117.000000	64.027195
1116.000000	64.015856
1115.000000	64.031460
1114.000000	64.015024
1113.000000	64.015440
1112.000000	64.005869
1111.000000	63.982671
1110.000000	63.976222
1109.000000	63.972893
1108.000000	63.956665
1107.000000	63.956249
1106.000000	63.935756
1105.000000	63.931178
1104.000000	63.921504
1103.000000	63.905068
1102.000000	63.876044
1101.000000	63.851598
1100.000000	63.834330
1099.000000	63.822887
1098.000000	63.786998
1097.000000	63.772226
1096.000000	63.745075
1095.000000	63.717092
1094.000000	63.691398
1093.000000	63.649267
1092.000000	63.637304
1091.000000	63.558660
1090.000000	63.526100
1089.000000	63.498117
1088.000000	63.456506
1087.000000	63.408446
1086.000000	63.350399
1085.000000	63.307124
1084.000000	63.286319
1083.000000	63.206947
1082.000000	63.146299
1081.000000	63.112595
1080.000000	63.034159
1079.000000	62.987035
1078.000000	62.920562
1077.000000	62.851905
1076.000000	62.793442
1075.000000	62.748398
1074.000000	62.667258
1073.000000	62.580916
1072.000000	62.539201
1071.000000	62.461910
1070.000000	62.378689
1069.000000	62.307535
1068.000000	62.232740
1067.000000	62.175629
1066.000000	62.090536
1065.000000	62.020422
1064.000000	61.948332
1063.000000	61.861782
1062.000000	61.791148
1061.000000	61.708655
1060.000000	61.618880
1059.000000	61.538572
1058.000000	61.441723
1057.000000	61.359334
1056.000000	61.272888
1055.000000	61.201630
1054.000000	61.110503
1053.000000	61.024369
1052.000000	60.914726
1051.000000	60.846172
1050.000000	60.748179
1049.000000	60.666311
1048.000000	60.577784
1047.000000	60.508294
1046.000000	60.432667
1045.000000	60.336963
1044.000000	60.243547
1043.000000	60.164279
1042.000000	60.061709
1041.000000	59.996693
1040.000000	59.904005
1039.000000	59.796650
1038.000000	59.713533
1037.000000	59.631352
1036.000000	59.533567
1035.000000	59.445249
1034.000000	59.350793
1033.000000	59.256441
1032.000000	59.158240
1031.000000	59.066073
1030.000000	58.955701
1029.000000	58.845537
1028.000000	58.760339
1027.000000	58.658809
1026.000000	58.550934
1025.000000	58.437649
1024.000000	58.313650
1023.000000	58.217530
1022.000000	58.136493
1021.000000	58.029242
1020.000000	57.916893
1019.000000	57.783428
1018.000000	57.692925
1017.000000	57.601069
1016.000000	57.503909
1015.000000	57.409557
1014.000000	57.323319
1013.000000	57.225326
1012.000000	57.138464
1011.000000	57.075216
1010.000000	56.976183
1009.000000	56.898163
1008.000000	56.810573
1007.000000	56.757207
1006.000000	56.680852
1005.000000	56.605537
1004.000000	56.543329
1003.000000	56.483098
1002.000000	56.432749
1001.000000	56.335068
1000.000000	56.250703
999.000000	56.188079
998.000000	56.120462
997.000000	56.052533
996.000000	55.973161
995.000000	55.905855
994.000000	55.846040
993.000000	55.788618
992.000000	55.720793
991.000000	55.642461
990.000000	55.581293
989.000000	55.541035
988.000000	55.471961
987.000000	55.399351
986.000000	55.335895
985.000000	55.298653
984.000000	55.244456
983.000000	55.175070
982.000000	55.125554
981.000000	55.091849
980.000000	55.036403
979.000000	54.989591
978.000000	54.935393
977.000000	54.893367
976.000000	54.846659
975.000000	54.789860
974.000000	54.748666
973.000000	54.718602
972.000000	54.672519
971.000000	54.634965
970.000000	54.595539
969.000000	54.548727
968.000000	54.498171
967.000000	54.479862
966.000000	54.449590
965.000000	54.404755
964.000000	54.365017
963.000000	54.333601
962.000000	54.310091
961.000000	54.293551
960.000000	54.246739
959.000000	54.213450
958.000000	54.180370
957.000000	54.160813
956.000000	54.151659
955.000000	54.123676
954.000000	54.104327
953.000000	54.076760
952.000000	54.065213
951.000000	54.060219
950.000000	54.046488
949.000000	54.018713
948.000000	53.995723
947.000000	53.953592
946.000000	53.914791
945.000000	53.874844
944.000000	53.847590
943.000000	53.807747
942.000000	53.743875
941.000000	53.700704
940.000000	53.647235
939.000000	53.583987
938.000000	53.512729
937.000000	53.456450
936.000000	53.401628
935.000000	53.343062
934.000000	53.283559
933.000000	53.213445
932.000000	53.145412
931.000000	53.102657
930.000000	53.035144
929.000000	52.950050
928.000000	52.875567
927.000000	52.793698
926.000000	52.699138
925.000000	52.605619
924.000000	52.521669
923.000000	52.430750
922.000000	52.365110
921.000000	52.282929
920.000000	52.184208
919.000000	52.103899
918.000000	52.028688
917.000000	51.942555
916.000000	51.848307
915.000000	51.745216
914.000000	51.663868
913.000000	51.581167
912.000000	51.487543
911.000000	51.390903
910.000000	51.315900
909.000000	51.241417
908.000000	51.147481
907.000000	51.070189
906.000000	50.984472
905.000000	50.907076
904.000000	50.842372
903.000000	50.786405
902.000000	50.715355
901.000000	50.661366
900.000000	50.607376
899.000000	50.543920
898.000000	50.483689
897.000000	50.432820
896.000000	50.376958
895.000000	50.319847
894.000000	50.269082
893.000000	50.215509
892.000000	50.157566
891.000000	50.101808
890.000000	50.049274
889.000000	49.985194
888.000000	49.921010
887.000000	49.877527
886.000000	49.817712
885.000000	49.748534
884.000000	49.703387
883.000000	49.651374
882.000000	49.604978
881.000000	49.547243
880.000000	49.481186
879.000000	49.424804
878.000000	49.350321
877.000000	49.256489
876.000000	49.155792
875.000000	49.042299
874.000000	48.940977
873.000000	48.802414
872.000000	48.654801
871.000000	48.567315
870.000000	48.507187
869.000000	48.480661
868.000000	48.412003
867.000000	48.387557
866.000000	48.337728
865.000000	48.273336
864.000000	48.233182
863.000000	48.168998
862.000000	48.130196
861.000000	48.075582
860.000000	48.026169
859.000000	47.977589
858.000000	47.957200
857.000000	47.656500
856.000000	48.131600
855.000000	48.083500
854.000000	47.840300
853.000000	47.925700
852.000000	48.027200
851.000000	47.818100
850.000000	47.610900
849.000000	47.775800
848.000000	47.671400
847.000000	47.678800
846.000000	47.466400
845.000000	47.405700
844.000000	47.437200
843.000000	47.145700
842.000000	46.862900
841.000000	47.308700
840.000000	46.949000
839.000000	46.654400
838.000000	46.873900
837.000000	46.756400
836.000000	46.702800
835.000000	46.487300
834.000000	46.356900
833.000000	46.235300
832.000000	46.397200
831.000000	46.024500
830.000000	45.971900
829.000000	45.826500
828.000000	45.873700
827.000000	45.590900
826.000000	45.611100
825.000000	45.505300
824.000000	45.341000
823.000000	45.339900
822.000000	45.035600
821.000000	45.007500
820.000000	45.042300
819.000000	45.011900
818.000000	44.809600
817.000000	44.536600
816.000000	44.545900
815.000000	44.472900
814.000000	44.338900
813.000000	44.308300
812.000000	44.206600
811.000000	43.919400
810.000000	43.880200
809.000000	43.882400
808.000000	43.777300
807.000000	43.600400
806.000000	43.436200
805.000000	43.289900
804.000000	43.229400
803.000000	43.213200
802.000000	43.056900
801.000000	42.870600
800.000000	42.944500
799.000000	42.625300
798.000000	42.604200
797.000000	42.463400
796.000000	42.499600
795.000000	42.275000
794.000000	42.267300
793.000000	42.092600
792.000000	41.867100
791.000000	41.770600
790.000000	41.752800
789.000000	41.569500
788.000000	41.468700
787.000000	41.421600
786.000000	41.233400
785.000000	41.013500
784.000000	41.053200
783.000000	40.921700
782.000000	40.748300
781.000000	40.637700
780.000000	40.580600
779.000000	40.294600
778.000000	40.244800
777.000000	40.122900
776.000000	40.026000
775.000000	39.943500
774.000000	39.778800
773.000000	39.664100
772.000000	39.515900
771.000000	39.388600
770.000000	39.251300
769.000000	39.239300
768.000000	38.991800
767.000000	38.904200
766.000000	38.728100
765.000000	38.629700
764.000000	38.488900
763.000000	38.364100
762.000000	38.263400
761.000000	38.034600
760.000000	37.948000
759.000000	37.808200
758.000000	37.711600
757.000000	37.522600
756.000000	37.439000
755.000000	37.324200
754.000000	37.177600
753.000000	37.018500
752.000000	36.875400
751.000000	36.774200
750.000000	36.573000
749.000000	36.503600
748.000000	36.325400
747.000000	36.227400
746.000000	36.028500
745.000000	35.960900
744.000000	35.749200
743.000000	35.628900
742.000000	35.504300
741.000000	35.364700
740.000000	35.211600
739.000000	35.050200
738.000000	34.879100
737.000000	34.768100
736.000000	34.580100
735.000000	34.446200
734.000000	34.316900
733.000000	34.163800
732.000000	34.016000
731.000000	33.864800
730.000000	33.696500
729.000000	33.534200
728.000000	33.418000
727.000000	33.249000
726.000000	33.097800
725.000000	32.956900
724.000000	32.726900
723.000000	32.527500
722.000000	32.355800
721.000000	32.220600
720.000000	32.074000
719.000000	31.872900
718.000000	31.730100
717.000000	31.551500
716.000000	31.366600
715.000000	31.247700
714.000000	31.079600
713.000000	30.901200
712.000000	30.774300
711.000000	30.599800
710.000000	30.418600
709.000000	30.240600
708.000000	30.053400
707.000000	29.851400
706.000000	29.655100
705.000000	29.501900
704.000000	29.339600
703.000000	29.146800
702.000000	28.969800
701.000000	28.800900
700.000000	28.634100
699.000000	28.474100
698.000000	28.280400
697.000000	28.089400
696.000000	27.906200
695.000000	27.737600
694.000000	27.562500
693.000000	27.404300
692.000000	27.223500
691.000000	27.046400
690.000000	26.894200
689.000000	26.752000
688.000000	26.559900
687.000000	26.366200
686.000000	26.220000
685.000000	26.070000
684.000000	25.907500
683.000000	25.717300
682.000000	25.546900
681.000000	25.402900
680.000000	25.256100
679.000000	25.114400
678.000000	24.943600
677.000000	24.768200
676.000000	24.646400
675.000000	24.503100
674.000000	24.317800
673.000000	24.144700
672.000000	24.008200
671.000000	23.883400
670.000000	23.728100
669.000000	23.597100
668.000000	23.471800
667.000000	23.337400
666.000000	23.212100
665.000000	23.084900
664.000000	22.940800
663.000000	22.796600
662.000000	22.671800
661.000000	22.543000
660.000000	22.416800
659.000000	22.321200
658.000000	22.207800
657.000000	22.084200
656.000000	21.976700
655.000000	21.865500
654.000000	21.762100
653.000000	21.652400
652.000000	21.542500
651.000000	21.444800
650.000000	21.339900
649.000000	21.225400
648.000000	21.129100
647.000000	21.050300
646.000000	20.969800
645.000000	20.881500
644.000000	20.780300
643.000000	20.687300
642.000000	20.605200
641.000000	20.528400
640.000000	20.453500
639.000000	20.382800
638.000000	20.315400
637.000000	20.254900
636.000000	20.190800
635.000000	20.123000
634.000000	20.064200
633.000000	20.008900
632.000000	19.960100
631.000000	19.924700
630.000000	19.879200
629.000000	19.814900
628.000000	19.765700
627.000000	19.748600
626.000000	19.731100
625.000000	19.703100
624.000000	19.663200
623.000000	19.632000
622.000000	19.607000
621.000000	19.593600
620.000000	19.567300
619.000000	19.549600
618.000000	19.566700
617.000000	19.548900
616.000000	19.529400
615.000000	19.525700
614.000000	19.528900
613.000000	19.540800
612.000000	19.540700
611.000000	19.546200
610.000000	19.553600
609.000000	19.569100
608.000000	19.588700
607.000000	19.602200
606.000000	19.622200
605.000000	19.634600
604.000000	19.660700
603.000000	19.686000
602.000000	19.689300
601.000000	19.724700
600.000000	19.752500
599.000000	19.785700
598.000000	19.800800
597.000000	19.811100
596.000000	19.847400
595.000000	19.878400
594.000000	19.898400
593.000000	19.917200
592.000000	19.953800
591.000000	19.981200
590.000000	20.007100
589.000000	20.028700
588.000000	20.051300
587.000000	20.075100
586.000000	20.109100
585.000000	20.107700
584.000000	20.118500
583.000000	20.123700
582.000000	20.128900
581.000000	20.125600
580.000000	20.136900
579.000000	20.121200
578.000000	20.136400
577.000000	20.123200
576.000000	20.121300
575.000000	20.120700
574.000000	20.092300
573.000000	20.061500
572.000000	20.041100
571.000000	20.015900
570.000000	19.972100
569.000000	19.952300
568.000000	19.926000
567.000000	19.896300
566.000000	19.835100
565.000000	19.789000
564.000000	19.729500
563.000000	19.682200
562.000000	19.630100
561.000000	19.558300
560.000000	19.479900
559.000000	19.436000
558.000000	19.379800
557.000000	19.303600
556.000000	19.226900
555.000000	19.135100
554.000000	19.042700
553.000000	18.965200
552.000000	18.865600
551.000000	18.758300
550.000000	18.676500
549.000000	18.566500
548.000000	18.441300
547.000000	18.324000
546.000000	18.214900
545.000000	18.092200
544.000000	17.947900
543.000000	17.818400
542.000000	17.682000
541.000000	17.544200
540.000000	17.399700
539.000000	17.271700
538.000000	17.114800
537.000000	16.967500
536.000000	16.819100
535.000000	16.660400
534.000000	16.514200
533.000000	16.351300
532.000000	16.200000
531.000000	16.043900
530.000000	15.880400
529.000000	15.714400
528.000000	15.549600
527.000000	15.406500
526.000000	15.232000
525.000000	15.076300
524.000000	14.908700
523.000000	14.743500
522.000000	14.577200
521.000000	14.411600
520.000000	14.261000
519.000000	14.097200
518.000000	13.945000
517.000000	13.768700
516.000000	13.612200
515.000000	13.458300
514.000000	13.299100
513.000000	13.157300
512.000000	13.005200
511.000000	12.861000
510.000000	12.723700
509.000000	12.581300
508.000000	12.440600
507.000000	12.306700
506.000000	12.182100
505.000000	12.042300
504.000000	11.938800
503.000000	11.829600
502.000000	11.691000
501.000000	11.591300
500.000000	11.484300
499.000000	11.382600
498.000000	11.242600
497.000000	11.153700
496.000000	11.082800
495.000000	10.975400
494.000000	10.893800
493.000000	10.811700
492.000000	10.711400
491.000000	10.636000
490.000000	10.591400
489.000000	10.490800
488.000000	10.444600
487.000000	10.350800
486.000000	10.265100
485.000000	10.208600
484.000000	10.123400
483.000000	10.068900
482.000000	9.979100
481.000000	9.900800
480.000000	9.801600
479.000000	9.725600
478.000000	9.640300
477.000000	9.583600
476.000000	9.498500
475.000000	9.446200
474.000000	9.366900
473.000000	9.314800
472.000000	9.247300
471.000000	9.198500
470.000000	9.110000
469.000000	9.050200
468.000000	8.996800
467.000000	8.952500
466.000000	8.888200
465.000000	8.836800
464.000000	8.786600
463.000000	8.739200
462.000000	8.688100
461.000000	8.637200
460.000000	8.586700
459.000000	8.525300
458.000000	8.468400
457.000000	8.457200
456.000000	8.417700
455.000000	8.340100
454.000000	8.294300
453.000000	8.262500
452.000000	8.220200
451.000000	8.171600
450.000000	8.125600
449.000000	8.106300
448.000000	8.045900
447.000000	7.991100
446.000000	7.940400
445.000000	7.913700
444.000000	7.869700
443.000000	7.827700
442.000000	7.766200
441.000000	7.705500
440.000000	7.688400
439.000000	7.633100
438.000000	7.598200
437.000000	7.555000
436.000000	7.506000
435.000000	7.468600
434.000000	7.402600
433.000000	7.354600
432.000000	7.315500
431.000000	7.261800
430.000000	7.223200
429.000000	7.195700
428.000000	7.141300
427.000000	7.084200
426.000000	7.034700
425.000000	7.000400
424.000000	6.949500
423.000000	6.927100
422.000000	6.862900
421.000000	6.814600
420.000000	6.749500
419.000000	6.695800
418.000000	6.646200
417.000000	6.624100
416.000000	6.574300
415.000000	6.515900
414.000000	6.468700
413.000000	6.425700
412.000000	6.383100
411.000000	6.328900
410.000000	6.280400
409.000000	6.225300
408.000000	6.152800
407.000000	6.088100
406.000000	6.070800
405.000000	6.017000
404.000000	5.953900
403.000000	5.913400
402.000000	5.846700
401.000000	5.806600
400.000000	5.761800
399.000000	5.700800
398.000000	5.663000
397.000000	5.600700
396.000000	5.543900
395.000000	5.478700
394.000000	5.406300
393.000000	5.343200
392.000000	5.315100
391.000000	5.262900
390.000000	5.221500
389.000000	5.185500
388.000000	5.125900
387.000000	5.068500
386.000000	5.007600
385.000000	4.951000
384.000000	4.912600
383.000000	4.864000
382.000000	4.811300
381.000000	4.769900
380.000000	4.729400
379.000000	4.680900
378.000000	4.630000
377.000000	4.587600
376.000000	4.586400
375.000000	4.585000
374.000000	4.484200
373.000000	4.413200
372.000000	4.383600
371.000000	4.314000
370.000000	4.262700
369.000000	4.261600
368.000000	4.252400
367.000000	4.220400
366.000000	4.127900
365.000000	4.144600
364.000000	4.124600
363.000000	4.103600
362.000000	4.094100
361.000000	4.066400
360.000000	3.983700
359.000000	3.946200
358.000000	3.949900
357.000000	3.927700
356.000000	3.930100
355.000000	3.927600
354.000000	3.937300
353.000000	3.850600
352.000000	3.811400
351.000000	3.781700
350.000000	3.766800
349.000000	3.811600
348.000000	3.837600
347.000000	3.810300
346.000000	3.799700
345.000000	3.822600
344.000000	3.751900
343.000000	3.739500
342.000000	3.784900
341.000000	3.782200
340.000000	3.738200
339.000000	3.675300
338.000000	3.710400
337.000000	3.741000
336.000000	3.668500
335.000000	3.617700
334.000000	3.628900
333.000000	3.654700
332.000000	3.650200
331.000000	3.594600
330.000000	3.558600
329.000000	3.606000
328.000000	3.621700
327.000000	3.621400
326.000000	3.661600
325.000000	3.539200
324.000000	3.472600
323.000000	3.617400
322.000000	3.628800
321.000000	3.589400
320.000000	3.600100
319.000000	3.591500
318.000000	3.735800
317.000000	3.838800
316.000000	3.702100
315.000000	3.610100
314.000000	3.625800
313.000000	3.607700
312.000000	3.596100
311.000000	3.621000
310.000000	3.646700
309.000000	3.623300
308.000000	3.604100
307.000000	3.615600
306.000000	3.641700
305.000000	3.653300
304.000000	3.645700
303.000000	3.626200
302.000000	3.630600
301.000000	3.630400
300.000000	3.647100
299.000000	3.612600
298.000000	3.612400
297.000000	3.633800
296.000000	3.644700
295.000000	3.617300
294.000000	3.601200
293.000000	3.635400
292.000000	3.641000
291.000000	3.612500
290.000000	3.610500
289.000000	3.629700
288.000000	3.632900
287.000000	3.630400
286.000000	3.643800
285.000000	3.642200
284.000000	3.618100
283.000000	3.601700
282.000000	3.623800
281.000000	3.611300
280.000000	3.628300
279.000000	3.641500
278.000000	3.639000
277.000000	3.623100
276.000000	3.637300
275.000000	3.650400
274.000000	3.631200
273.000000	3.629800
272.000000	3.670300
271.000000	3.662600
270.000000	3.656200
269.000000	3.689700
268.000000	3.695300
267.000000	3.723000
266.000000	3.706600
265.000000	3.695800
264.000000	3.727500
263.000000	3.749700
262.000000	3.741000
261.000000	3.771600
260.000000	3.776700
259.000000	3.801100
258.000000	3.792700
257.000000	3.806800
256.000000	3.804900
255.000000	3.828500
254.000000	3.852700
253.000000	3.843500
252.000000	3.853700
251.000000	3.854600
250.000000	3.891900
