PE UV       SUBTECH     SPECTRUM    ASCII       PEDS        4.00        
   -1
CICIMAUCR0015-3.Sample.ASC
24/04/12
11:43:14.00
24/04/12
11:43:14.00
Vinicio Soto Monge
C. resplendens
250,000000
1
Lambda 1050
1050L1511233
PerkinElmer UV WinLab 6.3.2.0749 / 2.02.05 Lambda 900 UV/VIS/NIR, Aug  7 2015 09:38:08

0
0
3350/servo 860,8/2
0
0
UV/VIS
1
1
1
DoubleDePol,CommonBeamDepol,RBeamAtt,SBeamAtt,60mm sphere, WB InGaAs Detector
0
0
0
0
Program
Program
3350/servo 860,8/2
3350/0,2 860,8/0,2
3350/0,2 860,8/0,2
0
15.00
 
 
 
0
 
860,8
319,2
860,8
Front
100
on
S:100 R:100
0
0
0
0
 
0
 
 
 
0
 
 
0
0
0
0
0
 
 
 
 
0
0


0
0
#HDR
-1
-1
#GR
nm
%R
1.0
0.0
2500,000000
-1,000000
2251
8
93,394800
5,535300
#DATA
2482.000000	8.105323
2481.000000	8.114807
2480.000000	8.113815
2479.000000	8.077533
2478.000000	8.072019
2477.000000	8.107639
2476.000000	8.090436
2475.000000	8.089333
2474.000000	8.054926
2473.000000	8.075438
2472.000000	8.086355
2471.000000	8.055808
2470.000000	8.089774
2469.000000	8.102015
2468.000000	8.113263
2467.000000	8.098817
2466.000000	8.134657
2465.000000	8.140502
2464.000000	8.122968
2463.000000	8.193546
2462.000000	8.222108
2461.000000	8.263021
2460.000000	8.290700
2459.000000	8.341098
2458.000000	8.383775
2457.000000	8.432077
2456.000000	8.492399
2455.000000	8.516440
2454.000000	8.595178
2453.000000	8.670167
2452.000000	8.738429
2451.000000	8.829519
2450.000000	8.895244
2449.000000	8.968249
2448.000000	9.049193
2447.000000	9.131019
2446.000000	9.181416
2445.000000	9.251001
2444.000000	9.330622
2443.000000	9.392709
2442.000000	9.480049
2441.000000	9.555920
2440.000000	9.635982
2439.000000	9.698620
2438.000000	9.778682
2437.000000	9.843304
2436.000000	9.898444
2435.000000	9.965603
2434.000000	10.018316
2433.000000	10.096723
2432.000000	10.147010
2431.000000	10.212846
2430.000000	10.241739
2429.000000	10.293680
2428.000000	10.340327
2427.000000	10.414434
2426.000000	10.473654
2425.000000	10.548202
2424.000000	10.623632
2423.000000	10.659913
2422.000000	10.672705
2421.000000	10.702150
2420.000000	10.746922
2419.000000	10.794563
2418.000000	10.818162
2417.000000	10.856759
2416.000000	10.891166
2415.000000	10.928771
2414.000000	10.974867
2413.000000	11.006958
2412.000000	11.025595
2411.000000	11.063531
2410.000000	11.086910
2409.000000	11.124404
2408.000000	11.144475
2407.000000	11.182962
2406.000000	11.224867
2405.000000	11.265229
2404.000000	11.298423
2403.000000	11.327426
2402.000000	11.351687
2401.000000	11.390946
2400.000000	11.423478
2399.000000	11.460201
2398.000000	11.486667
2397.000000	11.501775
2396.000000	11.540262
2395.000000	11.590218
2394.000000	11.619111
2393.000000	11.645688
2392.000000	11.663774
2391.000000	11.680095
2390.000000	11.706121
2389.000000	11.747806
2388.000000	11.754863
2387.000000	11.770964
2386.000000	11.776147
2385.000000	11.787285
2384.000000	11.809451
2383.000000	11.802614
2382.000000	11.773611
2381.000000	11.770854
2380.000000	11.762142
2379.000000	11.728507
2378.000000	11.727515
2377.000000	11.727184
2376.000000	11.696637
2375.000000	11.675243
2374.000000	11.645468
2373.000000	11.603893
2372.000000	11.579191
2371.000000	11.548864
2370.000000	11.509826
2369.000000	11.468692
2368.000000	11.416200
2367.000000	11.353121
2366.000000	11.291475
2365.000000	11.236336
2364.000000	11.183182
2363.000000	11.121757
2362.000000	11.058237
2361.000000	10.979278
2360.000000	10.895246
2359.000000	10.843526
2358.000000	10.785079
2357.000000	10.731153
2356.000000	10.673808
2355.000000	10.646349
2354.000000	10.633557
2353.000000	10.608303
2352.000000	10.603892
2351.000000	10.626168
2350.000000	10.652304
2349.000000	10.675903
2348.000000	10.690460
2347.000000	10.751554
2346.000000	10.811766
2345.000000	10.841982
2344.000000	10.892710
2343.000000	10.944430
2342.000000	10.978065
2341.000000	11.021515
2340.000000	11.061325
2339.000000	11.068383
2338.000000	11.082388
2337.000000	11.074779
2336.000000	11.064744
2335.000000	11.053275
2334.000000	11.040924
2333.000000	11.016883
2332.000000	10.967699
2331.000000	10.937262
2330.000000	10.871757
2329.000000	10.827977
2328.000000	10.777469
2327.000000	10.713288
2326.000000	10.627712
2325.000000	10.553936
2324.000000	10.472220
2323.000000	10.399878
2322.000000	10.312648
2321.000000	10.210199
2320.000000	10.094959
2319.000000	9.972661
2318.000000	9.863926
2317.000000	9.774050
2316.000000	9.645245
2315.000000	9.505854
2314.000000	9.404839
2313.000000	9.292797
2312.000000	9.197075
2311.000000	9.110066
2310.000000	9.032541
2309.000000	8.981813
2308.000000	8.930423
2307.000000	8.917521
2306.000000	8.910132
2305.000000	8.932849
2304.000000	8.962183
2303.000000	9.019087
2302.000000	9.096281
2301.000000	9.162779
2300.000000	9.269969
2299.000000	9.367675
2298.000000	9.460530
2297.000000	9.559339
2296.000000	9.645355
2295.000000	9.725748
2294.000000	9.803274
2293.000000	9.882233
2292.000000	9.925351
2291.000000	9.963287
2290.000000	9.989974
2289.000000	10.025594
2288.000000	10.015338
2287.000000	10.011920
2286.000000	9.976961
2285.000000	9.950605
2284.000000	9.935717
2283.000000	9.891386
2282.000000	9.847716
2281.000000	9.830181
2280.000000	9.738320
2279.000000	9.700494
2278.000000	9.662559
2277.000000	9.624844
2276.000000	9.562206
2275.000000	9.551840
2274.000000	9.532210
2273.000000	9.533203
2272.000000	9.535960
2271.000000	9.531769
2270.000000	9.573564
2269.000000	9.623631
2268.000000	9.693657
2267.000000	9.780556
2266.000000	9.880358
2265.000000	10.023499
2264.000000	10.185277
2263.000000	10.359957
2262.000000	10.555259
2261.000000	10.787395
2260.000000	11.029455
2259.000000	11.278683
2258.000000	11.534859
2257.000000	11.823677
2256.000000	12.064193
2255.000000	12.358305
2254.000000	12.630581
2253.000000	12.898667
2252.000000	13.142712
2251.000000	13.390617
2250.000000	13.628487
2249.000000	13.841544
2248.000000	14.059343
2247.000000	14.235677
2246.000000	14.422488
2245.000000	14.590773
2244.000000	14.777694
2243.000000	14.902639
2242.000000	15.057138
2241.000000	15.214174
2240.000000	15.319931
2239.000000	15.426239
2238.000000	15.519424
2237.000000	15.613822
2236.000000	15.708440
2235.000000	15.779239
2234.000000	15.854228
2233.000000	15.932305
2232.000000	15.955022
2231.000000	16.007404
2230.000000	16.045119
2229.000000	16.076438
2228.000000	16.114484
2227.000000	16.111947
2226.000000	16.121762
2225.000000	16.122865
2224.000000	16.092980
2223.000000	16.097170
2222.000000	16.090664
2221.000000	16.079085
2220.000000	16.055044
2219.000000	16.013138
2218.000000	15.999795
2217.000000	15.958551
2216.000000	15.926680
2215.000000	15.899773
2214.000000	15.862829
2213.000000	15.846619
2212.000000	15.792362
2211.000000	15.755529
2210.000000	15.755860
2209.000000	15.705904
2208.000000	15.705904
2207.000000	15.697082
2206.000000	15.684069
2205.000000	15.662785
2204.000000	15.635436
2203.000000	15.637642
2202.000000	15.609631
2201.000000	15.589561
2200.000000	15.575114
2199.000000	15.570593
2198.000000	15.543795
2197.000000	15.539384
2196.000000	15.552948
2195.000000	15.535304
2194.000000	15.531003
2193.000000	15.502000
2192.000000	15.515013
2191.000000	15.493288
2190.000000	15.478621
2189.000000	15.482811
2188.000000	15.471563
2187.000000	15.472997
2186.000000	15.460535
2185.000000	15.448405
2184.000000	15.409256
2183.000000	15.398780
2182.000000	15.405176
2181.000000	15.373416
2180.000000	15.369997
2179.000000	15.352904
2178.000000	15.336693
2177.000000	15.332723
2176.000000	15.313755
2175.000000	15.305043
2174.000000	15.310557
2173.000000	15.307359
2172.000000	15.331179
2171.000000	15.348052
2170.000000	15.368122
2169.000000	15.383671
2168.000000	15.398780
2167.000000	15.412013
2166.000000	15.438590
2165.000000	15.462851
2164.000000	15.483583
2163.000000	15.520527
2162.000000	15.549199
2161.000000	15.585260
2160.000000	15.629261
2159.000000	15.674695
2158.000000	15.702485
2157.000000	15.733584
2156.000000	15.796883
2155.000000	15.860734
2154.000000	15.893376
2153.000000	15.937157
2152.000000	15.996597
2151.000000	16.047325
2150.000000	16.101692
2149.000000	16.152530
2148.000000	16.213513
2147.000000	16.256522
2146.000000	16.302177
2145.000000	16.355110
2144.000000	16.404184
2143.000000	16.451493
2142.000000	16.489760
2141.000000	16.531555
2140.000000	16.589120
2139.000000	16.620108
2138.000000	16.663117
2137.000000	16.696862
2136.000000	16.730166
2135.000000	16.773395
2134.000000	16.801516
2133.000000	16.833938
2132.000000	16.849156
2131.000000	16.870991
2130.000000	16.884886
2129.000000	16.898230
2128.000000	16.920506
2127.000000	16.918631
2126.000000	16.919072
2125.000000	16.925909
2124.000000	16.924586
2123.000000	16.918741
2122.000000	16.911132
2121.000000	16.887974
2120.000000	16.856765
2119.000000	16.840223
2118.000000	16.825887
2117.000000	16.805155
2116.000000	16.781776
2115.000000	16.767991
2114.000000	16.749134
2113.000000	16.723880
2112.000000	16.693113
2111.000000	16.679548
2110.000000	16.652089
2109.000000	16.616138
2108.000000	16.590003
2107.000000	16.561110
2106.000000	16.538944
2105.000000	16.510492
2104.000000	16.469910
2103.000000	16.445097
2102.000000	16.426129
2101.000000	16.384665
2100.000000	16.346840
2099.000000	16.328533
2098.000000	16.309014
2097.000000	16.297325
2096.000000	16.295119
2095.000000	16.265344
2094.000000	16.226306
2093.000000	16.210426
2092.000000	16.206345
2091.000000	16.193333
2090.000000	16.168300
2089.000000	16.154735
2088.000000	16.156831
2087.000000	16.152089
2086.000000	16.149993
2085.000000	16.130033
2084.000000	16.100809
2083.000000	16.089892
2082.000000	16.074894
2081.000000	16.055485
2080.000000	16.031334
2079.000000	15.996376
2078.000000	15.972666
2077.000000	15.955242
2076.000000	15.927783
2075.000000	15.879371
2074.000000	15.840002
2073.000000	15.812543
2072.000000	15.780121
2071.000000	15.750236
2070.000000	15.721894
2069.000000	15.679658
2068.000000	15.637201
2067.000000	15.610293
2066.000000	15.571034
2065.000000	15.529569
2064.000000	15.495824
2063.000000	15.465167
2062.000000	15.432966
2061.000000	15.418409
2060.000000	15.423261
2059.000000	15.409918
2058.000000	15.409477
2057.000000	15.424695
2056.000000	15.452154
2055.000000	15.489538
2054.000000	15.535083
2053.000000	15.594854
2052.000000	15.665983
2051.000000	15.755308
2050.000000	15.854007
2049.000000	15.961969
2048.000000	16.095516
2047.000000	16.238767
2046.000000	16.402089
2045.000000	16.543134
2044.000000	16.676350
2043.000000	16.842098
2042.000000	17.015455
2041.000000	17.183078
2040.000000	17.352244
2039.000000	17.495716
2038.000000	17.648230
2037.000000	17.817507
2036.000000	17.954142
2035.000000	18.085042
2034.000000	18.226087
2033.000000	18.354561
2032.000000	18.473330
2031.000000	18.594416
2030.000000	18.722228
2029.000000	18.820044
2028.000000	18.907495
2027.000000	19.008068
2026.000000	19.116361
2025.000000	19.210208
2024.000000	19.305929
2023.000000	19.394152
2022.000000	19.472229
2021.000000	19.568391
2020.000000	19.638418
2019.000000	19.735021
2018.000000	19.793579
2017.000000	19.842322
2016.000000	19.916428
2015.000000	19.982375
2014.000000	20.042035
2013.000000	20.083500
2012.000000	20.122759
2011.000000	20.167201
2010.000000	20.206349
2009.000000	20.231162
2008.000000	20.257518
2007.000000	20.268656
2006.000000	20.279464
2005.000000	20.290381
2004.000000	20.293910
2003.000000	20.287845
2002.000000	20.271854
2001.000000	20.276265
2000.000000	20.214510
1999.000000	20.208555
1998.000000	20.188043
1997.000000	20.171942
1996.000000	20.114818
1995.000000	20.078758
1994.000000	20.026706
1993.000000	19.983698
1992.000000	19.956459
1991.000000	19.884779
1990.000000	19.822692
1989.000000	19.754981
1988.000000	19.678779
1987.000000	19.613605
1986.000000	19.541483
1985.000000	19.460760
1984.000000	19.399666
1983.000000	19.331514
1982.000000	19.241527
1981.000000	19.153856
1980.000000	19.097724
1979.000000	19.002885
1978.000000	18.913119
1977.000000	18.829198
1976.000000	18.767993
1975.000000	18.667309
1974.000000	18.607649
1973.000000	18.529462
1972.000000	18.439806
1971.000000	18.380587
1970.000000	18.273507
1969.000000	18.229395
1968.000000	18.138085
1967.000000	18.074124
1966.000000	17.998694
1965.000000	17.926131
1964.000000	17.833387
1963.000000	17.793025
1962.000000	17.699289
1961.000000	17.616360
1960.000000	17.545892
1959.000000	17.483034
1958.000000	17.386761
1957.000000	17.327542
1956.000000	17.261596
1955.000000	17.182637
1954.000000	17.124189
1953.000000	17.041040
1952.000000	16.945318
1951.000000	16.902420
1950.000000	16.836584
1949.000000	16.752442
1948.000000	16.710647
1947.000000	16.665874
1946.000000	16.607757
1945.000000	16.547546
1944.000000	16.527585
1943.000000	16.497700
1942.000000	16.495715
1941.000000	16.459544
1940.000000	16.454581
1939.000000	16.460867
1938.000000	16.457669
1937.000000	16.440907
1936.000000	16.463955
1935.000000	16.502001
1934.000000	16.563756
1933.000000	16.602574
1932.000000	16.665212
1931.000000	16.731379
1930.000000	16.825998
1929.000000	16.897237
1928.000000	17.003545
1927.000000	17.117352
1926.000000	17.250788
1925.000000	17.367132
1924.000000	17.496929
1923.000000	17.652752
1922.000000	17.822139
1921.000000	17.993731
1920.000000	18.205024
1919.000000	18.377719
1918.000000	18.579969
1917.000000	18.767221
1916.000000	18.965501
1915.000000	19.184954
1914.000000	19.430654
1913.000000	19.712855
1912.000000	19.946645
1911.000000	20.203261
1910.000000	20.475648
1909.000000	20.694219
1908.000000	20.932309
1907.000000	21.217378
1906.000000	21.535199
1905.000000	21.873201
1904.000000	22.193669
1903.000000	22.461534
1902.000000	22.751455
1901.000000	23.039501
1900.000000	23.366365
1899.000000	23.703375
1898.000000	24.025828
1897.000000	24.364051
1896.000000	24.628277
1895.000000	24.905074
1894.000000	25.205472
1893.000000	25.516676
1892.000000	25.841776
1891.000000	26.178896
1890.000000	26.489108
1889.000000	26.783771
1888.000000	27.112509
1887.000000	27.415002
1886.000000	27.768774
1885.000000	28.180221
1884.000000	28.623869
1883.000000	29.079207
1882.000000	29.527598
1881.000000	29.998926
1880.000000	30.459447
1879.000000	30.885671
1878.000000	31.300537
1877.000000	31.684415
1876.000000	32.042157
1875.000000	32.389974
1874.000000	32.696216
1873.000000	32.973675
1872.000000	33.218492
1871.000000	33.453495
1870.000000	33.630050
1869.000000	33.786203
1868.000000	33.922617
1867.000000	33.999261
1866.000000	34.052304
1865.000000	34.095643
1864.000000	34.136887
1863.000000	34.181881
1862.000000	34.218052
1861.000000	34.268670
1860.000000	34.303297
1859.000000	34.293703
1858.000000	34.289512
1857.000000	34.257421
1856.000000	34.209671
1855.000000	34.187064
1854.000000	34.135564
1853.000000	34.033557
1852.000000	33.965626
1851.000000	33.915118
1850.000000	33.875970
1849.000000	33.849393
1848.000000	33.767456
1847.000000	33.681219
1846.000000	33.570059
1845.000000	33.472683
1844.000000	33.411479
1843.000000	33.387548
1842.000000	33.389754
1841.000000	33.358214
1840.000000	33.304509
1839.000000	33.223786
1838.000000	33.160927
1837.000000	33.119683
1836.000000	33.061236
1835.000000	32.962427
1834.000000	32.842334
1833.000000	32.752678
1832.000000	32.674711
1831.000000	32.597958
1830.000000	32.511059
1829.000000	32.420079
1828.000000	32.325681
1827.000000	32.238341
1826.000000	32.159493
1825.000000	32.073035
1824.000000	32.005655
1823.000000	31.987569
1822.000000	32.000582
1821.000000	31.994627
1820.000000	31.959779
1819.000000	31.894605
1818.000000	31.858764
1817.000000	31.859977
1816.000000	31.859426
1815.000000	31.831195
1814.000000	31.818513
1813.000000	31.818844
1812.000000	31.792708
1811.000000	31.751023
1810.000000	31.708345
1809.000000	31.658941
1808.000000	31.602258
1807.000000	31.572372
1806.000000	31.514587
1805.000000	31.458455
1804.000000	31.410043
1803.000000	31.352919
1802.000000	31.297560
1801.000000	31.251905
1800.000000	31.176805
1799.000000	31.109977
1798.000000	31.075901
1797.000000	31.037634
1796.000000	30.984150
1795.000000	30.935186
1794.000000	30.874643
1793.000000	30.817189
1792.000000	30.751904
1791.000000	30.698309
1790.000000	30.634237
1789.000000	30.567519
1788.000000	30.498595
1787.000000	30.435737
1786.000000	30.358322
1785.000000	30.268997
1784.000000	30.175040
1783.000000	30.077003
1782.000000	29.991206
1781.000000	29.913019
1780.000000	29.816857
1779.000000	29.724995
1778.000000	29.632913
1777.000000	29.527598
1776.000000	29.388206
1775.000000	29.242750
1774.000000	29.098065
1773.000000	28.957460
1772.000000	28.788514
1771.000000	28.637323
1770.000000	28.489551
1769.000000	28.363503
1768.000000	28.225986
1767.000000	28.094645
1766.000000	28.003997
1765.000000	27.913789
1764.000000	27.872215
1763.000000	27.847953
1762.000000	27.871222
1761.000000	27.912687
1760.000000	27.967384
1759.000000	28.034433
1758.000000	28.109092
1757.000000	28.171178
1756.000000	28.213966
1755.000000	28.255541
1754.000000	28.278479
1753.000000	28.260062
1752.000000	28.234147
1751.000000	28.182316
1750.000000	28.125964
1749.000000	28.064319
1748.000000	27.964297
1747.000000	27.855452
1746.000000	27.736021
1745.000000	27.572148
1744.000000	27.381588
1743.000000	27.154636
1742.000000	26.943563
1741.000000	26.707127
1740.000000	26.437167
1739.000000	26.162685
1738.000000	25.921066
1737.000000	25.727528
1736.000000	25.566632
1735.000000	25.470580
1734.000000	25.430549
1733.000000	25.414559
1732.000000	25.464846
1731.000000	25.561118
1730.000000	25.654303
1729.000000	25.783329
1728.000000	25.908604
1727.000000	26.015353
1726.000000	26.097952
1725.000000	26.173161
1724.000000	26.241534
1723.000000	26.261935
1722.000000	26.265354
1721.000000	26.313876
1720.000000	26.353797
1719.000000	26.372985
1718.000000	26.402098
1717.000000	26.485689
1716.000000	26.548989
1715.000000	26.632359
1714.000000	26.718707
1713.000000	26.782668
1712.000000	26.853687
1711.000000	26.876184
1710.000000	26.897688
1709.000000	26.913788
1708.000000	26.904635
1707.000000	26.889196
1706.000000	26.865487
1705.000000	26.804613
1704.000000	26.738116
1703.000000	26.651988
1702.000000	26.530793
1701.000000	26.388865
1700.000000	26.228411
1699.000000	26.065089
1698.000000	25.891732
1697.000000	25.773624
1696.000000	25.686394
1695.000000	25.685071
1694.000000	25.722455
1693.000000	25.809464
1692.000000	25.973117
1691.000000	26.151657
1690.000000	26.318508
1689.000000	26.444886
1688.000000	26.497709
1687.000000	26.528146
1686.000000	26.532778
1685.000000	26.542482
1684.000000	26.655628
1683.000000	26.896364
1682.000000	27.245174
1681.000000	27.722678
1680.000000	28.316855
1679.000000	28.912798
1678.000000	29.492419
1677.000000	30.048110
1676.000000	30.561895
1675.000000	31.008962
1674.000000	31.379055
1673.000000	31.695443
1672.000000	31.979739
1671.000000	32.233158
1670.000000	32.466837
1669.000000	32.659934
1668.000000	32.818293
1667.000000	32.951619
1666.000000	33.078439
1665.000000	33.187394
1664.000000	33.282674
1663.000000	33.357884
1662.000000	33.428131
1661.000000	33.504443
1660.000000	33.553186
1659.000000	33.597628
1658.000000	33.643945
1657.000000	33.651995
1656.000000	33.663354
1655.000000	33.671294
1654.000000	33.690813
1653.000000	33.653760
1652.000000	33.655965
1651.000000	33.622882
1650.000000	33.604024
1649.000000	33.581307
1648.000000	33.522088
1647.000000	33.492864
1646.000000	33.433314
1645.000000	33.390857
1644.000000	33.345091
1643.000000	33.288739
1642.000000	33.236909
1641.000000	33.168426
1640.000000	33.108876
1639.000000	33.053957
1638.000000	32.981725
1637.000000	32.916441
1636.000000	32.837482
1635.000000	32.792157
1634.000000	32.700186
1633.000000	32.620565
1632.000000	32.541165
1631.000000	32.450626
1630.000000	32.373873
1629.000000	32.315315
1628.000000	32.214742
1627.000000	32.136996
1626.000000	32.041826
1625.000000	31.943458
1624.000000	31.860639
1623.000000	31.782121
1622.000000	31.706801
1621.000000	31.613947
1620.000000	31.528372
1619.000000	31.439377
1618.000000	31.367807
1617.000000	31.294472
1616.000000	31.219042
1615.000000	31.132143
1614.000000	31.048883
1613.000000	30.990325
1612.000000	30.904198
1611.000000	30.834282
1610.000000	30.775834
1609.000000	30.696986
1608.000000	30.619901
1607.000000	30.545243
1606.000000	30.473011
1605.000000	30.394934
1604.000000	30.325018
1603.000000	30.236354
1602.000000	30.168975
1601.000000	30.099389
1600.000000	30.023738
1599.000000	29.953602
1598.000000	29.881149
1597.000000	29.824907
1596.000000	29.790059
1595.000000	29.729296
1594.000000	29.654858
1593.000000	29.600822
1592.000000	29.546235
1591.000000	29.496168
1590.000000	29.460769
1589.000000	29.426142
1588.000000	29.384567
1587.000000	29.329759
1586.000000	29.286089
1585.000000	29.260835
1584.000000	29.235140
1583.000000	29.208122
1582.000000	29.196543
1581.000000	29.165996
1580.000000	29.151219
1579.000000	29.151550
1578.000000	29.148572
1577.000000	29.147469
1576.000000	29.143058
1575.000000	29.149344
1574.000000	29.173385
1573.000000	29.195109
1572.000000	29.204704
1571.000000	29.226980
1570.000000	29.255652
1569.000000	29.276495
1568.000000	29.308255
1567.000000	29.343985
1566.000000	29.390191
1565.000000	29.434854
1564.000000	29.457681
1563.000000	29.473451
1562.000000	29.496940
1561.000000	29.534325
1560.000000	29.569393
1559.000000	29.591669
1558.000000	29.604903
1557.000000	29.615269
1556.000000	29.613835
1555.000000	29.622547
1554.000000	29.634678
1553.000000	29.636773
1552.000000	29.632362
1551.000000	29.626848
1550.000000	29.620121
1549.000000	29.606336
1548.000000	29.583509
1547.000000	29.581524
1546.000000	29.589243
1545.000000	29.572591
1544.000000	29.569614
1543.000000	29.564320
1542.000000	29.562776
1541.000000	29.567077
1540.000000	29.575348
1539.000000	29.578546
1538.000000	29.574797
1537.000000	29.596521
1536.000000	29.606557
1535.000000	29.605013
1534.000000	29.603028
1533.000000	29.587589
1532.000000	29.581413
1531.000000	29.586596
1530.000000	29.579759
1529.000000	29.569172
1528.000000	29.559578
1527.000000	29.552190
1526.000000	29.529362
1525.000000	29.499256
1524.000000	29.485471
1523.000000	29.479737
1522.000000	29.466724
1521.000000	29.444448
1520.000000	29.413129
1519.000000	29.401991
1518.000000	29.371334
1517.000000	29.354792
1516.000000	29.342000
1515.000000	29.312335
1514.000000	29.278039
1513.000000	29.257637
1512.000000	29.234258
1511.000000	29.216724
1510.000000	29.188162
1509.000000	29.154307
1508.000000	29.112622
1507.000000	29.089904
1506.000000	29.065643
1505.000000	29.040389
1504.000000	29.024951
1503.000000	29.000689
1502.000000	28.977090
1501.000000	28.956027
1500.000000	28.943676
1499.000000	28.932096
1498.000000	28.906953
1497.000000	28.908938
1496.000000	28.910813
1495.000000	28.906843
1494.000000	28.924818
1493.000000	28.934633
1492.000000	28.942573
1491.000000	28.954814
1490.000000	28.954924
1489.000000	28.976318
1488.000000	29.005762
1487.000000	29.027046
1486.000000	29.048329
1485.000000	29.064430
1484.000000	29.075789
1483.000000	29.120120
1482.000000	29.174046
1481.000000	29.199410
1480.000000	29.219481
1479.000000	29.265577
1478.000000	29.307924
1477.000000	29.341559
1476.000000	29.387434
1475.000000	29.435185
1474.000000	29.508078
1473.000000	29.564100
1472.000000	29.638868
1471.000000	29.685957
1470.000000	29.727201
1469.000000	29.782671
1468.000000	29.832296
1467.000000	29.907285
1466.000000	29.970915
1465.000000	30.029583
1464.000000	30.099720
1463.000000	30.184083
1462.000000	30.255322
1461.000000	30.337038
1460.000000	30.439376
1459.000000	30.514696
1458.000000	30.621004
1457.000000	30.748927
1456.000000	30.865490
1455.000000	30.988009
1454.000000	31.102588
1453.000000	31.223343
1452.000000	31.381591
1451.000000	31.500030
1450.000000	31.621115
1449.000000	31.726541
1448.000000	31.855125
1447.000000	32.016683
1446.000000	32.213088
1445.000000	32.308809
1444.000000	32.455258
1443.000000	32.590790
1442.000000	32.732166
1441.000000	32.895047
1440.000000	33.030248
1439.000000	33.166551
1438.000000	33.344871
1437.000000	33.455700
1436.000000	33.586269
1435.000000	33.725330
1434.000000	33.877072
1433.000000	34.018118
1432.000000	34.162472
1431.000000	34.312671
1430.000000	34.444012
1429.000000	34.638983
1428.000000	34.841233
1427.000000	35.041057
1426.000000	35.236139
1425.000000	35.461657
1424.000000	35.742645
1423.000000	35.917216
1422.000000	36.127957
1421.000000	36.384794
1420.000000	36.645822
1419.000000	36.887221
1418.000000	37.074032
1417.000000	37.249925
1416.000000	37.501580
1415.000000	37.756542
1414.000000	37.983384
1413.000000	38.147147
1412.000000	38.326128
1411.000000	38.610094
1410.000000	38.904095
1409.000000	39.211992
1408.000000	39.536319
1407.000000	39.890973
1406.000000	40.265146
1405.000000	40.646047
1404.000000	40.982946
1403.000000	41.391747
1402.000000	41.751694
1401.000000	42.181227
1400.000000	42.515921
1399.000000	42.706040
1398.000000	42.864068
1397.000000	43.136234
1396.000000	43.391307
1395.000000	43.550549
1394.000000	43.621347
1393.000000	43.720267
1392.000000	43.874656
1391.000000	43.995079
1390.000000	44.149028
1389.000000	44.366055
1388.000000	44.642411
1387.000000	44.854366
1386.000000	45.148477
1385.000000	45.504124
1384.000000	45.914027
1383.000000	46.230745
1382.000000	46.512726
1381.000000	46.696229
1380.000000	46.727438
1379.000000	46.846207
1378.000000	46.869476
1377.000000	46.954831
1376.000000	47.063675
1375.000000	47.246847
1374.000000	47.485489
1373.000000	47.816323
1372.000000	48.208471
1371.000000	48.560038
1370.000000	48.874881
1369.000000	49.195790
1368.000000	49.508980
1367.000000	49.719280
1366.000000	49.923625
1365.000000	50.157966
1364.000000	50.323383
1363.000000	50.468619
1362.000000	50.650467
1361.000000	50.758099
1360.000000	50.771994
1359.000000	50.802651
1358.000000	50.919215
1357.000000	51.071068
1356.000000	51.351394
1355.000000	51.738470
1354.000000	52.258321
1353.000000	52.827466
1352.000000	53.403227
1351.000000	53.971490
1350.000000	54.482077
1349.000000	54.941274
1348.000000	55.386577
1347.000000	55.771227
1346.000000	56.117720
1345.000000	56.505678
1344.000000	56.844562
1343.000000	57.123125
1342.000000	57.416795
1341.000000	57.712340
1340.000000	57.965649
1339.000000	58.229213
1338.000000	58.484617
1337.000000	58.703629
1336.000000	58.912165
1335.000000	59.111217
1334.000000	59.310930
1333.000000	59.492889
1332.000000	59.661945
1331.000000	59.837397
1330.000000	59.977671
1329.000000	60.111328
1328.000000	60.251932
1327.000000	60.376877
1326.000000	60.490353
1325.000000	60.594897
1324.000000	60.702197
1323.000000	60.796816
1322.000000	60.889560
1321.000000	60.968739
1320.000000	61.050014
1319.000000	61.135590
1318.000000	61.206719
1317.000000	61.272555
1316.000000	61.334752
1315.000000	61.397169
1314.000000	61.465873
1313.000000	61.520129
1312.000000	61.562255
1311.000000	61.604823
1310.000000	61.636252
1309.000000	61.663491
1308.000000	61.703632
1307.000000	61.750831
1306.000000	61.778400
1305.000000	61.775864
1304.000000	61.778952
1303.000000	61.786892
1302.000000	61.793067
1301.000000	61.777408
1300.000000	61.775533
1299.000000	61.770901
1298.000000	61.739252
1297.000000	61.721056
1296.000000	61.712454
1295.000000	61.695802
1294.000000	61.668674
1293.000000	61.635039
1292.000000	61.601073
1291.000000	61.565454
1290.000000	61.534135
1289.000000	61.491347
1288.000000	61.432348
1287.000000	61.366402
1286.000000	61.286891
1285.000000	61.222820
1284.000000	61.142979
1283.000000	61.063578
1282.000000	61.009211
1281.000000	60.943927
1280.000000	60.866953
1279.000000	60.786009
1278.000000	60.726569
1277.000000	60.664813
1276.000000	60.591919
1275.000000	60.526304
1274.000000	60.482965
1273.000000	60.439184
1272.000000	60.404006
1271.000000	60.363092
1270.000000	60.318320
1269.000000	60.269025
1268.000000	60.229987
1267.000000	60.185876
1266.000000	60.127208
1265.000000	60.068540
1264.000000	60.023988
1263.000000	59.962011
1262.000000	59.918452
1261.000000	59.879413
1260.000000	59.823723
1259.000000	59.783361
1258.000000	59.719951
1257.000000	59.672201
1256.000000	59.607137
1255.000000	59.554203
1254.000000	59.483956
1253.000000	59.419885
1252.000000	59.336735
1251.000000	59.267150
1250.000000	59.182236
1249.000000	59.081662
1248.000000	58.965429
1247.000000	58.870259
1246.000000	58.774758
1245.000000	58.632610
1244.000000	58.495865
1243.000000	58.355812
1242.000000	58.221273
1241.000000	58.068207
1240.000000	57.896945
1239.000000	57.741674
1238.000000	57.581219
1237.000000	57.417236
1236.000000	57.237814
1235.000000	57.074271
1234.000000	56.879741
1233.000000	56.696128
1232.000000	56.550010
1231.000000	56.357023
1230.000000	56.173080
1229.000000	55.991341
1228.000000	55.823829
1227.000000	55.644738
1226.000000	55.436202
1225.000000	55.271777
1224.000000	55.108015
1223.000000	54.930136
1222.000000	54.774313
1221.000000	54.616726
1220.000000	54.440281
1219.000000	54.299015
1218.000000	54.185539
1217.000000	54.051772
1216.000000	53.925614
1215.000000	53.795706
1214.000000	53.689398
1213.000000	53.568203
1212.000000	53.471048
1211.000000	53.381061
1210.000000	53.280929
1209.000000	53.194030
1208.000000	53.115291
1207.000000	53.041846
1206.000000	53.001594
1205.000000	52.977554
1204.000000	52.966857
1203.000000	52.934545
1202.000000	52.912931
1201.000000	52.884479
1200.000000	52.824267
1199.000000	52.749499
1198.000000	52.647051
1197.000000	52.481854
1196.000000	52.298241
1195.000000	52.037213
1194.000000	51.695241
1193.000000	51.308717
1192.000000	50.860768
1191.000000	50.371243
1190.000000	49.925169
1189.000000	49.514935
1188.000000	49.212442
1187.000000	49.058935
1186.000000	49.012508
1185.000000	49.104811
1184.000000	49.300113
1183.000000	49.667339
1182.000000	50.120471
1181.000000	50.630507
1180.000000	51.150578
1179.000000	51.641536
1178.000000	52.055850
1177.000000	52.437964
1176.000000	52.729869
1175.000000	53.018577
1174.000000	53.324268
1173.000000	53.650360
1172.000000	53.977224
1171.000000	54.292178
1170.000000	54.652677
1169.000000	55.004353
1168.000000	55.365293
1167.000000	55.730865
1166.000000	56.096547
1165.000000	56.473918
1164.000000	56.867721
1163.000000	57.220941
1162.000000	57.614193
1161.000000	57.985940
1160.000000	58.308613
1159.000000	58.647718
1158.000000	58.966201
1157.000000	59.244763
1156.000000	59.485610
1155.000000	59.663379
1154.000000	59.811813
1153.000000	59.884817
1152.000000	59.917018
1151.000000	59.897168
1150.000000	59.880957
1149.000000	59.851072
1148.000000	59.838390
1147.000000	59.877980
1146.000000	59.981531
1145.000000	60.167900
1144.000000	60.412387
1143.000000	60.681465
1142.000000	60.990905
1141.000000	61.331554
1140.000000	61.642979
1139.000000	61.971938
1138.000000	62.332327
1137.000000	62.692715
1136.000000	63.081445
1135.000000	63.431137
1134.000000	63.747524
1133.000000	63.976241
1132.000000	64.231645
1131.000000	64.494107
1130.000000	64.714111
1129.000000	64.917795
1128.000000	65.043291
1127.000000	65.137248
1126.000000	65.238263
1125.000000	65.309171
1124.000000	65.373022
1123.000000	65.424191
1122.000000	65.474037
1121.000000	65.484734
1120.000000	65.507341
1119.000000	65.524103
1118.000000	65.509988
1117.000000	65.489145
1116.000000	65.463009
1115.000000	65.442387
1114.000000	65.409524
1113.000000	65.403790
1112.000000	65.371699
1111.000000	65.365854
1110.000000	65.317994
1109.000000	65.285462
1108.000000	65.250062
1107.000000	65.248629
1106.000000	65.213671
1105.000000	65.187314
1104.000000	65.141659
1103.000000	65.108134
1102.000000	65.075161
1101.000000	65.035902
1100.000000	64.991901
1099.000000	64.944041
1098.000000	64.918456
1097.000000	64.875448
1096.000000	64.835968
1095.000000	64.805311
1094.000000	64.756458
1093.000000	64.703414
1092.000000	64.661619
1091.000000	64.605377
1090.000000	64.565677
1089.000000	64.518257
1088.000000	64.460031
1087.000000	64.411398
1086.000000	64.337291
1085.000000	64.292298
1084.000000	64.246312
1083.000000	64.187754
1082.000000	64.137688
1081.000000	64.088614
1080.000000	64.036012
1079.000000	63.997194
1078.000000	63.946245
1077.000000	63.896731
1076.000000	63.852840
1075.000000	63.803325
1074.000000	63.753810
1073.000000	63.691393
1072.000000	63.627101
1071.000000	63.581005
1070.000000	63.511860
1069.000000	63.465544
1068.000000	63.401582
1067.000000	63.329350
1066.000000	63.273880
1065.000000	63.208927
1064.000000	63.141878
1063.000000	63.074388
1062.000000	62.986165
1061.000000	62.909632
1060.000000	62.844458
1059.000000	62.763734
1058.000000	62.687091
1057.000000	62.605265
1056.000000	62.524652
1055.000000	62.434555
1054.000000	62.357691
1053.000000	62.286010
1052.000000	62.203853
1051.000000	62.134929
1050.000000	62.072181
1049.000000	61.996971
1048.000000	61.936318
1047.000000	61.883606
1046.000000	61.824607
1045.000000	61.762851
1044.000000	61.699882
1043.000000	61.652463
1042.000000	61.595008
1041.000000	61.542295
1040.000000	61.487156
1039.000000	61.426062
1038.000000	61.380848
1037.000000	61.327143
1036.000000	61.268144
1035.000000	61.204514
1034.000000	61.138237
1033.000000	61.076701
1032.000000	61.012189
1031.000000	60.967747
1030.000000	60.902683
1029.000000	60.823503
1028.000000	60.774871
1027.000000	60.726569
1026.000000	60.652572
1025.000000	60.598536
1024.000000	60.533141
1023.000000	60.452969
1022.000000	60.406873
1021.000000	60.353167
1020.000000	60.289427
1019.000000	60.227671
1018.000000	60.168231
1017.000000	60.124451
1016.000000	60.077252
1015.000000	60.037662
1014.000000	60.015386
1013.000000	59.990684
1012.000000	59.978002
1011.000000	59.982303
1010.000000	59.980648
1009.000000	59.989471
1008.000000	59.995646
1007.000000	59.997631
1006.000000	60.011967
1005.000000	60.022885
1004.000000	60.024980
1003.000000	60.039757
1002.000000	60.053983
1001.000000	60.067878
1000.000000	60.097874
999.000000	60.111769
998.000000	60.119268
997.000000	60.130957
996.000000	60.148602
995.000000	60.167570
994.000000	60.197675
993.000000	60.223701
992.000000	60.217856
991.000000	60.237155
990.000000	60.267481
989.000000	60.282259
988.000000	60.312254
987.000000	60.324605
986.000000	60.339934
985.000000	60.380406
984.000000	60.388898
983.000000	60.408527
982.000000	60.454844
981.000000	60.485832
980.000000	60.499837
979.000000	60.533362
978.000000	60.559608
977.000000	60.577363
976.000000	60.579348
975.000000	60.612541
974.000000	60.629304
973.000000	60.668452
972.000000	60.684663
971.000000	60.719621
970.000000	60.737266
969.000000	60.778069
968.000000	60.804094
967.000000	60.840486
966.000000	60.878422
965.000000	60.928598
964.000000	60.963336
963.000000	61.018034
962.000000	61.079679
961.000000	61.154006
960.000000	61.225577
959.000000	61.301669
958.000000	61.384046
957.000000	61.464439
956.000000	61.562697
955.000000	61.657756
954.000000	61.751162
953.000000	61.825048
952.000000	61.929040
951.000000	62.024982
950.000000	62.143862
949.000000	62.227894
948.000000	62.340377
947.000000	62.448780
946.000000	62.576372
945.000000	62.708375
944.000000	62.813359
943.000000	62.942164
942.000000	63.067771
941.000000	63.217639
940.000000	63.350193
939.000000	63.476351
938.000000	63.641658
937.000000	63.785129
936.000000	63.932902
935.000000	64.089166
934.000000	64.235284
933.000000	64.401363
932.000000	64.508553
931.000000	64.656546
930.000000	64.820640
929.000000	64.930366
928.000000	65.091703
927.000000	65.238263
926.000000	65.360230
925.000000	65.510649
924.000000	65.649379
923.000000	65.793071
922.000000	65.945586
921.000000	66.122582
920.000000	66.250174
919.000000	66.404342
918.000000	66.556857
917.000000	66.730214
916.000000	66.911180
915.000000	67.073730
914.000000	67.254696
913.000000	67.457497
912.000000	67.626333
911.000000	67.824282
910.000000	67.999624
909.000000	68.245433
908.000000	68.528848
907.000000	68.758667
906.000000	69.034252
905.000000	69.301676
904.000000	69.589502
903.000000	69.961249
902.000000	70.243120
901.000000	70.580129
900.000000	70.900928
899.000000	71.206729
898.000000	71.544400
897.000000	71.947025
896.000000	72.270140
895.000000	72.620824
894.000000	72.943166
893.000000	73.255694
892.000000	73.583881
891.000000	73.899938
890.000000	74.198350
889.000000	74.528964
888.000000	74.832670
887.000000	75.083773
886.000000	75.372260
885.000000	75.632957
884.000000	75.898948
883.000000	76.123253
882.000000	76.350757
881.000000	76.587082
880.000000	76.810285
879.000000	76.997758
878.000000	77.108587
877.000000	77.316792
876.000000	77.447912
875.000000	77.552566
874.000000	77.705191
873.000000	77.827710
872.000000	77.874247
871.000000	77.966219
870.000000	78.008676
869.000000	78.062823
868.000000	78.067013
867.000000	78.164058
866.000000	78.189422
865.000000	78.122373
864.000000	78.127776
863.000000	78.026982
862.000000	77.979011
861.000000	77.827600
860.000000	77.713241
859.000000	77.378989
858.000000	78.405567
857.000000	78.144900
856.000000	78.014200
855.000000	79.057600
854.000000	79.146100
853.000000	79.996700
852.000000	80.684200
851.000000	81.275400
850.000000	81.723800
849.000000	81.992100
848.000000	82.819800
847.000000	83.437000
846.000000	83.956200
845.000000	84.785100
844.000000	85.115700
843.000000	85.710800
842.000000	86.334500
841.000000	86.734100
840.000000	87.180500
839.000000	87.834000
838.000000	87.884800
837.000000	88.103100
836.000000	88.523600
835.000000	88.725700
834.000000	89.097600
833.000000	89.424300
832.000000	89.609700
831.000000	89.622800
830.000000	89.906500
829.000000	89.987800
828.000000	90.003800
827.000000	90.099600
826.000000	90.111500
825.000000	90.197200
824.000000	90.225200
823.000000	90.296600
822.000000	90.096500
821.000000	90.296700
820.000000	90.387200
819.000000	90.453700
818.000000	90.549600
817.000000	90.500100
816.000000	90.433700
815.000000	90.758100
814.000000	90.862400
813.000000	90.928600
812.000000	91.128400
811.000000	91.417200
810.000000	91.598900
809.000000	91.893300
808.000000	91.916400
807.000000	92.189700
806.000000	92.477900
805.000000	92.621600
804.000000	92.709900
803.000000	92.934400
802.000000	93.063300
801.000000	93.087200
800.000000	93.208100
799.000000	93.394800
798.000000	93.375800
797.000000	93.206300
796.000000	93.152600
795.000000	93.123400
794.000000	93.070300
793.000000	92.856600
792.000000	92.676200
791.000000	92.626600
790.000000	92.508900
789.000000	92.426000
788.000000	92.286600
787.000000	92.139200
786.000000	91.957000
785.000000	91.877700
784.000000	91.835900
783.000000	91.657100
782.000000	91.392200
781.000000	91.310000
780.000000	91.226700
779.000000	91.139300
778.000000	91.022100
777.000000	90.939100
776.000000	90.982200
775.000000	91.065800
774.000000	91.027900
773.000000	91.112600
772.000000	91.345700
771.000000	91.441100
770.000000	91.483300
769.000000	91.646900
768.000000	91.797900
767.000000	91.813000
766.000000	91.845500
765.000000	92.051000
764.000000	92.115500
763.000000	92.138000
762.000000	92.172900
761.000000	92.134700
760.000000	92.108000
759.000000	92.023700
758.000000	91.956400
757.000000	91.854900
756.000000	91.744100
755.000000	91.697800
754.000000	91.552500
753.000000	91.320000
752.000000	91.191100
751.000000	90.999200
750.000000	90.696600
749.000000	90.418500
748.000000	90.068300
747.000000	89.666300
746.000000	89.299500
745.000000	88.936200
744.000000	88.513200
743.000000	88.006500
742.000000	87.419600
741.000000	86.915000
740.000000	86.415400
739.000000	85.900900
738.000000	85.428000
737.000000	84.873700
736.000000	84.278400
735.000000	83.757400
734.000000	83.266300
733.000000	82.696000
732.000000	82.049700
731.000000	81.469200
730.000000	80.884600
729.000000	80.251700
728.000000	79.685900
727.000000	79.130000
726.000000	78.596000
725.000000	78.051200
724.000000	77.471100
723.000000	76.930000
722.000000	76.475400
721.000000	76.062000
720.000000	75.696400
719.000000	75.280100
718.000000	74.952500
717.000000	74.730700
716.000000	74.434100
715.000000	74.198700
714.000000	74.030100
713.000000	73.875300
712.000000	73.742300
711.000000	73.686900
710.000000	73.626200
709.000000	73.591600
708.000000	73.636800
707.000000	73.649600
706.000000	73.678800
705.000000	73.784700
704.000000	73.889800
703.000000	74.034900
702.000000	74.137800
701.000000	74.246300
700.000000	74.400600
699.000000	74.566000
698.000000	74.707100
697.000000	74.840500
696.000000	74.965300
695.000000	75.081000
694.000000	75.124900
693.000000	75.176700
692.000000	75.300400
691.000000	75.335600
690.000000	75.312700
689.000000	75.347300
688.000000	75.353700
687.000000	75.351000
686.000000	75.359200
685.000000	75.378100
684.000000	75.328200
683.000000	75.291600
682.000000	75.228900
681.000000	75.127900
680.000000	75.056500
679.000000	74.970200
678.000000	74.851200
677.000000	74.677400
676.000000	74.481300
675.000000	74.254300
674.000000	74.004800
673.000000	73.722900
672.000000	73.469800
671.000000	73.100600
670.000000	72.724000
669.000000	72.303200
668.000000	71.848200
667.000000	71.427000
666.000000	71.006700
665.000000	70.493000
664.000000	69.917700
663.000000	69.327200
662.000000	68.685900
661.000000	67.979700
660.000000	67.251900
659.000000	66.454000
658.000000	65.579400
657.000000	64.734700
656.000000	63.870500
655.000000	62.984500
654.000000	62.055500
653.000000	61.145000
652.000000	60.235600
651.000000	59.374000
650.000000	58.547900
649.000000	57.770700
648.000000	57.091100
647.000000	56.537200
646.000000	56.042000
645.000000	55.601900
644.000000	55.266500
643.000000	55.059900
642.000000	55.016100
641.000000	55.022400
640.000000	55.185200
639.000000	55.423500
638.000000	55.766700
637.000000	56.244800
636.000000	56.800200
635.000000	57.499900
634.000000	58.288500
633.000000	59.107500
632.000000	60.116200
631.000000	61.113000
630.000000	62.233400
629.000000	63.386600
628.000000	64.571100
627.000000	65.808800
626.000000	67.064900
625.000000	68.334400
624.000000	69.591200
623.000000	70.850800
622.000000	72.038900
621.000000	73.250800
620.000000	74.388900
619.000000	75.518900
618.000000	76.567500
617.000000	77.496900
616.000000	78.463300
615.000000	79.340500
614.000000	80.221500
613.000000	81.015900
612.000000	81.830900
611.000000	82.572200
610.000000	83.314700
609.000000	84.043800
608.000000	84.700400
607.000000	85.409800
606.000000	86.028000
605.000000	86.670400
604.000000	87.236000
603.000000	87.793200
602.000000	88.270000
601.000000	88.830400
600.000000	89.242000
599.000000	89.635900
598.000000	90.000600
597.000000	90.321100
596.000000	90.569400
595.000000	90.864400
594.000000	91.153900
593.000000	91.355300
592.000000	91.506200
591.000000	91.674300
590.000000	91.817000
589.000000	91.988900
588.000000	92.101200
587.000000	92.163000
586.000000	92.170500
585.000000	92.246400
584.000000	92.251400
583.000000	92.248000
582.000000	92.228800
581.000000	92.156100
580.000000	92.116100
579.000000	92.126200
578.000000	91.997600
577.000000	91.885500
576.000000	91.791100
575.000000	91.665000
574.000000	91.559600
573.000000	91.349900
572.000000	91.240800
571.000000	91.064600
570.000000	90.895000
569.000000	90.665000
568.000000	90.529000
567.000000	90.309100
566.000000	90.033800
565.000000	89.814500
564.000000	89.522400
563.000000	89.235000
562.000000	88.910600
561.000000	88.584900
560.000000	88.258400
559.000000	87.858700
558.000000	87.478000
557.000000	87.102200
556.000000	86.647300
555.000000	86.200500
554.000000	85.750100
553.000000	85.277400
552.000000	84.738100
551.000000	84.174100
550.000000	83.575800
549.000000	82.945800
548.000000	82.334400
547.000000	81.662400
546.000000	80.968700
545.000000	80.221500
544.000000	79.476800
543.000000	78.729400
542.000000	77.930700
541.000000	77.135600
540.000000	76.309100
539.000000	75.444700
538.000000	74.622600
537.000000	73.759100
536.000000	72.859100
535.000000	71.952800
534.000000	70.988900
533.000000	70.003000
532.000000	68.978700
531.000000	67.933200
530.000000	66.843600
529.000000	65.712500
528.000000	64.554200
527.000000	63.375800
526.000000	62.118800
525.000000	60.817300
524.000000	59.462100
523.000000	58.029200
522.000000	56.578200
521.000000	55.103600
520.000000	53.579600
519.000000	52.021600
518.000000	50.477200
517.000000	48.951800
516.000000	47.422400
515.000000	45.892700
514.000000	44.392800
513.000000	42.944700
512.000000	41.560700
511.000000	40.247800
510.000000	39.000300
509.000000	37.823400
508.000000	36.739500
507.000000	35.765500
506.000000	34.883700
505.000000	34.085500
504.000000	33.405700
503.000000	32.814100
502.000000	32.321100
501.000000	31.929200
500.000000	31.660400
499.000000	31.471900
498.000000	31.345700
497.000000	31.291200
496.000000	31.304400
495.000000	31.335700
494.000000	31.400000
493.000000	31.518700
492.000000	31.637200
491.000000	31.741600
490.000000	31.836300
489.000000	31.924500
488.000000	32.017100
487.000000	32.073300
486.000000	32.114300
485.000000	32.149600
484.000000	32.118000
483.000000	32.030100
482.000000	31.874600
481.000000	31.682400
480.000000	31.441900
479.000000	31.131600
478.000000	30.811800
477.000000	30.441500
476.000000	30.004800
475.000000	29.549500
474.000000	29.042900
473.000000	28.496000
472.000000	27.925500
471.000000	27.344400
470.000000	26.734700
469.000000	26.127600
468.000000	25.546300
467.000000	24.970700
466.000000	24.389100
465.000000	23.852800
464.000000	23.366100
463.000000	22.920500
462.000000	22.504400
461.000000	22.172800
460.000000	21.876800
459.000000	21.633500
458.000000	21.460100
457.000000	21.331400
456.000000	21.255600
455.000000	21.244500
454.000000	21.251800
453.000000	21.318100
452.000000	21.426900
451.000000	21.561100
450.000000	21.735800
449.000000	21.901100
448.000000	22.077100
447.000000	22.272200
446.000000	22.484600
445.000000	22.699500
444.000000	22.926600
443.000000	23.111900
442.000000	23.271500
441.000000	23.434100
440.000000	23.577100
439.000000	23.702200
438.000000	23.818000
437.000000	23.916600
436.000000	23.982700
435.000000	24.026000
434.000000	24.070700
433.000000	24.101300
432.000000	24.086000
431.000000	24.050200
430.000000	24.016700
429.000000	23.956900
428.000000	23.868000
427.000000	23.761800
426.000000	23.653800
425.000000	23.521400
424.000000	23.353600
423.000000	23.186200
422.000000	23.001700
421.000000	22.795100
420.000000	22.573600
419.000000	22.340900
418.000000	22.100400
417.000000	21.840500
416.000000	21.556200
415.000000	21.261400
414.000000	20.944600
413.000000	20.626800
412.000000	20.315900
411.000000	19.974300
410.000000	19.607900
409.000000	19.237900
408.000000	18.876500
407.000000	18.495900
406.000000	18.113200
405.000000	17.711800
404.000000	17.297000
403.000000	16.888000
402.000000	16.456000
401.000000	16.049700
400.000000	15.634200
399.000000	15.199000
398.000000	14.749500
397.000000	14.343800
396.000000	13.947500
395.000000	13.534400
394.000000	13.111800
393.000000	12.707800
392.000000	12.319600
391.000000	11.932800
390.000000	11.572300
389.000000	11.214000
388.000000	10.888900
387.000000	10.562700
386.000000	10.235700
385.000000	9.937500
384.000000	9.656800
383.000000	9.394600
382.000000	9.147700
381.000000	8.901100
380.000000	8.671900
379.000000	8.465800
378.000000	8.261500
377.000000	8.074500
376.000000	7.923300
375.000000	7.446600
374.000000	7.410600
373.000000	7.295700
372.000000	7.166400
371.000000	7.094200
370.000000	7.082800
369.000000	6.967400
368.000000	6.913500
367.000000	6.822800
366.000000	6.722900
365.000000	6.702000
364.000000	6.587100
363.000000	6.525300
362.000000	6.591100
361.000000	6.474500
360.000000	6.481500
359.000000	6.378500
358.000000	6.327200
357.000000	6.314500
356.000000	6.157800
355.000000	6.082200
354.000000	5.948400
353.000000	5.887400
352.000000	5.960700
351.000000	5.879300
350.000000	5.862100
349.000000	5.872200
348.000000	5.896000
347.000000	5.833000
346.000000	5.836700
345.000000	5.800400
344.000000	5.838300
343.000000	5.792000
342.000000	6.041700
341.000000	5.809600
340.000000	5.535300
339.000000	5.653000
338.000000	5.742100
337.000000	5.599100
336.000000	5.669800
335.000000	5.749400
334.000000	5.651300
333.000000	5.588000
332.000000	5.684900
331.000000	5.775400
330.000000	5.817300
329.000000	5.704400
328.000000	6.058200
327.000000	5.854800
326.000000	5.824200
325.000000	5.776900
324.000000	6.010800
323.000000	6.011000
322.000000	5.715700
321.000000	5.669800
320.000000	5.673400
319.000000	5.717100
318.000000	5.730300
317.000000	6.195600
316.000000	5.693700
315.000000	5.615000
314.000000	5.549900
313.000000	5.653600
312.000000	5.595700
311.000000	5.582900
310.000000	5.645300
309.000000	5.638700
308.000000	5.693300
307.000000	5.657700
306.000000	5.599900
305.000000	5.676400
304.000000	5.654500
303.000000	5.743900
302.000000	5.673100
301.000000	5.660300
300.000000	5.749400
299.000000	5.697500
298.000000	5.664100
297.000000	5.727600
296.000000	5.720200
295.000000	5.817000
294.000000	5.767400
293.000000	5.761200
292.000000	5.790800
291.000000	5.752700
290.000000	5.787800
289.000000	5.789000
288.000000	5.806300
287.000000	5.836900
286.000000	5.887200
285.000000	5.871900
284.000000	5.882600
283.000000	5.908200
282.000000	5.901200
281.000000	5.833800
280.000000	5.948300
279.000000	5.911200
278.000000	5.950100
277.000000	5.899300
276.000000	6.017000
275.000000	5.952000
274.000000	6.006100
273.000000	5.933000
272.000000	5.963600
271.000000	5.991800
270.000000	6.058700
269.000000	6.023000
268.000000	6.032200
267.000000	6.017500
266.000000	6.108000
265.000000	6.154400
264.000000	6.192700
263.000000	6.188700
262.000000	6.137500
261.000000	6.208900
260.000000	6.231700
259.000000	6.306700
258.000000	6.262800
257.000000	6.285000
256.000000	6.263600
255.000000	6.310900
254.000000	6.329700
253.000000	6.358700
252.000000	6.344200
251.000000	6.371800
250.000000	6.379900
