PE UV       SUBTECH     SPECTRUM    ASCII       PEDS        4.00        
   -1
M.HIRT.DIUR-TX3.ASC
23/11/30
14:37:47.00
23/11/30
14:37:47.00
Vinicio Soto Monge
MACRASPIS HIRTIVENTIS DIURNA
250,000000
1
Lambda 1050
1050L1511233
PerkinElmer UV WinLab 6.3.2.0749 / 2.02.05 Lambda 900 UV/VIS/NIR, Aug  7 2015 09:38:08

0
0
3350/servo 860,8/2
0
0
UV/VIS
1
1
1
DoubleDePol,CommonBeamDepol,RBeamAtt,SBeamAtt,60mm sphere, WB InGaAs Detector
0
0
0
0
Program
Program
3350/servo 860,8/2
3350/0,4 860,8/0,4
3350/0,4 860,8/0,4
0
20.00
 
 
 
0
 
860,8
319,2
860,8
Front
100
on
S:100 R:100
0
0
0
0
 
0
 
 
 
0
 
 
0
0
0
0
0
 
 
 
 
0
0


0
0
#HDR
-1
-1
#GR
nm
%A
1.0
0.0
2200,000000
-1,000000
1951
8
47,460125
0,241152
#DATA
284.000000	94.593986
285.000000	94.605755
286.000000	94.615261
287.000000	94.622673
288.000000	94.629054
289.000000	94.635174
290.000000	94.640886
291.000000	94.647168
292.000000	94.653511
293.000000	94.656289
294.000000	94.659805
295.000000	94.662127
296.000000	94.663799
297.000000	94.664921
298.000000	94.665734
299.000000	94.666856
300.000000	94.665750
301.000000	94.665067
302.000000	94.663300
303.000000	94.663086
304.000000	94.661630
305.000000	94.660309
306.000000	94.657458
307.000000	94.655653
308.000000	94.652832
309.000000	94.650861
310.000000	94.649293
311.000000	94.646718
312.000000	94.643859
313.000000	94.642557
314.000000	94.641257
315.000000	94.636859
316.000000	94.636117
317.000000	94.638280
318.000000	94.640897
319.000000	94.644090
320.000000	94.650046
321.000000	94.656009
322.000000	94.657559
323.000000	94.662658
324.000000	94.668588
325.000000	94.672490
326.000000	94.678696
327.000000	94.685625
328.000000	94.693226
329.000000	94.701714
330.000000	94.710354
331.000000	94.719513
332.000000	94.729316
333.000000	94.737725
334.000000	94.746633
335.000000	94.757439
336.000000	94.768398
337.000000	94.780397
338.000000	94.790652
339.000000	94.802089
340.000000	94.811721
341.000000	94.821565
342.000000	94.833095
343.000000	94.843421
344.000000	94.851280
345.000000	94.859772
346.000000	94.869819
347.000000	94.880068
348.000000	94.889693
349.000000	94.900257
350.000000	94.912623
351.000000	94.922761
352.000000	94.929349
353.000000	94.933915
354.000000	94.940048
355.000000	94.941399
356.000000	94.942645
357.000000	94.950273
358.000000	94.954057
359.000000	94.957097
360.000000	94.962210
361.000000	94.965346
362.000000	94.967719
363.000000	94.969729
364.000000	94.971888
365.000000	94.975618
366.000000	94.977528
367.000000	94.978996
368.000000	94.981686
369.000000	94.984302
370.000000	94.986559
371.000000	94.988963
372.000000	94.989825
373.000000	94.992853
374.000000	94.996313
375.000000	94.999006
376.000000	95.002787
377.000000	95.002797
378.000000	95.004017
379.000000	95.006871
380.000000	95.009969
381.000000	95.011805
382.000000	95.013008
383.000000	95.014892
384.000000	95.016184
385.000000	95.017614
386.000000	95.019801
387.000000	95.022028
388.000000	95.025171
389.000000	95.026599
390.000000	95.029693
391.000000	95.032847
392.000000	95.035671
393.000000	95.038707
394.000000	95.041753
395.000000	95.044741
396.000000	95.047230
397.000000	95.049554
398.000000	95.052476
399.000000	95.054824
400.000000	95.056129
401.000000	95.058466
402.000000	95.061169
403.000000	95.064450
404.000000	95.067035
405.000000	95.069011
406.000000	95.070515
407.000000	95.072730
408.000000	95.073098
409.000000	95.072968
410.000000	95.074469
411.000000	95.075429
412.000000	95.078812
413.000000	95.081997
414.000000	95.084831
415.000000	95.087509
416.000000	95.090154
417.000000	95.092783
418.000000	95.095047
419.000000	95.096937
420.000000	95.098669
421.000000	95.100176
422.000000	95.101404
423.000000	95.102447
424.000000	95.103493
425.000000	95.104271
426.000000	95.104690
427.000000	95.104698
428.000000	95.104589
429.000000	95.104334
430.000000	95.103847
431.000000	95.103269
432.000000	95.102606
433.000000	95.101667
434.000000	95.100424
435.000000	95.098469
436.000000	95.096069
437.000000	95.093441
438.000000	95.090209
439.000000	95.086617
440.000000	95.082408
441.000000	95.077514
442.000000	95.071680
443.000000	95.065304
444.000000	95.058062
445.000000	95.049785
446.000000	95.040418
447.000000	95.029891
448.000000	95.018165
449.000000	95.004985
450.000000	94.990041
451.000000	94.972994
452.000000	94.953900
453.000000	94.932540
454.000000	94.908292
455.000000	94.880919
456.000000	94.850608
457.000000	94.816807
458.000000	94.778937
459.000000	94.736774
460.000000	94.690148
461.000000	94.638540
462.000000	94.580799
463.000000	94.516700
464.000000	94.445762
465.000000	94.367211
466.000000	94.280666
467.000000	94.185388
468.000000	94.081082
469.000000	93.967393
470.000000	93.844826
471.000000	93.713167
472.000000	93.572849
473.000000	93.425195
474.000000	93.271173
475.000000	93.112409
476.000000	92.950367
477.000000	92.786731
478.000000	92.622864
479.000000	92.460606
480.000000	92.301858
481.000000	92.147935
482.000000	92.000424
483.000000	91.860442
484.000000	91.729003
485.000000	91.607894
486.000000	91.497516
487.000000	91.397815
488.000000	91.309086
489.000000	91.232384
490.000000	91.167183
491.000000	91.113012
492.000000	91.070454
493.000000	91.039022
494.000000	91.018538
495.000000	91.008924
496.000000	91.010063
497.000000	91.022286
498.000000	91.045661
499.000000	91.080352
500.000000	91.126817
501.000000	91.185373
502.000000	91.256357
503.000000	91.339694
504.000000	91.435308
505.000000	91.543003
506.000000	91.662318
507.000000	91.792727
508.000000	91.932520
509.000000	92.080545
510.000000	92.235333
511.000000	92.395283
512.000000	92.558714
513.000000	92.723774
514.000000	92.888852
515.000000	93.051797
516.000000	93.211587
517.000000	93.366581
518.000000	93.515666
519.000000	93.658448
520.000000	93.793274
521.000000	93.919829
522.000000	94.038131
523.000000	94.148245
524.000000	94.249685
525.000000	94.342768
526.000000	94.428038
527.000000	94.505666
528.000000	94.576341
529.000000	94.640549
530.000000	94.698782
531.000000	94.751228
532.000000	94.799005
533.000000	94.842104
534.000000	94.881019
535.000000	94.915951
536.000000	94.946924
537.000000	94.974629
538.000000	94.999267
539.000000	95.021499
540.000000	95.041242
541.000000	95.058999
542.000000	95.074698
543.000000	95.088672
544.000000	95.101262
545.000000	95.112461
546.000000	95.122644
547.000000	95.131688
548.000000	95.139707
549.000000	95.146861
550.000000	95.153560
551.000000	95.159633
552.000000	95.165053
553.000000	95.170001
554.000000	95.174070
555.000000	95.178046
556.000000	95.181453
557.000000	95.184537
558.000000	95.187218
559.000000	95.189485
560.000000	95.191811
561.000000	95.193789
562.000000	95.195489
563.000000	95.196792
564.000000	95.197919
565.000000	95.198826
566.000000	95.199699
567.000000	95.199890
568.000000	95.200079
569.000000	95.199990
570.000000	95.199825
571.000000	95.199468
572.000000	95.198636
573.000000	95.197679
574.000000	95.196333
575.000000	95.194841
576.000000	95.193197
577.000000	95.191291
578.000000	95.189613
579.000000	95.187544
580.000000	95.185063
581.000000	95.182305
582.000000	95.179201
583.000000	95.176020
584.000000	95.172569
585.000000	95.168694
586.000000	95.164527
587.000000	95.160154
588.000000	95.155650
589.000000	95.150964
590.000000	95.145496
591.000000	95.139915
592.000000	95.133727
593.000000	95.127454
594.000000	95.120693
595.000000	95.113720
596.000000	95.106645
597.000000	95.099222
598.000000	95.091814
599.000000	95.083993
600.000000	95.075667
601.000000	95.066819
602.000000	95.057587
603.000000	95.047999
604.000000	95.037697
605.000000	95.026821
606.000000	95.015583
607.000000	95.004052
608.000000	94.992083
609.000000	94.979531
610.000000	94.966242
611.000000	94.952468
612.000000	94.938301
613.000000	94.923165
614.000000	94.907797
615.000000	94.892156
616.000000	94.875845
617.000000	94.859143
618.000000	94.841563
619.000000	94.823485
620.000000	94.804787
621.000000	94.785430
622.000000	94.765394
623.000000	94.744321
624.000000	94.722654
625.000000	94.700630
626.000000	94.677589
627.000000	94.654061
628.000000	94.629506
629.000000	94.604377
630.000000	94.578466
631.000000	94.551538
632.000000	94.523802
633.000000	94.495303
634.000000	94.466056
635.000000	94.435859
636.000000	94.404947
637.000000	94.373413
638.000000	94.340809
639.000000	94.307501
640.000000	94.273003
641.000000	94.237587
642.000000	94.201263
643.000000	94.163606
644.000000	94.125124
645.000000	94.085828
646.000000	94.045361
647.000000	94.003884
648.000000	93.961502
649.000000	93.917897
650.000000	93.873079
651.000000	93.827248
652.000000	93.780419
653.000000	93.732521
654.000000	93.683527
655.000000	93.633521
656.000000	93.582385
657.000000	93.530204
658.000000	93.477147
659.000000	93.422614
660.000000	93.366855
661.000000	93.310495
662.000000	93.252481
663.000000	93.193305
664.000000	93.132950
665.000000	93.071410
666.000000	93.008842
667.000000	92.945044
668.000000	92.879845
669.000000	92.813304
670.000000	92.745809
671.000000	92.677175
672.000000	92.607250
673.000000	92.535973
674.000000	92.463351
675.000000	92.389951
676.000000	92.315487
677.000000	92.239531
678.000000	92.162523
679.000000	92.084499
680.000000	92.005248
681.000000	91.924686
682.000000	91.842814
683.000000	91.759487
684.000000	91.675012
685.000000	91.589376
686.000000	91.502704
687.000000	91.415008
688.000000	91.326634
689.000000	91.236946
690.000000	91.145954
691.000000	91.053745
692.000000	90.960315
693.000000	90.865749
694.000000	90.769840
695.000000	90.672506
696.000000	90.573707
697.000000	90.474527
698.000000	90.373869
699.000000	90.272041
700.000000	90.169139
701.000000	90.064944
702.000000	89.959257
703.000000	89.852262
704.000000	89.744335
705.000000	89.635182
706.000000	89.525096
707.000000	89.414180
708.000000	89.301938
709.000000	89.188891
710.000000	89.075015
711.000000	88.959000
712.000000	88.841645
713.000000	88.723787
714.000000	88.604508
715.000000	88.483976
716.000000	88.362605
717.000000	88.240067
718.000000	88.116608
719.000000	87.991762
720.000000	87.865613
721.000000	87.738120
722.000000	87.609343
723.000000	87.479483
724.000000	87.348523
725.000000	87.216811
726.000000	87.083828
727.000000	86.949782
728.000000	86.814507
729.000000	86.678324
730.000000	86.541235
731.000000	86.403083
732.000000	86.263344
733.000000	86.122714
734.000000	85.980683
735.000000	85.837483
736.000000	85.693488
737.000000	85.548837
738.000000	85.403012
739.000000	85.255990
740.000000	85.107537
741.000000	84.958278
742.000000	84.808061
743.000000	84.656759
744.000000	84.503991
745.000000	84.349716
746.000000	84.195644
747.000000	84.041270
748.000000	83.885242
749.000000	83.727894
750.000000	83.570053
751.000000	83.410221
752.000000	83.248654
753.000000	83.085858
754.000000	82.922649
755.000000	82.759498
756.000000	82.595277
757.000000	82.429604
758.000000	82.263234
759.000000	82.096492
760.000000	81.927909
761.000000	81.758308
762.000000	81.587826
763.000000	81.416020
764.000000	81.242969
765.000000	81.069229
766.000000	80.894575
767.000000	80.720212
768.000000	80.544288
769.000000	80.367688
770.000000	80.190804
771.000000	80.011828
772.000000	79.831744
773.000000	79.650015
774.000000	79.469077
775.000000	79.287594
776.000000	79.104409
777.000000	78.919889
778.000000	78.734391
779.000000	78.547137
780.000000	78.360871
781.000000	78.173953
782.000000	77.985184
783.000000	77.794916
784.000000	77.605766
785.000000	77.416315
786.000000	77.224809
787.000000	77.032128
788.000000	76.840946
789.000000	76.648173
790.000000	76.452656
791.000000	76.256583
792.000000	76.060874
793.000000	75.863994
794.000000	75.665363
795.000000	75.467882
796.000000	75.269935
797.000000	75.070800
798.000000	74.870298
799.000000	74.668319
800.000000	74.466518
801.000000	74.264538
802.000000	74.060605
803.000000	73.856201
804.000000	73.650999
805.000000	73.444722
806.000000	73.239497
807.000000	73.033172
808.000000	72.827100
809.000000	72.618706
810.000000	72.410071
811.000000	72.200322
812.000000	71.991046
813.000000	71.781286
814.000000	71.572652
815.000000	71.360405
816.000000	71.148235
817.000000	70.935739
818.000000	70.721375
819.000000	70.506846
820.000000	70.293343
821.000000	70.081374
822.000000	69.867792
823.000000	69.654144
824.000000	69.440456
825.000000	69.226561
826.000000	69.010106
827.000000	68.793768
828.000000	68.576027
829.000000	68.362345
830.000000	68.145776
831.000000	67.927527
832.000000	67.706010
833.000000	67.488154
834.000000	67.269167
835.000000	67.050651
836.000000	66.833795
837.000000	66.616862
838.000000	66.400172
839.000000	66.180085
840.000000	65.957998
841.000000	65.738826
842.000000	65.516576
843.000000	65.297952
844.000000	65.074128
845.000000	64.854642
846.000000	64.636169
847.000000	64.415279
848.000000	64.189404
849.000000	63.961615
850.000000	63.741526
851.000000	63.519555
852.000000	63.300016
853.000000	63.080320
854.000000	62.852468
855.000000	62.627233
856.000000	62.401045
857.000000	62.183100
858.000000	61.981134
859.000000	61.754008
860.000000	61.520309
861.000000	61.288948
862.000000	61.051122
863.000000	60.822782
864.000000	60.587565
865.000000	60.349885
866.000000	60.152166
867.000000	59.918556
868.000000	59.699797
869.000000	59.489361
870.000000	59.260643
871.000000	59.048617
872.000000	58.793461
873.000000	58.540059
874.000000	58.312477
875.000000	58.081048
876.000000	57.835238
877.000000	57.566862
878.000000	57.315748
879.000000	57.067777
880.000000	56.836020
881.000000	56.623612
882.000000	56.386253
883.000000	56.161641
884.000000	55.916530
885.000000	55.668724
886.000000	55.445998
887.000000	55.218612
888.000000	54.975527
889.000000	54.754947
890.000000	54.495907
891.000000	54.253774
892.000000	54.004562
893.000000	53.749134
894.000000	53.516544
895.000000	53.295906
896.000000	53.048519
897.000000	52.839023
898.000000	52.618962
899.000000	52.392121
900.000000	52.176919
901.000000	51.919022
902.000000	51.726636
903.000000	51.480481
904.000000	51.241140
905.000000	51.028731
906.000000	50.791506
907.000000	50.593657
908.000000	50.393630
909.000000	50.175175
910.000000	49.945681
911.000000	49.725339
912.000000	49.565993
913.000000	49.343237
914.000000	49.134410
915.000000	48.916317
916.000000	48.685537
917.000000	48.458493
918.000000	48.232392
919.000000	48.032712
920.000000	47.828297
921.000000	47.596320
922.000000	47.403003
923.000000	47.200614
924.000000	46.961533
925.000000	46.779615
926.000000	46.583041
927.000000	46.412674
928.000000	46.204562
929.000000	46.005402
930.000000	45.813035
931.000000	45.652327
932.000000	45.448271
933.000000	45.241931
934.000000	45.019938
935.000000	44.803547
936.000000	44.610747
937.000000	44.411480
938.000000	44.241207
939.000000	44.035237
940.000000	43.793144
941.000000	43.588635
942.000000	43.372391
943.000000	43.156707
944.000000	42.948149
945.000000	42.756191
946.000000	42.606272
947.000000	42.373494
948.000000	42.214596
949.000000	42.060866
950.000000	41.885985
951.000000	41.699754
952.000000	41.515097
953.000000	41.330473
954.000000	41.128141
955.000000	40.931786
956.000000	40.749082
957.000000	40.539490
958.000000	40.341921
959.000000	40.160156
960.000000	39.965374
961.000000	39.793697
962.000000	39.572916
963.000000	39.382143
964.000000	39.187361
965.000000	38.964992
966.000000	38.752236
967.000000	38.564403
968.000000	38.372165
969.000000	38.212814
970.000000	38.048027
971.000000	37.864683
972.000000	37.668341
973.000000	37.485058
974.000000	37.300244
975.000000	37.137092
976.000000	36.958885
977.000000	36.801573
978.000000	36.636543
979.000000	36.473237
980.000000	36.297482
981.000000	36.083510
982.000000	35.907121
983.000000	35.720336
984.000000	35.496500
985.000000	35.256266
986.000000	35.055897
987.000000	34.880789
988.000000	34.696718
989.000000	34.503691
990.000000	34.327964
991.000000	34.178608
992.000000	34.016345
993.000000	33.852786
994.000000	33.685241
995.000000	33.499150
996.000000	33.309427
997.000000	33.152870
998.000000	32.970781
999.000000	32.787216
1000.000000	32.639322
1001.000000	32.480616
1002.000000	32.308148
1003.000000	32.147804
1004.000000	31.978161
1005.000000	31.791171
1006.000000	31.607193
1007.000000	31.433696
1008.000000	31.256643
1009.000000	31.112017
1010.000000	30.968483
1011.000000	30.814862
1012.000000	30.642747
1013.000000	30.480345
1014.000000	30.313433
1015.000000	30.171670
1016.000000	30.018314
1017.000000	29.871355
1018.000000	29.715782
1019.000000	29.579262
1020.000000	29.477324
1021.000000	29.326132
1022.000000	29.185964
1023.000000	29.059298
1024.000000	28.950344
1025.000000	28.812536
1026.000000	28.623450
1027.000000	28.434153
1028.000000	28.258555
1029.000000	28.103996
1030.000000	27.984432
1031.000000	27.853256
1032.000000	27.712137
1033.000000	27.589029
1034.000000	27.463207
1035.000000	27.320355
1036.000000	27.159483
1037.000000	27.022059
1038.000000	26.880243
1039.000000	26.743867
1040.000000	26.625175
1041.000000	26.504303
1042.000000	26.359550
1043.000000	26.206409
1044.000000	26.062007
1045.000000	25.910859
1046.000000	25.760935
1047.000000	25.635516
1048.000000	25.530565
1049.000000	25.418041
1050.000000	25.278126
1051.000000	25.149038
1052.000000	25.047992
1053.000000	24.936586
1054.000000	24.803922
1055.000000	24.655420
1056.000000	24.535834
1057.000000	24.402956
1058.000000	24.275199
1059.000000	24.153148
1060.000000	24.020194
1061.000000	23.909768
1062.000000	23.834368
1063.000000	23.739715
1064.000000	23.653661
1065.000000	23.530151
1066.000000	23.382823
1067.000000	23.238238
1068.000000	23.103171
1069.000000	22.956683
1070.000000	22.824797
1071.000000	22.714964
1072.000000	22.591745
1073.000000	22.485640
1074.000000	22.373453
1075.000000	22.241025
1076.000000	22.124188
1077.000000	22.006776
1078.000000	21.915182
1079.000000	21.821715
1080.000000	21.742426
1081.000000	21.624486
1082.000000	21.525569
1083.000000	21.345740
1084.000000	21.184300
1085.000000	21.048955
1086.000000	20.927900
1087.000000	20.805502
1088.000000	20.666044
1089.000000	20.561054
1090.000000	20.464579
1091.000000	20.355812
1092.000000	20.268370
1093.000000	20.179053
1094.000000	20.055443
1095.000000	19.931986
1096.000000	19.810842
1097.000000	19.658028
1098.000000	19.547815
1099.000000	19.409034
1100.000000	19.299731
1101.000000	19.190721
1102.000000	19.071661
1103.000000	18.990222
1104.000000	18.910472
1105.000000	18.822752
1106.000000	18.708270
1107.000000	18.582134
1108.000000	18.467568
1109.000000	18.393343
1110.000000	18.302213
1111.000000	18.171646
1112.000000	18.061502
1113.000000	17.947118
1114.000000	17.821401
1115.000000	17.691403
1116.000000	17.650351
1117.000000	17.571785
1118.000000	17.500188
1119.000000	17.432232
1120.000000	17.377948
1121.000000	17.276905
1122.000000	17.182899
1123.000000	17.078390
1124.000000	16.978092
1125.000000	16.890691
1126.000000	16.815415
1127.000000	16.677102
1128.000000	16.526580
1129.000000	16.430755
1130.000000	16.362220
1131.000000	16.280703
1132.000000	16.223581
1133.000000	16.101091
1134.000000	15.995204
1135.000000	15.897689
1136.000000	15.861468
1137.000000	15.787331
1138.000000	15.676962
1139.000000	15.608273
1140.000000	15.536126
1141.000000	15.494916
1142.000000	15.448518
1143.000000	15.371495
1144.000000	15.286303
1145.000000	15.210551
1146.000000	15.144925
1147.000000	15.092800
1148.000000	15.028982
1149.000000	14.953761
1150.000000	14.899975
1151.000000	14.792451
1152.000000	14.695049
1153.000000	14.644403
1154.000000	14.589863
1155.000000	14.492875
1156.000000	14.458007
1157.000000	14.405371
1158.000000	14.361956
1159.000000	14.332232
1160.000000	14.280832
1161.000000	14.206601
1162.000000	14.181274
1163.000000	14.176538
1164.000000	14.164963
1165.000000	14.116877
1166.000000	14.088095
1167.000000	14.042730
1168.000000	14.042776
1169.000000	14.053843
1170.000000	14.081234
1171.000000	14.050922
1172.000000	14.052063
1173.000000	14.030397
1174.000000	13.974214
1175.000000	13.959089
1176.000000	13.920546
1177.000000	13.884280
1178.000000	13.868895
1179.000000	13.809717
1180.000000	13.779404
1181.000000	13.753281
1182.000000	13.706727
1183.000000	13.656373
1184.000000	13.655642
1185.000000	13.641322
1186.000000	13.622384
1187.000000	13.577672
1188.000000	13.544117
1189.000000	13.503554
1190.000000	13.489795
1191.000000	13.440116
1192.000000	13.380858
1193.000000	13.348053
1194.000000	13.302642
1195.000000	13.269948
1196.000000	13.226539
1197.000000	13.189450
1198.000000	13.118229
1199.000000	13.043350
1200.000000	12.981330
1201.000000	12.928708
1202.000000	12.869615
1203.000000	12.825253
1204.000000	12.754784
1205.000000	12.636795
1206.000000	12.552558
1207.000000	12.486807
1208.000000	12.450589
1209.000000	12.420711
1210.000000	12.365565
1211.000000	12.299921
1212.000000	12.237177
1213.000000	12.157249
1214.000000	12.106715
1215.000000	12.066602
1216.000000	12.026039
1217.000000	11.975780
1218.000000	11.922119
1219.000000	11.844400
1220.000000	11.783830
1221.000000	11.749124
1222.000000	11.682427
1223.000000	11.635097
1224.000000	11.583872
1225.000000	11.519519
1226.000000	11.465054
1227.000000	11.395774
1228.000000	11.342846
1229.000000	11.282250
1230.000000	11.230019
1231.000000	11.182989
1232.000000	11.136364
1233.000000	11.111504
1234.000000	11.066206
1235.000000	11.043449
1236.000000	11.002004
1237.000000	10.962954
1238.000000	10.901733
1239.000000	10.870629
1240.000000	10.832858
1241.000000	10.766601
1242.000000	10.717518
1243.000000	10.652295
1244.000000	10.573867
1245.000000	10.491410
1246.000000	10.429365
1247.000000	10.388620
1248.000000	10.355632
1249.000000	10.288405
1250.000000	10.225091
1251.000000	10.187251
1252.000000	10.161477
1253.000000	10.119215
1254.000000	10.057849
1255.000000	9.973998
1256.000000	9.891892
1257.000000	9.872752
1258.000000	9.809076
1259.000000	9.732484
1260.000000	9.677709
1261.000000	9.624593
1262.000000	9.588144
1263.000000	9.530281
1264.000000	9.486053
1265.000000	9.433421
1266.000000	9.396518
1267.000000	9.359985
1268.000000	9.304600
1269.000000	9.248116
1270.000000	9.190915
1271.000000	9.152828
1272.000000	9.144439
1273.000000	9.113114
1274.000000	9.041663
1275.000000	8.996993
1276.000000	8.972565
1277.000000	8.921275
1278.000000	8.878379
1279.000000	8.852341
1280.000000	8.819018
1281.000000	8.786492
1282.000000	8.738647
1283.000000	8.690285
1284.000000	8.693753
1285.000000	8.652256
1286.000000	8.587012
1287.000000	8.512101
1288.000000	8.455302
1289.000000	8.415350
1290.000000	8.372133
1291.000000	8.302432
1292.000000	8.241371
1293.000000	8.207646
1294.000000	8.210749
1295.000000	8.201382
1296.000000	8.179984
1297.000000	8.157024
1298.000000	8.125921
1299.000000	8.077898
1300.000000	8.041187
1301.000000	8.014158
1302.000000	7.964796
1303.000000	7.925047
1304.000000	7.888679
1305.000000	7.882052
1306.000000	7.849738
1307.000000	7.757154
1308.000000	7.725245
1309.000000	7.711951
1310.000000	7.682262
1311.000000	7.635533
1312.000000	7.585343
1313.000000	7.561128
1314.000000	7.547507
1315.000000	7.536486
1316.000000	7.504970
1317.000000	7.471825
1318.000000	7.451445
1319.000000	7.419040
1320.000000	7.402664
1321.000000	7.379289
1322.000000	7.371999
1323.000000	7.374836
1324.000000	7.374435
1325.000000	7.373837
1326.000000	7.382703
1327.000000	7.375775
1328.000000	7.350026
1329.000000	7.303731
1330.000000	7.259924
1331.000000	7.240869
1332.000000	7.222729
1333.000000	7.210113
1334.000000	7.194574
1335.000000	7.166108
1336.000000	7.133489
1337.000000	7.124674
1338.000000	7.143861
1339.000000	7.168820
1340.000000	7.161827
1341.000000	7.173027
1342.000000	7.196229
1343.000000	7.194815
1344.000000	7.194545
1345.000000	7.197728
1346.000000	7.197875
1347.000000	7.227764
1348.000000	7.238624
1349.000000	7.239481
1350.000000	7.230425
1351.000000	7.257557
1352.000000	7.329232
1353.000000	7.361973
1354.000000	7.362370
1355.000000	7.390265
1356.000000	7.455608
1357.000000	7.474652
1358.000000	7.483077
1359.000000	7.484816
1360.000000	7.524086
1361.000000	7.493465
1362.000000	7.550317
1363.000000	7.612124
1364.000000	7.651976
1365.000000	7.727702
1366.000000	7.779449
1367.000000	7.818231
1368.000000	7.824392
1369.000000	7.880812
1370.000000	7.879108
1371.000000	7.839907
1372.000000	7.801825
1373.000000	7.794428
1374.000000	7.820400
1375.000000	7.808098
1376.000000	7.773776
1377.000000	7.848740
1378.000000	7.879817
1379.000000	7.912629
1380.000000	7.824272
1381.000000	7.948408
1382.000000	7.956223
1383.000000	8.024459
1384.000000	8.027114
1385.000000	8.009633
1386.000000	8.032983
1387.000000	7.941201
1388.000000	8.008295
1389.000000	8.066913
1390.000000	8.089991
1391.000000	8.116378
1392.000000	8.269220
1393.000000	8.426908
1394.000000	8.526938
1395.000000	8.578206
1396.000000	8.610952
1397.000000	8.675427
1398.000000	8.755735
1399.000000	8.825447
1400.000000	8.864641
1401.000000	8.946801
1402.000000	9.024542
1403.000000	9.182553
1404.000000	9.194864
1405.000000	9.400097
1406.000000	9.587045
1407.000000	9.830802
1408.000000	10.012518
1409.000000	10.146476
1410.000000	10.341013
1411.000000	10.529828
1412.000000	10.652893
1413.000000	10.762366
1414.000000	10.911964
1415.000000	11.229938
1416.000000	11.324273
1417.000000	11.540215
1418.000000	11.637310
1419.000000	11.845749
1420.000000	12.112830
1421.000000	12.315549
1422.000000	12.575960
1423.000000	12.700157
1424.000000	12.884861
1425.000000	13.098309
1426.000000	13.258130
1427.000000	13.336263
1428.000000	13.454542
1429.000000	13.610792
1430.000000	13.791951
1431.000000	14.090178
1432.000000	14.277352
1433.000000	14.423235
1434.000000	14.621437
1435.000000	14.835503
1436.000000	15.011117
1437.000000	15.163977
1438.000000	15.307439
1439.000000	15.558946
1440.000000	15.677976
1441.000000	15.823797
1442.000000	15.907659
1443.000000	16.036190
1444.000000	16.189186
1445.000000	16.288764
1446.000000	16.431995
1447.000000	16.566145
1448.000000	16.730341
1449.000000	16.849925
1450.000000	16.908499
1451.000000	17.029221
1452.000000	17.126523
1453.000000	17.266255
1454.000000	17.388449
1455.000000	17.459328
1456.000000	17.567499
1457.000000	17.682821
1458.000000	17.819608
1459.000000	17.915044
1460.000000	18.013404
1461.000000	18.149222
1462.000000	18.282494
1463.000000	18.364546
1464.000000	18.468910
1465.000000	18.576401
1466.000000	18.636524
1467.000000	18.711897
1468.000000	18.823149
1469.000000	18.873029
1470.000000	18.919821
1471.000000	19.008125
1472.000000	19.140212
1473.000000	19.243091
1474.000000	19.316605
1475.000000	19.385313
1476.000000	19.495291
1477.000000	19.593540
1478.000000	19.672084
1479.000000	19.744400
1480.000000	19.841288
1481.000000	19.906362
1482.000000	19.943714
1483.000000	20.006181
1484.000000	20.106192
1485.000000	20.188124
1486.000000	20.224821
1487.000000	20.283911
1488.000000	20.369091
1489.000000	20.409766
1490.000000	20.476282
1491.000000	20.530230
1492.000000	20.598276
1493.000000	20.625249
1494.000000	20.656831
1495.000000	20.652622
1496.000000	20.654884
1497.000000	20.664831
1498.000000	20.687508
1499.000000	20.721488
1500.000000	20.766817
1501.000000	20.815865
1502.000000	20.827452
1503.000000	20.821287
1504.000000	20.859669
1505.000000	20.883147
1506.000000	20.820862
1507.000000	20.769400
1508.000000	20.709016
1509.000000	20.667081
1510.000000	20.648796
1511.000000	20.618416
1512.000000	20.576786
1513.000000	20.520014
1514.000000	20.473202
1515.000000	20.416376
1516.000000	20.349117
1517.000000	20.304610
1518.000000	20.265423
1519.000000	20.193934
1520.000000	20.164444
1521.000000	20.145393
1522.000000	20.080353
1523.000000	19.983459
1524.000000	19.926717
1525.000000	19.878408
1526.000000	19.806639
1527.000000	19.694850
1528.000000	19.603422
1529.000000	19.534747
1530.000000	19.485010
1531.000000	19.405544
1532.000000	19.315178
1533.000000	19.227059
1534.000000	19.127305
1535.000000	18.984156
1536.000000	18.856945
1537.000000	18.760191
1538.000000	18.677504
1539.000000	18.592825
1540.000000	18.485637
1541.000000	18.424571
1542.000000	18.360510
1543.000000	18.300285
1544.000000	18.247887
1545.000000	18.150987
1546.000000	18.058089
1547.000000	17.981159
1548.000000	17.887822
1549.000000	17.781484
1550.000000	17.705142
1551.000000	17.656523
1552.000000	17.583694
1553.000000	17.518511
1554.000000	17.442422
1555.000000	17.361414
1556.000000	17.280457
1557.000000	17.238405
1558.000000	17.198182
1559.000000	17.126314
1560.000000	17.048678
1561.000000	16.972490
1562.000000	16.923671
1563.000000	16.872662
1564.000000	16.807777
1565.000000	16.753575
1566.000000	16.740479
1567.000000	16.709664
1568.000000	16.676878
1569.000000	16.639905
1570.000000	16.619312
1571.000000	16.605504
1572.000000	16.580737
1573.000000	16.571957
1574.000000	16.573436
1575.000000	16.585810
1576.000000	16.597862
1577.000000	16.583635
1578.000000	16.580714
1579.000000	16.557705
1580.000000	16.572751
1581.000000	16.568101
1582.000000	16.547896
1583.000000	16.545857
1584.000000	16.578165
1585.000000	16.575699
1586.000000	16.548908
1587.000000	16.535535
1588.000000	16.514320
1589.000000	16.501489
1590.000000	16.485662
1591.000000	16.454346
1592.000000	16.431812
1593.000000	16.404554
1594.000000	16.371874
1595.000000	16.354943
1596.000000	16.337893
1597.000000	16.322243
1598.000000	16.309825
1599.000000	16.280123
1600.000000	16.239621
1601.000000	16.175869
1602.000000	16.130528
1603.000000	16.073478
1604.000000	16.029341
1605.000000	15.984147
1606.000000	15.943291
1607.000000	15.873425
1608.000000	15.786586
1609.000000	15.696435
1610.000000	15.592546
1611.000000	15.491095
1612.000000	15.426387
1613.000000	15.338567
1614.000000	15.261106
1615.000000	15.177894
1616.000000	15.147047
1617.000000	15.103217
1618.000000	15.038632
1619.000000	14.930964
1620.000000	14.835144
1621.000000	14.754200
1622.000000	14.700286
1623.000000	14.629976
1624.000000	14.577442
1625.000000	14.488001
1626.000000	14.413683
1627.000000	14.325461
1628.000000	14.271560
1629.000000	14.235523
1630.000000	14.177215
1631.000000	14.111940
1632.000000	14.046661
1633.000000	13.963958
1634.000000	13.911300
1635.000000	13.854661
1636.000000	13.788661
1637.000000	13.780227
1638.000000	13.715200
1639.000000	13.637474
1640.000000	13.592709
1641.000000	13.537811
1642.000000	13.479835
1643.000000	13.450422
1644.000000	13.407990
1645.000000	13.403228
1646.000000	13.367073
1647.000000	13.292993
1648.000000	13.260079
1649.000000	13.215398
1650.000000	13.182209
1651.000000	13.076505
1652.000000	13.043782
1653.000000	12.983490
1654.000000	12.996240
1655.000000	13.014758
1656.000000	13.008728
1657.000000	12.989585
1658.000000	12.961498
1659.000000	12.944512
1660.000000	12.956038
1661.000000	12.983967
1662.000000	12.988708
1663.000000	12.958019
1664.000000	12.917644
1665.000000	12.889735
1666.000000	12.877452
1667.000000	12.898329
1668.000000	12.931707
1669.000000	12.953638
1670.000000	12.977613
1671.000000	12.994069
1672.000000	12.995602
1673.000000	13.083830
1674.000000	13.152965
1675.000000	13.202151
1676.000000	13.232143
1677.000000	13.319577
1678.000000	13.396189
1679.000000	13.453267
1680.000000	13.545883
1681.000000	13.653627
1682.000000	13.799024
1683.000000	13.902040
1684.000000	14.032607
1685.000000	14.154726
1686.000000	14.308854
1687.000000	14.406978
1688.000000	14.553423
1689.000000	14.639381
1690.000000	14.716302
1691.000000	14.830322
1692.000000	14.968921
1693.000000	15.089175
1694.000000	15.177496
1695.000000	15.275041
1696.000000	15.356451
1697.000000	15.444612
1698.000000	15.533338
1699.000000	15.643161
1700.000000	15.750272
1701.000000	15.838575
1702.000000	15.890890
1703.000000	15.965420
1704.000000	16.020912
1705.000000	16.085209
1706.000000	16.173406
1707.000000	16.221910
1708.000000	16.252828
1709.000000	16.315893
1710.000000	16.381740
1711.000000	16.479740
1712.000000	16.541111
1713.000000	16.585364
1714.000000	16.653245
1715.000000	16.658322
1716.000000	16.726699
1717.000000	16.798752
1718.000000	16.845489
1719.000000	16.889334
1720.000000	16.938827
1721.000000	16.982777
1722.000000	17.052558
1723.000000	17.096017
1724.000000	17.152161
1725.000000	17.252462
1726.000000	17.328912
1727.000000	17.350568
1728.000000	17.421758
1729.000000	17.511360
1730.000000	17.566829
1731.000000	17.612510
1732.000000	17.693585
1733.000000	17.791699
1734.000000	17.861678
1735.000000	17.903538
1736.000000	17.941970
1737.000000	17.998586
1738.000000	18.038775
1739.000000	18.078567
1740.000000	18.122778
1741.000000	18.173665
1742.000000	18.223762
1743.000000	18.247097
1744.000000	18.263846
1745.000000	18.266499
1746.000000	18.267987
1747.000000	18.262246
1748.000000	18.272777
1749.000000	18.297871
1750.000000	18.310687
1751.000000	18.263907
1752.000000	18.199092
1753.000000	18.176793
1754.000000	18.126287
1755.000000	18.071288
1756.000000	18.052495
1757.000000	17.998183
1758.000000	17.968545
1759.000000	17.938578
1760.000000	17.870815
1761.000000	17.802541
1762.000000	17.743479
1763.000000	17.688902
1764.000000	17.619017
1765.000000	17.597688
1766.000000	17.577234
1767.000000	17.507450
1768.000000	17.421936
1769.000000	17.374731
1770.000000	17.331912
1771.000000	17.282879
1772.000000	17.234688
1773.000000	17.195909
1774.000000	17.157420
1775.000000	17.146829
1776.000000	17.118866
1777.000000	17.059266
1778.000000	17.026905
1779.000000	16.998149
1780.000000	16.983106
1781.000000	16.939000
1782.000000	16.904441
1783.000000	16.884721
1784.000000	16.833833
1785.000000	16.800814
1786.000000	16.777316
1787.000000	16.732906
1788.000000	16.694673
1789.000000	16.678005
1790.000000	16.641586
1791.000000	16.570850
1792.000000	16.516248
1793.000000	16.471676
1794.000000	16.425143
1795.000000	16.377335
1796.000000	16.328441
1797.000000	16.299220
1798.000000	16.265377
1799.000000	16.210118
1800.000000	16.125504
1801.000000	16.054417
1802.000000	16.013887
1803.000000	16.004847
1804.000000	15.978034
1805.000000	15.950900
1806.000000	15.930413
1807.000000	15.901064
1808.000000	15.893702
1809.000000	15.889603
1810.000000	15.824301
1811.000000	15.759234
1812.000000	15.751555
1813.000000	15.770479
1814.000000	15.754791
1815.000000	15.725744
1816.000000	15.723839
1817.000000	15.673057
1818.000000	15.581034
1819.000000	15.506153
1820.000000	15.402497
1821.000000	15.359760
1822.000000	15.363286
1823.000000	15.346208
1824.000000	15.309716
1825.000000	15.247466
1826.000000	15.199100
1827.000000	15.210675
1828.000000	15.191974
1829.000000	15.189353
1830.000000	15.178505
1831.000000	15.167010
1832.000000	15.104683
1833.000000	15.072921
1834.000000	15.073613
1835.000000	15.059787
1836.000000	15.025433
1837.000000	15.007097
1838.000000	15.026610
1839.000000	14.936895
1840.000000	14.895556
1841.000000	14.841083
1842.000000	14.791170
1843.000000	14.749337
1844.000000	14.717746
1845.000000	14.736663
1846.000000	14.709479
1847.000000	14.609715
1848.000000	14.533727
1849.000000	14.497106
1850.000000	14.452197
1851.000000	14.426101
1852.000000	14.469803
1853.000000	14.518906
1854.000000	14.568802
1855.000000	14.572319
1856.000000	14.508228
1857.000000	14.464149
1858.000000	14.422058
1859.000000	14.364510
1860.000000	14.378575
1861.000000	14.414797
1862.000000	14.376875
1863.000000	14.332771
1864.000000	14.301085
1865.000000	14.317926
1866.000000	14.341869
1867.000000	14.359984
1868.000000	14.366934
1869.000000	14.382612
1870.000000	14.411486
1871.000000	14.521670
1872.000000	14.541546
1873.000000	14.537920
1874.000000	14.633516
1875.000000	14.700662
1876.000000	14.789593
1877.000000	14.876513
1878.000000	14.973770
1879.000000	15.062114
1880.000000	15.111957
1881.000000	15.232737
1882.000000	15.421155
1883.000000	15.541670
1884.000000	15.691349
1885.000000	15.854649
1886.000000	15.969010
1887.000000	16.138988
1888.000000	16.329876
1889.000000	16.482804
1890.000000	16.749587
1891.000000	17.044656
1892.000000	17.330622
1893.000000	17.643745
1894.000000	18.004534
1895.000000	18.351223
1896.000000	18.660553
1897.000000	19.011786
1898.000000	19.406111
1899.000000	19.760318
1900.000000	20.155182
1901.000000	20.542971
1902.000000	20.899846
1903.000000	21.411515
1904.000000	21.863024
1905.000000	22.356283
1906.000000	22.806714
1907.000000	23.365349
1908.000000	23.905473
1909.000000	24.459224
1910.000000	24.962084
1911.000000	25.504634
1912.000000	26.075942
1913.000000	26.584065
1914.000000	27.141925
1915.000000	27.683670
1916.000000	28.228198
1917.000000	28.785483
1918.000000	29.382959
1919.000000	29.891053
1920.000000	30.460704
1921.000000	31.062456
1922.000000	31.592084
1923.000000	32.070571
1924.000000	32.625254
1925.000000	33.166700
1926.000000	33.649693
1927.000000	34.161276
1928.000000	34.631265
1929.000000	35.064194
1930.000000	35.523021
1931.000000	35.960726
1932.000000	36.382196
1933.000000	36.778063
1934.000000	37.175151
1935.000000	37.492247
1936.000000	37.865469
1937.000000	38.264965
1938.000000	38.460548
1939.000000	38.727747
1940.000000	38.945261
1941.000000	39.179570
1942.000000	39.346122
1943.000000	39.480900
1944.000000	39.578618
1945.000000	39.758412
1946.000000	39.909260
1947.000000	40.022630
1948.000000	40.127600
1949.000000	40.185519
1950.000000	40.299335
1951.000000	40.360208
1952.000000	40.377011
1953.000000	40.410164
1954.000000	40.474867
1955.000000	40.459657
1956.000000	40.425815
1957.000000	40.385534
1958.000000	40.383415
1959.000000	40.308003
1960.000000	40.233406
1961.000000	40.189080
1962.000000	40.058257
1963.000000	39.943491
1964.000000	39.853352
1965.000000	39.737184
1966.000000	39.630818
1967.000000	39.476801
1968.000000	39.298304
1969.000000	39.154044
1970.000000	39.034641
1971.000000	38.851068
1972.000000	38.726935
1973.000000	38.613398
1974.000000	38.467645
1975.000000	38.328043
1976.000000	38.131657
1977.000000	37.983450
1978.000000	37.861134
1979.000000	37.752038
1980.000000	37.590328
1981.000000	37.411162
1982.000000	37.254052
1983.000000	37.100401
1984.000000	36.963261
1985.000000	36.794569
1986.000000	36.649972
1987.000000	36.507033
1988.000000	36.305931
1989.000000	36.112439
1990.000000	35.936679
1991.000000	35.778921
1992.000000	35.630663
1993.000000	35.447639
1994.000000	35.307509
1995.000000	35.126589
1996.000000	34.953402
1997.000000	34.815976
1998.000000	34.659332
1999.000000	34.513416
2000.000000	34.340552
