PE UV       SUBTECH     SPECTRUM    ASCII       PEDS        4.00        
   -1
MACRASPIS.SP-TX3.ASC
23/11/30
13:55:33.00
23/11/30
13:55:33.00
Vinicio Soto Monge
MACRASPIS ?
250,000000
1
Lambda 1050
1050L1511233
PerkinElmer UV WinLab 6.3.2.0749 / 2.02.05 Lambda 900 UV/VIS/NIR, Aug  7 2015 09:38:08

0
0
3350/servo 860,8/2
0
0
UV/VIS
1
1
1
DoubleDePol,CommonBeamDepol,RBeamAtt,SBeamAtt,60mm sphere, WB InGaAs Detector
0
0
0
0
Program
Program
3350/servo 860,8/2
3350/0,4 860,8/0,4
3350/0,4 860,8/0,4
0
20.00
 
 
 
0
 
860,8
319,2
860,8
Front
100
on
S:100 R:100
0
0
0
0
 
0
 
 
 
0
 
 
0
0
0
0
0
 
 
 
 
0
0


0
0
#HDR
-1
-1
#GR
nm
%A
1.0
0.0
2200,000000
-1,000000
1951
8
80,438291
0,396740
#DATA
284.000000	92.447746
285.000000	92.478063
286.000000	92.508819
287.000000	92.535919
288.000000	92.560853
289.000000	92.583978
290.000000	92.605733
291.000000	92.626759
292.000000	92.645817
293.000000	92.665352
294.000000	92.680935
295.000000	92.698075
296.000000	92.714798
297.000000	92.727768
298.000000	92.739858
299.000000	92.751570
300.000000	92.764827
301.000000	92.774339
302.000000	92.782212
303.000000	92.792827
304.000000	92.800376
305.000000	92.809372
306.000000	92.819458
307.000000	92.829283
308.000000	92.837736
309.000000	92.847348
310.000000	92.857378
311.000000	92.866991
312.000000	92.876428
313.000000	92.885092
314.000000	92.893450
315.000000	92.903527
316.000000	92.911923
317.000000	92.920568
318.000000	92.932676
319.000000	92.944617
320.000000	92.955488
321.000000	92.963771
322.000000	92.973692
323.000000	92.988861
324.000000	93.001197
325.000000	93.015798
326.000000	93.032458
327.000000	93.041929
328.000000	93.054467
329.000000	93.070111
330.000000	93.084571
331.000000	93.100668
332.000000	93.119316
333.000000	93.139297
334.000000	93.154717
335.000000	93.169767
336.000000	93.183823
337.000000	93.199553
338.000000	93.212603
339.000000	93.230396
340.000000	93.248794
341.000000	93.265103
342.000000	93.279508
343.000000	93.294757
344.000000	93.309020
345.000000	93.319784
346.000000	93.331812
347.000000	93.345710
348.000000	93.359410
349.000000	93.371624
350.000000	93.383059
351.000000	93.394489
352.000000	93.407731
353.000000	93.416266
354.000000	93.426622
355.000000	93.437086
356.000000	93.449339
357.000000	93.462560
358.000000	93.471814
359.000000	93.480898
360.000000	93.489210
361.000000	93.495998
362.000000	93.510353
363.000000	93.522377
364.000000	93.532890
365.000000	93.542525
366.000000	93.550150
367.000000	93.555993
368.000000	93.563800
369.000000	93.575400
370.000000	93.585932
371.000000	93.598237
372.000000	93.606725
373.000000	93.616000
374.000000	93.626007
375.000000	93.633258
376.000000	93.642517
377.000000	93.654860
378.000000	93.667795
379.000000	93.679736
380.000000	93.693620
381.000000	93.706480
382.000000	93.718080
383.000000	93.730118
384.000000	93.743951
385.000000	93.757848
386.000000	93.771607
387.000000	93.784661
388.000000	93.798089
389.000000	93.810704
390.000000	93.824261
391.000000	93.838047
392.000000	93.850590
393.000000	93.862369
394.000000	93.876374
395.000000	93.889701
396.000000	93.902476
397.000000	93.914014
398.000000	93.926058
399.000000	93.938112
400.000000	93.949646
401.000000	93.962507
402.000000	93.975044
403.000000	93.986254
404.000000	93.996386
405.000000	94.006243
406.000000	94.017074
407.000000	94.029916
408.000000	94.041688
409.000000	94.051415
410.000000	94.061382
411.000000	94.070364
412.000000	94.077984
413.000000	94.085401
414.000000	94.092733
415.000000	94.099775
416.000000	94.106707
417.000000	94.113377
418.000000	94.119729
419.000000	94.126002
420.000000	94.131993
421.000000	94.137946
422.000000	94.143514
423.000000	94.148947
424.000000	94.154158
425.000000	94.159504
426.000000	94.164652
427.000000	94.169355
428.000000	94.174282
429.000000	94.179048
430.000000	94.184003
431.000000	94.188756
432.000000	94.193362
433.000000	94.197582
434.000000	94.201970
435.000000	94.206373
436.000000	94.210276
437.000000	94.214230
438.000000	94.218241
439.000000	94.222350
440.000000	94.226256
441.000000	94.229865
442.000000	94.233308
443.000000	94.236843
444.000000	94.240166
445.000000	94.243423
446.000000	94.246980
447.000000	94.250447
448.000000	94.253822
449.000000	94.256837
450.000000	94.260082
451.000000	94.263597
452.000000	94.266938
453.000000	94.270229
454.000000	94.273442
455.000000	94.276922
456.000000	94.280692
457.000000	94.284404
458.000000	94.288010
459.000000	94.291433
460.000000	94.294878
461.000000	94.298241
462.000000	94.301630
463.000000	94.304966
464.000000	94.308225
465.000000	94.311387
466.000000	94.314539
467.000000	94.317696
468.000000	94.320998
469.000000	94.323888
470.000000	94.326859
471.000000	94.330164
472.000000	94.332988
473.000000	94.335494
474.000000	94.337835
475.000000	94.340192
476.000000	94.342398
477.000000	94.344411
478.000000	94.346080
479.000000	94.347482
480.000000	94.348743
481.000000	94.349645
482.000000	94.350182
483.000000	94.350174
484.000000	94.349841
485.000000	94.349126
486.000000	94.347756
487.000000	94.345952
488.000000	94.343560
489.000000	94.340534
490.000000	94.336826
491.000000	94.332392
492.000000	94.327604
493.000000	94.322309
494.000000	94.316460
495.000000	94.309947
496.000000	94.302545
497.000000	94.294624
498.000000	94.285969
499.000000	94.276407
500.000000	94.266143
501.000000	94.255529
502.000000	94.244254
503.000000	94.232250
504.000000	94.219693
505.000000	94.206284
506.000000	94.191718
507.000000	94.176543
508.000000	94.160547
509.000000	94.143824
510.000000	94.126221
511.000000	94.107743
512.000000	94.088286
513.000000	94.067671
514.000000	94.045744
515.000000	94.022558
516.000000	93.998196
517.000000	93.972592
518.000000	93.945389
519.000000	93.917050
520.000000	93.887137
521.000000	93.855362
522.000000	93.821912
523.000000	93.786734
524.000000	93.749754
525.000000	93.710724
526.000000	93.669625
527.000000	93.626216
528.000000	93.580248
529.000000	93.531862
530.000000	93.480888
531.000000	93.427027
532.000000	93.369976
533.000000	93.309555
534.000000	93.245375
535.000000	93.177411
536.000000	93.105362
537.000000	93.028771
538.000000	92.947303
539.000000	92.860941
540.000000	92.769568
541.000000	92.672830
542.000000	92.570305
543.000000	92.461759
544.000000	92.346546
545.000000	92.225055
546.000000	92.096929
547.000000	91.961740
548.000000	91.819537
549.000000	91.670042
550.000000	91.513043
551.000000	91.348212
552.000000	91.175153
553.000000	90.993950
554.000000	90.804722
555.000000	90.607502
556.000000	90.402714
557.000000	90.190153
558.000000	89.969758
559.000000	89.741704
560.000000	89.504228
561.000000	89.259610
562.000000	89.008437
563.000000	88.750950
564.000000	88.487304
565.000000	88.217968
566.000000	87.943715
567.000000	87.664929
568.000000	87.382683
569.000000	87.098129
570.000000	86.810878
571.000000	86.521348
572.000000	86.230875
573.000000	85.940287
574.000000	85.649093
575.000000	85.358467
576.000000	85.069497
577.000000	84.782667
578.000000	84.498806
579.000000	84.219419
580.000000	83.945351
581.000000	83.677796
582.000000	83.417902
583.000000	83.166241
584.000000	82.924001
585.000000	82.692773
586.000000	82.473376
587.000000	82.266575
588.000000	82.074162
589.000000	81.896231
590.000000	81.733721
591.000000	81.587364
592.000000	81.457249
593.000000	81.343728
594.000000	81.246919
595.000000	81.168932
596.000000	81.107825
597.000000	81.063396
598.000000	81.035634
599.000000	81.024589
600.000000	81.030681
601.000000	81.052632
602.000000	81.090803
603.000000	81.144666
604.000000	81.213116
605.000000	81.296291
606.000000	81.393894
607.000000	81.505207
608.000000	81.629284
609.000000	81.766438
610.000000	81.916272
611.000000	82.077954
612.000000	82.251542
613.000000	82.436285
614.000000	82.631085
615.000000	82.834762
616.000000	83.047131
617.000000	83.267192
618.000000	83.494006
619.000000	83.726796
620.000000	83.963960
621.000000	84.205181
622.000000	84.450147
623.000000	84.696751
624.000000	84.944270
625.000000	85.192141
626.000000	85.439166
627.000000	85.685490
628.000000	85.930217
629.000000	86.173217
630.000000	86.414232
631.000000	86.652872
632.000000	86.888426
633.000000	87.120750
634.000000	87.349244
635.000000	87.573473
636.000000	87.793635
637.000000	88.008481
638.000000	88.218090
639.000000	88.422654
640.000000	88.621825
641.000000	88.815567
642.000000	89.003167
643.000000	89.185341
644.000000	89.361601
645.000000	89.531503
646.000000	89.694803
647.000000	89.851652
648.000000	90.002050
649.000000	90.145620
650.000000	90.282592
651.000000	90.412177
652.000000	90.534260
653.000000	90.649468
654.000000	90.757585
655.000000	90.858525
656.000000	90.952139
657.000000	91.038167
658.000000	91.117215
659.000000	91.189107
660.000000	91.253810
661.000000	91.311948
662.000000	91.363085
663.000000	91.407749
664.000000	91.446157
665.000000	91.478166
666.000000	91.504044
667.000000	91.523717
668.000000	91.537731
669.000000	91.546224
670.000000	91.548994
671.000000	91.546704
672.000000	91.539845
673.000000	91.527563
674.000000	91.510689
675.000000	91.489447
676.000000	91.464190
677.000000	91.435339
678.000000	91.402657
679.000000	91.366851
680.000000	91.327681
681.000000	91.285632
682.000000	91.240235
683.000000	91.191651
684.000000	91.140636
685.000000	91.087343
686.000000	91.031448
687.000000	90.973431
688.000000	90.913443
689.000000	90.851167
690.000000	90.786967
691.000000	90.720643
692.000000	90.652859
693.000000	90.583691
694.000000	90.513092
695.000000	90.441243
696.000000	90.367774
697.000000	90.293395
698.000000	90.217342
699.000000	90.139273
700.000000	90.060156
701.000000	89.979648
702.000000	89.898284
703.000000	89.815347
704.000000	89.731036
705.000000	89.645684
706.000000	89.559101
707.000000	89.470988
708.000000	89.381661
709.000000	89.291680
710.000000	89.200842
711.000000	89.108413
712.000000	89.014534
713.000000	88.919641
714.000000	88.823668
715.000000	88.726617
716.000000	88.628699
717.000000	88.530084
718.000000	88.429965
719.000000	88.328481
720.000000	88.225620
721.000000	88.121735
722.000000	88.016554
723.000000	87.909773
724.000000	87.802889
725.000000	87.695106
726.000000	87.586173
727.000000	87.475897
728.000000	87.364455
729.000000	87.251558
730.000000	87.137366
731.000000	87.022025
732.000000	86.905154
733.000000	86.787748
734.000000	86.670144
735.000000	86.550259
736.000000	86.429156
737.000000	86.306795
738.000000	86.183151
739.000000	86.058479
740.000000	85.932304
741.000000	85.805121
742.000000	85.677365
743.000000	85.548742
744.000000	85.418544
745.000000	85.287126
746.000000	85.154445
747.000000	85.021706
748.000000	84.887938
749.000000	84.752351
750.000000	84.615286
751.000000	84.476651
752.000000	84.336974
753.000000	84.196989
754.000000	84.055760
755.000000	83.913489
756.000000	83.769769
757.000000	83.624526
758.000000	83.478737
759.000000	83.331084
760.000000	83.182866
761.000000	83.032964
762.000000	82.881943
763.000000	82.729720
764.000000	82.576515
765.000000	82.422434
766.000000	82.267365
767.000000	82.111547
768.000000	81.954520
769.000000	81.795251
770.000000	81.636084
771.000000	81.475701
772.000000	81.313862
773.000000	81.151638
774.000000	80.988572
775.000000	80.824143
776.000000	80.658350
777.000000	80.491683
778.000000	80.324087
779.000000	80.155578
780.000000	79.985817
781.000000	79.815787
782.000000	79.642438
783.000000	79.467953
784.000000	79.294439
785.000000	79.119259
786.000000	78.943338
787.000000	78.766567
788.000000	78.588527
789.000000	78.409326
790.000000	78.229000
791.000000	78.046703
792.000000	77.866086
793.000000	77.684690
794.000000	77.501978
795.000000	77.317893
796.000000	77.133337
797.000000	76.947670
798.000000	76.760742
799.000000	76.574130
800.000000	76.385891
801.000000	76.195657
802.000000	76.003218
803.000000	75.810686
804.000000	75.617670
805.000000	75.423510
806.000000	75.229152
807.000000	75.033657
808.000000	74.837865
809.000000	74.640622
810.000000	74.443542
811.000000	74.246328
812.000000	74.047876
813.000000	73.847642
814.000000	73.646775
815.000000	73.445640
816.000000	73.244469
817.000000	73.044158
818.000000	72.841960
819.000000	72.639443
820.000000	72.436868
821.000000	72.230949
822.000000	72.026468
823.000000	71.820233
824.000000	71.614994
825.000000	71.409816
826.000000	71.202664
827.000000	70.993079
828.000000	70.782742
829.000000	70.570934
830.000000	70.359809
831.000000	70.149925
832.000000	69.938568
833.000000	69.726373
834.000000	69.516131
835.000000	69.303721
836.000000	69.094375
837.000000	68.883906
838.000000	68.670785
839.000000	68.455348
840.000000	68.242293
841.000000	68.030161
842.000000	67.815869
843.000000	67.604123
844.000000	67.386540
845.000000	67.170186
846.000000	66.956135
847.000000	66.737419
848.000000	66.523836
849.000000	66.309040
850.000000	66.090558
851.000000	65.874152
852.000000	65.659281
853.000000	65.442284
854.000000	65.228525
855.000000	65.012702
856.000000	64.795415
857.000000	64.578529
858.000000	64.363150
859.000000	64.127928
860.000000	63.903337
861.000000	63.647558
862.000000	63.423876
863.000000	63.211665
864.000000	62.992759
865.000000	62.780991
866.000000	62.583320
867.000000	62.358094
868.000000	62.134713
869.000000	61.916326
870.000000	61.692992
871.000000	61.476576
872.000000	61.245165
873.000000	61.020483
874.000000	60.826022
875.000000	60.593612
876.000000	60.387625
877.000000	60.173596
878.000000	59.939305
879.000000	59.758704
880.000000	59.530417
881.000000	59.289370
882.000000	59.079217
883.000000	58.847072
884.000000	58.620525
885.000000	58.378981
886.000000	58.156880
887.000000	57.929140
888.000000	57.710765
889.000000	57.436149
890.000000	57.207718
891.000000	56.983817
892.000000	56.759153
893.000000	56.561135
894.000000	56.361221
895.000000	56.149638
896.000000	56.000203
897.000000	55.786932
898.000000	55.559075
899.000000	55.345048
900.000000	55.114386
901.000000	54.879516
902.000000	54.682309
903.000000	54.469407
904.000000	54.246065
905.000000	54.023626
906.000000	53.823698
907.000000	53.617901
908.000000	53.405406
909.000000	53.170378
910.000000	52.972723
911.000000	52.758423
912.000000	52.546844
913.000000	52.310679
914.000000	52.062554
915.000000	51.848416
916.000000	51.673976
917.000000	51.449412
918.000000	51.252442
919.000000	51.021269
920.000000	50.852229
921.000000	50.643331
922.000000	50.458970
923.000000	50.251676
924.000000	50.113206
925.000000	49.922294
926.000000	49.728023
927.000000	49.526325
928.000000	49.305778
929.000000	49.124791
930.000000	48.953787
931.000000	48.751527
932.000000	48.562708
933.000000	48.374385
934.000000	48.170006
935.000000	47.990410
936.000000	47.818341
937.000000	47.598439
938.000000	47.410578
939.000000	47.223411
940.000000	47.039602
941.000000	46.806433
942.000000	46.626234
943.000000	46.442802
944.000000	46.259719
945.000000	46.073961
946.000000	45.863167
947.000000	45.661793
948.000000	45.535998
949.000000	45.375625
950.000000	45.213274
951.000000	45.023210
952.000000	44.866522
953.000000	44.685692
954.000000	44.526116
955.000000	44.352923
956.000000	44.189656
957.000000	44.000134
958.000000	43.813252
959.000000	43.621493
960.000000	43.424520
961.000000	43.246071
962.000000	43.049681
963.000000	42.861470
964.000000	42.667969
965.000000	42.436112
966.000000	42.231165
967.000000	42.053206
968.000000	41.891851
969.000000	41.721928
970.000000	41.523840
971.000000	41.334298
972.000000	41.163448
973.000000	40.986979
974.000000	40.807043
975.000000	40.647044
976.000000	40.481779
977.000000	40.280777
978.000000	40.108662
979.000000	39.936794
980.000000	39.754751
981.000000	39.592464
982.000000	39.419544
983.000000	39.208981
984.000000	39.001288
985.000000	38.796344
986.000000	38.592842
987.000000	38.384117
988.000000	38.201617
989.000000	38.034078
990.000000	37.830627
991.000000	37.632363
992.000000	37.432604
993.000000	37.256853
994.000000	37.103617
995.000000	36.964820
996.000000	36.788746
997.000000	36.621059
998.000000	36.458061
999.000000	36.284648
1000.000000	36.145159
1001.000000	36.001809
1002.000000	35.844577
1003.000000	35.648144
1004.000000	35.467549
1005.000000	35.330582
1006.000000	35.186348
1007.000000	35.031290
1008.000000	34.857906
1009.000000	34.707907
1010.000000	34.538745
1011.000000	34.381653
1012.000000	34.249581
1013.000000	34.093742
1014.000000	33.922061
1015.000000	33.764228
1016.000000	33.603262
1017.000000	33.444740
1018.000000	33.297139
1019.000000	33.148652
1020.000000	33.016419
1021.000000	32.881287
1022.000000	32.737980
1023.000000	32.587217
1024.000000	32.432840
1025.000000	32.320663
1026.000000	32.213425
1027.000000	32.089729
1028.000000	31.962941
1029.000000	31.813215
1030.000000	31.655325
1031.000000	31.524225
1032.000000	31.412248
1033.000000	31.289514
1034.000000	31.166596
1035.000000	31.039674
1036.000000	30.876319
1037.000000	30.720377
1038.000000	30.610886
1039.000000	30.491720
1040.000000	30.344683
1041.000000	30.200490
1042.000000	30.080120
1043.000000	29.935316
1044.000000	29.768810
1045.000000	29.612698
1046.000000	29.496571
1047.000000	29.371930
1048.000000	29.240608
1049.000000	29.118858
1050.000000	28.987046
1051.000000	28.865795
1052.000000	28.742196
1053.000000	28.619050
1054.000000	28.483022
1055.000000	28.350623
1056.000000	28.217937
1057.000000	28.104982
1058.000000	27.983862
1059.000000	27.857171
1060.000000	27.711747
1061.000000	27.576632
1062.000000	27.453407
1063.000000	27.326575
1064.000000	27.196681
1065.000000	27.059511
1066.000000	26.912026
1067.000000	26.766916
1068.000000	26.638248
1069.000000	26.480405
1070.000000	26.336587
1071.000000	26.235358
1072.000000	26.155292
1073.000000	26.034325
1074.000000	25.916747
1075.000000	25.780360
1076.000000	25.640213
1077.000000	25.524579
1078.000000	25.416288
1079.000000	25.305197
1080.000000	25.196190
1081.000000	25.086834
1082.000000	24.965213
1083.000000	24.855368
1084.000000	24.700268
1085.000000	24.605246
1086.000000	24.485413
1087.000000	24.400112
1088.000000	24.292362
1089.000000	24.214548
1090.000000	24.107373
1091.000000	23.992733
1092.000000	23.859365
1093.000000	23.732876
1094.000000	23.638934
1095.000000	23.526897
1096.000000	23.415115
1097.000000	23.316478
1098.000000	23.215636
1099.000000	23.099015
1100.000000	23.012807
1101.000000	22.922073
1102.000000	22.816103
1103.000000	22.709132
1104.000000	22.615336
1105.000000	22.535080
1106.000000	22.413359
1107.000000	22.280748
1108.000000	22.189597
1109.000000	22.081106
1110.000000	21.989938
1111.000000	21.877293
1112.000000	21.760321
1113.000000	21.656787
1114.000000	21.572314
1115.000000	21.460965
1116.000000	21.350502
1117.000000	21.238061
1118.000000	21.132951
1119.000000	21.076807
1120.000000	20.965626
1121.000000	20.857987
1122.000000	20.712592
1123.000000	20.563709
1124.000000	20.431027
1125.000000	20.331910
1126.000000	20.270077
1127.000000	20.173661
1128.000000	20.079269
1129.000000	19.951918
1130.000000	19.837278
1131.000000	19.694600
1132.000000	19.590377
1133.000000	19.472758
1134.000000	19.338071
1135.000000	19.223407
1136.000000	19.110372
1137.000000	19.007235
1138.000000	18.893015
1139.000000	18.811579
1140.000000	18.699418
1141.000000	18.611399
1142.000000	18.492627
1143.000000	18.372946
1144.000000	18.260858
1145.000000	18.165294
1146.000000	18.072559
1147.000000	17.993156
1148.000000	17.906949
1149.000000	17.812301
1150.000000	17.747523
1151.000000	17.640302
1152.000000	17.546304
1153.000000	17.445605
1154.000000	17.349713
1155.000000	17.250661
1156.000000	17.149712
1157.000000	17.088535
1158.000000	17.060990
1159.000000	17.010602
1160.000000	16.934954
1161.000000	16.825703
1162.000000	16.771011
1163.000000	16.721488
1164.000000	16.670083
1165.000000	16.613700
1166.000000	16.567154
1167.000000	16.497016
1168.000000	16.454706
1169.000000	16.448504
1170.000000	16.416469
1171.000000	16.378687
1172.000000	16.344836
1173.000000	16.277972
1174.000000	16.194697
1175.000000	16.139425
1176.000000	16.087418
1177.000000	16.022733
1178.000000	15.957108
1179.000000	15.896095
1180.000000	15.835425
1181.000000	15.778523
1182.000000	15.717680
1183.000000	15.647842
1184.000000	15.575258
1185.000000	15.478064
1186.000000	15.443594
1187.000000	15.406100
1188.000000	15.365045
1189.000000	15.313629
1190.000000	15.276934
1191.000000	15.231651
1192.000000	15.181464
1193.000000	15.126886
1194.000000	15.043179
1195.000000	14.980713
1196.000000	14.933840
1197.000000	14.878843
1198.000000	14.788101
1199.000000	14.725429
1200.000000	14.650012
1201.000000	14.591735
1202.000000	14.521500
1203.000000	14.439600
1204.000000	14.361192
1205.000000	14.254125
1206.000000	14.141642
1207.000000	14.068019
1208.000000	14.034102
1209.000000	13.995247
1210.000000	13.913600
1211.000000	13.799159
1212.000000	13.724472
1213.000000	13.649369
1214.000000	13.591408
1215.000000	13.504955
1216.000000	13.410538
1217.000000	13.330209
1218.000000	13.265529
1219.000000	13.207423
1220.000000	13.191934
1221.000000	13.112563
1222.000000	12.985989
1223.000000	12.914792
1224.000000	12.859046
1225.000000	12.779203
1226.000000	12.715926
1227.000000	12.602196
1228.000000	12.526567
1229.000000	12.459557
1230.000000	12.389619
1231.000000	12.302416
1232.000000	12.230223
1233.000000	12.192978
1234.000000	12.132733
1235.000000	12.072573
1236.000000	12.012312
1237.000000	11.929998
1238.000000	11.846790
1239.000000	11.784927
1240.000000	11.733017
1241.000000	11.703129
1242.000000	11.630554
1243.000000	11.548059
1244.000000	11.464913
1245.000000	11.405772
1246.000000	11.364933
1247.000000	11.333957
1248.000000	11.260897
1249.000000	11.194221
1250.000000	11.151065
1251.000000	11.107650
1252.000000	11.039454
1253.000000	10.998575
1254.000000	10.945269
1255.000000	10.854859
1256.000000	10.774608
1257.000000	10.765102
1258.000000	10.695074
1259.000000	10.615699
1260.000000	10.567255
1261.000000	10.550701
1262.000000	10.559635
1263.000000	10.520565
1264.000000	10.493917
1265.000000	10.457113
1266.000000	10.428197
1267.000000	10.397419
1268.000000	10.360045
1269.000000	10.314369
1270.000000	10.268130
1271.000000	10.218090
1272.000000	10.181171
1273.000000	10.134904
1274.000000	10.058615
1275.000000	10.008253
1276.000000	9.968329
1277.000000	9.904987
1278.000000	9.859913
1279.000000	9.813033
1280.000000	9.759913
1281.000000	9.710886
1282.000000	9.673736
1283.000000	9.639549
1284.000000	9.597911
1285.000000	9.541352
1286.000000	9.523665
1287.000000	9.494249
1288.000000	9.434103
1289.000000	9.390706
1290.000000	9.345020
1291.000000	9.315337
1292.000000	9.263986
1293.000000	9.235768
1294.000000	9.208967
1295.000000	9.165988
1296.000000	9.081341
1297.000000	9.009261
1298.000000	8.932642
1299.000000	8.850051
1300.000000	8.795278
1301.000000	8.751776
1302.000000	8.694816
1303.000000	8.638911
1304.000000	8.580155
1305.000000	8.546073
1306.000000	8.494706
1307.000000	8.440098
1308.000000	8.402968
1309.000000	8.355236
1310.000000	8.297939
1311.000000	8.243590
1312.000000	8.193315
1313.000000	8.144690
1314.000000	8.119990
1315.000000	8.070725
1316.000000	8.051090
1317.000000	7.999244
1318.000000	7.978854
1319.000000	7.971900
1320.000000	7.965088
1321.000000	7.896643
1322.000000	7.847682
1323.000000	7.810254
1324.000000	7.780006
1325.000000	7.755765
1326.000000	7.722903
1327.000000	7.678699
1328.000000	7.632429
1329.000000	7.601737
1330.000000	7.549595
1331.000000	7.519449
1332.000000	7.494385
1333.000000	7.457944
1334.000000	7.429352
1335.000000	7.405522
1336.000000	7.367872
1337.000000	7.315509
1338.000000	7.250234
1339.000000	7.208594
1340.000000	7.169295
1341.000000	7.131863
1342.000000	7.115312
1343.000000	7.108950
1344.000000	7.093631
1345.000000	7.074992
1346.000000	7.060696
1347.000000	7.077722
1348.000000	7.078400
1349.000000	7.037917
1350.000000	7.028788
1351.000000	7.073959
1352.000000	7.092198
1353.000000	7.074522
1354.000000	6.980373
1355.000000	6.914807
1356.000000	6.854856
1357.000000	6.827354
1358.000000	6.879473
1359.000000	6.892457
1360.000000	6.819905
1361.000000	6.695192
1362.000000	6.746499
1363.000000	6.786333
1364.000000	6.847316
1365.000000	6.996026
1366.000000	7.010909
1367.000000	6.991996
1368.000000	7.077049
1369.000000	7.026161
1370.000000	6.875275
1371.000000	6.835503
1372.000000	6.893108
1373.000000	6.981410
1374.000000	6.971813
1375.000000	6.994297
1376.000000	6.961874
1377.000000	7.001539
1378.000000	7.028762
1379.000000	7.148303
1380.000000	7.456383
1381.000000	7.625515
1382.000000	7.621250
1383.000000	7.579927
1384.000000	7.491842
1385.000000	7.475349
1386.000000	7.428157
1387.000000	7.228042
1388.000000	7.206830
1389.000000	7.209043
1390.000000	7.207106
1391.000000	7.258567
1392.000000	7.414008
1393.000000	7.381760
1394.000000	7.242834
1395.000000	7.410152
1396.000000	7.772942
1397.000000	7.818034
1398.000000	7.850377
1399.000000	7.776422
1400.000000	7.648940
1401.000000	7.719036
1402.000000	7.748043
1403.000000	7.727019
1404.000000	7.687458
1405.000000	7.874095
1406.000000	7.922912
1407.000000	7.954839
1408.000000	7.937090
1409.000000	8.018472
1410.000000	8.074972
1411.000000	8.199076
1412.000000	8.259008
1413.000000	8.252679
1414.000000	8.130639
1415.000000	7.920170
1416.000000	7.798520
1417.000000	7.814059
1418.000000	7.785931
1419.000000	7.906767
1420.000000	7.968066
1421.000000	8.034437
1422.000000	8.270510
1423.000000	8.296913
1424.000000	8.414937
1425.000000	8.544444
1426.000000	8.637920
1427.000000	8.578780
1428.000000	8.622881
1429.000000	8.810930
1430.000000	8.763932
1431.000000	8.587617
1432.000000	8.595869
1433.000000	8.618835
1434.000000	8.727140
1435.000000	8.803821
1436.000000	8.811856
1437.000000	8.855100
1438.000000	8.846103
1439.000000	8.999514
1440.000000	9.049757
1441.000000	9.137709
1442.000000	9.104788
1443.000000	9.130632
1444.000000	9.180967
1445.000000	9.133435
1446.000000	9.156763
1447.000000	9.179497
1448.000000	9.221181
1449.000000	9.285619
1450.000000	9.257909
1451.000000	9.324389
1452.000000	9.410098
1453.000000	9.549232
1454.000000	9.597721
1455.000000	9.654671
1456.000000	9.638473
1457.000000	9.668203
1458.000000	9.718948
1459.000000	9.775742
1460.000000	9.817170
1461.000000	9.850019
1462.000000	9.882507
1463.000000	9.917655
1464.000000	9.937401
1465.000000	9.982772
1466.000000	9.988309
1467.000000	9.993395
1468.000000	9.968032
1469.000000	9.926649
1470.000000	9.924664
1471.000000	9.936451
1472.000000	10.001789
1473.000000	10.057797
1474.000000	10.133451
1475.000000	10.133174
1476.000000	10.141745
1477.000000	10.191076
1478.000000	10.242838
1479.000000	10.252054
1480.000000	10.324034
1481.000000	10.303339
1482.000000	10.282411
1483.000000	10.321960
1484.000000	10.386091
1485.000000	10.436886
1486.000000	10.426933
1487.000000	10.403943
1488.000000	10.428284
1489.000000	10.459635
1490.000000	10.475062
1491.000000	10.508258
1492.000000	10.509800
1493.000000	10.563595
1494.000000	10.549260
1495.000000	10.496186
1496.000000	10.483526
1497.000000	10.471009
1498.000000	10.486231
1499.000000	10.491943
1500.000000	10.494365
1501.000000	10.529496
1502.000000	10.527892
1503.000000	10.538123
1504.000000	10.541734
1505.000000	10.551811
1506.000000	10.533995
1507.000000	10.490202
1508.000000	10.469813
1509.000000	10.446412
1510.000000	10.460315
1511.000000	10.452875
1512.000000	10.437631
1513.000000	10.425909
1514.000000	10.412345
1515.000000	10.399447
1516.000000	10.401590
1517.000000	10.399508
1518.000000	10.355274
1519.000000	10.286249
1520.000000	10.251833
1521.000000	10.225497
1522.000000	10.238078
1523.000000	10.203179
1524.000000	10.158187
1525.000000	10.111241
1526.000000	10.065878
1527.000000	10.005550
1528.000000	9.940866
1529.000000	9.911186
1530.000000	9.881220
1531.000000	9.837835
1532.000000	9.788141
1533.000000	9.734173
1534.000000	9.694339
1535.000000	9.669155
1536.000000	9.633875
1537.000000	9.583371
1538.000000	9.547585
1539.000000	9.531548
1540.000000	9.496823
1541.000000	9.472430
1542.000000	9.429397
1543.000000	9.394379
1544.000000	9.347207
1545.000000	9.274966
1546.000000	9.232415
1547.000000	9.196347
1548.000000	9.117206
1549.000000	9.055409
1550.000000	9.003584
1551.000000	8.966674
1552.000000	8.928502
1553.000000	8.916021
1554.000000	8.886927
1555.000000	8.830105
1556.000000	8.775194
1557.000000	8.730617
1558.000000	8.715789
1559.000000	8.682044
1560.000000	8.638331
1561.000000	8.615923
1562.000000	8.610696
1563.000000	8.597698
1564.000000	8.565489
1565.000000	8.556698
1566.000000	8.548548
1567.000000	8.550197
1568.000000	8.527224
1569.000000	8.498343
1570.000000	8.471736
1571.000000	8.455076
1572.000000	8.440929
1573.000000	8.433009
1574.000000	8.397834
1575.000000	8.369600
1576.000000	8.373384
1577.000000	8.391821
1578.000000	8.419700
1579.000000	8.407182
1580.000000	8.371566
1581.000000	8.331376
1582.000000	8.324304
1583.000000	8.324923
1584.000000	8.324523
1585.000000	8.303141
1586.000000	8.261860
1587.000000	8.217402
1588.000000	8.165665
1589.000000	8.168139
1590.000000	8.193732
1591.000000	8.213658
1592.000000	8.183655
1593.000000	8.126964
1594.000000	8.100953
1595.000000	8.128969
1596.000000	8.119433
1597.000000	8.098197
1598.000000	8.079702
1599.000000	8.062960
1600.000000	8.049340
1601.000000	8.016859
1602.000000	7.998104
1603.000000	7.979857
1604.000000	7.943404
1605.000000	7.900977
1606.000000	7.859051
1607.000000	7.815465
1608.000000	7.753200
1609.000000	7.713214
1610.000000	7.671534
1611.000000	7.596695
1612.000000	7.555794
1613.000000	7.497984
1614.000000	7.474046
1615.000000	7.459884
1616.000000	7.448298
1617.000000	7.396681
1618.000000	7.362721
1619.000000	7.341169
1620.000000	7.332072
1621.000000	7.348438
1622.000000	7.345930
1623.000000	7.349895
1624.000000	7.348321
1625.000000	7.312278
1626.000000	7.280805
1627.000000	7.273487
1628.000000	7.257687
1629.000000	7.262330
1630.000000	7.226271
1631.000000	7.209402
1632.000000	7.192823
1633.000000	7.184687
1634.000000	7.162596
1635.000000	7.131266
1636.000000	7.077775
1637.000000	7.007140
1638.000000	6.971329
1639.000000	6.994167
1640.000000	7.017148
1641.000000	7.001606
1642.000000	6.996863
1643.000000	7.003684
1644.000000	6.976054
1645.000000	6.985522
1646.000000	6.994065
1647.000000	6.958213
1648.000000	6.906225
1649.000000	6.870756
1650.000000	6.858219
1651.000000	6.841778
1652.000000	6.826314
1653.000000	6.810790
1654.000000	6.768794
1655.000000	6.759863
1656.000000	6.741984
1657.000000	6.728286
1658.000000	6.690429
1659.000000	6.673240
1660.000000	6.680835
1661.000000	6.633710
1662.000000	6.612558
1663.000000	6.593515
1664.000000	6.552476
1665.000000	6.521968
1666.000000	6.521306
1667.000000	6.544613
1668.000000	6.538615
1669.000000	6.562242
1670.000000	6.600266
1671.000000	6.652535
1672.000000	6.712268
1673.000000	6.752703
1674.000000	6.749022
1675.000000	6.750613
1676.000000	6.786064
1677.000000	6.814268
1678.000000	6.844419
1679.000000	6.922752
1680.000000	6.957157
1681.000000	6.998109
1682.000000	7.086217
1683.000000	7.162846
1684.000000	7.211683
1685.000000	7.261513
1686.000000	7.309724
1687.000000	7.371438
1688.000000	7.440901
1689.000000	7.528325
1690.000000	7.601691
1691.000000	7.652130
1692.000000	7.705643
1693.000000	7.766882
1694.000000	7.832985
1695.000000	7.880933
1696.000000	7.974113
1697.000000	8.014448
1698.000000	8.079145
1699.000000	8.166083
1700.000000	8.229112
1701.000000	8.249490
1702.000000	8.268644
1703.000000	8.315195
1704.000000	8.325057
1705.000000	8.339409
1706.000000	8.384623
1707.000000	8.405033
1708.000000	8.454735
1709.000000	8.502025
1710.000000	8.539806
1711.000000	8.551842
1712.000000	8.603368
1713.000000	8.633796
1714.000000	8.686821
1715.000000	8.715949
1716.000000	8.750320
1717.000000	8.747632
1718.000000	8.781983
1719.000000	8.830786
1720.000000	8.891568
1721.000000	8.942647
1722.000000	8.991317
1723.000000	8.995459
1724.000000	9.005225
1725.000000	9.024303
1726.000000	9.044043
1727.000000	9.091703
1728.000000	9.172833
1729.000000	9.210024
1730.000000	9.207669
1731.000000	9.224064
1732.000000	9.268597
1733.000000	9.311162
1734.000000	9.314398
1735.000000	9.365535
1736.000000	9.399594
1737.000000	9.415900
1738.000000	9.412612
1739.000000	9.446415
1740.000000	9.455228
1741.000000	9.493144
1742.000000	9.550169
1743.000000	9.536017
1744.000000	9.539090
1745.000000	9.547559
1746.000000	9.580295
1747.000000	9.562822
1748.000000	9.590104
1749.000000	9.573023
1750.000000	9.569535
1751.000000	9.544546
1752.000000	9.544840
1753.000000	9.569390
1754.000000	9.555449
1755.000000	9.527882
1756.000000	9.494543
1757.000000	9.473366
1758.000000	9.453185
1759.000000	9.413740
1760.000000	9.407443
1761.000000	9.398343
1762.000000	9.359981
1763.000000	9.319768
1764.000000	9.260867
1765.000000	9.236455
1766.000000	9.228997
1767.000000	9.213435
1768.000000	9.187465
1769.000000	9.194190
1770.000000	9.141435
1771.000000	9.125629
1772.000000	9.131610
1773.000000	9.146405
1774.000000	9.131529
1775.000000	9.137020
1776.000000	9.079883
1777.000000	9.011141
1778.000000	8.988034
1779.000000	8.979681
1780.000000	8.947964
1781.000000	8.919944
1782.000000	8.900085
1783.000000	8.873731
1784.000000	8.853149
1785.000000	8.838821
1786.000000	8.853090
1787.000000	8.849462
1788.000000	8.801833
1789.000000	8.802328
1790.000000	8.794220
1791.000000	8.770029
1792.000000	8.753486
1793.000000	8.763639
1794.000000	8.800044
1795.000000	8.771942
1796.000000	8.745573
1797.000000	8.744402
1798.000000	8.713321
1799.000000	8.724087
1800.000000	8.730977
1801.000000	8.684636
1802.000000	8.669635
1803.000000	8.688077
1804.000000	8.657074
1805.000000	8.627424
1806.000000	8.593328
1807.000000	8.553956
1808.000000	8.519075
1809.000000	8.488408
1810.000000	8.451527
1811.000000	8.458582
1812.000000	8.495219
1813.000000	8.531503
1814.000000	8.496084
1815.000000	8.452267
1816.000000	8.460892
1817.000000	8.392590
1818.000000	8.262898
1819.000000	8.160085
1820.000000	8.041006
1821.000000	8.010314
1822.000000	7.979796
1823.000000	7.962330
1824.000000	7.927054
1825.000000	7.839225
1826.000000	7.764681
1827.000000	7.757587
1828.000000	7.759876
1829.000000	7.738777
1830.000000	7.665995
1831.000000	7.629704
1832.000000	7.616934
1833.000000	7.672639
1834.000000	7.677941
1835.000000	7.622956
1836.000000	7.595207
1837.000000	7.582445
1838.000000	7.588593
1839.000000	7.677441
1840.000000	7.786175
1841.000000	7.761235
1842.000000	7.721758
1843.000000	7.715011
1844.000000	7.744530
1845.000000	7.777388
1846.000000	7.737964
1847.000000	7.579783
1848.000000	7.519057
1849.000000	7.531164
1850.000000	7.564244
1851.000000	7.581106
1852.000000	7.668447
1853.000000	7.778738
1854.000000	7.873097
1855.000000	7.921264
1856.000000	7.854447
1857.000000	7.873707
1858.000000	7.879328
1859.000000	7.862437
1860.000000	7.966255
1861.000000	8.049482
1862.000000	8.042096
1863.000000	8.031560
1864.000000	8.070998
1865.000000	8.165171
1866.000000	8.196171
1867.000000	8.208426
1868.000000	8.184628
1869.000000	8.183371
1870.000000	8.269140
1871.000000	8.419160
1872.000000	8.353182
1873.000000	8.317190
1874.000000	8.256435
1875.000000	8.200653
1876.000000	8.224870
1877.000000	8.293817
1878.000000	8.372041
1879.000000	8.397538
1880.000000	8.400159
1881.000000	8.492062
1882.000000	8.704451
1883.000000	8.734987
1884.000000	8.803032
1885.000000	8.898926
1886.000000	8.916889
1887.000000	9.000540
1888.000000	9.112379
1889.000000	9.165745
1890.000000	9.349408
1891.000000	9.520348
1892.000000	9.645611
1893.000000	9.800850
1894.000000	9.985753
1895.000000	10.110901
1896.000000	10.278364
1897.000000	10.479538
1898.000000	10.654967
1899.000000	10.820459
1900.000000	11.019988
1901.000000	11.267353
1902.000000	11.375192
1903.000000	11.601371
1904.000000	11.820954
1905.000000	12.110361
1906.000000	12.308352
1907.000000	12.729545
1908.000000	13.063496
1909.000000	13.397738
1910.000000	13.694348
1911.000000	14.106781
1912.000000	14.456954
1913.000000	14.749474
1914.000000	15.104690
1915.000000	15.442754
1916.000000	15.828243
1917.000000	16.185165
1918.000000	16.623444
1919.000000	16.923558
1920.000000	17.219066
1921.000000	17.615010
1922.000000	17.960972
1923.000000	18.248684
1924.000000	18.631820
1925.000000	18.967737
1926.000000	19.286940
1927.000000	19.623413
1928.000000	19.933602
1929.000000	20.226264
1930.000000	20.513323
1931.000000	20.813458
1932.000000	21.108656
1933.000000	21.338803
1934.000000	21.601454
1935.000000	21.802594
1936.000000	22.025740
1937.000000	22.347152
1938.000000	22.531233
1939.000000	22.807900
1940.000000	22.934982
1941.000000	23.081452
1942.000000	23.196908
1943.000000	23.299427
1944.000000	23.396087
1945.000000	23.521102
1946.000000	23.543649
1947.000000	23.607860
1948.000000	23.659011
1949.000000	23.719785
1950.000000	23.792779
1951.000000	23.754478
1952.000000	23.723379
1953.000000	23.719574
1954.000000	23.789725
1955.000000	23.803240
1956.000000	23.761718
1957.000000	23.756528
1958.000000	23.746674
1959.000000	23.700333
1960.000000	23.638393
1961.000000	23.601738
1962.000000	23.511822
1963.000000	23.448754
1964.000000	23.386314
1965.000000	23.340268
1966.000000	23.269384
1967.000000	23.149799
1968.000000	23.125978
1969.000000	23.015180
1970.000000	22.945927
1971.000000	22.824695
1972.000000	22.763408
1973.000000	22.673692
1974.000000	22.544285
1975.000000	22.441197
1976.000000	22.354655
1977.000000	22.247915
1978.000000	22.180264
1979.000000	22.088013
1980.000000	21.979811
1981.000000	21.923891
1982.000000	21.833683
1983.000000	21.744243
1984.000000	21.626420
1985.000000	21.494460
1986.000000	21.424211
1987.000000	21.337836
1988.000000	21.214777
1989.000000	21.084020
1990.000000	20.992664
1991.000000	20.892786
1992.000000	20.773191
1993.000000	20.705367
1994.000000	20.627995
1995.000000	20.518197
1996.000000	20.426902
1997.000000	20.353206
1998.000000	20.231221
1999.000000	20.127157
2000.000000	20.025292
