PE UV       SUBTECH     SPECTRUM    ASCII       PEDS        4.00        
   -1
C.AURI.INBI-TX3.ASC
23/11/29
13:33:10.00
23/11/29
13:33:10.00
Vinicio Soto Monge
C. AURIGANS INBIO DESCABEZADO
250,000000
1
Lambda 1050
1050L1511233
PerkinElmer UV WinLab 6.3.2.0749 / 2.02.05 Lambda 900 UV/VIS/NIR, Aug  7 2015 09:38:08

0
0
3350/servo 860,8/2
0
0
UV/VIS
1
1
1
DoubleDePol,CommonBeamDepol,RBeamAtt,SBeamAtt,60mm sphere, WB InGaAs Detector
0
0
0
0
Program
Program
3350/servo 860,8/2
3350/0,4 860,8/0,4
3350/0,4 860,8/0,4
0
20.00
 
 
 
0
 
860,8
319,2
860,8
Front
100
on
S:100 R:100
0
0
0
0
 
0
 
 
 
0
 
 
0
0
0
0
0
 
 
 
 
0
0


0
0
#HDR
-1
-1
#GR
nm
%A
1.0
0.0
2200,000000
-1,000000
1951
8
73,936923
0,295565
#DATA
284.000000	94.089525
285.000000	94.101722
286.000000	94.113676
287.000000	94.127057
288.000000	94.138061
289.000000	94.148181
290.000000	94.156592
291.000000	94.164078
292.000000	94.172182
293.000000	94.176701
294.000000	94.181294
295.000000	94.183783
296.000000	94.185279
297.000000	94.187825
298.000000	94.189024
299.000000	94.189663
300.000000	94.188350
301.000000	94.187574
302.000000	94.186727
303.000000	94.185571
304.000000	94.182613
305.000000	94.180274
306.000000	94.179174
307.000000	94.175933
308.000000	94.171370
309.000000	94.166064
310.000000	94.162116
311.000000	94.157445
312.000000	94.153518
313.000000	94.150414
314.000000	94.147154
315.000000	94.143912
316.000000	94.141605
317.000000	94.143282
318.000000	94.138603
319.000000	94.134874
320.000000	94.130379
321.000000	94.131793
322.000000	94.131531
323.000000	94.132384
324.000000	94.132341
325.000000	94.132698
326.000000	94.132156
327.000000	94.132010
328.000000	94.131036
329.000000	94.130216
330.000000	94.130617
331.000000	94.133185
332.000000	94.133309
333.000000	94.135516
334.000000	94.138251
335.000000	94.138263
336.000000	94.136585
337.000000	94.136208
338.000000	94.136647
339.000000	94.137436
340.000000	94.137546
341.000000	94.134770
342.000000	94.131481
343.000000	94.129407
344.000000	94.128104
345.000000	94.125644
346.000000	94.121319
347.000000	94.117485
348.000000	94.113831
349.000000	94.108673
350.000000	94.103164
351.000000	94.097453
352.000000	94.089054
353.000000	94.084596
354.000000	94.078834
355.000000	94.070737
356.000000	94.057749
357.000000	94.044377
358.000000	94.029183
359.000000	94.017064
360.000000	94.005869
361.000000	93.994654
362.000000	93.980928
363.000000	93.970822
364.000000	93.959049
365.000000	93.944863
366.000000	93.930924
367.000000	93.919531
368.000000	93.905441
369.000000	93.890085
370.000000	93.876643
371.000000	93.864684
372.000000	93.851904
373.000000	93.838572
374.000000	93.826725
375.000000	93.813346
376.000000	93.802272
377.000000	93.793364
378.000000	93.783231
379.000000	93.772954
380.000000	93.762055
381.000000	93.753008
382.000000	93.743506
383.000000	93.733290
384.000000	93.724491
385.000000	93.715468
386.000000	93.705390
387.000000	93.696510
388.000000	93.688229
389.000000	93.680692
390.000000	93.675112
391.000000	93.669055
392.000000	93.663757
393.000000	93.659225
394.000000	93.652331
395.000000	93.646251
396.000000	93.640712
397.000000	93.636358
398.000000	93.630692
399.000000	93.625871
400.000000	93.622719
401.000000	93.618889
402.000000	93.613972
403.000000	93.608889
404.000000	93.605301
405.000000	93.602986
406.000000	93.599578
407.000000	93.596486
408.000000	93.592971
409.000000	93.588207
410.000000	93.584740
411.000000	93.580680
412.000000	93.576404
413.000000	93.572198
414.000000	93.567858
415.000000	93.563577
416.000000	93.559214
417.000000	93.554761
418.000000	93.550259
419.000000	93.545417
420.000000	93.539980
421.000000	93.534226
422.000000	93.528293
423.000000	93.522139
424.000000	93.516025
425.000000	93.509695
426.000000	93.503258
427.000000	93.496566
428.000000	93.489702
429.000000	93.482458
430.000000	93.474642
431.000000	93.466974
432.000000	93.459506
433.000000	93.452032
434.000000	93.444494
435.000000	93.436657
436.000000	93.428317
437.000000	93.419623
438.000000	93.410851
439.000000	93.401994
440.000000	93.392481
441.000000	93.382412
442.000000	93.372203
443.000000	93.361979
444.000000	93.351664
445.000000	93.341295
446.000000	93.330812
447.000000	93.320210
448.000000	93.309433
449.000000	93.298562
450.000000	93.287669
451.000000	93.276504
452.000000	93.264816
453.000000	93.252925
454.000000	93.241060
455.000000	93.229341
456.000000	93.217605
457.000000	93.205455
458.000000	93.193124
459.000000	93.180749
460.000000	93.168291
461.000000	93.155277
462.000000	93.141941
463.000000	93.128424
464.000000	93.114891
465.000000	93.101264
466.000000	93.087067
467.000000	93.072302
468.000000	93.056934
469.000000	93.040833
470.000000	93.024167
471.000000	93.007006
472.000000	92.989269
473.000000	92.971092
474.000000	92.952087
475.000000	92.932205
476.000000	92.911957
477.000000	92.890881
478.000000	92.868648
479.000000	92.845445
480.000000	92.821160
481.000000	92.795862
482.000000	92.769413
483.000000	92.741416
484.000000	92.711815
485.000000	92.680560
486.000000	92.647646
487.000000	92.613057
488.000000	92.576590
489.000000	92.538044
490.000000	92.497098
491.000000	92.453610
492.000000	92.407348
493.000000	92.358381
494.000000	92.306378
495.000000	92.250694
496.000000	92.191882
497.000000	92.130010
498.000000	92.064717
499.000000	91.996130
500.000000	91.923945
501.000000	91.848073
502.000000	91.768233
503.000000	91.684290
504.000000	91.596318
505.000000	91.503886
506.000000	91.406565
507.000000	91.304116
508.000000	91.195133
509.000000	91.078574
510.000000	90.952931
511.000000	90.815359
512.000000	90.662684
513.000000	90.490169
514.000000	90.291961
515.000000	90.060479
516.000000	89.787948
517.000000	89.464591
518.000000	89.081957
519.000000	88.630344
520.000000	88.102798
521.000000	87.494513
522.000000	86.805945
523.000000	86.041016
524.000000	85.207714
525.000000	84.318125
526.000000	83.384663
527.000000	82.417620
528.000000	81.425413
529.000000	80.414184
530.000000	79.388126
531.000000	78.349069
532.000000	77.298695
533.000000	76.238772
534.000000	75.169538
535.000000	74.091958
536.000000	73.008739
537.000000	71.921884
538.000000	70.832537
539.000000	69.741993
540.000000	68.652052
541.000000	67.563848
542.000000	66.478310
543.000000	65.395474
544.000000	64.315451
545.000000	63.239569
546.000000	62.168604
547.000000	61.105995
548.000000	60.056085
549.000000	59.024959
550.000000	58.020734
551.000000	57.051416
552.000000	56.127457
553.000000	55.258098
554.000000	54.453001
555.000000	53.721748
556.000000	53.068598
557.000000	52.494413
558.000000	51.995517
559.000000	51.564937
560.000000	51.188890
561.000000	50.856096
562.000000	50.556417
563.000000	50.279534
564.000000	50.020271
565.000000	49.773764
566.000000	49.538299
567.000000	49.311413
568.000000	49.090498
569.000000	48.877447
570.000000	48.671234
571.000000	48.470532
572.000000	48.273697
573.000000	48.081702
574.000000	47.892568
575.000000	47.707236
576.000000	47.527355
577.000000	47.351903
578.000000	47.183112
579.000000	47.022317
580.000000	46.866700
581.000000	46.717209
582.000000	46.569309
583.000000	46.423449
584.000000	46.277972
585.000000	46.134355
586.000000	45.993401
587.000000	45.858577
588.000000	45.732074
589.000000	45.614469
590.000000	45.506857
591.000000	45.408500
592.000000	45.317891
593.000000	45.232567
594.000000	45.147105
595.000000	45.057359
596.000000	44.957140
597.000000	44.843504
598.000000	44.718472
599.000000	44.584140
600.000000	44.447831
601.000000	44.313207
602.000000	44.185164
603.000000	44.070403
604.000000	43.968998
605.000000	43.883490
606.000000	43.813031
607.000000	43.755009
608.000000	43.702485
609.000000	43.649433
610.000000	43.585658
611.000000	43.505456
612.000000	43.407829
613.000000	43.293501
614.000000	43.166082
615.000000	43.036022
616.000000	42.909795
617.000000	42.796254
618.000000	42.699369
619.000000	42.624643
620.000000	42.569046
621.000000	42.532390
622.000000	42.506763
623.000000	42.483859
624.000000	42.455181
625.000000	42.409537
626.000000	42.339440
627.000000	42.244060
628.000000	42.125709
629.000000	41.991169
630.000000	41.855143
631.000000	41.728063
632.000000	41.620523
633.000000	41.535982
634.000000	41.476975
635.000000	41.440038
636.000000	41.420092
637.000000	41.409772
638.000000	41.397857
639.000000	41.373586
640.000000	41.325726
641.000000	41.245813
642.000000	41.131873
643.000000	40.989600
644.000000	40.830570
645.000000	40.668500
646.000000	40.514098
647.000000	40.374577
648.000000	40.254548
649.000000	40.153011
650.000000	40.064481
651.000000	39.984642
652.000000	39.907184
653.000000	39.823220
654.000000	39.722971
655.000000	39.601323
656.000000	39.452099
657.000000	39.275852
658.000000	39.076009
659.000000	38.862590
660.000000	38.646993
661.000000	38.440119
662.000000	38.250291
663.000000	38.081889
664.000000	37.937266
665.000000	37.808633
666.000000	37.693184
667.000000	37.582713
668.000000	37.473520
669.000000	37.357096
670.000000	37.224485
671.000000	37.073253
672.000000	36.900594
673.000000	36.708612
674.000000	36.504202
675.000000	36.297509
676.000000	36.100348
677.000000	35.920895
678.000000	35.763540
679.000000	35.626718
680.000000	35.508530
681.000000	35.405654
682.000000	35.312713
683.000000	35.222630
684.000000	35.131077
685.000000	35.032751
686.000000	34.921579
687.000000	34.794098
688.000000	34.653520
689.000000	34.499358
690.000000	34.335412
691.000000	34.169622
692.000000	34.008508
693.000000	33.858441
694.000000	33.721876
695.000000	33.598220
696.000000	33.488935
697.000000	33.388800
698.000000	33.293159
699.000000	33.196764
700.000000	33.095662
701.000000	32.986356
702.000000	32.868172
703.000000	32.735574
704.000000	32.588048
705.000000	32.431773
706.000000	32.270606
707.000000	32.110617
708.000000	31.954387
709.000000	31.805256
710.000000	31.665271
711.000000	31.531358
712.000000	31.402971
713.000000	31.277139
714.000000	31.148752
715.000000	31.014615
716.000000	30.872406
717.000000	30.720416
718.000000	30.557804
719.000000	30.385752
720.000000	30.208661
721.000000	30.029363
722.000000	29.850357
723.000000	29.672822
724.000000	29.501302
725.000000	29.338045
726.000000	29.181920
727.000000	29.027447
728.000000	28.870061
729.000000	28.709857
730.000000	28.545384
731.000000	28.372852
732.000000	28.190911
733.000000	28.001829
734.000000	27.808469
735.000000	27.613542
736.000000	27.416789
737.000000	27.220653
738.000000	27.030008
739.000000	26.846237
740.000000	26.666191
741.000000	26.490047
742.000000	26.314681
743.000000	26.139346
744.000000	25.963884
745.000000	25.786081
746.000000	25.605872
747.000000	25.420906
748.000000	25.233206
749.000000	25.046077
750.000000	24.859914
751.000000	24.673525
752.000000	24.486542
753.000000	24.299505
754.000000	24.114693
755.000000	23.932196
756.000000	23.751608
757.000000	23.575265
758.000000	23.402891
759.000000	23.230819
760.000000	23.057667
761.000000	22.884166
762.000000	22.714165
763.000000	22.548826
764.000000	22.385817
765.000000	22.225576
766.000000	22.065045
767.000000	21.905642
768.000000	21.748801
769.000000	21.591210
770.000000	21.432589
771.000000	21.274859
772.000000	21.117411
773.000000	20.957871
774.000000	20.799739
775.000000	20.642887
776.000000	20.488663
777.000000	20.337977
778.000000	20.193913
779.000000	20.053555
780.000000	19.916325
781.000000	19.784714
782.000000	19.659032
783.000000	19.532844
784.000000	19.406916
785.000000	19.280354
786.000000	19.147489
787.000000	19.015908
788.000000	18.888985
789.000000	18.762581
790.000000	18.633186
791.000000	18.498958
792.000000	18.366437
793.000000	18.235890
794.000000	18.114082
795.000000	17.996224
796.000000	17.884707
797.000000	17.773846
798.000000	17.665236
799.000000	17.555613
800.000000	17.442670
801.000000	17.333137
802.000000	17.222240
803.000000	17.111865
804.000000	16.998674
805.000000	16.887287
806.000000	16.778491
807.000000	16.667038
808.000000	16.556317
809.000000	16.445670
810.000000	16.339620
811.000000	16.231636
812.000000	16.132390
813.000000	16.031272
814.000000	15.929452
815.000000	15.832212
816.000000	15.731935
817.000000	15.628831
818.000000	15.530481
819.000000	15.430028
820.000000	15.325331
821.000000	15.224753
822.000000	15.124681
823.000000	15.021880
824.000000	14.925252
825.000000	14.828216
826.000000	14.736935
827.000000	14.639888
828.000000	14.545328
829.000000	14.449827
830.000000	14.358439
831.000000	14.269850
832.000000	14.179091
833.000000	14.092243
834.000000	14.010807
835.000000	13.929655
836.000000	13.844406
837.000000	13.757730
838.000000	13.667525
839.000000	13.584964
840.000000	13.499222
841.000000	13.408224
842.000000	13.325895
843.000000	13.243509
844.000000	13.155892
845.000000	13.064903
846.000000	12.988799
847.000000	12.898652
848.000000	12.819126
849.000000	12.740958
850.000000	12.663576
851.000000	12.594249
852.000000	12.523842
853.000000	12.448394
854.000000	12.378917
855.000000	12.298543
856.000000	12.210287
857.000000	12.153587
858.000000	12.114585
859.000000	12.000987
860.000000	11.887435
861.000000	11.768136
862.000000	11.690081
863.000000	11.608336
864.000000	11.500383
865.000000	11.401816
866.000000	11.313711
867.000000	11.203712
868.000000	11.128575
869.000000	11.020402
870.000000	10.901112
871.000000	10.818232
872.000000	10.740084
873.000000	10.649903
874.000000	10.543649
875.000000	10.413530
876.000000	10.326084
877.000000	10.234225
878.000000	10.137927
879.000000	10.037014
880.000000	9.927150
881.000000	9.818327
882.000000	9.722251
883.000000	9.608416
884.000000	9.502886
885.000000	9.404058
886.000000	9.267452
887.000000	9.180009
888.000000	9.051978
889.000000	8.952313
890.000000	8.839600
891.000000	8.742077
892.000000	8.633508
893.000000	8.537551
894.000000	8.485924
895.000000	8.428756
896.000000	8.381480
897.000000	8.295077
898.000000	8.209318
899.000000	8.137330
900.000000	8.090375
901.000000	8.021660
902.000000	7.977644
903.000000	7.896996
904.000000	7.834027
905.000000	7.805189
906.000000	7.730035
907.000000	7.647843
908.000000	7.599393
909.000000	7.538944
910.000000	7.490251
911.000000	7.450344
912.000000	7.429644
913.000000	7.376267
914.000000	7.314036
915.000000	7.278840
916.000000	7.223853
917.000000	7.165896
918.000000	7.137084
919.000000	7.082464
920.000000	7.021927
921.000000	7.002609
922.000000	6.955268
923.000000	6.937061
924.000000	6.871580
925.000000	6.835391
926.000000	6.789120
927.000000	6.738417
928.000000	6.675590
929.000000	6.643904
930.000000	6.631799
931.000000	6.605411
932.000000	6.578911
933.000000	6.537836
934.000000	6.487561
935.000000	6.437467
936.000000	6.379407
937.000000	6.335618
938.000000	6.290105
939.000000	6.264760
940.000000	6.189572
941.000000	6.147279
942.000000	6.116641
943.000000	6.057666
944.000000	6.009969
945.000000	6.009004
946.000000	5.963507
947.000000	5.886172
948.000000	5.849518
949.000000	5.845827
950.000000	5.809538
951.000000	5.772260
952.000000	5.732109
953.000000	5.695379
954.000000	5.692734
955.000000	5.654253
956.000000	5.605484
957.000000	5.544313
958.000000	5.517559
959.000000	5.508189
960.000000	5.504700
961.000000	5.521053
962.000000	5.502424
963.000000	5.471892
964.000000	5.433755
965.000000	5.387025
966.000000	5.336588
967.000000	5.308840
968.000000	5.286511
969.000000	5.248005
970.000000	5.192493
971.000000	5.185453
972.000000	5.169315
973.000000	5.151050
974.000000	5.121591
975.000000	5.114903
976.000000	5.114148
977.000000	5.100347
978.000000	5.077951
979.000000	5.081606
980.000000	5.057627
981.000000	5.016189
982.000000	5.001513
983.000000	4.997246
984.000000	4.959985
985.000000	4.920986
986.000000	4.887391
987.000000	4.877687
988.000000	4.861005
989.000000	4.824673
990.000000	4.818414
991.000000	4.822871
992.000000	4.825261
993.000000	4.810611
994.000000	4.792638
995.000000	4.761561
996.000000	4.728352
997.000000	4.716402
998.000000	4.676475
999.000000	4.631073
1000.000000	4.583868
1001.000000	4.546044
1002.000000	4.528960
1003.000000	4.524960
1004.000000	4.544059
1005.000000	4.543119
1006.000000	4.486414
1007.000000	4.437114
1008.000000	4.392160
1009.000000	4.360640
1010.000000	4.354140
1011.000000	4.325483
1012.000000	4.313497
1013.000000	4.315961
1014.000000	4.300754
1015.000000	4.259502
1016.000000	4.216589
1017.000000	4.172627
1018.000000	4.112691
1019.000000	4.072101
1020.000000	4.076623
1021.000000	4.071932
1022.000000	4.066913
1023.000000	4.049995
1024.000000	4.015039
1025.000000	3.996188
1026.000000	3.967458
1027.000000	3.921399
1028.000000	3.914782
1029.000000	3.919223
1030.000000	3.885874
1031.000000	3.817027
1032.000000	3.773361
1033.000000	3.771862
1034.000000	3.752014
1035.000000	3.711263
1036.000000	3.671910
1037.000000	3.631597
1038.000000	3.585393
1039.000000	3.554730
1040.000000	3.517662
1041.000000	3.511043
1042.000000	3.494353
1043.000000	3.467287
1044.000000	3.460985
1045.000000	3.441612
1046.000000	3.409447
1047.000000	3.348742
1048.000000	3.287095
1049.000000	3.259868
1050.000000	3.253005
1051.000000	3.273939
1052.000000	3.304182
1053.000000	3.314632
1054.000000	3.319434
1055.000000	3.295871
1056.000000	3.313960
1057.000000	3.291996
1058.000000	3.259338
1059.000000	3.260377
1060.000000	3.236865
1061.000000	3.219867
1062.000000	3.222393
1063.000000	3.177317
1064.000000	3.129016
1065.000000	3.119485
1066.000000	3.139077
1067.000000	3.137442
1068.000000	3.115768
1069.000000	3.102771
1070.000000	3.081303
1071.000000	3.098319
1072.000000	3.059474
1073.000000	3.074417
1074.000000	3.082129
1075.000000	3.104235
1076.000000	3.083090
1077.000000	3.081423
1078.000000	3.084029
1079.000000	3.062539
1080.000000	3.036265
1081.000000	3.010144
1082.000000	3.042677
1083.000000	3.024063
1084.000000	3.000570
1085.000000	2.988517
1086.000000	2.947298
1087.000000	2.895932
1088.000000	2.874935
1089.000000	2.865128
1090.000000	2.836318
1091.000000	2.783649
1092.000000	2.776466
1093.000000	2.783349
1094.000000	2.778878
1095.000000	2.772729
1096.000000	2.788442
1097.000000	2.779912
1098.000000	2.744952
1099.000000	2.697692
1100.000000	2.685453
1101.000000	2.669915
1102.000000	2.652836
1103.000000	2.634964
1104.000000	2.639153
1105.000000	2.677021
1106.000000	2.676907
1107.000000	2.685606
1108.000000	2.618981
1109.000000	2.607142
1110.000000	2.548443
1111.000000	2.557127
1112.000000	2.561558
1113.000000	2.536110
1114.000000	2.566665
1115.000000	2.557537
1116.000000	2.583580
1117.000000	2.523896
1118.000000	2.538941
1119.000000	2.560452
1120.000000	2.544885
1121.000000	2.580751
1122.000000	2.544254
1123.000000	2.503581
1124.000000	2.482325
1125.000000	2.439336
1126.000000	2.450044
1127.000000	2.376844
1128.000000	2.329972
1129.000000	2.287892
1130.000000	2.321684
1131.000000	2.290488
1132.000000	2.288769
1133.000000	2.315112
1134.000000	2.280473
1135.000000	2.314549
1136.000000	2.327298
1137.000000	2.352976
1138.000000	2.336858
1139.000000	2.338342
1140.000000	2.350083
1141.000000	2.353239
1142.000000	2.353976
1143.000000	2.381186
1144.000000	2.384810
1145.000000	2.437830
1146.000000	2.421821
1147.000000	2.404943
1148.000000	2.434458
1149.000000	2.378441
1150.000000	2.427706
1151.000000	2.418688
1152.000000	2.451562
1153.000000	2.485465
1154.000000	2.499494
1155.000000	2.493038
1156.000000	2.470894
1157.000000	2.534874
1158.000000	2.594020
1159.000000	2.634677
1160.000000	2.720604
1161.000000	2.733977
1162.000000	2.798208
1163.000000	2.837456
1164.000000	2.877242
1165.000000	2.859603
1166.000000	2.906645
1167.000000	2.919437
1168.000000	2.932198
1169.000000	3.058495
1170.000000	3.073190
1171.000000	3.079165
1172.000000	3.086679
1173.000000	3.126379
1174.000000	3.170602
1175.000000	3.217755
1176.000000	3.263321
1177.000000	3.302021
1178.000000	3.362999
1179.000000	3.358748
1180.000000	3.385137
1181.000000	3.445333
1182.000000	3.490732
1183.000000	3.497518
1184.000000	3.557069
1185.000000	3.567529
1186.000000	3.587757
1187.000000	3.652087
1188.000000	3.661424
1189.000000	3.663348
1190.000000	3.705639
1191.000000	3.731669
1192.000000	3.720604
1193.000000	3.700669
1194.000000	3.716655
1195.000000	3.726211
1196.000000	3.728006
1197.000000	3.762513
1198.000000	3.805563
1199.000000	3.829287
1200.000000	3.848487
1201.000000	3.833412
1202.000000	3.868655
1203.000000	3.900518
1204.000000	3.877020
1205.000000	3.861411
1206.000000	3.859441
1207.000000	3.835015
1208.000000	3.836879
1209.000000	3.816344
1210.000000	3.775441
1211.000000	3.732776
1212.000000	3.708394
1213.000000	3.676577
1214.000000	3.705255
1215.000000	3.667356
1216.000000	3.646756
1217.000000	3.622418
1218.000000	3.640139
1219.000000	3.623432
1220.000000	3.619055
1221.000000	3.640706
1222.000000	3.613871
1223.000000	3.615883
1224.000000	3.607684
1225.000000	3.625655
1226.000000	3.630424
1227.000000	3.645852
1228.000000	3.662185
1229.000000	3.632385
1230.000000	3.630152
1231.000000	3.653378
1232.000000	3.628036
1233.000000	3.572372
1234.000000	3.545605
1235.000000	3.512088
1236.000000	3.499289
1237.000000	3.467770
1238.000000	3.460749
1239.000000	3.468693
1240.000000	3.467438
1241.000000	3.471255
1242.000000	3.475874
1243.000000	3.472458
1244.000000	3.463232
1245.000000	3.449983
1246.000000	3.440738
1247.000000	3.454561
1248.000000	3.446710
1249.000000	3.412472
1250.000000	3.426328
1251.000000	3.413906
1252.000000	3.400026
1253.000000	3.397440
1254.000000	3.375411
1255.000000	3.299070
1256.000000	3.243853
1257.000000	3.223503
1258.000000	3.211396
1259.000000	3.218202
1260.000000	3.186669
1261.000000	3.156231
1262.000000	3.137241
1263.000000	3.128952
1264.000000	3.121504
1265.000000	3.119092
1266.000000	3.099702
1267.000000	3.089014
1268.000000	3.108939
1269.000000	3.113287
1270.000000	3.117711
1271.000000	3.132138
1272.000000	3.140630
1273.000000	3.109163
1274.000000	3.073087
1275.000000	3.069015
1276.000000	3.081451
1277.000000	3.070042
1278.000000	3.065110
1279.000000	3.071905
1280.000000	3.063520
1281.000000	3.078452
1282.000000	3.077293
1283.000000	3.068912
1284.000000	3.063539
1285.000000	3.033543
1286.000000	3.022797
1287.000000	3.041148
1288.000000	3.028842
1289.000000	3.030008
1290.000000	3.076034
1291.000000	3.096964
1292.000000	3.095474
1293.000000	3.090678
1294.000000	3.052325
1295.000000	3.032142
1296.000000	3.035975
1297.000000	3.026729
1298.000000	3.026014
1299.000000	3.025454
1300.000000	3.000323
1301.000000	3.000039
1302.000000	3.016976
1303.000000	3.027283
1304.000000	3.032361
1305.000000	3.055620
1306.000000	3.044613
1307.000000	3.041702
1308.000000	3.080671
1309.000000	3.109969
1310.000000	3.102648
1311.000000	3.080653
1312.000000	3.086096
1313.000000	3.086920
1314.000000	3.086587
1315.000000	3.085543
1316.000000	3.071668
1317.000000	3.059621
1318.000000	3.042196
1319.000000	3.032938
1320.000000	3.040885
1321.000000	3.019577
1322.000000	2.995411
1323.000000	3.015447
1324.000000	3.040556
1325.000000	3.034289
1326.000000	3.021319
1327.000000	3.026526
1328.000000	3.019666
1329.000000	3.022117
1330.000000	3.027369
1331.000000	3.057503
1332.000000	3.086681
1333.000000	3.086104
1334.000000	3.087402
1335.000000	3.090672
1336.000000	3.080440
1337.000000	3.082998
1338.000000	3.063670
1339.000000	3.075635
1340.000000	3.093892
1341.000000	3.121899
1342.000000	3.118567
1343.000000	3.116331
1344.000000	3.148907
1345.000000	3.203118
1346.000000	3.258469
1347.000000	3.306401
1348.000000	3.331150
1349.000000	3.377550
1350.000000	3.478957
1351.000000	3.558500
1352.000000	3.610032
1353.000000	3.726940
1354.000000	3.738335
1355.000000	3.728229
1356.000000	3.777231
1357.000000	3.789672
1358.000000	3.759082
1359.000000	3.786866
1360.000000	3.713593
1361.000000	3.746206
1362.000000	3.912584
1363.000000	4.006603
1364.000000	4.036602
1365.000000	4.155974
1366.000000	4.093243
1367.000000	3.823221
1368.000000	3.777410
1369.000000	3.765019
1370.000000	3.681533
1371.000000	3.766553
1372.000000	3.863437
1373.000000	3.980680
1374.000000	3.999406
1375.000000	4.045566
1376.000000	4.088469
1377.000000	4.188363
1378.000000	4.127310
1379.000000	4.248748
1380.000000	4.417300
1381.000000	4.482251
1382.000000	4.171142
1383.000000	4.122147
1384.000000	4.027769
1385.000000	4.041436
1386.000000	4.087137
1387.000000	4.009882
1388.000000	4.115473
1389.000000	4.146151
1390.000000	4.206402
1391.000000	4.349946
1392.000000	4.571424
1393.000000	4.745944
1394.000000	4.769873
1395.000000	4.943160
1396.000000	5.132138
1397.000000	5.126268
1398.000000	5.171551
1399.000000	5.236165
1400.000000	5.037619
1401.000000	5.213469
1402.000000	5.617538
1403.000000	5.850006
1404.000000	6.054790
1405.000000	6.389613
1406.000000	6.499555
1407.000000	6.595936
1408.000000	6.717038
1409.000000	6.845483
1410.000000	6.974499
1411.000000	7.170951
1412.000000	7.277569
1413.000000	7.542877
1414.000000	7.549646
1415.000000	7.549742
1416.000000	7.680856
1417.000000	8.177629
1418.000000	8.396168
1419.000000	8.663939
1420.000000	8.759695
1421.000000	8.921512
1422.000000	9.202009
1423.000000	9.228549
1424.000000	9.465752
1425.000000	9.677223
1426.000000	9.789320
1427.000000	9.863397
1428.000000	9.970474
1429.000000	10.174454
1430.000000	10.399801
1431.000000	10.444430
1432.000000	10.536838
1433.000000	10.676807
1434.000000	10.875416
1435.000000	11.295923
1436.000000	11.480187
1437.000000	11.613594
1438.000000	11.735310
1439.000000	11.789353
1440.000000	11.865203
1441.000000	11.937184
1442.000000	12.042453
1443.000000	12.151013
1444.000000	12.330055
1445.000000	12.392612
1446.000000	12.478762
1447.000000	12.600872
1448.000000	12.700360
1449.000000	12.848062
1450.000000	12.902803
1451.000000	12.992415
1452.000000	13.099204
1453.000000	13.245784
1454.000000	13.374122
1455.000000	13.531920
1456.000000	13.599448
1457.000000	13.692356
1458.000000	13.811004
1459.000000	13.894463
1460.000000	13.966774
1461.000000	14.042867
1462.000000	14.094027
1463.000000	14.175933
1464.000000	14.257246
1465.000000	14.272854
1466.000000	14.390288
1467.000000	14.535827
1468.000000	14.633112
1469.000000	14.700748
1470.000000	14.741466
1471.000000	14.807279
1472.000000	14.880020
1473.000000	14.962864
1474.000000	15.118948
1475.000000	15.179012
1476.000000	15.318565
1477.000000	15.437681
1478.000000	15.490304
1479.000000	15.524902
1480.000000	15.614968
1481.000000	15.619451
1482.000000	15.652707
1483.000000	15.707075
1484.000000	15.760087
1485.000000	15.857008
1486.000000	15.904223
1487.000000	15.956069
1488.000000	15.995667
1489.000000	16.020802
1490.000000	16.055669
1491.000000	16.109156
1492.000000	16.153387
1493.000000	16.189212
1494.000000	16.220183
1495.000000	16.278955
1496.000000	16.312381
1497.000000	16.347033
1498.000000	16.375741
1499.000000	16.413248
1500.000000	16.469640
1501.000000	16.489588
1502.000000	16.456118
1503.000000	16.458872
1504.000000	16.497800
1505.000000	16.506563
1506.000000	16.473694
1507.000000	16.457961
1508.000000	16.407930
1509.000000	16.341168
1510.000000	16.268572
1511.000000	16.197377
1512.000000	16.119020
1513.000000	16.073874
1514.000000	16.033550
1515.000000	16.005729
1516.000000	15.984684
1517.000000	15.934799
1518.000000	15.872000
1519.000000	15.843521
1520.000000	15.805540
1521.000000	15.743339
1522.000000	15.674574
1523.000000	15.609882
1524.000000	15.569286
1525.000000	15.536921
1526.000000	15.488897
1527.000000	15.432222
1528.000000	15.362655
1529.000000	15.322949
1530.000000	15.288977
1531.000000	15.240143
1532.000000	15.184437
1533.000000	15.120863
1534.000000	15.066610
1535.000000	15.011065
1536.000000	14.956072
1537.000000	14.909268
1538.000000	14.847867
1539.000000	14.779164
1540.000000	14.724986
1541.000000	14.665712
1542.000000	14.613738
1543.000000	14.599181
1544.000000	14.580629
1545.000000	14.563094
1546.000000	14.531932
1547.000000	14.488563
1548.000000	14.431537
1549.000000	14.386134
1550.000000	14.352010
1551.000000	14.309869
1552.000000	14.267914
1553.000000	14.213808
1554.000000	14.150082
1555.000000	14.108587
1556.000000	14.085429
1557.000000	14.060212
1558.000000	14.027088
1559.000000	13.976528
1560.000000	13.924739
1561.000000	13.864099
1562.000000	13.824952
1563.000000	13.808914
1564.000000	13.748743
1565.000000	13.698469
1566.000000	13.689686
1567.000000	13.653783
1568.000000	13.608016
1569.000000	13.543734
1570.000000	13.491053
1571.000000	13.455956
1572.000000	13.412076
1573.000000	13.386146
1574.000000	13.356158
1575.000000	13.335263
1576.000000	13.333838
1577.000000	13.335947
1578.000000	13.318093
1579.000000	13.284498
1580.000000	13.280631
1581.000000	13.270738
1582.000000	13.258505
1583.000000	13.272207
1584.000000	13.310626
1585.000000	13.311728
1586.000000	13.315597
1587.000000	13.325361
1588.000000	13.343214
1589.000000	13.324766
1590.000000	13.315453
1591.000000	13.292422
1592.000000	13.269802
1593.000000	13.280763
1594.000000	13.268048
1595.000000	13.253099
1596.000000	13.253584
1597.000000	13.236835
1598.000000	13.195222
1599.000000	13.186967
1600.000000	13.145549
1601.000000	13.070208
1602.000000	13.034158
1603.000000	12.998111
1604.000000	12.986871
1605.000000	12.969304
1606.000000	12.924112
1607.000000	12.871896
1608.000000	12.821797
1609.000000	12.803293
1610.000000	12.780265
1611.000000	12.773316
1612.000000	12.716219
1613.000000	12.630519
1614.000000	12.565147
1615.000000	12.507582
1616.000000	12.496686
1617.000000	12.469459
1618.000000	12.414196
1619.000000	12.330941
1620.000000	12.292598
1621.000000	12.235048
1622.000000	12.189043
1623.000000	12.159209
1624.000000	12.143320
1625.000000	12.107005
1626.000000	12.082567
1627.000000	12.048366
1628.000000	11.995873
1629.000000	11.994680
1630.000000	11.981504
1631.000000	11.929138
1632.000000	11.894953
1633.000000	11.900907
1634.000000	11.887780
1635.000000	11.873751
1636.000000	11.843587
1637.000000	11.864111
1638.000000	11.865760
1639.000000	11.839380
1640.000000	11.789558
1641.000000	11.764813
1642.000000	11.735135
1643.000000	11.748085
1644.000000	11.715181
1645.000000	11.669680
1646.000000	11.624444
1647.000000	11.619321
1648.000000	11.649748
1649.000000	11.661511
1650.000000	11.689440
1651.000000	11.606457
1652.000000	11.587950
1653.000000	11.574311
1654.000000	11.564377
1655.000000	11.574731
1656.000000	11.569832
1657.000000	11.580201
1658.000000	11.564943
1659.000000	11.552752
1660.000000	11.543784
1661.000000	11.524063
1662.000000	11.546632
1663.000000	11.581700
1664.000000	11.533163
1665.000000	11.517785
1666.000000	11.561070
1667.000000	11.561238
1668.000000	11.558685
1669.000000	11.584668
1670.000000	11.643527
1671.000000	11.721171
1672.000000	11.725531
1673.000000	11.785805
1674.000000	11.850554
1675.000000	11.962544
1676.000000	12.046063
1677.000000	12.129414
1678.000000	12.163034
1679.000000	12.247302
1680.000000	12.311280
1681.000000	12.392421
1682.000000	12.467806
1683.000000	12.536205
1684.000000	12.617804
1685.000000	12.674993
1686.000000	12.803711
1687.000000	12.898754
1688.000000	12.979591
1689.000000	13.079688
1690.000000	13.121996
1691.000000	13.195297
1692.000000	13.278835
1693.000000	13.362851
1694.000000	13.442100
1695.000000	13.523267
1696.000000	13.628233
1697.000000	13.704311
1698.000000	13.728338
1699.000000	13.801335
1700.000000	13.836722
1701.000000	13.845602
1702.000000	13.912444
1703.000000	13.940490
1704.000000	13.964907
1705.000000	13.943890
1706.000000	13.974918
1707.000000	14.041756
1708.000000	14.052360
1709.000000	14.073972
1710.000000	14.075297
1711.000000	14.099006
1712.000000	14.128058
1713.000000	14.168610
1714.000000	14.185711
1715.000000	14.202857
1716.000000	14.250665
1717.000000	14.306538
1718.000000	14.341991
1719.000000	14.423756
1720.000000	14.493595
1721.000000	14.549903
1722.000000	14.608420
1723.000000	14.683736
1724.000000	14.713364
1725.000000	14.771583
1726.000000	14.836997
1727.000000	14.889111
1728.000000	14.931225
1729.000000	14.979767
1730.000000	15.062146
1731.000000	15.086032
1732.000000	15.124140
1733.000000	15.165408
1734.000000	15.203580
1735.000000	15.268406
1736.000000	15.326856
1737.000000	15.390777
1738.000000	15.446066
1739.000000	15.477505
1740.000000	15.533655
1741.000000	15.552839
1742.000000	15.567264
1743.000000	15.590097
1744.000000	15.604641
1745.000000	15.603893
1746.000000	15.600015
1747.000000	15.599014
1748.000000	15.612522
1749.000000	15.616797
1750.000000	15.641846
1751.000000	15.595067
1752.000000	15.547282
1753.000000	15.527577
1754.000000	15.466368
1755.000000	15.432441
1756.000000	15.386706
1757.000000	15.317647
1758.000000	15.245833
1759.000000	15.198920
1760.000000	15.154191
1761.000000	15.084040
1762.000000	15.015839
1763.000000	14.992246
1764.000000	14.979494
1765.000000	14.932825
1766.000000	14.930215
1767.000000	14.883229
1768.000000	14.860857
1769.000000	14.870521
1770.000000	14.848739
1771.000000	14.852487
1772.000000	14.820449
1773.000000	14.802110
1774.000000	14.797627
1775.000000	14.781108
1776.000000	14.784037
1777.000000	14.780187
1778.000000	14.786640
1779.000000	14.795937
1780.000000	14.795816
1781.000000	14.769398
1782.000000	14.777350
1783.000000	14.763406
1784.000000	14.755603
1785.000000	14.740250
1786.000000	14.755197
1787.000000	14.771503
1788.000000	14.749607
1789.000000	14.725046
1790.000000	14.682537
1791.000000	14.673017
1792.000000	14.664000
1793.000000	14.688855
1794.000000	14.698859
1795.000000	14.695495
1796.000000	14.719959
1797.000000	14.713626
1798.000000	14.690456
1799.000000	14.634856
1800.000000	14.569195
1801.000000	14.517388
1802.000000	14.520040
1803.000000	14.532470
1804.000000	14.502556
1805.000000	14.446664
1806.000000	14.360112
1807.000000	14.328846
1808.000000	14.347898
1809.000000	14.340598
1810.000000	14.323642
1811.000000	14.273492
1812.000000	14.234706
1813.000000	14.224938
1814.000000	14.214034
1815.000000	14.217284
1816.000000	14.212075
1817.000000	14.077119
1818.000000	13.975353
1819.000000	13.863494
1820.000000	13.852497
1821.000000	13.888720
1822.000000	13.932984
1823.000000	13.974710
1824.000000	13.975608
1825.000000	13.767360
1826.000000	13.673010
1827.000000	13.698684
1828.000000	13.700711
1829.000000	13.680139
1830.000000	13.547327
1831.000000	13.492883
1832.000000	13.529592
1833.000000	13.545197
1834.000000	13.567745
1835.000000	13.501218
1836.000000	13.522900
1837.000000	13.578646
1838.000000	13.664048
1839.000000	13.767934
1840.000000	13.914084
1841.000000	13.930574
1842.000000	13.921511
1843.000000	13.874621
1844.000000	13.834924
1845.000000	13.864250
1846.000000	13.820395
1847.000000	13.684891
1848.000000	13.665976
1849.000000	13.683683
1850.000000	13.723428
1851.000000	13.797954
1852.000000	13.921733
1853.000000	13.950447
1854.000000	14.049124
1855.000000	14.048469
1856.000000	14.122829
1857.000000	14.201404
1858.000000	14.247523
1859.000000	14.258194
1860.000000	14.505607
1861.000000	14.619364
1862.000000	14.595096
1863.000000	14.408172
1864.000000	14.383933
1865.000000	14.525127
1866.000000	14.615206
1867.000000	14.554317
1868.000000	14.580583
1869.000000	14.611405
1870.000000	14.463126
1871.000000	14.504553
1872.000000	14.302537
1873.000000	14.233272
1874.000000	14.169086
1875.000000	14.158780
1876.000000	14.141092
1877.000000	14.229899
1878.000000	14.316991
1879.000000	14.423135
1880.000000	14.466270
1881.000000	14.639544
1882.000000	14.888892
1883.000000	14.954294
1884.000000	15.067836
1885.000000	15.155682
1886.000000	15.193269
1887.000000	15.369182
1888.000000	15.618211
1889.000000	15.736253
1890.000000	15.963158
1891.000000	16.012359
1892.000000	16.118202
1893.000000	16.261101
1894.000000	16.515274
1895.000000	16.742940
1896.000000	16.974443
1897.000000	17.238584
1898.000000	17.708802
1899.000000	18.087991
1900.000000	18.431617
1901.000000	18.728183
1902.000000	18.852722
1903.000000	19.227834
1904.000000	19.613046
1905.000000	20.300277
1906.000000	20.633109
1907.000000	21.237589
1908.000000	21.647055
1909.000000	22.072055
1910.000000	22.474306
1911.000000	23.082527
1912.000000	23.547641
1913.000000	23.990119
1914.000000	24.475837
1915.000000	24.946993
1916.000000	25.430083
1917.000000	25.916828
1918.000000	26.467885
1919.000000	26.839850
1920.000000	27.242651
1921.000000	27.799024
1922.000000	28.229103
1923.000000	28.601460
1924.000000	29.150352
1925.000000	29.574436
1926.000000	29.989730
1927.000000	30.404459
1928.000000	30.766810
1929.000000	31.122679
1930.000000	31.501680
1931.000000	31.866293
1932.000000	32.217451
1933.000000	32.500547
1934.000000	32.818402
1935.000000	33.049764
1936.000000	33.347080
1937.000000	33.865864
1938.000000	34.102389
1939.000000	34.348473
1940.000000	34.508228
1941.000000	34.736967
1942.000000	34.912615
1943.000000	35.078324
1944.000000	35.209842
1945.000000	35.307723
1946.000000	35.360060
1947.000000	35.414851
1948.000000	35.537185
1949.000000	35.623467
1950.000000	35.689744
1951.000000	35.677119
1952.000000	35.677824
1953.000000	35.660928
1954.000000	35.734016
1955.000000	35.780680
1956.000000	35.695283
1957.000000	35.653473
1958.000000	35.641468
1959.000000	35.542435
1960.000000	35.458863
1961.000000	35.402021
1962.000000	35.280007
1963.000000	35.223114
1964.000000	35.140512
1965.000000	35.026354
1966.000000	34.925754
1967.000000	34.802009
1968.000000	34.752774
1969.000000	34.586037
1970.000000	34.495410
1971.000000	34.378481
1972.000000	34.259921
1973.000000	34.075014
1974.000000	33.888108
1975.000000	33.791151
1976.000000	33.687581
1977.000000	33.531608
1978.000000	33.405890
1979.000000	33.262013
1980.000000	33.125188
1981.000000	32.993882
1982.000000	32.890731
1983.000000	32.739460
1984.000000	32.556802
1985.000000	32.397177
1986.000000	32.275584
1987.000000	32.148868
1988.000000	31.996057
1989.000000	31.882277
1990.000000	31.748702
1991.000000	31.622503
1992.000000	31.528547
1993.000000	31.444807
1994.000000	31.318053
1995.000000	31.162259
1996.000000	31.046417
1997.000000	30.936612
1998.000000	30.806154
1999.000000	30.711413
2000.000000	30.576023
