PE UV       SUBTECH     SPECTRUM    ASCII       PEDS        4.00        
   -1
C.CHRY.6713-TX3.ASC
23/11/29
14:23:42.00
23/11/29
14:23:42.00
Vinicio Soto Monge
C. CHRYSARGYREA INBIOCRI002426713
250,000000
1
Lambda 1050
1050L1511233
PerkinElmer UV WinLab 6.3.2.0749 / 2.02.05 Lambda 900 UV/VIS/NIR, Aug  7 2015 09:38:08

0
0
3350/servo 860,8/2
0
0
UV/VIS
1
1
1
DoubleDePol,CommonBeamDepol,RBeamAtt,SBeamAtt,60mm sphere, WB InGaAs Detector
0
0
0
0
Program
Program
3350/servo 860,8/2
3350/0,4 860,8/0,4
3350/0,4 860,8/0,4
0
20.00
 
 
 
0
 
860,8
319,2
860,8
Front
100
on
S:100 R:100
0
0
0
0
 
0
 
 
 
0
 
 
0
0
0
0
0
 
 
 
 
0
0


0
0
#HDR
-1
-1
#GR
nm
%A
1.0
0.0
2200,000000
-1,000000
1951
8
49,319150
0,212376
#DATA
284.000000	94.412079
285.000000	94.423820
286.000000	94.434983
287.000000	94.445294
288.000000	94.454558
289.000000	94.462874
290.000000	94.471566
291.000000	94.478959
292.000000	94.485559
293.000000	94.490803
294.000000	94.494300
295.000000	94.497337
296.000000	94.502029
297.000000	94.507047
298.000000	94.510354
299.000000	94.513954
300.000000	94.515594
301.000000	94.518206
302.000000	94.520270
303.000000	94.521347
304.000000	94.522245
305.000000	94.523122
306.000000	94.525440
307.000000	94.526001
308.000000	94.525400
309.000000	94.526620
310.000000	94.527996
311.000000	94.528491
312.000000	94.528644
313.000000	94.530464
314.000000	94.533284
315.000000	94.535157
316.000000	94.537672
317.000000	94.544516
318.000000	94.549550
319.000000	94.555222
320.000000	94.560647
321.000000	94.565881
322.000000	94.568826
323.000000	94.574884
324.000000	94.580475
325.000000	94.583793
326.000000	94.587391
327.000000	94.589786
328.000000	94.593157
329.000000	94.598637
330.000000	94.604728
331.000000	94.610161
332.000000	94.615087
333.000000	94.619552
334.000000	94.622225
335.000000	94.626902
336.000000	94.629510
337.000000	94.633835
338.000000	94.637688
339.000000	94.640069
340.000000	94.643850
341.000000	94.645367
342.000000	94.648682
343.000000	94.651077
344.000000	94.652084
345.000000	94.652577
346.000000	94.651423
347.000000	94.651050
348.000000	94.651102
349.000000	94.650048
350.000000	94.648863
351.000000	94.645893
352.000000	94.638868
353.000000	94.633643
354.000000	94.628886
355.000000	94.622555
356.000000	94.615484
357.000000	94.612035
358.000000	94.604572
359.000000	94.597579
360.000000	94.591716
361.000000	94.586682
362.000000	94.583658
363.000000	94.578583
364.000000	94.571251
365.000000	94.564290
366.000000	94.557005
367.000000	94.550298
368.000000	94.543273
369.000000	94.537474
370.000000	94.532078
371.000000	94.527308
372.000000	94.522067
373.000000	94.516908
374.000000	94.513223
375.000000	94.507632
376.000000	94.502348
377.000000	94.496617
378.000000	94.491237
379.000000	94.485707
380.000000	94.480704
381.000000	94.477444
382.000000	94.473422
383.000000	94.468189
384.000000	94.463076
385.000000	94.458560
386.000000	94.454753
387.000000	94.451491
388.000000	94.447167
389.000000	94.442644
390.000000	94.439280
391.000000	94.436040
392.000000	94.432183
393.000000	94.429401
394.000000	94.426665
395.000000	94.424547
396.000000	94.421279
397.000000	94.417338
398.000000	94.414871
399.000000	94.412766
400.000000	94.409790
401.000000	94.406789
402.000000	94.403924
403.000000	94.401426
404.000000	94.398750
405.000000	94.395094
406.000000	94.391547
407.000000	94.387668
408.000000	94.383556
409.000000	94.379109
410.000000	94.375467
411.000000	94.371708
412.000000	94.368421
413.000000	94.365214
414.000000	94.361810
415.000000	94.358253
416.000000	94.354634
417.000000	94.350640
418.000000	94.346282
419.000000	94.341655
420.000000	94.337112
421.000000	94.332467
422.000000	94.327397
423.000000	94.322443
424.000000	94.317508
425.000000	94.312323
426.000000	94.306793
427.000000	94.301307
428.000000	94.295769
429.000000	94.290151
430.000000	94.284306
431.000000	94.278064
432.000000	94.271910
433.000000	94.265484
434.000000	94.258828
435.000000	94.252189
436.000000	94.245436
437.000000	94.238159
438.000000	94.230630
439.000000	94.223038
440.000000	94.215310
441.000000	94.207222
442.000000	94.199034
443.000000	94.190902
444.000000	94.182586
445.000000	94.173934
446.000000	94.165515
447.000000	94.156944
448.000000	94.148095
449.000000	94.139378
450.000000	94.130830
451.000000	94.122102
452.000000	94.113153
453.000000	94.104393
454.000000	94.095671
455.000000	94.086678
456.000000	94.077656
457.000000	94.068450
458.000000	94.058982
459.000000	94.049117
460.000000	94.039230
461.000000	94.029196
462.000000	94.019209
463.000000	94.009078
464.000000	93.998665
465.000000	93.987892
466.000000	93.977156
467.000000	93.966124
468.000000	93.954759
469.000000	93.943006
470.000000	93.930734
471.000000	93.918214
472.000000	93.905537
473.000000	93.892431
474.000000	93.879004
475.000000	93.865222
476.000000	93.850717
477.000000	93.835457
478.000000	93.819336
479.000000	93.802593
480.000000	93.785542
481.000000	93.767626
482.000000	93.748850
483.000000	93.729279
484.000000	93.708261
485.000000	93.685946
486.000000	93.662721
487.000000	93.638071
488.000000	93.612004
489.000000	93.584606
490.000000	93.555493
491.000000	93.524434
492.000000	93.491397
493.000000	93.456452
494.000000	93.419113
495.000000	93.379018
496.000000	93.336525
497.000000	93.291094
498.000000	93.242403
499.000000	93.190355
500.000000	93.134312
501.000000	93.073595
502.000000	93.007506
503.000000	92.935386
504.000000	92.856738
505.000000	92.770654
506.000000	92.676679
507.000000	92.573855
508.000000	92.461114
509.000000	92.336828
510.000000	92.199387
511.000000	92.046574
512.000000	91.874704
513.000000	91.679523
514.000000	91.455424
515.000000	91.195885
516.000000	90.893885
517.000000	90.540896
518.000000	90.128557
519.000000	89.649129
520.000000	89.096642
521.000000	88.468461
522.000000	87.767019
523.000000	86.998709
524.000000	86.172767
525.000000	85.300654
526.000000	84.393026
527.000000	83.458853
528.000000	82.504711
529.000000	81.536367
530.000000	80.558327
531.000000	79.573150
532.000000	78.583245
533.000000	77.591277
534.000000	76.597722
535.000000	75.603504
536.000000	74.610013
537.000000	73.619387
538.000000	72.631865
539.000000	71.649018
540.000000	70.671962
541.000000	69.700955
542.000000	68.737522
543.000000	67.782792
544.000000	66.837889
545.000000	65.903682
546.000000	64.982064
547.000000	64.076539
548.000000	63.192177
549.000000	62.334729
550.000000	61.510896
551.000000	60.727675
552.000000	59.994106
553.000000	59.318173
554.000000	58.708381
555.000000	58.171283
556.000000	57.709130
557.000000	57.319232
558.000000	56.996451
559.000000	56.731622
560.000000	56.511470
561.000000	56.327956
562.000000	56.172086
563.000000	56.036505
564.000000	55.915335
565.000000	55.804750
566.000000	55.701756
567.000000	55.604792
568.000000	55.511294
569.000000	55.421645
570.000000	55.335985
571.000000	55.253343
572.000000	55.172218
573.000000	55.092921
574.000000	55.014568
575.000000	54.937707
576.000000	54.863836
577.000000	54.791907
578.000000	54.721728
579.000000	54.654734
580.000000	54.591847
581.000000	54.535027
582.000000	54.483815
583.000000	54.438563
584.000000	54.399732
585.000000	54.368343
586.000000	54.346022
587.000000	54.335074
588.000000	54.337345
589.000000	54.352468
590.000000	54.378996
591.000000	54.413042
592.000000	54.447556
593.000000	54.473943
594.000000	54.486413
595.000000	54.485363
596.000000	54.470255
597.000000	54.446922
598.000000	54.421381
599.000000	54.399847
600.000000	54.388266
601.000000	54.389415
602.000000	54.407570
603.000000	54.446778
604.000000	54.508244
605.000000	54.593618
606.000000	54.700014
607.000000	54.822251
608.000000	54.952111
609.000000	55.077504
610.000000	55.184135
611.000000	55.263353
612.000000	55.312423
613.000000	55.335681
614.000000	55.339758
615.000000	55.334306
616.000000	55.326396
617.000000	55.324426
618.000000	55.332934
619.000000	55.356053
620.000000	55.394939
621.000000	55.449800
622.000000	55.518055
623.000000	55.594547
624.000000	55.672995
625.000000	55.744514
626.000000	55.802761
627.000000	55.842684
628.000000	55.864501
629.000000	55.868397
630.000000	55.857455
631.000000	55.835333
632.000000	55.807038
633.000000	55.773902
634.000000	55.739685
635.000000	55.704818
636.000000	55.670491
637.000000	55.636194
638.000000	55.600463
639.000000	55.562327
640.000000	55.518572
641.000000	55.468653
642.000000	55.413561
643.000000	55.352931
644.000000	55.289055
645.000000	55.225864
646.000000	55.164470
647.000000	55.104040
648.000000	55.040070
649.000000	54.969074
650.000000	54.885632
651.000000	54.788385
652.000000	54.676780
653.000000	54.549575
654.000000	54.406066
655.000000	54.247024
656.000000	54.074487
657.000000	53.889583
658.000000	53.696754
659.000000	53.503141
660.000000	53.317541
661.000000	53.148111
662.000000	53.003765
663.000000	52.885078
664.000000	52.791426
665.000000	52.715620
666.000000	52.647888
667.000000	52.574022
668.000000	52.485584
669.000000	52.374421
670.000000	52.235338
671.000000	52.069729
672.000000	51.876758
673.000000	51.656088
674.000000	51.411907
675.000000	51.149189
676.000000	50.873726
677.000000	50.592286
678.000000	50.316009
679.000000	50.056717
680.000000	49.823818
681.000000	49.624250
682.000000	49.460640
683.000000	49.329010
684.000000	49.220243
685.000000	49.125379
686.000000	49.033681
687.000000	48.932212
688.000000	48.814693
689.000000	48.674379
690.000000	48.507883
691.000000	48.312397
692.000000	48.090139
693.000000	47.844239
694.000000	47.576577
695.000000	47.292118
696.000000	46.995954
697.000000	46.695207
698.000000	46.396316
699.000000	46.106708
700.000000	45.834606
701.000000	45.583227
702.000000	45.357546
703.000000	45.158446
704.000000	44.982174
705.000000	44.824012
706.000000	44.676189
707.000000	44.533723
708.000000	44.390846
709.000000	44.240290
710.000000	44.077361
711.000000	43.897899
712.000000	43.701303
713.000000	43.487995
714.000000	43.255406
715.000000	43.006579
716.000000	42.743239
717.000000	42.469050
718.000000	42.189076
719.000000	41.909162
720.000000	41.634285
721.000000	41.368212
722.000000	41.115988
723.000000	40.880817
724.000000	40.665956
725.000000	40.471601
726.000000	40.292716
727.000000	40.125401
728.000000	39.966115
729.000000	39.812766
730.000000	39.658540
731.000000	39.499443
732.000000	39.331477
733.000000	39.154862
734.000000	38.969514
735.000000	38.773236
736.000000	38.567872
737.000000	38.353954
738.000000	38.133665
739.000000	37.909422
740.000000	37.682881
741.000000	37.458585
742.000000	37.238964
743.000000	37.026457
744.000000	36.823265
745.000000	36.631988
746.000000	36.453823
747.000000	36.287488
748.000000	36.129654
749.000000	35.979549
750.000000	35.834290
751.000000	35.691866
752.000000	35.548349
753.000000	35.399333
754.000000	35.246554
755.000000	35.090828
756.000000	34.929821
757.000000	34.765365
758.000000	34.596710
759.000000	34.423369
760.000000	34.244364
761.000000	34.064324
762.000000	33.884248
763.000000	33.705572
764.000000	33.529205
765.000000	33.356756
766.000000	33.188144
767.000000	33.026656
768.000000	32.873776
769.000000	32.725913
770.000000	32.582552
771.000000	32.442372
772.000000	32.302759
773.000000	32.163711
774.000000	32.024456
775.000000	31.885006
776.000000	31.745092
777.000000	31.600537
778.000000	31.453236
779.000000	31.304293
780.000000	31.153051
781.000000	31.000052
782.000000	30.842492
783.000000	30.683414
784.000000	30.525758
785.000000	30.369364
786.000000	30.213291
787.000000	30.059778
788.000000	29.912840
789.000000	29.772214
790.000000	29.633105
791.000000	29.496586
792.000000	29.365836
793.000000	29.237262
794.000000	29.112523
795.000000	28.988123
796.000000	28.864200
797.000000	28.738675
798.000000	28.612662
799.000000	28.481299
800.000000	28.345300
801.000000	28.208642
802.000000	28.069973
803.000000	27.927647
804.000000	27.781124
805.000000	27.633682
806.000000	27.488714
807.000000	27.348147
808.000000	27.205370
809.000000	27.062156
810.000000	26.921868
811.000000	26.782337
812.000000	26.649055
813.000000	26.516571
814.000000	26.385697
815.000000	26.254893
816.000000	26.126465
817.000000	25.998515
818.000000	25.869983
819.000000	25.741956
820.000000	25.608397
821.000000	25.474595
822.000000	25.337299
823.000000	25.202145
824.000000	25.066877
825.000000	24.929827
826.000000	24.795476
827.000000	24.653078
828.000000	24.510897
829.000000	24.367756
830.000000	24.230422
831.000000	24.100452
832.000000	23.965336
833.000000	23.829750
834.000000	23.699565
835.000000	23.574336
836.000000	23.452354
837.000000	23.331034
838.000000	23.204961
839.000000	23.082733
840.000000	22.966429
841.000000	22.846314
842.000000	22.720677
843.000000	22.601050
844.000000	22.480631
845.000000	22.356603
846.000000	22.231382
847.000000	22.103096
848.000000	21.982147
849.000000	21.859747
850.000000	21.743678
851.000000	21.620997
852.000000	21.510651
853.000000	21.397418
854.000000	21.283083
855.000000	21.174367
856.000000	21.061172
857.000000	20.968346
858.000000	20.882459
859.000000	20.741046
860.000000	20.606785
861.000000	20.479178
862.000000	20.378970
863.000000	20.255124
864.000000	20.138242
865.000000	20.015257
866.000000	19.904986
867.000000	19.756944
868.000000	19.635497
869.000000	19.481952
870.000000	19.345327
871.000000	19.224997
872.000000	19.127696
873.000000	19.011030
874.000000	18.891329
875.000000	18.753103
876.000000	18.633997
877.000000	18.507744
878.000000	18.355760
879.000000	18.224371
880.000000	18.121446
881.000000	17.995561
882.000000	17.870158
883.000000	17.737721
884.000000	17.623457
885.000000	17.503081
886.000000	17.380211
887.000000	17.270580
888.000000	17.150896
889.000000	17.031833
890.000000	16.906056
891.000000	16.779161
892.000000	16.670472
893.000000	16.539728
894.000000	16.435609
895.000000	16.345274
896.000000	16.223781
897.000000	16.101619
898.000000	15.995337
899.000000	15.901997
900.000000	15.791037
901.000000	15.677653
902.000000	15.614748
903.000000	15.523914
904.000000	15.455402
905.000000	15.359335
906.000000	15.255710
907.000000	15.139182
908.000000	15.021934
909.000000	14.924427
910.000000	14.839074
911.000000	14.742102
912.000000	14.674234
913.000000	14.626253
914.000000	14.551582
915.000000	14.435662
916.000000	14.349039
917.000000	14.252845
918.000000	14.188263
919.000000	14.106315
920.000000	14.024549
921.000000	13.946214
922.000000	13.862610
923.000000	13.774026
924.000000	13.679303
925.000000	13.581823
926.000000	13.498700
927.000000	13.393790
928.000000	13.301233
929.000000	13.250923
930.000000	13.174109
931.000000	13.101992
932.000000	13.008903
933.000000	12.924948
934.000000	12.816929
935.000000	12.752277
936.000000	12.655739
937.000000	12.563536
938.000000	12.495632
939.000000	12.414377
940.000000	12.337047
941.000000	12.257197
942.000000	12.171016
943.000000	12.109701
944.000000	12.027027
945.000000	11.966868
946.000000	11.888213
947.000000	11.772211
948.000000	11.672528
949.000000	11.602175
950.000000	11.533757
951.000000	11.452329
952.000000	11.390621
953.000000	11.283214
954.000000	11.187542
955.000000	11.080276
956.000000	10.963348
957.000000	10.864170
958.000000	10.778641
959.000000	10.704445
960.000000	10.653516
961.000000	10.618274
962.000000	10.538486
963.000000	10.448272
964.000000	10.341249
965.000000	10.234365
966.000000	10.172137
967.000000	10.109750
968.000000	10.030934
969.000000	9.966998
970.000000	9.880040
971.000000	9.814115
972.000000	9.732639
973.000000	9.631667
974.000000	9.535966
975.000000	9.453525
976.000000	9.364576
977.000000	9.286634
978.000000	9.223251
979.000000	9.159383
980.000000	9.064447
981.000000	8.985659
982.000000	8.921512
983.000000	8.863318
984.000000	8.777141
985.000000	8.683247
986.000000	8.605230
987.000000	8.508321
988.000000	8.444680
989.000000	8.370111
990.000000	8.304529
991.000000	8.260132
992.000000	8.164818
993.000000	8.077899
994.000000	8.008492
995.000000	7.930981
996.000000	7.827763
997.000000	7.747343
998.000000	7.660195
999.000000	7.566433
1000.000000	7.487232
1001.000000	7.404585
1002.000000	7.346249
1003.000000	7.289868
1004.000000	7.222324
1005.000000	7.165342
1006.000000	7.093915
1007.000000	7.030888
1008.000000	6.946159
1009.000000	6.900972
1010.000000	6.853487
1011.000000	6.806270
1012.000000	6.752931
1013.000000	6.677983
1014.000000	6.609076
1015.000000	6.545961
1016.000000	6.498780
1017.000000	6.451853
1018.000000	6.371170
1019.000000	6.309540
1020.000000	6.270791
1021.000000	6.200297
1022.000000	6.146103
1023.000000	6.099912
1024.000000	6.058055
1025.000000	6.021295
1026.000000	5.977437
1027.000000	5.928575
1028.000000	5.887037
1029.000000	5.833664
1030.000000	5.772717
1031.000000	5.717603
1032.000000	5.682928
1033.000000	5.642130
1034.000000	5.598604
1035.000000	5.561115
1036.000000	5.500057
1037.000000	5.425051
1038.000000	5.351209
1039.000000	5.285227
1040.000000	5.220048
1041.000000	5.169473
1042.000000	5.107492
1043.000000	5.053096
1044.000000	4.994415
1045.000000	4.960373
1046.000000	4.920910
1047.000000	4.858830
1048.000000	4.820061
1049.000000	4.794886
1050.000000	4.768439
1051.000000	4.700176
1052.000000	4.646785
1053.000000	4.609020
1054.000000	4.571324
1055.000000	4.528336
1056.000000	4.513565
1057.000000	4.490387
1058.000000	4.451399
1059.000000	4.403931
1060.000000	4.347630
1061.000000	4.285648
1062.000000	4.283050
1063.000000	4.251406
1064.000000	4.200292
1065.000000	4.135942
1066.000000	4.086948
1067.000000	4.022258
1068.000000	3.991473
1069.000000	3.976334
1070.000000	3.941067
1071.000000	3.923906
1072.000000	3.899366
1073.000000	3.889255
1074.000000	3.875175
1075.000000	3.867009
1076.000000	3.838725
1077.000000	3.829366
1078.000000	3.835832
1079.000000	3.816630
1080.000000	3.759665
1081.000000	3.708300
1082.000000	3.698179
1083.000000	3.656813
1084.000000	3.610846
1085.000000	3.564975
1086.000000	3.531862
1087.000000	3.487143
1088.000000	3.472048
1089.000000	3.447920
1090.000000	3.405063
1091.000000	3.372412
1092.000000	3.347596
1093.000000	3.326583
1094.000000	3.308575
1095.000000	3.275201
1096.000000	3.287058
1097.000000	3.235573
1098.000000	3.205485
1099.000000	3.182288
1100.000000	3.172655
1101.000000	3.135823
1102.000000	3.103352
1103.000000	3.083457
1104.000000	3.048128
1105.000000	3.014555
1106.000000	3.001650
1107.000000	2.983888
1108.000000	2.969085
1109.000000	2.951513
1110.000000	2.883256
1111.000000	2.851821
1112.000000	2.829828
1113.000000	2.773564
1114.000000	2.765882
1115.000000	2.760214
1116.000000	2.786975
1117.000000	2.760107
1118.000000	2.724425
1119.000000	2.716602
1120.000000	2.683417
1121.000000	2.685340
1122.000000	2.638712
1123.000000	2.582324
1124.000000	2.521096
1125.000000	2.513113
1126.000000	2.525445
1127.000000	2.502126
1128.000000	2.453052
1129.000000	2.408207
1130.000000	2.428027
1131.000000	2.383516
1132.000000	2.380907
1133.000000	2.374436
1134.000000	2.288532
1135.000000	2.317759
1136.000000	2.347066
1137.000000	2.342956
1138.000000	2.324315
1139.000000	2.319216
1140.000000	2.346730
1141.000000	2.335227
1142.000000	2.353743
1143.000000	2.355649
1144.000000	2.343950
1145.000000	2.363303
1146.000000	2.371881
1147.000000	2.346492
1148.000000	2.366192
1149.000000	2.326833
1150.000000	2.342402
1151.000000	2.321107
1152.000000	2.292074
1153.000000	2.321213
1154.000000	2.338651
1155.000000	2.362555
1156.000000	2.377238
1157.000000	2.431982
1158.000000	2.472372
1159.000000	2.501587
1160.000000	2.524142
1161.000000	2.500207
1162.000000	2.522682
1163.000000	2.567032
1164.000000	2.630907
1165.000000	2.628155
1166.000000	2.672797
1167.000000	2.697459
1168.000000	2.687307
1169.000000	2.814888
1170.000000	2.825302
1171.000000	2.847651
1172.000000	2.904513
1173.000000	2.941891
1174.000000	3.001640
1175.000000	3.063380
1176.000000	3.093286
1177.000000	3.089691
1178.000000	3.102898
1179.000000	3.119920
1180.000000	3.167934
1181.000000	3.203586
1182.000000	3.247501
1183.000000	3.281932
1184.000000	3.352261
1185.000000	3.397987
1186.000000	3.427737
1187.000000	3.493909
1188.000000	3.512609
1189.000000	3.514186
1190.000000	3.560491
1191.000000	3.587147
1192.000000	3.610567
1193.000000	3.617298
1194.000000	3.666224
1195.000000	3.696975
1196.000000	3.729990
1197.000000	3.773335
1198.000000	3.797598
1199.000000	3.776758
1200.000000	3.775621
1201.000000	3.744987
1202.000000	3.724334
1203.000000	3.774030
1204.000000	3.765608
1205.000000	3.765986
1206.000000	3.747487
1207.000000	3.724297
1208.000000	3.713875
1209.000000	3.690074
1210.000000	3.652085
1211.000000	3.618571
1212.000000	3.605743
1213.000000	3.578429
1214.000000	3.585138
1215.000000	3.534569
1216.000000	3.503737
1217.000000	3.483662
1218.000000	3.469046
1219.000000	3.448221
1220.000000	3.430322
1221.000000	3.419842
1222.000000	3.384231
1223.000000	3.375915
1224.000000	3.374333
1225.000000	3.337177
1226.000000	3.309100
1227.000000	3.283003
1228.000000	3.266359
1229.000000	3.244617
1230.000000	3.222749
1231.000000	3.202634
1232.000000	3.152244
1233.000000	3.093592
1234.000000	3.070391
1235.000000	3.086832
1236.000000	3.087155
1237.000000	3.086459
1238.000000	3.065353
1239.000000	3.072163
1240.000000	3.064842
1241.000000	3.052195
1242.000000	3.050417
1243.000000	3.045645
1244.000000	3.020786
1245.000000	2.990492
1246.000000	2.977811
1247.000000	2.946117
1248.000000	2.929814
1249.000000	2.896237
1250.000000	2.900084
1251.000000	2.892713
1252.000000	2.885444
1253.000000	2.869758
1254.000000	2.825206
1255.000000	2.759366
1256.000000	2.722154
1257.000000	2.724425
1258.000000	2.732414
1259.000000	2.711976
1260.000000	2.696254
1261.000000	2.671566
1262.000000	2.674260
1263.000000	2.676678
1264.000000	2.659573
1265.000000	2.655366
1266.000000	2.652047
1267.000000	2.647877
1268.000000	2.656513
1269.000000	2.663523
1270.000000	2.635301
1271.000000	2.648855
1272.000000	2.658018
1273.000000	2.627126
1274.000000	2.570898
1275.000000	2.546417
1276.000000	2.552291
1277.000000	2.530331
1278.000000	2.532830
1279.000000	2.559867
1280.000000	2.562307
1281.000000	2.568554
1282.000000	2.579658
1283.000000	2.575005
1284.000000	2.580302
1285.000000	2.571728
1286.000000	2.557202
1287.000000	2.546304
1288.000000	2.531650
1289.000000	2.540791
1290.000000	2.554805
1291.000000	2.573012
1292.000000	2.576057
1293.000000	2.535820
1294.000000	2.514807
1295.000000	2.507670
1296.000000	2.509218
1297.000000	2.504308
1298.000000	2.498325
1299.000000	2.490795
1300.000000	2.469372
1301.000000	2.443003
1302.000000	2.432567
1303.000000	2.440324
1304.000000	2.418440
1305.000000	2.420707
1306.000000	2.399183
1307.000000	2.382210
1308.000000	2.383891
1309.000000	2.397503
1310.000000	2.385102
1311.000000	2.345936
1312.000000	2.340438
1313.000000	2.328013
1314.000000	2.280107
1315.000000	2.249361
1316.000000	2.240726
1317.000000	2.248400
1318.000000	2.259376
1319.000000	2.253183
1320.000000	2.259818
1321.000000	2.260592
1322.000000	2.252208
1323.000000	2.267133
1324.000000	2.277224
1325.000000	2.267815
1326.000000	2.259907
1327.000000	2.269790
1328.000000	2.297025
1329.000000	2.303904
1330.000000	2.328227
1331.000000	2.338102
1332.000000	2.357770
1333.000000	2.372652
1334.000000	2.376923
1335.000000	2.394127
1336.000000	2.415915
1337.000000	2.442724
1338.000000	2.467606
1339.000000	2.507919
1340.000000	2.536788
1341.000000	2.562682
1342.000000	2.580338
1343.000000	2.625291
1344.000000	2.669299
1345.000000	2.721642
1346.000000	2.784426
1347.000000	2.833912
1348.000000	2.859086
1349.000000	2.907172
1350.000000	2.993098
1351.000000	3.109664
1352.000000	3.199310
1353.000000	3.322641
1354.000000	3.326487
1355.000000	3.327872
1356.000000	3.251599
1357.000000	3.297738
1358.000000	3.331976
1359.000000	3.391321
1360.000000	3.335760
1361.000000	3.326957
1362.000000	3.483748
1363.000000	3.583274
1364.000000	3.642284
1365.000000	3.772723
1366.000000	3.725568
1367.000000	3.559205
1368.000000	3.565770
1369.000000	3.545188
1370.000000	3.388896
1371.000000	3.435753
1372.000000	3.553902
1373.000000	3.655484
1374.000000	3.674327
1375.000000	3.732647
1376.000000	3.776136
1377.000000	3.884086
1378.000000	3.863499
1379.000000	4.007603
1380.000000	4.285853
1381.000000	4.464825
1382.000000	4.296834
1383.000000	4.263285
1384.000000	4.175567
1385.000000	4.199017
1386.000000	4.211581
1387.000000	3.989226
1388.000000	4.019569
1389.000000	4.076706
1390.000000	4.136734
1391.000000	4.365515
1392.000000	4.647240
1393.000000	4.776353
1394.000000	4.733276
1395.000000	4.951889
1396.000000	5.244653
1397.000000	5.316908
1398.000000	5.396236
1399.000000	5.450176
1400.000000	5.297667
1401.000000	5.525514
1402.000000	5.854851
1403.000000	6.053311
1404.000000	6.182274
1405.000000	6.578968
1406.000000	6.675731
1407.000000	6.797994
1408.000000	6.919756
1409.000000	7.074426
1410.000000	7.219112
1411.000000	7.441660
1412.000000	7.591843
1413.000000	7.835582
1414.000000	7.838616
1415.000000	7.781712
1416.000000	7.833147
1417.000000	8.235745
1418.000000	8.431760
1419.000000	8.785409
1420.000000	8.980352
1421.000000	9.171589
1422.000000	9.594038
1423.000000	9.675103
1424.000000	9.933161
1425.000000	10.170631
1426.000000	10.371180
1427.000000	10.380087
1428.000000	10.547642
1429.000000	10.849460
1430.000000	11.045951
1431.000000	11.047509
1432.000000	11.148196
1433.000000	11.300998
1434.000000	11.546222
1435.000000	11.901055
1436.000000	12.074131
1437.000000	12.188619
1438.000000	12.320785
1439.000000	12.528111
1440.000000	12.618965
1441.000000	12.813622
1442.000000	12.899099
1443.000000	13.026918
1444.000000	13.202171
1445.000000	13.221786
1446.000000	13.324667
1447.000000	13.432873
1448.000000	13.556554
1449.000000	13.746316
1450.000000	13.824004
1451.000000	13.956022
1452.000000	14.090899
1453.000000	14.275433
1454.000000	14.372061
1455.000000	14.501550
1456.000000	14.598847
1457.000000	14.715822
1458.000000	14.884142
1459.000000	14.975112
1460.000000	15.072576
1461.000000	15.127106
1462.000000	15.217805
1463.000000	15.306763
1464.000000	15.411478
1465.000000	15.499825
1466.000000	15.647507
1467.000000	15.719404
1468.000000	15.791732
1469.000000	15.800036
1470.000000	15.870182
1471.000000	15.953961
1472.000000	16.083119
1473.000000	16.183874
1474.000000	16.321211
1475.000000	16.415612
1476.000000	16.523530
1477.000000	16.638178
1478.000000	16.732451
1479.000000	16.823999
1480.000000	17.015671
1481.000000	17.069490
1482.000000	17.129238
1483.000000	17.182514
1484.000000	17.259511
1485.000000	17.363481
1486.000000	17.394857
1487.000000	17.440320
1488.000000	17.537126
1489.000000	17.596396
1490.000000	17.640239
1491.000000	17.681448
1492.000000	17.703094
1493.000000	17.736945
1494.000000	17.788673
1495.000000	17.822501
1496.000000	17.850766
1497.000000	17.867676
1498.000000	17.885516
1499.000000	17.899160
1500.000000	17.902645
1501.000000	17.890780
1502.000000	17.905076
1503.000000	17.914398
1504.000000	17.991787
1505.000000	18.008574
1506.000000	17.973509
1507.000000	17.951699
1508.000000	17.890527
1509.000000	17.835332
1510.000000	17.815884
1511.000000	17.749221
1512.000000	17.682882
1513.000000	17.613286
1514.000000	17.569940
1515.000000	17.528310
1516.000000	17.457155
1517.000000	17.408702
1518.000000	17.375327
1519.000000	17.313329
1520.000000	17.277524
1521.000000	17.241250
1522.000000	17.163144
1523.000000	17.073998
1524.000000	17.014097
1525.000000	16.950663
1526.000000	16.907705
1527.000000	16.864472
1528.000000	16.827963
1529.000000	16.775683
1530.000000	16.723409
1531.000000	16.657590
1532.000000	16.602299
1533.000000	16.532979
1534.000000	16.465643
1535.000000	16.403047
1536.000000	16.340583
1537.000000	16.256999
1538.000000	16.180572
1539.000000	16.104178
1540.000000	16.026768
1541.000000	15.961160
1542.000000	15.903888
1543.000000	15.885975
1544.000000	15.849464
1545.000000	15.789856
1546.000000	15.777228
1547.000000	15.741480
1548.000000	15.702973
1549.000000	15.633005
1550.000000	15.572931
1551.000000	15.537496
1552.000000	15.484681
1553.000000	15.401017
1554.000000	15.328670
1555.000000	15.255823
1556.000000	15.201360
1557.000000	15.177283
1558.000000	15.136418
1559.000000	15.094789
1560.000000	15.051377
1561.000000	14.981714
1562.000000	14.936394
1563.000000	14.894165
1564.000000	14.824539
1565.000000	14.794415
1566.000000	14.782712
1567.000000	14.743966
1568.000000	14.717281
1569.000000	14.693172
1570.000000	14.665347
1571.000000	14.629932
1572.000000	14.591724
1573.000000	14.593731
1574.000000	14.577837
1575.000000	14.570630
1576.000000	14.574469
1577.000000	14.571905
1578.000000	14.538049
1579.000000	14.497906
1580.000000	14.476901
1581.000000	14.465668
1582.000000	14.453574
1583.000000	14.435268
1584.000000	14.448440
1585.000000	14.450752
1586.000000	14.458866
1587.000000	14.459367
1588.000000	14.487458
1589.000000	14.494428
1590.000000	14.492661
1591.000000	14.483596
1592.000000	14.454815
1593.000000	14.467013
1594.000000	14.447610
1595.000000	14.432999
1596.000000	14.440417
1597.000000	14.405576
1598.000000	14.356231
1599.000000	14.323831
1600.000000	14.300479
1601.000000	14.286754
1602.000000	14.275719
1603.000000	14.254387
1604.000000	14.218736
1605.000000	14.164900
1606.000000	14.130483
1607.000000	14.084206
1608.000000	13.970784
1609.000000	13.897317
1610.000000	13.840042
1611.000000	13.815783
1612.000000	13.765891
1613.000000	13.710384
1614.000000	13.681161
1615.000000	13.622107
1616.000000	13.563486
1617.000000	13.521693
1618.000000	13.477090
1619.000000	13.393147
1620.000000	13.332969
1621.000000	13.269305
1622.000000	13.200906
1623.000000	13.147982
1624.000000	13.133469
1625.000000	13.091985
1626.000000	13.058359
1627.000000	13.018769
1628.000000	12.967425
1629.000000	12.934777
1630.000000	12.902306
1631.000000	12.848523
1632.000000	12.827923
1633.000000	12.801778
1634.000000	12.786894
1635.000000	12.752333
1636.000000	12.680742
1637.000000	12.628523
1638.000000	12.575455
1639.000000	12.523815
1640.000000	12.515219
1641.000000	12.510058
1642.000000	12.480103
1643.000000	12.519788
1644.000000	12.542965
1645.000000	12.527196
1646.000000	12.488579
1647.000000	12.457854
1648.000000	12.430070
1649.000000	12.410475
1650.000000	12.424156
1651.000000	12.383273
1652.000000	12.338228
1653.000000	12.301142
1654.000000	12.332984
1655.000000	12.344492
1656.000000	12.341127
1657.000000	12.313012
1658.000000	12.296217
1659.000000	12.268439
1660.000000	12.233422
1661.000000	12.234899
1662.000000	12.241660
1663.000000	12.260822
1664.000000	12.238006
1665.000000	12.220560
1666.000000	12.242592
1667.000000	12.255681
1668.000000	12.283494
1669.000000	12.324435
1670.000000	12.350378
1671.000000	12.401184
1672.000000	12.452966
1673.000000	12.499159
1674.000000	12.553881
1675.000000	12.637728
1676.000000	12.694970
1677.000000	12.811122
1678.000000	12.881031
1679.000000	12.914251
1680.000000	12.984117
1681.000000	13.055324
1682.000000	13.146821
1683.000000	13.287052
1684.000000	13.381058
1685.000000	13.458614
1686.000000	13.576937
1687.000000	13.699780
1688.000000	13.817978
1689.000000	13.905984
1690.000000	13.979016
1691.000000	14.093556
1692.000000	14.233119
1693.000000	14.325404
1694.000000	14.401656
1695.000000	14.498082
1696.000000	14.575918
1697.000000	14.660156
1698.000000	14.685045
1699.000000	14.761267
1700.000000	14.838097
1701.000000	14.882697
1702.000000	14.926275
1703.000000	14.961417
1704.000000	14.986108
1705.000000	15.024496
1706.000000	15.093976
1707.000000	15.138962
1708.000000	15.164416
1709.000000	15.221787
1710.000000	15.246822
1711.000000	15.278442
1712.000000	15.306075
1713.000000	15.334984
1714.000000	15.395784
1715.000000	15.438728
1716.000000	15.510456
1717.000000	15.555852
1718.000000	15.579695
1719.000000	15.655574
1720.000000	15.727693
1721.000000	15.785740
1722.000000	15.854312
1723.000000	15.879118
1724.000000	15.911817
1725.000000	15.968984
1726.000000	16.003814
1727.000000	16.037396
1728.000000	16.104164
1729.000000	16.173410
1730.000000	16.235606
1731.000000	16.266907
1732.000000	16.315981
1733.000000	16.387149
1734.000000	16.446594
1735.000000	16.501818
1736.000000	16.551599
1737.000000	16.630618
1738.000000	16.719993
1739.000000	16.776506
1740.000000	16.822049
1741.000000	16.841560
1742.000000	16.881089
1743.000000	16.927731
1744.000000	16.948097
1745.000000	16.938443
1746.000000	16.947493
1747.000000	16.940835
1748.000000	16.965175
1749.000000	16.973548
1750.000000	16.995548
1751.000000	16.966532
1752.000000	16.956580
1753.000000	16.934172
1754.000000	16.859073
1755.000000	16.801944
1756.000000	16.755817
1757.000000	16.720541
1758.000000	16.703206
1759.000000	16.651566
1760.000000	16.605583
1761.000000	16.557318
1762.000000	16.516142
1763.000000	16.474586
1764.000000	16.431637
1765.000000	16.397917
1766.000000	16.404501
1767.000000	16.388358
1768.000000	16.371788
1769.000000	16.374140
1770.000000	16.356286
1771.000000	16.358711
1772.000000	16.327155
1773.000000	16.286623
1774.000000	16.269500
1775.000000	16.264643
1776.000000	16.262719
1777.000000	16.237329
1778.000000	16.229831
1779.000000	16.226804
1780.000000	16.239683
1781.000000	16.230302
1782.000000	16.227849
1783.000000	16.196982
1784.000000	16.172208
1785.000000	16.143001
1786.000000	16.128499
1787.000000	16.109380
1788.000000	16.078392
1789.000000	16.081162
1790.000000	16.070952
1791.000000	16.037861
1792.000000	15.972874
1793.000000	15.963093
1794.000000	15.961079
1795.000000	15.945311
1796.000000	15.937219
1797.000000	15.934012
1798.000000	15.913681
1799.000000	15.879475
1800.000000	15.829782
1801.000000	15.778271
1802.000000	15.763430
1803.000000	15.752880
1804.000000	15.694706
1805.000000	15.627601
1806.000000	15.535111
1807.000000	15.500592
1808.000000	15.496139
1809.000000	15.474281
1810.000000	15.426041
1811.000000	15.377539
1812.000000	15.378407
1813.000000	15.365385
1814.000000	15.316902
1815.000000	15.287809
1816.000000	15.251259
1817.000000	15.103934
1818.000000	14.974654
1819.000000	14.828045
1820.000000	14.760097
1821.000000	14.790040
1822.000000	14.817101
1823.000000	14.832038
1824.000000	14.826272
1825.000000	14.616507
1826.000000	14.503888
1827.000000	14.537303
1828.000000	14.522099
1829.000000	14.496611
1830.000000	14.380037
1831.000000	14.327752
1832.000000	14.366680
1833.000000	14.410561
1834.000000	14.428274
1835.000000	14.318148
1836.000000	14.258641
1837.000000	14.291758
1838.000000	14.366107
1839.000000	14.508051
1840.000000	14.661209
1841.000000	14.690472
1842.000000	14.708627
1843.000000	14.752175
1844.000000	14.768413
1845.000000	14.797973
1846.000000	14.738362
1847.000000	14.574357
1848.000000	14.562181
1849.000000	14.594516
1850.000000	14.629939
1851.000000	14.706297
1852.000000	14.841524
1853.000000	14.952729
1854.000000	15.103768
1855.000000	15.148731
1856.000000	15.207661
1857.000000	15.277686
1858.000000	15.327011
1859.000000	15.336483
1860.000000	15.557129
1861.000000	15.682716
1862.000000	15.635637
1863.000000	15.482560
1864.000000	15.452317
1865.000000	15.596152
1866.000000	15.660950
1867.000000	15.597757
1868.000000	15.579261
1869.000000	15.598692
1870.000000	15.617874
1871.000000	15.735256
1872.000000	15.535376
1873.000000	15.458785
1874.000000	15.378783
1875.000000	15.345358
1876.000000	15.267548
1877.000000	15.287804
1878.000000	15.298135
1879.000000	15.375512
1880.000000	15.406418
1881.000000	15.571572
1882.000000	15.833439
1883.000000	15.858411
1884.000000	15.975804
1885.000000	16.114405
1886.000000	16.177071
1887.000000	16.350379
1888.000000	16.549472
1889.000000	16.664785
1890.000000	16.904847
1891.000000	16.987614
1892.000000	17.132430
1893.000000	17.334943
1894.000000	17.602050
1895.000000	17.864576
1896.000000	18.148102
1897.000000	18.467529
1898.000000	18.945335
1899.000000	19.339456
1900.000000	19.685433
1901.000000	20.001970
1902.000000	20.129220
1903.000000	20.472817
1904.000000	20.857477
1905.000000	21.427818
1906.000000	21.791139
1907.000000	22.446867
1908.000000	22.916564
1909.000000	23.386894
1910.000000	23.841020
1911.000000	24.539501
1912.000000	25.077520
1913.000000	25.570482
1914.000000	26.078884
1915.000000	26.594090
1916.000000	27.127600
1917.000000	27.650223
1918.000000	28.301503
1919.000000	28.734718
1920.000000	29.195597
1921.000000	29.772762
1922.000000	30.240671
1923.000000	30.646544
1924.000000	31.215960
1925.000000	31.662383
1926.000000	32.134378
1927.000000	32.578083
1928.000000	33.000244
1929.000000	33.404472
1930.000000	33.795163
1931.000000	34.185447
1932.000000	34.586660
1933.000000	34.921023
1934.000000	35.312335
1935.000000	35.611535
1936.000000	35.963549
1937.000000	36.534793
1938.000000	36.838562
1939.000000	37.137272
1940.000000	37.359079
1941.000000	37.611291
1942.000000	37.771603
1943.000000	37.969195
1944.000000	38.092075
1945.000000	38.227620
1946.000000	38.274986
1947.000000	38.356171
1948.000000	38.457182
1949.000000	38.504614
1950.000000	38.586017
1951.000000	38.575097
1952.000000	38.583794
1953.000000	38.571125
1954.000000	38.677277
1955.000000	38.678194
1956.000000	38.575680
1957.000000	38.552864
1958.000000	38.575959
1959.000000	38.472591
1960.000000	38.394502
1961.000000	38.318025
1962.000000	38.182309
1963.000000	38.098034
1964.000000	37.987896
1965.000000	37.891507
1966.000000	37.786869
1967.000000	37.639490
1968.000000	37.547106
1969.000000	37.370260
1970.000000	37.256441
1971.000000	37.128165
1972.000000	36.994491
1973.000000	36.871798
1974.000000	36.718758
1975.000000	36.585598
1976.000000	36.425644
1977.000000	36.265157
1978.000000	36.100200
1979.000000	35.985881
1980.000000	35.845780
1981.000000	35.717413
1982.000000	35.583640
1983.000000	35.430779
1984.000000	35.291782
1985.000000	35.151307
1986.000000	35.052386
1987.000000	34.902501
1988.000000	34.747234
1989.000000	34.557226
1990.000000	34.417463
1991.000000	34.308846
1992.000000	34.168406
1993.000000	34.040438
1994.000000	33.924415
1995.000000	33.767219
1996.000000	33.620034
1997.000000	33.526961
1998.000000	33.371330
1999.000000	33.263598
2000.000000	33.141585
