PE UV       SUBTECH     SPECTRUM    ASCII       PEDS        4.00        
   -1
C.BOUC.INB5423-TX3.ASC
23/11/30
16:47:56.00
23/11/30
16:47:56.00
Vinicio Soto Monge
C.BOUCARDI_INB0040G5423_COBRE
250,000000
1
Lambda 1050
1050L1511233
PerkinElmer UV WinLab 6.3.2.0749 / 2.02.05 Lambda 900 UV/VIS/NIR, Aug  7 2015 09:38:08

0
0
3350/servo 860,8/2
0
0
UV/VIS
1
1
1
DoubleDePol,CommonBeamDepol,RBeamAtt,SBeamAtt,60mm sphere, WB InGaAs Detector
0
0
0
0
Program
Program
3350/servo 860,8/2
3350/0,4 860,8/0,4
3350/0,4 860,8/0,4
0
20.00
 
 
 
0
 
860,8
319,2
860,8
Front
100
on
S:100 R:100
0
0
0
0
 
0
 
 
 
0
 
 
0
0
0
0
0
 
 
 
 
0
0


0
0
#HDR
-1
-1
#GR
nm
%A
1.0
0.0
2200,000000
-1,000000
1951
8
49,250288
0,338038
#DATA
284.000000	93.760516
285.000000	93.776377
286.000000	93.792143
287.000000	93.805166
288.000000	93.816377
289.000000	93.829534
290.000000	93.839093
291.000000	93.846789
292.000000	93.856299
293.000000	93.866277
294.000000	93.875615
295.000000	93.880900
296.000000	93.888040
297.000000	93.892955
298.000000	93.896618
299.000000	93.901448
300.000000	93.906640
301.000000	93.911999
302.000000	93.917701
303.000000	93.924529
304.000000	93.930494
305.000000	93.936030
306.000000	93.941263
307.000000	93.947762
308.000000	93.956260
309.000000	93.963804
310.000000	93.970462
311.000000	93.978088
312.000000	93.987035
313.000000	93.994015
314.000000	93.999117
315.000000	94.006288
316.000000	94.010846
317.000000	94.017797
318.000000	94.029769
319.000000	94.035536
320.000000	94.035791
321.000000	94.041635
322.000000	94.049360
323.000000	94.052889
324.000000	94.058441
325.000000	94.063654
326.000000	94.069706
327.000000	94.075845
328.000000	94.080477
329.000000	94.087608
330.000000	94.100720
331.000000	94.107797
332.000000	94.111593
333.000000	94.121052
334.000000	94.133918
335.000000	94.145073
336.000000	94.154419
337.000000	94.158816
338.000000	94.164297
339.000000	94.171046
340.000000	94.179927
341.000000	94.187559
342.000000	94.193617
343.000000	94.198685
344.000000	94.204150
345.000000	94.208400
346.000000	94.215443
347.000000	94.221822
348.000000	94.225426
349.000000	94.229586
350.000000	94.234235
351.000000	94.240490
352.000000	94.245468
353.000000	94.248438
354.000000	94.258542
355.000000	94.271473
356.000000	94.278154
357.000000	94.284106
358.000000	94.292081
359.000000	94.298488
360.000000	94.307816
361.000000	94.313992
362.000000	94.320112
363.000000	94.329308
364.000000	94.333051
365.000000	94.334510
366.000000	94.339439
367.000000	94.348685
368.000000	94.354368
369.000000	94.354954
370.000000	94.355365
371.000000	94.357420
372.000000	94.364242
373.000000	94.366619
374.000000	94.371231
375.000000	94.375932
376.000000	94.382156
377.000000	94.388784
378.000000	94.393266
379.000000	94.397088
380.000000	94.402378
381.000000	94.404777
382.000000	94.407558
383.000000	94.411159
384.000000	94.413898
385.000000	94.416921
386.000000	94.418686
387.000000	94.419078
388.000000	94.416852
389.000000	94.414300
390.000000	94.410302
391.000000	94.407524
392.000000	94.402279
393.000000	94.399268
394.000000	94.393532
395.000000	94.385546
396.000000	94.378854
397.000000	94.371570
398.000000	94.360212
399.000000	94.349412
400.000000	94.337121
401.000000	94.323046
402.000000	94.307620
403.000000	94.290074
404.000000	94.272944
405.000000	94.256090
406.000000	94.237767
407.000000	94.216537
408.000000	94.195164
409.000000	94.171242
410.000000	94.144692
411.000000	94.115249
412.000000	94.084338
413.000000	94.051765
414.000000	94.018192
415.000000	93.982864
416.000000	93.945832
417.000000	93.907510
418.000000	93.868120
419.000000	93.827691
420.000000	93.785478
421.000000	93.741737
422.000000	93.696882
423.000000	93.650676
424.000000	93.603258
425.000000	93.554490
426.000000	93.504413
427.000000	93.453266
428.000000	93.400730
429.000000	93.346526
430.000000	93.291389
431.000000	93.235220
432.000000	93.177709
433.000000	93.119611
434.000000	93.061047
435.000000	93.001276
436.000000	92.940237
437.000000	92.878780
438.000000	92.816565
439.000000	92.753410
440.000000	92.689402
441.000000	92.624423
442.000000	92.558265
443.000000	92.491495
444.000000	92.423904
445.000000	92.355856
446.000000	92.287385
447.000000	92.218512
448.000000	92.149165
449.000000	92.079100
450.000000	92.009075
451.000000	91.939574
452.000000	91.869967
453.000000	91.800220
454.000000	91.730098
455.000000	91.660187
456.000000	91.590408
457.000000	91.520881
458.000000	91.451334
459.000000	91.381798
460.000000	91.312739
461.000000	91.244120
462.000000	91.175744
463.000000	91.107743
464.000000	91.040335
465.000000	90.973483
466.000000	90.907391
467.000000	90.842475
468.000000	90.778505
469.000000	90.715608
470.000000	90.654375
471.000000	90.594489
472.000000	90.535558
473.000000	90.477852
474.000000	90.421115
475.000000	90.365974
476.000000	90.312874
477.000000	90.261196
478.000000	90.211163
479.000000	90.162499
480.000000	90.115600
481.000000	90.070178
482.000000	90.026442
483.000000	89.984864
484.000000	89.945264
485.000000	89.907303
486.000000	89.870836
487.000000	89.835886
488.000000	89.802285
489.000000	89.770351
490.000000	89.739563
491.000000	89.710234
492.000000	89.681947
493.000000	89.655114
494.000000	89.629508
495.000000	89.604502
496.000000	89.579846
497.000000	89.556457
498.000000	89.534018
499.000000	89.512088
500.000000	89.490702
501.000000	89.469898
502.000000	89.448354
503.000000	89.426198
504.000000	89.403530
505.000000	89.379835
506.000000	89.355799
507.000000	89.331333
508.000000	89.305760
509.000000	89.279517
510.000000	89.251658
511.000000	89.221390
512.000000	89.189705
513.000000	89.156024
514.000000	89.120519
515.000000	89.082681
516.000000	89.042724
517.000000	89.000546
518.000000	88.955764
519.000000	88.908117
520.000000	88.857676
521.000000	88.804442
522.000000	88.748350
523.000000	88.689150
524.000000	88.627185
525.000000	88.562907
526.000000	88.496097
527.000000	88.426608
528.000000	88.353719
529.000000	88.278152
530.000000	88.199848
531.000000	88.119376
532.000000	88.035507
533.000000	87.948641
534.000000	87.859252
535.000000	87.767219
536.000000	87.672128
537.000000	87.574708
538.000000	87.475106
539.000000	87.373708
540.000000	87.270188
541.000000	87.164026
542.000000	87.055594
543.000000	86.945107
544.000000	86.832670
545.000000	86.718301
546.000000	86.602619
547.000000	86.485231
548.000000	86.365945
549.000000	86.245395
550.000000	86.123253
551.000000	85.999665
552.000000	85.874346
553.000000	85.747466
554.000000	85.619539
555.000000	85.489898
556.000000	85.358877
557.000000	85.226391
558.000000	85.093915
559.000000	84.960709
560.000000	84.825248
561.000000	84.688541
562.000000	84.551291
563.000000	84.413347
564.000000	84.274633
565.000000	84.135078
566.000000	83.993994
567.000000	83.852523
568.000000	83.710257
569.000000	83.567643
570.000000	83.424873
571.000000	83.281845
572.000000	83.138466
573.000000	82.994469
574.000000	82.849660
575.000000	82.704911
576.000000	82.560434
577.000000	82.416481
578.000000	82.272923
579.000000	82.129681
580.000000	81.987002
581.000000	81.844930
582.000000	81.703051
583.000000	81.562844
584.000000	81.423637
585.000000	81.285592
586.000000	81.148241
587.000000	81.011569
588.000000	80.876639
589.000000	80.743004
590.000000	80.612802
591.000000	80.484511
592.000000	80.358719
593.000000	80.234872
594.000000	80.113721
595.000000	79.995960
596.000000	79.879979
597.000000	79.767822
598.000000	79.658089
599.000000	79.551448
600.000000	79.448355
601.000000	79.349034
602.000000	79.252733
603.000000	79.159864
604.000000	79.070270
605.000000	78.983854
606.000000	78.901580
607.000000	78.822735
608.000000	78.748269
609.000000	78.677445
610.000000	78.609663
611.000000	78.546175
612.000000	78.485996
613.000000	78.429848
614.000000	78.377311
615.000000	78.328240
616.000000	78.283224
617.000000	78.243061
618.000000	78.206077
619.000000	78.171663
620.000000	78.140939
621.000000	78.113050
622.000000	78.089091
623.000000	78.067863
624.000000	78.050394
625.000000	78.034356
626.000000	78.021254
627.000000	78.011583
628.000000	78.002745
629.000000	77.995208
630.000000	77.990111
631.000000	77.987824
632.000000	77.985369
633.000000	77.985255
634.000000	77.986647
635.000000	77.988744
636.000000	77.991436
637.000000	77.994446
638.000000	77.998059
639.000000	78.001453
640.000000	78.004950
641.000000	78.007122
642.000000	78.008666
643.000000	78.008874
644.000000	78.008542
645.000000	78.008044
646.000000	78.005088
647.000000	77.999948
648.000000	77.991701
649.000000	77.980291
650.000000	77.965566
651.000000	77.947859
652.000000	77.926456
653.000000	77.900792
654.000000	77.871331
655.000000	77.837514
656.000000	77.800363
657.000000	77.757846
658.000000	77.711006
659.000000	77.659051
660.000000	77.601696
661.000000	77.537503
662.000000	77.465231
663.000000	77.387467
664.000000	77.303708
665.000000	77.211919
666.000000	77.112394
667.000000	77.005780
668.000000	76.890608
669.000000	76.765795
670.000000	76.632186
671.000000	76.489132
672.000000	76.336523
673.000000	76.172683
674.000000	75.996997
675.000000	75.808787
676.000000	75.609799
677.000000	75.399437
678.000000	75.175228
679.000000	74.936483
680.000000	74.683008
681.000000	74.415006
682.000000	74.131726
683.000000	73.832525
684.000000	73.517963
685.000000	73.187893
686.000000	72.841865
687.000000	72.479244
688.000000	72.099645
689.000000	71.703648
690.000000	71.290887
691.000000	70.861551
692.000000	70.416764
693.000000	69.954807
694.000000	69.476158
695.000000	68.981631
696.000000	68.472782
697.000000	67.952303
698.000000	67.418348
699.000000	66.871747
700.000000	66.315188
701.000000	65.747985
702.000000	65.170172
703.000000	64.585525
704.000000	63.996173
705.000000	63.402861
706.000000	62.807200
707.000000	62.209928
708.000000	61.612833
709.000000	61.016548
710.000000	60.422803
711.000000	59.832471
712.000000	59.245832
713.000000	58.666912
714.000000	58.096425
715.000000	57.535006
716.000000	56.983782
717.000000	56.444205
718.000000	55.917576
719.000000	55.404391
720.000000	54.904938
721.000000	54.420863
722.000000	53.951785
723.000000	53.497906
724.000000	53.061894
725.000000	52.644211
726.000000	52.243060
727.000000	51.858733
728.000000	51.493069
729.000000	51.146886
730.000000	50.818924
731.000000	50.507484
732.000000	50.212156
733.000000	49.933352
734.000000	49.667277
735.000000	49.415634
736.000000	49.180825
737.000000	48.962351
738.000000	48.755325
739.000000	48.559745
740.000000	48.374472
741.000000	48.198289
742.000000	48.032917
743.000000	47.877494
744.000000	47.732753
745.000000	47.594668
746.000000	47.462575
747.000000	47.338748
748.000000	47.217504
749.000000	47.101762
750.000000	46.988886
751.000000	46.881071
752.000000	46.778141
753.000000	46.679082
754.000000	46.582386
755.000000	46.487835
756.000000	46.395775
757.000000	46.305154
758.000000	46.217205
759.000000	46.128928
760.000000	46.041410
761.000000	45.957266
762.000000	45.874839
763.000000	45.792272
764.000000	45.708657
765.000000	45.627105
766.000000	45.546910
767.000000	45.466101
768.000000	45.387031
769.000000	45.312475
770.000000	45.239904
771.000000	45.167033
772.000000	45.092963
773.000000	45.019556
774.000000	44.947266
775.000000	44.875963
776.000000	44.807318
777.000000	44.737562
778.000000	44.668080
779.000000	44.600586
780.000000	44.534148
781.000000	44.470802
782.000000	44.406328
783.000000	44.343790
784.000000	44.284129
785.000000	44.227912
786.000000	44.170527
787.000000	44.111004
788.000000	44.051706
789.000000	43.989888
790.000000	43.930988
791.000000	43.872904
792.000000	43.812194
793.000000	43.750888
794.000000	43.691727
795.000000	43.629204
796.000000	43.562675
797.000000	43.497741
798.000000	43.433489
799.000000	43.367293
800.000000	43.302114
801.000000	43.237627
802.000000	43.174990
803.000000	43.105535
804.000000	43.029547
805.000000	42.953495
806.000000	42.875540
807.000000	42.800394
808.000000	42.723990
809.000000	42.647581
810.000000	42.571496
811.000000	42.490699
812.000000	42.405779
813.000000	42.319526
814.000000	42.229790
815.000000	42.138831
816.000000	42.042186
817.000000	41.946310
818.000000	41.853122
819.000000	41.752813
820.000000	41.650589
821.000000	41.544468
822.000000	41.444071
823.000000	41.338789
824.000000	41.238802
825.000000	41.140322
826.000000	41.036477
827.000000	40.932621
828.000000	40.834952
829.000000	40.732407
830.000000	40.631187
831.000000	40.533279
832.000000	40.436063
833.000000	40.336920
834.000000	40.239600
835.000000	40.143739
836.000000	40.049479
837.000000	39.953190
838.000000	39.868851
839.000000	39.780384
840.000000	39.696541
841.000000	39.606229
842.000000	39.523677
843.000000	39.441146
844.000000	39.360801
845.000000	39.277398
846.000000	39.206905
847.000000	39.134819
848.000000	39.062331
849.000000	38.997653
850.000000	38.943930
851.000000	38.883822
852.000000	38.818725
853.000000	38.745310
854.000000	38.681557
855.000000	38.620073
856.000000	38.575904
857.000000	38.529036
858.000000	38.508390
859.000000	38.426215
860.000000	38.358168
861.000000	38.273023
862.000000	38.177745
863.000000	38.059782
864.000000	37.974139
865.000000	37.885483
866.000000	37.809036
867.000000	37.702266
868.000000	37.667062
869.000000	37.554420
870.000000	37.489570
871.000000	37.426363
872.000000	37.343990
873.000000	37.311447
874.000000	37.208758
875.000000	37.119186
876.000000	37.043777
877.000000	36.949267
878.000000	36.848140
879.000000	36.764213
880.000000	36.684273
881.000000	36.640712
882.000000	36.560028
883.000000	36.480529
884.000000	36.411339
885.000000	36.319706
886.000000	36.291726
887.000000	36.238844
888.000000	36.175663
889.000000	36.101414
890.000000	36.063388
891.000000	36.010096
892.000000	35.949653
893.000000	35.867983
894.000000	35.799623
895.000000	35.727814
896.000000	35.708398
897.000000	35.649114
898.000000	35.638112
899.000000	35.623335
900.000000	35.582759
901.000000	35.578723
902.000000	35.589852
903.000000	35.501177
904.000000	35.519551
905.000000	35.497320
906.000000	35.449928
907.000000	35.408101
908.000000	35.331049
909.000000	35.331074
910.000000	35.308481
911.000000	35.278391
912.000000	35.283953
913.000000	35.295136
914.000000	35.272282
915.000000	35.245475
916.000000	35.178750
917.000000	35.127502
918.000000	35.141201
919.000000	35.099089
920.000000	35.045911
921.000000	34.942144
922.000000	34.876953
923.000000	34.829237
924.000000	34.772703
925.000000	34.706338
926.000000	34.628912
927.000000	34.575071
928.000000	34.478873
929.000000	34.455863
930.000000	34.450799
931.000000	34.357598
932.000000	34.325689
933.000000	34.282998
934.000000	34.215417
935.000000	34.162988
936.000000	34.059037
937.000000	34.002833
938.000000	33.974839
939.000000	33.889059
940.000000	33.823558
941.000000	33.784800
942.000000	33.726357
943.000000	33.670383
944.000000	33.596187
945.000000	33.504758
946.000000	33.396983
947.000000	33.316145
948.000000	33.207675
949.000000	33.122286
950.000000	33.044005
951.000000	32.965878
952.000000	32.886401
953.000000	32.718368
954.000000	32.615231
955.000000	32.560976
956.000000	32.476238
957.000000	32.403078
958.000000	32.308300
959.000000	32.185663
960.000000	32.044615
961.000000	31.981673
962.000000	31.913358
963.000000	31.866017
964.000000	31.798563
965.000000	31.666492
966.000000	31.549254
967.000000	31.428198
968.000000	31.315435
969.000000	31.186428
970.000000	31.053918
971.000000	30.920295
972.000000	30.772472
973.000000	30.653656
974.000000	30.553459
975.000000	30.424663
976.000000	30.264255
977.000000	30.135762
978.000000	29.998029
979.000000	29.862628
980.000000	29.759843
981.000000	29.678844
982.000000	29.501395
983.000000	29.368299
984.000000	29.240643
985.000000	29.106150
986.000000	28.959676
987.000000	28.824220
988.000000	28.713743
989.000000	28.567535
990.000000	28.387507
991.000000	28.262549
992.000000	28.085218
993.000000	27.942971
994.000000	27.857430
995.000000	27.752312
996.000000	27.583753
997.000000	27.376478
998.000000	27.198700
999.000000	26.994628
1000.000000	26.803161
1001.000000	26.677265
1002.000000	26.564476
1003.000000	26.418602
1004.000000	26.279022
1005.000000	26.164771
1006.000000	26.048288
1007.000000	25.894629
1008.000000	25.725807
1009.000000	25.585036
1010.000000	25.424401
1011.000000	25.276787
1012.000000	25.110594
1013.000000	24.933035
1014.000000	24.786056
1015.000000	24.620957
1016.000000	24.465265
1017.000000	24.365861
1018.000000	24.237923
1019.000000	24.072480
1020.000000	23.908904
1021.000000	23.724680
1022.000000	23.570646
1023.000000	23.428839
1024.000000	23.329867
1025.000000	23.236652
1026.000000	23.111444
1027.000000	22.996717
1028.000000	22.846657
1029.000000	22.695513
1030.000000	22.560943
1031.000000	22.417915
1032.000000	22.284914
1033.000000	22.152988
1034.000000	22.062407
1035.000000	21.983396
1036.000000	21.858647
1037.000000	21.679451
1038.000000	21.486034
1039.000000	21.364877
1040.000000	21.239105
1041.000000	21.090599
1042.000000	21.004506
1043.000000	20.893358
1044.000000	20.745879
1045.000000	20.631544
1046.000000	20.515605
1047.000000	20.411779
1048.000000	20.318136
1049.000000	20.186976
1050.000000	20.098259
1051.000000	19.991926
1052.000000	19.884173
1053.000000	19.757612
1054.000000	19.640597
1055.000000	19.561338
1056.000000	19.484522
1057.000000	19.377100
1058.000000	19.296004
1059.000000	19.187446
1060.000000	19.051287
1061.000000	18.923931
1062.000000	18.801094
1063.000000	18.686603
1064.000000	18.551130
1065.000000	18.393460
1066.000000	18.286606
1067.000000	18.160922
1068.000000	18.030254
1069.000000	17.896666
1070.000000	17.777618
1071.000000	17.669010
1072.000000	17.578882
1073.000000	17.487590
1074.000000	17.379838
1075.000000	17.259543
1076.000000	17.168066
1077.000000	17.045162
1078.000000	16.929031
1079.000000	16.814530
1080.000000	16.688855
1081.000000	16.540189
1082.000000	16.416403
1083.000000	16.280829
1084.000000	16.155531
1085.000000	16.026766
1086.000000	15.942249
1087.000000	15.823946
1088.000000	15.672774
1089.000000	15.551635
1090.000000	15.413183
1091.000000	15.312208
1092.000000	15.211261
1093.000000	15.057896
1094.000000	14.879128
1095.000000	14.744742
1096.000000	14.626996
1097.000000	14.545837
1098.000000	14.425955
1099.000000	14.315567
1100.000000	14.224788
1101.000000	14.082026
1102.000000	14.002854
1103.000000	13.885186
1104.000000	13.812893
1105.000000	13.668084
1106.000000	13.565429
1107.000000	13.464593
1108.000000	13.444343
1109.000000	13.350116
1110.000000	13.264052
1111.000000	13.139362
1112.000000	12.998254
1113.000000	12.857412
1114.000000	12.749051
1115.000000	12.675484
1116.000000	12.573243
1117.000000	12.478950
1118.000000	12.401564
1119.000000	12.336379
1120.000000	12.243723
1121.000000	12.080314
1122.000000	11.957794
1123.000000	11.932283
1124.000000	11.866483
1125.000000	11.682551
1126.000000	11.599553
1127.000000	11.532448
1128.000000	11.473355
1129.000000	11.490676
1130.000000	11.439024
1131.000000	11.350268
1132.000000	11.266747
1133.000000	11.213347
1134.000000	11.181475
1135.000000	11.104325
1136.000000	11.082220
1137.000000	10.952444
1138.000000	10.881251
1139.000000	10.768070
1140.000000	10.708116
1141.000000	10.628757
1142.000000	10.567647
1143.000000	10.459709
1144.000000	10.418838
1145.000000	10.348351
1146.000000	10.362925
1147.000000	10.365897
1148.000000	10.343065
1149.000000	10.319029
1150.000000	10.260393
1151.000000	10.255384
1152.000000	10.219962
1153.000000	10.191181
1154.000000	10.151269
1155.000000	10.116858
1156.000000	10.092515
1157.000000	10.046326
1158.000000	9.987037
1159.000000	9.957366
1160.000000	10.054579
1161.000000	10.007993
1162.000000	9.966244
1163.000000	9.974676
1164.000000	9.862973
1165.000000	9.844995
1166.000000	9.832719
1167.000000	9.812423
1168.000000	9.825252
1169.000000	9.813827
1170.000000	9.830988
1171.000000	9.805054
1172.000000	9.828121
1173.000000	9.886989
1174.000000	9.905606
1175.000000	9.926349
1176.000000	9.889672
1177.000000	9.891834
1178.000000	9.862023
1179.000000	9.829304
1180.000000	9.814177
1181.000000	9.763447
1182.000000	9.718435
1183.000000	9.691889
1184.000000	9.656592
1185.000000	9.658922
1186.000000	9.610540
1187.000000	9.540764
1188.000000	9.527253
1189.000000	9.518556
1190.000000	9.492161
1191.000000	9.523488
1192.000000	9.520729
1193.000000	9.523500
1194.000000	9.484361
1195.000000	9.382137
1196.000000	9.361996
1197.000000	9.354645
1198.000000	9.252417
1199.000000	9.205872
1200.000000	9.162302
1201.000000	9.134514
1202.000000	9.071055
1203.000000	9.028865
1204.000000	8.967354
1205.000000	8.906911
1206.000000	8.879190
1207.000000	8.862508
1208.000000	8.819469
1209.000000	8.808203
1210.000000	8.776765
1211.000000	8.749005
1212.000000	8.716897
1213.000000	8.680461
1214.000000	8.581506
1215.000000	8.517932
1216.000000	8.460808
1217.000000	8.410708
1218.000000	8.375649
1219.000000	8.341064
1220.000000	8.270193
1221.000000	8.270005
1222.000000	8.284880
1223.000000	8.176260
1224.000000	8.087664
1225.000000	8.034240
1226.000000	7.938458
1227.000000	7.886674
1228.000000	7.827359
1229.000000	7.775814
1230.000000	7.780499
1231.000000	7.725745
1232.000000	7.638175
1233.000000	7.574312
1234.000000	7.541341
1235.000000	7.497115
1236.000000	7.438994
1237.000000	7.423758
1238.000000	7.356062
1239.000000	7.299930
1240.000000	7.283329
1241.000000	7.233565
1242.000000	7.219755
1243.000000	7.158197
1244.000000	7.074288
1245.000000	6.999543
1246.000000	6.969141
1247.000000	6.933076
1248.000000	6.924888
1249.000000	6.912838
1250.000000	6.901342
1251.000000	6.873207
1252.000000	6.854030
1253.000000	6.838717
1254.000000	6.795921
1255.000000	6.768059
1256.000000	6.725652
1257.000000	6.679998
1258.000000	6.659436
1259.000000	6.611421
1260.000000	6.581702
1261.000000	6.571040
1262.000000	6.549942
1263.000000	6.494440
1264.000000	6.452728
1265.000000	6.397743
1266.000000	6.361871
1267.000000	6.336075
1268.000000	6.318005
1269.000000	6.329008
1270.000000	6.314103
1271.000000	6.296976
1272.000000	6.260161
1273.000000	6.246123
1274.000000	6.247380
1275.000000	6.202720
1276.000000	6.124907
1277.000000	6.012471
1278.000000	5.940559
1279.000000	5.893372
1280.000000	5.902491
1281.000000	5.910359
1282.000000	5.870925
1283.000000	5.822170
1284.000000	5.800348
1285.000000	5.783305
1286.000000	5.749989
1287.000000	5.667827
1288.000000	5.593803
1289.000000	5.555714
1290.000000	5.495300
1291.000000	5.422947
1292.000000	5.381827
1293.000000	5.386265
1294.000000	5.389598
1295.000000	5.301646
1296.000000	5.255362
1297.000000	5.214655
1298.000000	5.200397
1299.000000	5.220373
1300.000000	5.212533
1301.000000	5.180771
1302.000000	5.163946
1303.000000	5.162476
1304.000000	5.098748
1305.000000	5.040990
1306.000000	5.016432
1307.000000	4.987564
1308.000000	4.967574
1309.000000	4.918978
1310.000000	4.885055
1311.000000	4.891693
1312.000000	4.906817
1313.000000	4.905006
1314.000000	4.878261
1315.000000	4.801095
1316.000000	4.725159
1317.000000	4.713903
1318.000000	4.655937
1319.000000	4.619984
1320.000000	4.596822
1321.000000	4.558517
1322.000000	4.554410
1323.000000	4.552835
1324.000000	4.494593
1325.000000	4.450060
1326.000000	4.444069
1327.000000	4.469373
1328.000000	4.440515
1329.000000	4.436938
1330.000000	4.498622
1331.000000	4.467461
1332.000000	4.451072
1333.000000	4.401371
1334.000000	4.348022
1335.000000	4.373736
1336.000000	4.400408
1337.000000	4.436377
1338.000000	4.519503
1339.000000	4.573623
1340.000000	4.613822
1341.000000	4.619902
1342.000000	4.576856
1343.000000	4.599966
1344.000000	4.604211
1345.000000	4.593197
1346.000000	4.612804
1347.000000	4.599191
1348.000000	4.589667
1349.000000	4.651169
1350.000000	4.743349
1351.000000	4.698435
1352.000000	4.578532
1353.000000	4.589986
1354.000000	4.684556
1355.000000	4.850848
1356.000000	5.026437
1357.000000	5.093368
1358.000000	5.131375
1359.000000	5.124775
1360.000000	5.307979
1361.000000	5.376902
1362.000000	5.276963
1363.000000	5.286577
1364.000000	5.211858
1365.000000	4.946005
1366.000000	4.987735
1367.000000	5.089531
1368.000000	5.054550
1369.000000	5.209391
1370.000000	5.375545
1371.000000	5.500539
1372.000000	5.558199
1373.000000	5.516451
1374.000000	5.518558
1375.000000	5.453158
1376.000000	5.247783
1377.000000	5.344377
1378.000000	5.255251
1379.000000	5.291392
1380.000000	4.127237
1381.000000	4.147490
1382.000000	3.876175
1383.000000	3.981037
1384.000000	4.095615
1385.000000	4.194951
1386.000000	4.399501
1387.000000	4.636746
1388.000000	4.853464
1389.000000	4.931790
1390.000000	4.931341
1391.000000	4.922100
1392.000000	4.621197
1393.000000	4.691400
1394.000000	4.885661
1395.000000	4.822527
1396.000000	4.404516
1397.000000	4.484628
1398.000000	4.570734
1399.000000	4.751064
1400.000000	5.204044
1401.000000	5.242095
1402.000000	5.330077
1403.000000	5.615841
1404.000000	5.608460
1405.000000	5.730772
1406.000000	5.805096
1407.000000	5.821848
1408.000000	5.994366
1409.000000	6.042864
1410.000000	6.299426
1411.000000	6.720352
1412.000000	6.864158
1413.000000	7.131746
1414.000000	7.349052
1415.000000	8.786463
1416.000000	9.034023
1417.000000	9.608715
1418.000000	9.843059
1419.000000	9.990059
1420.000000	10.178809
1421.000000	10.304089
1422.000000	10.494293
1423.000000	10.609950
1424.000000	10.858356
1425.000000	11.021304
1426.000000	11.224232
1427.000000	11.822146
1428.000000	12.076487
1429.000000	12.336630
1430.000000	12.632324
1431.000000	13.340465
1432.000000	13.622442
1433.000000	13.917631
1434.000000	14.177377
1435.000000	14.372021
1436.000000	14.670709
1437.000000	14.877957
1438.000000	15.085236
1439.000000	15.327395
1440.000000	15.411621
1441.000000	15.564477
1442.000000	15.857668
1443.000000	16.050129
1444.000000	16.347747
1445.000000	16.545415
1446.000000	16.755935
1447.000000	16.980792
1448.000000	17.203706
1449.000000	17.400210
1450.000000	17.558896
1451.000000	17.700961
1452.000000	17.868699
1453.000000	18.006774
1454.000000	18.116360
1455.000000	18.112438
1456.000000	18.258682
1457.000000	18.372237
1458.000000	18.500516
1459.000000	18.560789
1460.000000	18.643579
1461.000000	18.725014
1462.000000	18.809775
1463.000000	18.856831
1464.000000	18.885600
1465.000000	18.955913
1466.000000	19.086163
1467.000000	19.263511
1468.000000	19.379411
1469.000000	19.492383
1470.000000	19.573008
1471.000000	19.692623
1472.000000	19.725147
1473.000000	19.773631
1474.000000	19.900897
1475.000000	20.004626
1476.000000	20.122030
1477.000000	20.233190
1478.000000	20.347457
1479.000000	20.492499
1480.000000	20.582190
1481.000000	20.649872
1482.000000	20.701461
1483.000000	20.760480
1484.000000	20.776148
1485.000000	20.851245
1486.000000	20.877022
1487.000000	20.910219
1488.000000	20.952057
1489.000000	21.011374
1490.000000	21.157933
1491.000000	21.246679
1492.000000	21.300398
1493.000000	21.342834
1494.000000	21.354476
1495.000000	21.408447
1496.000000	21.456500
1497.000000	21.514100
1498.000000	21.557852
1499.000000	21.575894
1500.000000	21.572963
1501.000000	21.577380
1502.000000	21.601763
1503.000000	21.581424
1504.000000	21.579506
1505.000000	21.538085
1506.000000	21.527835
1507.000000	21.587046
1508.000000	21.562480
1509.000000	21.497883
1510.000000	21.410931
1511.000000	21.322944
1512.000000	21.222587
1513.000000	21.156671
1514.000000	21.091807
1515.000000	21.043005
1516.000000	21.005132
1517.000000	20.976124
1518.000000	20.899823
1519.000000	20.858569
1520.000000	20.759041
1521.000000	20.716928
1522.000000	20.657646
1523.000000	20.576970
1524.000000	20.529245
1525.000000	20.481919
1526.000000	20.427232
1527.000000	20.362581
1528.000000	20.297352
1529.000000	20.213939
1530.000000	20.147876
1531.000000	20.090259
1532.000000	20.007754
1533.000000	19.932042
1534.000000	19.853190
1535.000000	19.800913
1536.000000	19.710821
1537.000000	19.604747
1538.000000	19.505589
1539.000000	19.408748
1540.000000	19.329456
1541.000000	19.222385
1542.000000	19.139945
1543.000000	19.090264
1544.000000	19.026604
1545.000000	18.955510
1546.000000	18.887998
1547.000000	18.832417
1548.000000	18.759850
1549.000000	18.644943
1550.000000	18.537737
1551.000000	18.410896
1552.000000	18.298592
1553.000000	18.204225
1554.000000	18.108359
1555.000000	18.078561
1556.000000	18.060649
1557.000000	18.041092
1558.000000	17.982071
1559.000000	17.899638
1560.000000	17.775590
1561.000000	17.712034
1562.000000	17.643885
1563.000000	17.596838
1564.000000	17.573051
1565.000000	17.492713
1566.000000	17.392229
1567.000000	17.298675
1568.000000	17.260937
1569.000000	17.255815
1570.000000	17.223072
1571.000000	17.204043
1572.000000	17.170480
1573.000000	17.115234
1574.000000	17.071146
1575.000000	17.070391
1576.000000	17.050076
1577.000000	16.993263
1578.000000	16.950208
1579.000000	16.928218
1580.000000	16.923285
1581.000000	16.947674
1582.000000	16.956345
1583.000000	16.927078
1584.000000	16.921049
1585.000000	16.904497
1586.000000	16.916768
1587.000000	16.885168
1588.000000	16.899405
1589.000000	16.895372
1590.000000	16.859458
1591.000000	16.791960
1592.000000	16.728180
1593.000000	16.685070
1594.000000	16.679378
1595.000000	16.683464
1596.000000	16.650289
1597.000000	16.630309
1598.000000	16.604436
1599.000000	16.577450
1600.000000	16.551988
1601.000000	16.560602
1602.000000	16.582271
1603.000000	16.595870
1604.000000	16.562919
1605.000000	16.562797
1606.000000	16.559674
1607.000000	16.566347
1608.000000	16.579335
1609.000000	16.536824
1610.000000	16.511507
1611.000000	16.498370
1612.000000	16.438559
1613.000000	16.407305
1614.000000	16.392781
1615.000000	16.377238
1616.000000	16.325258
1617.000000	16.282269
1618.000000	16.248851
1619.000000	16.215238
1620.000000	16.173366
1621.000000	16.123270
1622.000000	16.082538
1623.000000	16.043568
1624.000000	15.986295
1625.000000	15.947490
1626.000000	15.908624
1627.000000	15.828331
1628.000000	15.781263
1629.000000	15.664462
1630.000000	15.621561
1631.000000	15.575292
1632.000000	15.576560
1633.000000	15.558280
1634.000000	15.518010
1635.000000	15.502541
1636.000000	15.438583
1637.000000	15.394749
1638.000000	15.340223
1639.000000	15.272163
1640.000000	15.145088
1641.000000	15.041017
1642.000000	14.946507
1643.000000	14.831278
1644.000000	14.816985
1645.000000	14.707791
1646.000000	14.637897
1647.000000	14.612894
1648.000000	14.549247
1649.000000	14.506200
1650.000000	14.468939
1651.000000	14.427014
1652.000000	14.365486
1653.000000	14.329460
1654.000000	14.302297
1655.000000	14.287774
1656.000000	14.258905
1657.000000	14.279469
1658.000000	14.204674
1659.000000	14.239879
1660.000000	14.262943
1661.000000	14.262723
1662.000000	14.291116
1663.000000	14.302134
1664.000000	14.295531
1665.000000	14.294449
1666.000000	14.339516
1667.000000	14.315569
1668.000000	14.295447
1669.000000	14.363548
1670.000000	14.351900
1671.000000	14.401173
1672.000000	14.467090
1673.000000	14.502483
1674.000000	14.562354
1675.000000	14.678994
1676.000000	14.805650
1677.000000	14.915062
1678.000000	15.067714
1679.000000	15.126496
1680.000000	15.255258
1681.000000	15.376383
1682.000000	15.514896
1683.000000	15.634085
1684.000000	15.754521
1685.000000	15.836513
1686.000000	15.945421
1687.000000	16.059676
1688.000000	16.199808
1689.000000	16.311623
1690.000000	16.444193
1691.000000	16.558399
1692.000000	16.671049
1693.000000	16.831775
1694.000000	16.856051
1695.000000	16.880215
1696.000000	17.021633
1697.000000	17.130323
1698.000000	17.217639
1699.000000	17.349739
1700.000000	17.458605
1701.000000	17.498562
1702.000000	17.548906
1703.000000	17.620802
1704.000000	17.621448
1705.000000	17.700815
1706.000000	17.795333
1707.000000	17.815661
1708.000000	17.941929
1709.000000	18.029346
1710.000000	18.071933
1711.000000	18.086553
1712.000000	18.124557
1713.000000	18.158441
1714.000000	18.223147
1715.000000	18.278725
1716.000000	18.311154
1717.000000	18.373370
1718.000000	18.466534
1719.000000	18.506482
1720.000000	18.594356
1721.000000	18.682186
1722.000000	18.729590
1723.000000	18.743151
1724.000000	18.792723
1725.000000	18.844475
1726.000000	18.916189
1727.000000	18.973224
1728.000000	19.000514
1729.000000	19.100800
1730.000000	19.207564
1731.000000	19.191379
1732.000000	19.247689
1733.000000	19.299649
1734.000000	19.371759
1735.000000	19.465083
1736.000000	19.527098
1737.000000	19.592781
1738.000000	19.640701
1739.000000	19.674918
1740.000000	19.711495
1741.000000	19.691551
1742.000000	19.726675
1743.000000	19.681043
1744.000000	19.711182
1745.000000	19.746416
1746.000000	19.755726
1747.000000	19.766017
1748.000000	19.777389
1749.000000	19.782891
1750.000000	19.769280
1751.000000	19.756819
1752.000000	19.688014
1753.000000	19.571085
1754.000000	19.517719
1755.000000	19.474392
1756.000000	19.423419
1757.000000	19.378058
1758.000000	19.317996
1759.000000	19.260530
1760.000000	19.207567
1761.000000	19.177559
1762.000000	19.132371
1763.000000	19.095624
1764.000000	19.066156
1765.000000	19.018561
1766.000000	18.994093
1767.000000	18.926288
1768.000000	18.898206
1769.000000	18.839286
1770.000000	18.750473
1771.000000	18.704399
1772.000000	18.654222
1773.000000	18.612970
1774.000000	18.614938
1775.000000	18.626015
1776.000000	18.640672
1777.000000	18.650174
1778.000000	18.662004
1779.000000	18.619012
1780.000000	18.603482
1781.000000	18.601933
1782.000000	18.571137
1783.000000	18.528939
1784.000000	18.496397
1785.000000	18.493011
1786.000000	18.489739
1787.000000	18.501687
1788.000000	18.553311
1789.000000	18.551745
1790.000000	18.514191
1791.000000	18.485721
1792.000000	18.496498
1793.000000	18.497224
1794.000000	18.486915
1795.000000	18.467962
1796.000000	18.419489
1797.000000	18.355470
1798.000000	18.348197
1799.000000	18.331386
1800.000000	18.302349
1801.000000	18.306354
1802.000000	18.311772
1803.000000	18.287021
1804.000000	18.307531
1805.000000	18.271439
1806.000000	18.242979
1807.000000	18.257654
1808.000000	18.279622
1809.000000	18.258273
1810.000000	18.161611
1811.000000	18.066605
1812.000000	18.003072
1813.000000	17.997322
1814.000000	18.023760
1815.000000	17.986101
1816.000000	17.875291
1817.000000	17.825925
1818.000000	17.877262
1819.000000	17.952702
1820.000000	18.045373
1821.000000	18.071756
1822.000000	18.071209
1823.000000	18.072751
1824.000000	18.056120
1825.000000	18.008145
1826.000000	18.075152
1827.000000	18.153858
1828.000000	18.110880
1829.000000	18.034954
1830.000000	17.971443
1831.000000	17.966430
1832.000000	17.940295
1833.000000	17.908330
1834.000000	17.853850
1835.000000	17.844238
1836.000000	17.854646
1837.000000	17.688597
1838.000000	17.607726
1839.000000	17.334839
1840.000000	17.294595
1841.000000	17.255733
1842.000000	17.260508
1843.000000	17.273861
1844.000000	17.343198
1845.000000	17.421480
1846.000000	17.422578
1847.000000	17.439852
1848.000000	17.496256
1849.000000	17.467803
1850.000000	17.433409
1851.000000	17.481516
1852.000000	17.458900
1853.000000	17.238380
1854.000000	17.135859
1855.000000	17.055001
1856.000000	16.994301
1857.000000	17.063037
1858.000000	17.114615
1859.000000	16.935574
1860.000000	16.844967
1861.000000	16.725777
1862.000000	16.609657
1863.000000	16.590910
1864.000000	16.663118
1865.000000	16.775834
1866.000000	16.854677
1867.000000	16.657779
1868.000000	16.709870
1869.000000	16.750107
1870.000000	16.636731
1871.000000	16.634975
1872.000000	16.774795
1873.000000	16.916059
1874.000000	17.288414
1875.000000	17.404489
1876.000000	17.433042
1877.000000	17.527405
1878.000000	17.601533
1879.000000	17.602594
1880.000000	17.637904
1881.000000	17.770697
1882.000000	17.870931
1883.000000	17.868986
1884.000000	18.008481
1885.000000	18.158514
1886.000000	18.307027
1887.000000	18.582673
1888.000000	18.961409
1889.000000	19.165623
1890.000000	19.405153
1891.000000	19.656762
1892.000000	19.797579
1893.000000	19.929075
1894.000000	20.413168
1895.000000	20.863199
1896.000000	21.244783
1897.000000	21.667024
1898.000000	22.174874
1899.000000	22.457323
1900.000000	22.800402
1901.000000	23.166501
1902.000000	23.664461
1903.000000	24.178182
1904.000000	24.736394
1905.000000	25.309805
1906.000000	25.713701
1907.000000	26.310110
1908.000000	26.758359
1909.000000	27.214823
1910.000000	27.742909
1911.000000	28.354486
1912.000000	28.892893
1913.000000	29.357950
1914.000000	29.938321
1915.000000	30.512640
1916.000000	31.097155
1917.000000	31.670389
1918.000000	32.237803
1919.000000	32.758373
1920.000000	33.222283
1921.000000	33.833979
1922.000000	34.303546
1923.000000	34.813693
1924.000000	35.422371
1925.000000	35.890435
1926.000000	36.401299
1927.000000	36.878553
1928.000000	37.391382
1929.000000	37.834765
1930.000000	38.298682
1931.000000	38.713927
1932.000000	39.103912
1933.000000	39.373263
1934.000000	39.793092
1935.000000	40.097709
1936.000000	40.358281
1937.000000	40.830947
1938.000000	41.012979
1939.000000	41.172867
1940.000000	41.480912
1941.000000	41.798742
1942.000000	41.976886
1943.000000	42.183866
1944.000000	42.355222
1945.000000	42.517100
1946.000000	42.675444
1947.000000	42.739752
1948.000000	42.881945
1949.000000	42.929207
1950.000000	42.980514
1951.000000	42.990837
1952.000000	43.038704
1953.000000	43.066796
1954.000000	43.048224
1955.000000	43.147973
1956.000000	43.119271
1957.000000	43.099197
1958.000000	43.029085
1959.000000	42.922635
1960.000000	42.749874
1961.000000	42.668773
1962.000000	42.562470
1963.000000	42.494803
1964.000000	42.453694
1965.000000	42.285054
1966.000000	42.153501
1967.000000	41.973752
1968.000000	41.857653
1969.000000	41.792419
1970.000000	41.644578
1971.000000	41.546485
1972.000000	41.391800
1973.000000	41.240664
1974.000000	41.093192
1975.000000	40.970063
1976.000000	40.791986
1977.000000	40.609266
1978.000000	40.482192
1979.000000	40.289747
1980.000000	40.130856
1981.000000	39.988819
1982.000000	39.826662
1983.000000	39.614992
1984.000000	39.472869
1985.000000	39.321182
1986.000000	39.208665
1987.000000	39.011196
1988.000000	38.861296
1989.000000	38.734521
1990.000000	38.565616
1991.000000	38.409676
1992.000000	38.257465
1993.000000	38.066891
1994.000000	37.840315
1995.000000	37.752377
1996.000000	37.608974
1997.000000	37.510491
1998.000000	37.344517
1999.000000	37.130010
2000.000000	36.997897
