PE UV       SUBTECH     SPECTRUM    ASCII       PEDS        4.00        
   -1
CICIMAUCR0020-1.Sample.ASC
24/03/08
12:01:00.00
24/03/08
12:01:00.00
Vinicio Soto Monge
C. resplendens
250,000000
1
Lambda 1050
1050L1511233
PerkinElmer UV WinLab 6.3.2.0749 / 2.02.05 Lambda 900 UV/VIS/NIR, Aug  7 2015 09:38:08

0
0
3350/servo 860,8/2
0
0
UV/VIS
1
1
1
DoubleDePol,CommonBeamDepol,RBeamAtt,SBeamAtt,60mm sphere, WB InGaAs Detector
0
0
0
0
Program
Program
3350/servo 860,8/2
3350/0,2 860,8/0,2
3350/0,2 860,8/0,2
0
15.00
 
 
 
0
 
860,8
319,2
860,8
Front
100
on
S:100 R:100
0
0
0
0
 
0
 
 
 
0
 
 
0
0
0
0
0
 
 
 
 
0
0


0
0
#HDR
-1
-1
#GR
nm
%R
1.0
0.0
2500,000000
-1,000000
2251
8
26,391500
2,064300
#DATA

250.000000	nan
251.000000	nan
252.000000	nan
253.000000	nan
254.000000	nan
255.000000	nan
256.000000	nan
257.000000	nan
258.000000	nan
259.000000	2.364444
260.000000	2.359700
261.000000	2.354277
262.000000	2.351203
263.000000	2.349299
264.000000	2.349831
265.000000	2.345162
266.000000	2.335548
267.000000	2.330422
268.000000	2.327114
269.000000	2.315575
270.000000	2.307747
271.000000	2.301579
272.000000	2.296899
273.000000	2.294783
274.000000	2.288423
275.000000	2.280500
276.000000	2.277745
277.000000	2.279521
278.000000	2.276905
279.000000	2.277713
280.000000	2.280712
281.000000	2.282265
282.000000	2.284041
283.000000	2.279713
284.000000	2.278873
285.000000	2.282999
286.000000	2.283233
287.000000	2.275661
288.000000	2.276139
289.000000	2.276895
290.000000	2.272385
291.000000	2.271853
292.000000	2.268408
293.000000	2.268684
294.000000	2.269301
295.000000	2.266897
296.000000	2.260984
297.000000	2.262314
298.000000	2.258028
299.000000	2.253582
300.000000	2.248871
301.000000	2.244712
302.000000	2.243798
303.000000	2.240118
304.000000	2.237576
305.000000	2.238214
306.000000	2.241798
307.000000	2.235502
308.000000	2.239756
309.000000	2.243872
310.000000	2.250147
311.000000	2.247286
312.000000	2.248679
313.000000	2.252274
314.000000	2.256401
315.000000	2.256050
316.000000	2.264292
317.000000	2.339876
318.000000	2.393138
319.000000	2.427809
320.000000	2.492035
321.000000	2.560387
322.000000	2.595026
323.000000	2.629718
324.000000	2.671802
325.000000	2.722744
326.000000	2.734071
327.000000	2.688552
328.000000	2.667260
329.000000	2.664974
330.000000	2.634791
331.000000	2.593016
332.000000	2.582668
333.000000	2.565375
334.000000	2.544126
335.000000	2.523334
336.000000	2.533863
337.000000	2.534926
338.000000	2.520484
339.000000	2.506722
340.000000	2.492332
341.000000	2.490481
342.000000	2.491120
343.000000	2.505541
344.000000	2.504042
345.000000	2.498288
346.000000	2.495087
347.000000	2.492534
348.000000	2.499032
349.000000	2.501000
350.000000	2.508700
351.000000	2.511571
352.000000	2.506190
353.000000	2.491683
354.000000	2.491524
355.000000	2.491992
356.000000	2.487216
357.000000	2.488216
358.000000	2.491343
359.000000	2.495523
360.000000	2.499692
361.000000	2.510135
362.000000	2.518835
363.000000	2.525344
364.000000	2.535330
365.000000	2.547316
366.000000	2.561227
367.000000	2.575287
368.000000	2.587422
369.000000	2.591782
370.000000	2.593282
371.000000	2.589655
372.000000	2.588007
373.000000	2.591410
374.000000	2.584891
375.000000	2.562216
376.000000	2.550922
377.000000	2.519814
378.000000	2.489641
379.000000	2.469924
380.000000	2.447494
381.000000	2.428021
382.000000	2.412972
383.000000	2.397126
384.000000	2.385820
385.000000	2.385140
386.000000	2.375685
387.000000	2.385235
388.000000	2.393956
389.000000	2.403390
390.000000	2.413812
391.000000	2.424990
392.000000	2.436083
393.000000	2.445910
394.000000	2.456385
395.000000	2.468818
396.000000	2.482399
397.000000	2.496576
398.000000	2.511848
399.000000	2.527110
400.000000	2.543392
401.000000	2.561121
402.000000	2.581104
403.000000	2.603524
404.000000	2.626772
405.000000	2.650648
406.000000	2.676162
407.000000	2.704388
408.000000	2.736251
409.000000	2.770539
410.000000	2.806699
411.000000	2.846634
412.000000	2.890004
413.000000	2.936629
414.000000	2.987859
415.000000	3.043917
416.000000	3.105559
417.000000	3.171008
418.000000	3.239924
419.000000	3.314073
420.000000	3.394497
421.000000	3.479940
422.000000	3.570648
423.000000	3.667503
424.000000	3.769261
425.000000	3.876719
426.000000	3.989846
427.000000	4.108184
428.000000	4.232424
429.000000	4.361430
430.000000	4.493944
431.000000	4.630852
432.000000	4.770886
433.000000	4.913142
434.000000	5.058037
435.000000	5.204080
436.000000	5.351016
437.000000	5.499048
438.000000	5.646207
439.000000	5.792675
440.000000	5.938655
441.000000	6.082836
442.000000	6.225433
443.000000	6.364712
444.000000	6.499737
445.000000	6.631528
446.000000	6.760725
447.000000	6.885891
448.000000	7.007388
449.000000	7.125215
450.000000	7.237991
451.000000	7.344971
452.000000	7.446984
453.000000	7.546040
454.000000	7.641949
455.000000	7.733167
456.000000	7.818643
457.000000	7.898119
458.000000	7.972470
459.000000	8.042259
460.000000	8.107601
461.000000	8.169530
462.000000	8.227780
463.000000	8.280988
464.000000	8.330293
465.000000	8.375205
466.000000	8.415481
467.000000	8.453129
468.000000	8.487407
469.000000	8.516898
470.000000	8.541572
471.000000	8.561162
472.000000	8.576062
473.000000	8.585463
474.000000	8.588388
475.000000	8.586548
476.000000	8.579912
477.000000	8.567224
478.000000	8.548676
479.000000	8.526321
480.000000	8.498977
481.000000	8.462892
482.000000	8.418331
483.000000	8.369026
484.000000	8.317636
485.000000	8.264471
486.000000	8.208859
487.000000	8.153216
488.000000	8.097423
489.000000	8.041408
490.000000	7.988019
491.000000	7.944617
492.000000	7.910158
493.000000	7.883900
494.000000	7.865033
495.000000	7.853951
496.000000	7.852579
497.000000	7.861726
498.000000	7.882284
499.000000	7.914806
500.000000	7.959687
501.000000	8.015522
502.000000	8.083396
503.000000	8.161969
504.000000	8.252496
505.000000	8.353934
506.000000	8.463754
507.000000	8.580252
508.000000	8.702865
509.000000	8.831328
510.000000	8.964162
511.000000	9.098049
512.000000	9.232170
513.000000	9.366184
514.000000	9.497210
515.000000	9.624620
516.000000	9.749435
517.000000	9.873303
518.000000	9.997204
519.000000	10.121178
520.000000	10.243930
521.000000	10.369022
522.000000	10.497729
523.000000	10.631244
524.000000	10.771969
525.000000	10.920745
526.000000	11.079412
527.000000	11.247651
528.000000	11.423344
529.000000	11.608142
530.000000	11.804702
531.000000	12.013355
532.000000	12.235120
533.000000	12.469956
534.000000	12.716906
535.000000	12.977405
536.000000	13.251060
537.000000	13.537531
538.000000	13.840262
539.000000	14.156905
540.000000	14.489170
541.000000	14.836059
542.000000	15.194828
543.000000	15.565051
544.000000	15.948269
545.000000	16.340230
546.000000	16.740359
547.000000	17.145093
548.000000	17.551954
549.000000	17.961889
550.000000	18.372611
551.000000	18.777706
552.000000	19.180345
553.000000	19.578177
554.000000	19.965331
555.000000	20.342796
556.000000	20.710222
557.000000	21.069128
558.000000	21.415847
559.000000	21.745880
560.000000	22.008261
561.000000	22.248415
562.000000	22.467873
563.000000	22.664965
564.000000	22.843775
565.000000	23.004771
566.000000	23.147761
567.000000	23.268864
568.000000	23.370558
569.000000	23.458033
570.000000	23.582646
571.000000	23.699325
572.000000	23.801381
573.000000	23.896545
574.000000	23.984945
575.000000	24.071717
576.000000	24.151077
577.000000	24.229501
578.000000	24.309393
579.000000	24.391306
580.000000	24.471432
581.000000	24.553886
582.000000	24.645360
583.000000	24.739822
584.000000	24.837985
585.000000	24.933702
586.000000	25.032663
587.000000	25.134527
588.000000	25.235913
589.000000	25.331374
590.000000	25.427910
591.000000	25.520139
592.000000	25.602753
593.000000	25.681114
594.000000	25.748499
595.000000	25.811385
596.000000	25.864380
597.000000	25.904390
598.000000	25.936731
599.000000	25.961713
600.000000	25.974369
601.000000	25.981070
602.000000	25.981899
603.000000	25.974805
604.000000	25.962118
605.000000	25.938242
606.000000	25.908739
607.000000	25.875419
608.000000	25.837515
609.000000	25.793656
610.000000	25.747658
611.000000	25.695705
612.000000	25.642029
613.000000	25.588949
614.000000	25.536528
615.000000	25.484234
616.000000	25.436546
617.000000	25.390740
618.000000	25.345923
619.000000	25.303967
620.000000	25.260225
621.000000	25.218641
622.000000	25.174111
623.000000	25.121329
624.000000	25.064047
625.000000	25.001523
626.000000	24.924960
627.000000	24.837826
628.000000	24.737195
629.000000	24.619208
630.000000	24.485481
631.000000	24.336694
632.000000	24.170614
633.000000	23.986700
634.000000	23.783673
635.000000	23.563652
636.000000	23.331857
637.000000	23.081908
638.000000	22.821909
639.000000	22.553423
640.000000	22.278130
641.000000	21.995531
642.000000	21.713974
643.000000	21.432693
644.000000	21.156922
645.000000	20.881087
646.000000	20.608006
647.000000	20.342296
648.000000	20.073821
649.000000	19.807259
650.000000	19.540188
651.000000	19.271851
652.000000	18.997239
653.000000	18.722074
654.000000	18.437518
655.000000	18.152228
656.000000	17.865609
657.000000	17.583254
658.000000	17.310429
659.000000	17.051397
660.000000	16.814423
661.000000	16.604346
662.000000	16.424993
663.000000	16.278961
664.000000	16.175587
665.000000	16.117859
666.000000	16.107128
667.000000	16.141841
668.000000	16.225104
669.000000	16.352312
670.000000	16.518668
671.000000	16.718217
672.000000	16.949001
673.000000	17.207660
674.000000	17.484910
675.000000	17.774082
676.000000	18.068964
677.000000	18.363922
678.000000	18.652689
679.000000	18.933544
680.000000	19.206295
681.000000	19.468698
682.000000	19.720242
683.000000	19.954664
684.000000	20.176812
685.000000	20.386007
686.000000	20.583131
687.000000	20.775969
688.000000	20.968020
689.000000	21.155167
690.000000	21.337370
691.000000	21.517860
692.000000	21.694426
693.000000	21.872779
694.000000	22.050504
695.000000	22.226028
696.000000	22.398404
697.000000	22.560867
698.000000	22.711271
699.000000	22.855357
700.000000	22.982756
701.000000	23.091076
702.000000	23.184283
703.000000	23.262409
704.000000	23.325465
705.000000	23.371101
706.000000	23.401847
707.000000	23.417736
708.000000	23.423905
709.000000	23.416790
710.000000	23.405825
711.000000	23.393807
712.000000	23.381683
713.000000	23.367251
714.000000	23.350362
715.000000	23.339387
716.000000	23.336366
717.000000	23.341259
718.000000	23.349235
719.000000	23.365804
720.000000	23.386203
721.000000	23.406920
722.000000	23.423235
723.000000	23.435806
724.000000	23.445473
725.000000	23.449599
726.000000	23.442463
727.000000	23.427425
728.000000	23.405559
729.000000	23.373334
730.000000	23.337419
731.000000	23.302472
732.000000	23.268046
733.000000	23.236417
734.000000	23.211722
735.000000	23.193695
736.000000	23.186782
737.000000	23.192557
738.000000	23.211870
739.000000	23.243074
740.000000	23.283052
741.000000	23.333825
742.000000	23.396243
743.000000	23.466222
744.000000	23.539265
745.000000	23.616253
746.000000	23.699017
747.000000	23.782003
748.000000	23.859183
749.000000	23.932503
750.000000	24.003429
751.000000	24.068612
752.000000	24.124309
753.000000	24.182047
754.000000	24.243827
755.000000	24.302608
756.000000	24.357263
757.000000	24.411704
758.000000	24.471676
759.000000	24.539019
760.000000	24.610424
761.000000	24.685072
762.000000	24.763220
763.000000	24.833635
764.000000	24.902254
765.000000	24.974999
766.000000	25.044106
767.000000	25.106025
768.000000	25.159275
769.000000	25.203262
770.000000	25.240507
771.000000	25.272817
772.000000	25.300277
773.000000	25.325185
774.000000	25.343871
775.000000	25.355112
776.000000	25.363907
777.000000	25.373639
778.000000	25.387294
779.000000	25.401716
780.000000	25.413446
781.000000	25.429463
782.000000	25.448691
783.000000	25.470653
784.000000	25.489105
785.000000	25.511269
786.000000	25.540005
787.000000	25.566753
788.000000	25.588959
789.000000	25.603636
790.000000	25.618259
791.000000	25.617291
792.000000	25.614633
793.000000	25.609996
794.000000	25.598999
795.000000	25.579877
796.000000	25.546897
797.000000	25.514130
798.000000	25.485819
799.000000	25.454913
800.000000	25.434334
801.000000	25.422220
802.000000	25.410075
803.000000	25.400982
804.000000	25.406948
805.000000	25.415244
806.000000	25.428219
807.000000	25.451882
808.000000	25.483756
809.000000	25.532774
810.000000	25.573932
811.000000	25.620546
812.000000	25.668213
813.000000	25.715678
814.000000	25.752901
815.000000	25.794581
816.000000	25.838579
817.000000	25.869793
818.000000	25.892967
819.000000	25.906665
820.000000	25.912504
821.000000	25.906623
822.000000	25.901975
823.000000	25.905687
824.000000	25.910696
825.000000	25.915471
826.000000	25.927787
827.000000	25.946771
828.000000	25.954535
829.000000	25.955949
830.000000	25.967403
831.000000	25.984600
832.000000	26.009774
833.000000	26.022728
834.000000	26.031183
835.000000	26.037223
836.000000	26.035192
837.000000	26.020303
838.000000	25.996129
839.000000	25.984526
840.000000	25.973391
841.000000	25.950089
842.000000	25.911600
843.000000	25.876504
844.000000	25.844875
845.000000	25.828241
846.000000	25.802323
847.000000	25.780978
848.000000	25.789625
849.000000	25.769365
850.000000	25.755177
851.000000	25.741458
852.000000	25.752231
853.000000	25.760963
854.000000	25.776161
855.000000	25.758368
856.000000	25.720017
857.000000	25.719422
858.000000	25.900667
859.000000	25.965781
860.000000	26.021754
861.000000	26.092282
862.000000	26.145476
863.000000	26.200939
864.000000	26.253859
865.000000	26.322198
866.000000	26.419965
867.000000	26.484121
868.000000	26.351690
869.000000	26.356290
870.000000	26.358680
871.000000	26.357580
872.000000	26.349830
873.000000	26.340150
874.000000	26.330660
875.000000	26.322780
876.000000	26.315030
877.000000	26.305590
878.000000	26.296520
879.000000	26.289980
880.000000	26.283690
881.000000	26.275410
882.000000	26.271020
883.000000	26.268390
884.000000	26.265460
885.000000	26.263050
886.000000	26.264460
887.000000	26.266290
888.000000	26.269650
889.000000	26.275470
890.000000	26.283420
891.000000	26.293680
892.000000	26.306340
893.000000	26.317070
894.000000	26.325860
895.000000	26.334880
896.000000	26.337620
897.000000	26.338750
898.000000	26.333680
899.000000	26.323350
900.000000	26.310920
901.000000	26.295190
902.000000	26.270860
903.000000	26.243370
904.000000	26.215870
905.000000	26.181400
906.000000	26.149050
907.000000	26.117630
908.000000	26.090050
909.000000	26.070840
910.000000	26.050160
911.000000	26.034310
912.000000	26.025730
913.000000	26.022130
914.000000	26.020870
915.000000	26.025630
916.000000	26.032080
917.000000	26.038070
918.000000	26.043950
919.000000	26.041060
920.000000	26.036160
921.000000	26.026140
922.000000	26.009970
923.000000	25.988860
924.000000	25.960590
925.000000	25.930260
926.000000	25.896190
927.000000	25.861220
928.000000	25.822990
929.000000	25.781840
930.000000	25.740660
931.000000	25.702010
932.000000	25.665200
933.000000	25.631580
934.000000	25.603290
935.000000	25.575950
936.000000	25.550230
937.000000	25.525010
938.000000	25.500190
939.000000	25.481170
940.000000	25.459710
941.000000	25.433520
942.000000	25.406650
943.000000	25.376830
944.000000	25.343620
945.000000	25.308640
946.000000	25.272030
947.000000	25.234010
948.000000	25.195700
949.000000	25.157500
950.000000	25.125680
951.000000	25.099550
952.000000	25.078640
953.000000	25.061210
954.000000	25.046970
955.000000	25.037500
956.000000	25.032550
957.000000	25.032340
958.000000	25.036600
959.000000	25.039120
960.000000	25.042320
961.000000	25.042740
962.000000	25.041570
963.000000	25.039460
964.000000	25.033920
965.000000	25.025090
966.000000	25.013000
967.000000	24.995420
968.000000	24.974400
969.000000	24.950870
970.000000	24.924520
971.000000	24.898100
972.000000	24.866620
973.000000	24.831890
974.000000	24.797220
975.000000	24.762310
976.000000	24.725210
977.000000	24.688810
978.000000	24.656270
979.000000	24.627430
980.000000	24.598310
981.000000	24.570660
982.000000	24.547690
983.000000	24.526400
984.000000	24.505810
985.000000	24.484110
986.000000	24.464990
987.000000	24.446900
988.000000	24.424360
989.000000	24.400510
990.000000	24.375180
991.000000	24.347170
992.000000	24.317840
993.000000	24.287560
994.000000	24.257710
995.000000	24.228130
996.000000	24.196030
997.000000	24.163080
998.000000	24.131040
999.000000	24.098760
1000.000000	24.069150
1001.000000	24.041450
1002.000000	24.013340
1003.000000	23.985050
1004.000000	23.956070
1005.000000	23.927630
1006.000000	23.901320
1007.000000	23.875440
1008.000000	23.847520
1009.000000	23.819300
1010.000000	23.789810
1011.000000	23.759560
1012.000000	23.728960
1013.000000	23.698240
1014.000000	23.668190
1015.000000	23.639250
1016.000000	23.611160
1017.000000	23.583170
1018.000000	23.557480
1019.000000	23.534420
1020.000000	23.515610
1021.000000	23.500430
1022.000000	23.489190
1023.000000	23.481930
1024.000000	23.478460
1025.000000	23.476760
1026.000000	23.478480
1027.000000	23.484750
1028.000000	23.494620
1029.000000	23.506930
1030.000000	23.520560
1031.000000	23.536800
1032.000000	23.554240
1033.000000	23.572470
1034.000000	23.591480
1035.000000	23.611900
1036.000000	23.631870
1037.000000	23.652370
1038.000000	23.673760
1039.000000	23.694900
1040.000000	23.714210
1041.000000	23.730690
1042.000000	23.745610
1043.000000	23.759610
1044.000000	23.772770
1045.000000	23.784410
1046.000000	23.795580
1047.000000	23.806120
1048.000000	23.815850
1049.000000	23.824250
1050.000000	23.832420
1051.000000	23.843090
1052.000000	23.856000
1053.000000	23.869170
1054.000000	23.881460
1055.000000	23.895420
1056.000000	23.911290
1057.000000	23.927910
1058.000000	23.943060
1059.000000	23.957870
1060.000000	23.974870
1061.000000	23.991810
1062.000000	24.008000
1063.000000	24.022970
1064.000000	24.039380
1065.000000	24.055530
1066.000000	24.068770
1067.000000	24.080540
1068.000000	24.093010
1069.000000	24.104210
1070.000000	24.115160
1071.000000	24.124930
1072.000000	24.133750
1073.000000	24.142730
1074.000000	24.151170
1075.000000	24.159580
1076.000000	24.167550
1077.000000	24.173860
1078.000000	24.179970
1079.000000	24.188520
1080.000000	24.196350
1081.000000	24.203750
1082.000000	24.211610
1083.000000	24.220450
1084.000000	24.228730
1085.000000	24.236520
1086.000000	24.244990
1087.000000	24.254160
1088.000000	24.266510
1089.000000	24.279750
1090.000000	24.292190
1091.000000	24.302520
1092.000000	24.310620
1093.000000	24.319490
1094.000000	24.328480
1095.000000	24.338340
1096.000000	24.347900
1097.000000	24.357300
1098.000000	24.362910
1099.000000	24.366410
1100.000000	24.369120
1101.000000	24.372730
1102.000000	24.377860
1103.000000	24.383240
1104.000000	24.387930
1105.000000	24.390770
1106.000000	24.393190
1107.000000	24.396710
1108.000000	24.401470
1109.000000	24.404910
1110.000000	24.407280
1111.000000	24.411490
1112.000000	24.415200
1113.000000	24.418080
1114.000000	24.419740
1115.000000	24.420360
1116.000000	24.423950
1117.000000	24.426380
1118.000000	24.425900
1119.000000	24.428510
1120.000000	24.429930
1121.000000	24.426920
1122.000000	24.423530
1123.000000	24.415700
1124.000000	24.408860
1125.000000	24.397670
1126.000000	24.380550
1127.000000	24.360090
1128.000000	24.332010
1129.000000	24.295100
1130.000000	24.252340
1131.000000	24.200760
1132.000000	24.136600
1133.000000	24.059980
1134.000000	23.970040
1135.000000	23.871480
1136.000000	23.759790
1137.000000	23.634050
1138.000000	23.496210
1139.000000	23.344360
1140.000000	23.182600
1141.000000	23.015550
1142.000000	22.842640
1143.000000	22.668620
1144.000000	22.493710
1145.000000	22.318050
1146.000000	22.149490
1147.000000	21.993250
1148.000000	21.855560
1149.000000	21.740280
1150.000000	21.643760
1151.000000	21.562940
1152.000000	21.502040
1153.000000	21.456110
1154.000000	21.422330
1155.000000	21.399030
1156.000000	21.375000
1157.000000	21.342780
1158.000000	21.298450
1159.000000	21.234180
1160.000000	21.152440
1161.000000	21.052180
1162.000000	20.932020
1163.000000	20.795190
1164.000000	20.640500
1165.000000	20.469940
1166.000000	20.289930
1167.000000	20.103440
1168.000000	19.911590
1169.000000	19.718670
1170.000000	19.526210
1171.000000	19.333100
1172.000000	19.140970
1173.000000	18.952230
1174.000000	18.767380
1175.000000	18.587000
1176.000000	18.410580
1177.000000	18.238120
1178.000000	18.068350
1179.000000	17.897730
1180.000000	17.720490
1181.000000	17.538510
1182.000000	17.349800
1183.000000	17.155480
1184.000000	16.960030
1185.000000	16.767410
1186.000000	16.583810
1187.000000	16.416280
1188.000000	16.272310
1189.000000	16.160770
1190.000000	16.089520
1191.000000	16.066070
1192.000000	16.088250
1193.000000	16.151830
1194.000000	16.251290
1195.000000	16.380000
1196.000000	16.528890
1197.000000	16.687790
1198.000000	16.848580
1199.000000	17.002230
1200.000000	17.144140
1201.000000	17.264870
1202.000000	17.366630
1203.000000	17.446740
1204.000000	17.509080
1205.000000	17.555430
1206.000000	17.590600
1207.000000	17.617880
1208.000000	17.638980
1209.000000	17.658010
1210.000000	17.678530
1211.000000	17.700520
1212.000000	17.726740
1213.000000	17.759040
1214.000000	17.794650
1215.000000	17.835600
1216.000000	17.878290
1217.000000	17.926890
1218.000000	17.980700
1219.000000	18.036050
1220.000000	18.092050
1221.000000	18.151470
1222.000000	18.211700
1223.000000	18.275770
1224.000000	18.343490
1225.000000	18.414380
1226.000000	18.488130
1227.000000	18.561780
1228.000000	18.637240
1229.000000	18.716690
1230.000000	18.794310
1231.000000	18.873170
1232.000000	18.951590
1233.000000	19.029190
1234.000000	19.106650
1235.000000	19.184640
1236.000000	19.260000
1237.000000	19.334140
1238.000000	19.406040
1239.000000	19.474840
1240.000000	19.545200
1241.000000	19.613870
1242.000000	19.680360
1243.000000	19.746730
1244.000000	19.813320
1245.000000	19.875250
1246.000000	19.937900
1247.000000	19.999800
1248.000000	20.059420
1249.000000	20.117980
1250.000000	20.173950
1251.000000	20.227140
1252.000000	20.278810
1253.000000	20.327520
1254.000000	20.372270
1255.000000	20.416390
1256.000000	20.458570
1257.000000	20.499450
1258.000000	20.539250
1259.000000	20.578620
1260.000000	20.617540
1261.000000	20.657770
1262.000000	20.697440
1263.000000	20.734700
1264.000000	20.771180
1265.000000	20.806240
1266.000000	20.841480
1267.000000	20.876270
1268.000000	20.910660
1269.000000	20.942940
1270.000000	20.975230
1271.000000	21.008000
1272.000000	21.039750
1273.000000	21.069880
1274.000000	21.099290
1275.000000	21.128120
1276.000000	21.156510
1277.000000	21.183500
1278.000000	21.212360
1279.000000	21.241510
1280.000000	21.269260
1281.000000	21.297240
1282.000000	21.327950
1283.000000	21.360460
1284.000000	21.393870
1285.000000	21.428930
1286.000000	21.464260
1287.000000	21.498990
1288.000000	21.531880
1289.000000	21.565850
1290.000000	21.597770
1291.000000	21.627000
1292.000000	21.653820
1293.000000	21.678420
1294.000000	21.702300
1295.000000	21.724290
1296.000000	21.743910
1297.000000	21.761730
1298.000000	21.778370
1299.000000	21.792910
1300.000000	21.806220
1301.000000	21.817300
1302.000000	21.827510
1303.000000	21.836780
1304.000000	21.843070
1305.000000	21.846990
1306.000000	21.850070
1307.000000	21.851930
1308.000000	21.849300
1309.000000	21.843390
1310.000000	21.835150
1311.000000	21.824040
1312.000000	21.808510
1313.000000	21.790100
1314.000000	21.769460
1315.000000	21.746820
1316.000000	21.720340
1317.000000	21.690630
1318.000000	21.659210
1319.000000	21.624990
1320.000000	21.589140
1321.000000	21.551620
1322.000000	21.513130
1323.000000	21.471770
1324.000000	21.428580
1325.000000	21.382010
1326.000000	21.333380
1327.000000	21.282990
1328.000000	21.230640
1329.000000	21.176810
1330.000000	21.118820
1331.000000	21.057090
1332.000000	20.991810
1333.000000	20.923710
1334.000000	20.852100
1335.000000	20.777990
1336.000000	20.700090
1337.000000	20.618990
1338.000000	20.534670
1339.000000	20.444640
1340.000000	20.350730
1341.000000	20.251040
1342.000000	20.146330
1343.000000	20.039330
1344.000000	19.924400
1345.000000	19.801010
1346.000000	19.671480
1347.000000	19.534750
1348.000000	19.390690
1349.000000	19.238870
1350.000000	19.078290
1351.000000	18.908130
1352.000000	18.723590
1353.000000	18.519910
1354.000000	18.307650
1355.000000	18.088580
1356.000000	17.866320
1357.000000	17.647710
1358.000000	17.436010
1359.000000	17.238530
1360.000000	17.057130
1361.000000	16.896970
1362.000000	16.766860
1363.000000	16.660960
1364.000000	16.569000
1365.000000	16.492380
1366.000000	16.426570
1367.000000	16.362300
1368.000000	16.294560
1369.000000	16.217910
1370.000000	16.128270
1371.000000	16.021000
1372.000000	15.890430
1373.000000	15.739510
1374.000000	15.572920
1375.000000	15.388960
1376.000000	15.194690
1377.000000	14.992990
1378.000000	14.790130
1379.000000	14.585840
1380.000000	14.387520
1381.000000	14.199730
1382.000000	14.024770
1383.000000	13.867940
1384.000000	13.726480
1385.000000	13.596520
1386.000000	13.473310
1387.000000	13.358900
1388.000000	13.256180
1389.000000	13.167070
1390.000000	13.087060
1391.000000	13.009450
1392.000000	12.941560
1393.000000	12.882280
1394.000000	12.834770
1395.000000	12.801630
1396.000000	12.787270
1397.000000	12.781940
1398.000000	12.770780
1399.000000	12.753040
1400.000000	12.733060
1401.000000	12.719300
1402.000000	12.693610
1403.000000	12.653210
1404.000000	12.598000
1405.000000	12.534270
1406.000000	12.449860
1407.000000	12.353720
1408.000000	12.255030
1409.000000	12.154970
1410.000000	12.049800
1411.000000	11.937320
1412.000000	11.825070
1413.000000	11.720540
1414.000000	11.624930
1415.000000	11.534220
1416.000000	11.447470
1417.000000	11.362630
1418.000000	11.282040
1419.000000	11.205620
1420.000000	11.134360
1421.000000	11.062500
1422.000000	10.989950
1423.000000	10.917050
1424.000000	10.843250
1425.000000	10.766070
1426.000000	10.686040
1427.000000	10.608220
1428.000000	10.533500
1429.000000	10.456640
1430.000000	10.380690
1431.000000	10.306730
1432.000000	10.238890
1433.000000	10.173270
1434.000000	10.109470
1435.000000	10.048100
1436.000000	9.993250
1437.000000	9.943410
1438.000000	9.894420
1439.000000	9.850320
1440.000000	9.804490
1441.000000	9.761080
1442.000000	9.719000
1443.000000	9.675070
1444.000000	9.632600
1445.000000	9.588700
1446.000000	9.546550
1447.000000	9.504810
1448.000000	9.459650
1449.000000	9.412550
1450.000000	9.368070
1451.000000	9.326460
1452.000000	9.282340
1453.000000	9.242270
1454.000000	9.200030
1455.000000	9.159850
1456.000000	9.121730
1457.000000	9.083070
1458.000000	9.046700
1459.000000	9.009460
1460.000000	8.974730
1461.000000	8.938750
1462.000000	8.903920
1463.000000	8.871370
1464.000000	8.839980
1465.000000	8.808910
1466.000000	8.776900
1467.000000	8.745840
1468.000000	8.718020
1469.000000	8.692760
1470.000000	8.667600
1471.000000	8.642870
1472.000000	8.620980
1473.000000	8.597570
1474.000000	8.575500
1475.000000	8.553220
1476.000000	8.529360
1477.000000	8.506970
1478.000000	8.484580
1479.000000	8.464030
1480.000000	8.440740
1481.000000	8.417860
1482.000000	8.395590
1483.000000	8.371070
1484.000000	8.345420
1485.000000	8.325140
1486.000000	8.307470
1487.000000	8.288800
1488.000000	8.270440
1489.000000	8.250850
1490.000000	8.234040
1491.000000	8.214860
1492.000000	8.198110
1493.000000	8.182950
1494.000000	8.168830
1495.000000	8.152030
1496.000000	8.137960
1497.000000	8.126730
1498.000000	8.115340
1499.000000	8.104340
1500.000000	8.093780
1501.000000	8.086320
1502.000000	8.077360
1503.000000	8.071600
1504.000000	8.069010
1505.000000	8.066180
1506.000000	8.062740
1507.000000	8.059650
1508.000000	8.057780
1509.000000	8.058840
1510.000000	8.059500
1511.000000	8.062040
1512.000000	8.065660
1513.000000	8.070160
1514.000000	8.074420
1515.000000	8.081010
1516.000000	8.087920
1517.000000	8.094850
1518.000000	8.101570
1519.000000	8.107440
1520.000000	8.116810
1521.000000	8.124310
1522.000000	8.130970
1523.000000	8.136460
1524.000000	8.143210
1525.000000	8.149180
1526.000000	8.155710
1527.000000	8.160980
1528.000000	8.166580
1529.000000	8.175390
1530.000000	8.182720
1531.000000	8.191550
1532.000000	8.199240
1533.000000	8.208130
1534.000000	8.216120
1535.000000	8.223530
1536.000000	8.229530
1537.000000	8.237170
1538.000000	8.244670
1539.000000	8.248930
1540.000000	8.251010
1541.000000	8.253980
1542.000000	8.257730
1543.000000	8.258900
1544.000000	8.260340
1545.000000	8.262330
1546.000000	8.265990
1547.000000	8.269620
1548.000000	8.273030
1549.000000	8.277220
1550.000000	8.283210
1551.000000	8.288240
1552.000000	8.294250
1553.000000	8.300330
1554.000000	8.304470
1555.000000	8.307980
1556.000000	8.312210
1557.000000	8.315980
1558.000000	8.319130
1559.000000	8.321230
1560.000000	8.320730
1561.000000	8.319610
1562.000000	8.317370
1563.000000	8.315360
1564.000000	8.313090
1565.000000	8.308960
1566.000000	8.303050
1567.000000	8.294990
1568.000000	8.285630
1569.000000	8.277830
1570.000000	8.270360
1571.000000	8.261230
1572.000000	8.251720
1573.000000	8.241370
1574.000000	8.231460
1575.000000	8.224460
1576.000000	8.217190
1577.000000	8.209640
1578.000000	8.203960
1579.000000	8.197140
1580.000000	8.191320
1581.000000	8.187640
1582.000000	8.183710
1583.000000	8.182580
1584.000000	8.182880
1585.000000	8.182540
1586.000000	8.182660
1587.000000	8.184340
1588.000000	8.187070
1589.000000	8.191930
1590.000000	8.198130
1591.000000	8.205770
1592.000000	8.214700
1593.000000	8.223240
1594.000000	8.233590
1595.000000	8.244990
1596.000000	8.256660
1597.000000	8.270210
1598.000000	8.285850
1599.000000	8.300710
1600.000000	8.316390
1601.000000	8.331690
1602.000000	8.349060
1603.000000	8.367630
1604.000000	8.385620
1605.000000	8.404000
1606.000000	8.423410
1607.000000	8.443440
1608.000000	8.463260
1609.000000	8.484390
1610.000000	8.505480
1611.000000	8.527270
1612.000000	8.548770
1613.000000	8.571690
1614.000000	8.595040
1615.000000	8.619250
1616.000000	8.644200
1617.000000	8.667690
1618.000000	8.690100
1619.000000	8.711990
1620.000000	8.735140
1621.000000	8.760850
1622.000000	8.788620
1623.000000	8.814030
1624.000000	8.840300
1625.000000	8.865380
1626.000000	8.891210
1627.000000	8.919320
1628.000000	8.947990
1629.000000	8.979260
1630.000000	9.010900
1631.000000	9.039500
1632.000000	9.068050
1633.000000	9.097480
1634.000000	9.126740
1635.000000	9.156730
1636.000000	9.185720
1637.000000	9.215530
1638.000000	9.247240
1639.000000	9.275190
1640.000000	9.302280
1641.000000	9.330100
1642.000000	9.355730
1643.000000	9.381720
1644.000000	9.408050
1645.000000	9.433630
1646.000000	9.460280
1647.000000	9.484410
1648.000000	9.507220
1649.000000	9.531250
1650.000000	9.551810
1651.000000	9.571670
1652.000000	9.592650
1653.000000	9.611410
1654.000000	9.626730
1655.000000	9.642560
1656.000000	9.654210
1657.000000	9.664500
1658.000000	9.671740
1659.000000	9.675710
1660.000000	9.679020
1661.000000	9.678040
1662.000000	9.673720
1663.000000	9.666680
1664.000000	9.655740
1665.000000	9.640860
1666.000000	9.621780
1667.000000	9.599040
1668.000000	9.569970
1669.000000	9.537780
1670.000000	9.499990
1671.000000	9.457160
1672.000000	9.407140
1673.000000	9.350180
1674.000000	9.287810
1675.000000	9.214610
1676.000000	9.131810
1677.000000	9.035570
1678.000000	8.928250
1679.000000	8.805330
1680.000000	8.666910
1681.000000	8.515010
1682.000000	8.353360
1683.000000	8.189170
1684.000000	8.026960
1685.000000	7.872340
1686.000000	7.733960
1687.000000	7.613110
1688.000000	7.508750
1689.000000	7.423990
1690.000000	7.358610
1691.000000	7.310060
1692.000000	7.273580
1693.000000	7.244050
1694.000000	7.219680
1695.000000	7.198600
1696.000000	7.176890
1697.000000	7.153870
1698.000000	7.139310
1699.000000	7.129000
1700.000000	7.127390
1701.000000	7.136340
1702.000000	7.157290
1703.000000	7.188210
1704.000000	7.226240
1705.000000	7.265390
1706.000000	7.305500
1707.000000	7.345880
1708.000000	7.381660
1709.000000	7.413580
1710.000000	7.439440
1711.000000	7.459780
1712.000000	7.470220
1713.000000	7.476340
1714.000000	7.473310
1715.000000	7.464950
1716.000000	7.454260
1717.000000	7.440980
1718.000000	7.420870
1719.000000	7.400750
1720.000000	7.380560
1721.000000	7.358600
1722.000000	7.338060
1723.000000	7.316180
1724.000000	7.295410
1725.000000	7.281140
1726.000000	7.264440
1727.000000	7.247770
1728.000000	7.232390
1729.000000	7.211850
1730.000000	7.188310
1731.000000	7.162510
1732.000000	7.135520
1733.000000	7.105170
1734.000000	7.077550
1735.000000	7.052200
1736.000000	7.031260
1737.000000	7.020440
1738.000000	7.016750
1739.000000	7.025440
1740.000000	7.044200
1741.000000	7.076080
1742.000000	7.119900
1743.000000	7.175680
1744.000000	7.242080
1745.000000	7.310890
1746.000000	7.383600
1747.000000	7.453360
1748.000000	7.524310
1749.000000	7.591300
1750.000000	7.651860
1751.000000	7.707130
1752.000000	7.754530
1753.000000	7.794780
1754.000000	7.825170
1755.000000	7.850380
1756.000000	7.868800
1757.000000	7.880800
1758.000000	7.884980
1759.000000	7.881800
1760.000000	7.875420
1761.000000	7.862430
1762.000000	7.846840
1763.000000	7.829130
1764.000000	7.811820
1765.000000	7.796420
1766.000000	7.785500
1767.000000	7.779480
1768.000000	7.778080
1769.000000	7.786550
1770.000000	7.803560
1771.000000	7.828510
1772.000000	7.860180
1773.000000	7.896740
1774.000000	7.938920
1775.000000	7.985250
1776.000000	8.033680
1777.000000	8.084900
1778.000000	8.138340
1779.000000	8.188640
1780.000000	8.237910
1781.000000	8.285190
1782.000000	8.328870
1783.000000	8.373210
1784.000000	8.414440
1785.000000	8.452640
1786.000000	8.490200
1787.000000	8.526230
1788.000000	8.560680
1789.000000	8.594080
1790.000000	8.626160
1791.000000	8.656770
1792.000000	8.686840
1793.000000	8.714650
1794.000000	8.742160
1795.000000	8.769240
1796.000000	8.794560
1797.000000	8.816460
1798.000000	8.836310
1799.000000	8.855930
1800.000000	8.875610
1801.000000	8.897050
1802.000000	8.921080
1803.000000	8.944490
1804.000000	8.965190
1805.000000	8.984530
1806.000000	9.004150
1807.000000	9.027330
1808.000000	9.052670
1809.000000	9.077190
1810.000000	9.098090
1811.000000	9.116870
1812.000000	9.134320
1813.000000	9.151780
1814.000000	9.168150
1815.000000	9.183720
1816.000000	9.197780
1817.000000	9.208160
1818.000000	9.213780
1819.000000	9.217070
1820.000000	9.224600
1821.000000	9.236790
1822.000000	9.250540
1823.000000	9.263860
1824.000000	9.274740
1825.000000	9.283890
1826.000000	9.294570
1827.000000	9.310150
1828.000000	9.330900
1829.000000	9.355920
1830.000000	9.381750
1831.000000	9.407680
1832.000000	9.433660
1833.000000	9.458950
1834.000000	9.486870
1835.000000	9.517490
1836.000000	9.549720
1837.000000	9.582490
1838.000000	9.616580
1839.000000	9.650780
1840.000000	9.681210
1841.000000	9.710020
1842.000000	9.743100
1843.000000	9.780230
1844.000000	9.815030
1845.000000	9.841120
1846.000000	9.859920
1847.000000	9.879440
1848.000000	9.905790
1849.000000	9.939680
1850.000000	9.977680
1851.000000	10.008610
1852.000000	10.027490
1853.000000	10.045530
1854.000000	10.071330
1855.000000	10.109330
1856.000000	10.153290
1857.000000	10.189250
1858.000000	10.213290
1859.000000	10.230490
1860.000000	10.246880
1861.000000	10.266930
1862.000000	10.291580
1863.000000	10.308990
1864.000000	10.316980
1865.000000	10.317040
1866.000000	10.308980
1867.000000	10.296870
1868.000000	10.281670
1869.000000	10.258850
1870.000000	10.229970
1871.000000	10.199580
1872.000000	10.164340
1873.000000	10.127550
1874.000000	10.088980
1875.000000	10.045670
1876.000000	9.995910
1877.000000	9.940370
1878.000000	9.875390
1879.000000	9.799970
1880.000000	9.710090
1881.000000	9.602200
1882.000000	9.481330
1883.000000	9.350090
1884.000000	9.212240
1885.000000	9.069030
1886.000000	8.924200
1887.000000	8.778780
1888.000000	8.634230
1889.000000	8.492510
1890.000000	8.358550
1891.000000	8.233940
1892.000000	8.118010
1893.000000	8.010060
1894.000000	7.905830
1895.000000	7.803920
1896.000000	7.703340
1897.000000	7.602810
1898.000000	7.504660
1899.000000	7.408860
1900.000000	7.313610
1901.000000	7.218980
1902.000000	7.125090
1903.000000	7.027810
1904.000000	6.929120
1905.000000	6.834500
1906.000000	6.746930
1907.000000	6.664850
1908.000000	6.581740
1909.000000	6.498850
1910.000000	6.413580
1911.000000	6.326110
1912.000000	6.239820
1913.000000	6.159930
1914.000000	6.086980
1915.000000	6.012660
1916.000000	5.935440
1917.000000	5.857760
1918.000000	5.782900
1919.000000	5.710440
1920.000000	5.642880
1921.000000	5.584250
1922.000000	5.527840
1923.000000	5.472860
1924.000000	5.415040
1925.000000	5.358810
1926.000000	5.307030
1927.000000	5.258690
1928.000000	5.216190
1929.000000	5.177670
1930.000000	5.143830
1931.000000	5.108060
1932.000000	5.075620
1933.000000	5.043850
1934.000000	5.016430
1935.000000	4.992140
1936.000000	4.969480
1937.000000	4.947830
1938.000000	4.928130
1939.000000	4.914130
1940.000000	4.898910
1941.000000	4.887910
1942.000000	4.878910
1943.000000	4.871770
1944.000000	4.865120
1945.000000	4.862570
1946.000000	4.865700
1947.000000	4.870840
1948.000000	4.877030
1949.000000	4.883280
1950.000000	4.891140
1951.000000	4.899460
1952.000000	4.908240
1953.000000	4.919200
1954.000000	4.933450
1955.000000	4.947470
1956.000000	4.961980
1957.000000	4.976140
1958.000000	4.990070
1959.000000	5.005330
1960.000000	5.022940
1961.000000	5.041170
1962.000000	5.060010
1963.000000	5.079260
1964.000000	5.100900
1965.000000	5.122500
1966.000000	5.143320
1967.000000	5.162420
1968.000000	5.183980
1969.000000	5.203050
1970.000000	5.222310
1971.000000	5.240900
1972.000000	5.258670
1973.000000	5.278510
1974.000000	5.296070
1975.000000	5.315370
1976.000000	5.332330
1977.000000	5.353310
1978.000000	5.373580
1979.000000	5.395000
1980.000000	5.415600
1981.000000	5.438400
1982.000000	5.463320
1983.000000	5.485640
1984.000000	5.507930
1985.000000	5.529640
1986.000000	5.552090
1987.000000	5.575530
1988.000000	5.596210
1989.000000	5.617400
1990.000000	5.638110
1991.000000	5.657590
1992.000000	5.673250
1993.000000	5.689860
1994.000000	5.707020
1995.000000	5.721910
1996.000000	5.736030
1997.000000	5.747350
1998.000000	5.759550
1999.000000	5.769980
2000.000000	5.780050
2001.000000	5.787350
2002.000000	5.796080
2003.000000	5.803210
2004.000000	5.806660
2005.000000	5.810610
2006.000000	5.813560
2007.000000	5.813660
2008.000000	5.813400
2009.000000	5.809870
2010.000000	5.804750
2011.000000	5.800040
2012.000000	5.793570
2013.000000	5.782800
2014.000000	5.771960
2015.000000	5.759360
2016.000000	5.744440
2017.000000	5.729960
2018.000000	5.712540
2019.000000	5.694350
2020.000000	5.675980
2021.000000	5.653690
2022.000000	5.629890
2023.000000	5.606340
2024.000000	5.580920
2025.000000	5.553510
2026.000000	5.524710
2027.000000	5.495630
2028.000000	5.465720
2029.000000	5.435460
2030.000000	5.404020
2031.000000	5.368470
2032.000000	5.332540
2033.000000	5.296920
2034.000000	5.261580
2035.000000	5.226760
2036.000000	5.189690
2037.000000	5.151020
2038.000000	5.112340
2039.000000	5.070470
2040.000000	5.026480
2041.000000	4.987040
2042.000000	4.944880
2043.000000	4.900930
2044.000000	4.855700
2045.000000	4.808220
2046.000000	4.762420
2047.000000	4.717790
2048.000000	4.673290
2049.000000	4.631210
2050.000000	4.590310
2051.000000	4.550020
2052.000000	4.513030
2053.000000	4.477290
2054.000000	4.444550
2055.000000	4.418160
2056.000000	4.394800
2057.000000	4.372930
2058.000000	4.353660
2059.000000	4.338490
2060.000000	4.326520
2061.000000	4.316520
2062.000000	4.309480
2063.000000	4.306600
2064.000000	4.305450
2065.000000	4.305550
2066.000000	4.307520
2067.000000	4.310170
2068.000000	4.314770
2069.000000	4.318760
2070.000000	4.323920
2071.000000	4.331480
2072.000000	4.337920
2073.000000	4.345060
2074.000000	4.353130
2075.000000	4.359040
2076.000000	4.364600
2077.000000	4.371230
2078.000000	4.377570
2079.000000	4.384380
2080.000000	4.389900
2081.000000	4.395390
2082.000000	4.401920
2083.000000	4.406130
2084.000000	4.409670
2085.000000	4.413280
2086.000000	4.417270
2087.000000	4.421880
2088.000000	4.424090
2089.000000	4.427060
2090.000000	4.429460
2091.000000	4.429480
2092.000000	4.429260
2093.000000	4.431370
2094.000000	4.432490
2095.000000	4.433380
2096.000000	4.433360
2097.000000	4.433170
2098.000000	4.435960
2099.000000	4.439360
2100.000000	4.443360
2101.000000	4.447490
2102.000000	4.450390
2103.000000	4.453660
2104.000000	4.458830
2105.000000	4.464500
2106.000000	4.470480
2107.000000	4.476150
2108.000000	4.481740
2109.000000	4.488060
2110.000000	4.494490
2111.000000	4.500780
2112.000000	4.507850
2113.000000	4.514660
2114.000000	4.520730
2115.000000	4.526000
2116.000000	4.530530
2117.000000	4.535660
2118.000000	4.540200
2119.000000	4.542210
2120.000000	4.544750
2121.000000	4.549370
2122.000000	4.554170
2123.000000	4.556230
2124.000000	4.557250
2125.000000	4.560320
2126.000000	4.563350
2127.000000	4.564730
2128.000000	4.566260
2129.000000	4.567350
2130.000000	4.566860
2131.000000	4.567050
2132.000000	4.566460
2133.000000	4.563860
2134.000000	4.561590
2135.000000	4.558940
2136.000000	4.553650
2137.000000	4.547380
2138.000000	4.538650
2139.000000	4.530990
2140.000000	4.523550
2141.000000	4.511090
2142.000000	4.497760
2143.000000	4.487710
2144.000000	4.475830
2145.000000	4.460770
2146.000000	4.446640
2147.000000	4.434750
2148.000000	4.421880
2149.000000	4.406770
2150.000000	4.389890
2151.000000	4.375440
2152.000000	4.359640
2153.000000	4.343620
2154.000000	4.326930
2155.000000	4.311370
2156.000000	4.299200
2157.000000	4.282250
2158.000000	4.265210
2159.000000	4.250090
2160.000000	4.236040
2161.000000	4.221190
2162.000000	4.208920
2163.000000	4.196240
2164.000000	4.184980
2165.000000	4.174620
2166.000000	4.161400
2167.000000	4.151890
2168.000000	4.142810
2169.000000	4.132880
2170.000000	4.124010
2171.000000	4.116370
2172.000000	4.107370
2173.000000	4.099060
2174.000000	4.087960
2175.000000	4.076670
2176.000000	4.067540
2177.000000	4.058660
2178.000000	4.051360
2179.000000	4.045730
2180.000000	4.039680
2181.000000	4.032720
2182.000000	4.024380
2183.000000	4.015700
2184.000000	4.010570
2185.000000	4.002170
2186.000000	3.991190
2187.000000	3.979840
2188.000000	3.967450
2189.000000	3.947840
2190.000000	3.927640
2191.000000	3.904230
2192.000000	3.880560
2193.000000	3.853850
2194.000000	3.822260
2195.000000	3.789400
2196.000000	3.753550
2197.000000	3.714550
2198.000000	3.670040
2199.000000	3.627820
2200.000000	3.584270
2201.000000	3.541600
2202.000000	3.496950
2203.000000	3.451560
2204.000000	3.408400
2205.000000	3.365950
2206.000000	3.326700
2207.000000	3.287180
2208.000000	3.254270
2209.000000	3.226090
2210.000000	3.198960
2211.000000	3.172270
2212.000000	3.153170
2213.000000	3.140930
2214.000000	3.133380
2215.000000	3.130790
2216.000000	3.132540
2217.000000	3.139200
2218.000000	3.148080
2219.000000	3.159380
2220.000000	3.174810
2221.000000	3.197130
2222.000000	3.217670
2223.000000	3.238020
2224.000000	3.256910
2225.000000	3.276450
2226.000000	3.294150
2227.000000	3.312290
2228.000000	3.329540
2229.000000	3.344630
2230.000000	3.356730
2231.000000	3.367280
2232.000000	3.375050
2233.000000	3.379930
2234.000000	3.384120
2235.000000	3.385460
2236.000000	3.386020
2237.000000	3.383810
2238.000000	3.377830
2239.000000	3.370450
2240.000000	3.361720
2241.000000	3.348450
2242.000000	3.333370
2243.000000	3.316430
2244.000000	3.300320
2245.000000	3.280910
2246.000000	3.258610
2247.000000	3.236080
2248.000000	3.212530
2249.000000	3.184320
2250.000000	3.155860
2251.000000	3.126270
2252.000000	3.096910
2253.000000	3.064470
2254.000000	3.027040
2255.000000	2.992750
2256.000000	2.954790
2257.000000	2.913220
2258.000000	2.871530
2259.000000	2.831120
2260.000000	2.790850
2261.000000	2.750850
2262.000000	2.711190
2263.000000	2.673210
2264.000000	2.636280
2265.000000	2.601590
2266.000000	2.572740
2267.000000	2.548880
2268.000000	2.526930
2269.000000	2.508870
2270.000000	2.493780
2271.000000	2.482150
2272.000000	2.473760
2273.000000	2.469860
2274.000000	2.471980
2275.000000	2.473750
2276.000000	2.478540
2277.000000	2.486300
2278.000000	2.497530
2279.000000	2.509720
2280.000000	2.523220
2281.000000	2.537260
2282.000000	2.552830
2283.000000	2.566360
2284.000000	2.581320
2285.000000	2.597380
2286.000000	2.612090
2287.000000	2.624950
2288.000000	2.638070
2289.000000	2.650190
2290.000000	2.659860
2291.000000	2.668510
2292.000000	2.675650
2293.000000	2.682900
2294.000000	2.684760
2295.000000	2.683990
2296.000000	2.681210
2297.000000	2.676840
2298.000000	2.669160
2299.000000	2.659970
2300.000000	2.650160
2301.000000	2.638360
2302.000000	2.625490
2303.000000	2.612920
2304.000000	2.601180
2305.000000	2.592080
2306.000000	2.584350
2307.000000	2.576180
2308.000000	2.570880
2309.000000	2.569070
2310.000000	2.569910
2311.000000	2.575160
2312.000000	2.583120
2313.000000	2.596060
2314.000000	2.611050
2315.000000	2.627990
2316.000000	2.646590
2317.000000	2.669300
2318.000000	2.693810
2319.000000	2.718600
2320.000000	2.745120
2321.000000	2.769230
2322.000000	2.795260
2323.000000	2.819350
2324.000000	2.844010
2325.000000	2.866570
2326.000000	2.888040
2327.000000	2.907570
2328.000000	2.926640
2329.000000	2.944750
2330.000000	2.961480
2331.000000	2.978740
2332.000000	2.994270
2333.000000	3.007660
2334.000000	3.019520
2335.000000	3.031610
2336.000000	3.042700
2337.000000	3.052350
2338.000000	3.058750
2339.000000	3.063430
2340.000000	3.065830
2341.000000	3.066790
2342.000000	3.065630
2343.000000	3.062880
2344.000000	3.058500
2345.000000	3.051150
2346.000000	3.043500
2347.000000	3.036960
2348.000000	3.030650
2349.000000	3.022720
2350.000000	3.013910
2351.000000	3.005640
2352.000000	2.997620
2353.000000	2.993100
2354.000000	2.990980
2355.000000	2.991860
2356.000000	2.993390
2357.000000	2.996460
2358.000000	3.001660
2359.000000	3.010060
2360.000000	3.021590
2361.000000	3.033690
2362.000000	3.047630
2363.000000	3.061160
2364.000000	3.073690
2365.000000	3.087200
2366.000000	3.102840
2367.000000	3.117450
2368.000000	3.130250
2369.000000	3.143240
2370.000000	3.154760
2371.000000	3.166610
2372.000000	3.176880
2373.000000	3.185380
2374.000000	3.194840
2375.000000	3.201760
2376.000000	3.207000
2377.000000	3.213470
2378.000000	3.218670
2379.000000	3.222090
2380.000000	3.225240
2381.000000	3.229180
2382.000000	3.234050
2383.000000	3.237820
2384.000000	3.238200
2385.000000	3.238350
2386.000000	3.238390
2387.000000	3.236370
2388.000000	3.235100
2389.000000	3.232770
2390.000000	3.230230
2391.000000	3.225240
2392.000000	3.217990
2393.000000	3.213210
2394.000000	3.209260
2395.000000	3.202790
2396.000000	3.194330
2397.000000	3.185470
2398.000000	3.177350
2399.000000	3.168780
2400.000000	3.159300
2401.000000	3.150550
2402.000000	3.143360
2403.000000	3.133630
2404.000000	3.124440
2405.000000	3.116810
2406.000000	3.108970
2407.000000	3.100010
2408.000000	3.091670
2409.000000	3.082340
2410.000000	3.073650
2411.000000	3.064350
2412.000000	3.053350
2413.000000	3.043250
2414.000000	3.031740
2415.000000	3.022290
2416.000000	3.012950
2417.000000	3.002860
2418.000000	2.990350
2419.000000	2.980010
2420.000000	2.970390
2421.000000	2.961420
2422.000000	2.951060
2423.000000	2.937350
2424.000000	2.924560
2425.000000	2.909920
2426.000000	2.894290
2427.000000	2.877990
2428.000000	2.861190
2429.000000	2.845550
2430.000000	2.828130
2431.000000	2.810820
2432.000000	2.792310
2433.000000	2.775100
2434.000000	2.758210
2435.000000	2.739930
2436.000000	2.722460
2437.000000	2.705890
2438.000000	2.690490
2439.000000	2.673720
2440.000000	2.654620
2441.000000	2.634840
2442.000000	2.617070
2443.000000	2.599790
2444.000000	2.579200
2445.000000	2.562000
2446.000000	2.543580
2447.000000	2.526530
2448.000000	2.509720
2449.000000	2.491840
2450.000000	2.472150
2451.000000	2.453060
2452.000000	2.436460
2453.000000	2.417610
2454.000000	2.401090
2455.000000	2.382730
2456.000000	2.368830
2457.000000	2.351820
2458.000000	2.333450
2459.000000	2.317410
2460.000000	2.303880
2461.000000	2.287110
2462.000000	2.271050
2463.000000	2.261730
2464.000000	2.252760
2465.000000	2.242630
2466.000000	2.233100
2467.000000	2.226280
2468.000000	2.219760
2469.000000	2.211190
2470.000000	2.204630
2471.000000	2.203760
2472.000000	2.204010
2473.000000	2.199980
2474.000000	2.200530
2475.000000	2.198580
2476.000000	2.195910
2477.000000	2.196430
2478.000000	2.201390
2479.000000	2.205630
2480.000000	2.209620
2481.000000	2.208960
2482.000000	2.203820
2483.000000	2.194990
2484.000000	2.195520
2485.000000	2.199880
2486.000000	2.206470
2487.000000	2.210320
2488.000000	2.214300
2489.000000	2.224980
2490.000000	2.226080
2491.000000	2.228540
2492.000000	2.236390
2493.000000	2.252920
2494.000000	2.263470
2495.000000	2.268520
2496.000000	2.278840
2497.000000	2.287140
2498.000000	2.294790
2499.000000	2.290540
2500.000000	2.298140
