PE UV       SUBTECH     SPECTRUM    ASCII       PEDS        4.00        
   -1
CICIMAUCR0097-1.ASC
24/04/03
15:09:17.00
24/04/03
15:09:17.00
Vinicio Soto Monge
C. kalinini
250,000000
1
Lambda 1050
1050L1511233
PerkinElmer UV WinLab 6.3.2.0749 / 2.02.05 Lambda 900 UV/VIS/NIR, Aug  7 2015 09:38:08

0
0
3350/servo 860,8/2
0
0
UV/VIS
1
1
1
DoubleDePol,CommonBeamDepol,RBeamAtt,SBeamAtt,60mm sphere, WB InGaAs Detector
0
0
0
0
Program
Program
3350/servo 860,8/2
3350/0,2 860,8/0,2
3350/0,2 860,8/0,2
0
15.00
 
 
 
0
 
860,8
319,2
860,8
Front
100
on
S:100 R:100
0
0
0
0
 
0
 
 
 
0
 
 
0
0
0
0
0
 
 
 
 
0
0


0
0
#HDR
-1
-1
#GR
nm
%R
1.0
0.0
2500,000000
-1,000000
2251
8
71,118700
4,659200
#DATA

250.000000	nan
251.000000	nan
252.000000	nan
253.000000	nan
254.000000	nan
255.000000	nan
256.000000	nan
257.000000	nan
258.000000	nan
259.000000	5.712633
260.000000	5.693682
261.000000	5.670936
262.000000	5.651637
263.000000	5.634202
264.000000	5.612335
265.000000	5.595391
266.000000	5.576884
267.000000	5.547526
268.000000	5.524076
269.000000	5.496812
270.000000	5.475225
271.000000	5.450404
272.000000	5.427408
273.000000	5.401197
274.000000	5.385750
275.000000	5.363429
276.000000	5.341592
277.000000	5.327940
278.000000	5.306836
279.000000	5.296825
280.000000	5.279360
281.000000	5.268326
282.000000	5.258507
283.000000	5.246555
284.000000	5.233580
285.000000	5.221947
286.000000	5.210207
287.000000	5.202899
288.000000	5.195610
289.000000	5.190117
290.000000	5.182133
291.000000	5.177132
292.000000	5.167168
293.000000	5.166338
294.000000	5.161878
295.000000	5.162525
296.000000	5.158065
297.000000	5.148854
298.000000	5.146576
299.000000	5.135676
300.000000	5.133919
301.000000	5.135136
302.000000	5.136671
303.000000	5.127663
304.000000	5.123589
305.000000	5.117796
306.000000	5.113973
307.000000	5.109021
308.000000	5.100506
309.000000	5.102543
310.000000	5.102446
311.000000	5.099067
312.000000	5.098228
313.000000	5.099917
314.000000	5.095718
315.000000	5.088767
316.000000	5.092532
317.000000	5.119370
318.000000	5.154425
319.000000	5.206490
320.000000	5.215922
321.000000	5.228318
322.000000	5.258362
323.000000	5.277845
324.000000	5.311094
325.000000	5.365351
326.000000	5.390828
327.000000	5.408679
328.000000	5.382612
329.000000	5.318267
330.000000	5.310669
331.000000	5.310466
332.000000	5.296786
333.000000	5.294344
334.000000	5.280760
335.000000	5.248727
336.000000	5.239778
337.000000	5.207214
338.000000	5.214648
339.000000	5.245754
340.000000	5.255601
341.000000	5.252087
342.000000	5.238619
343.000000	5.242105
344.000000	5.242471
345.000000	5.237393
346.000000	5.237046
347.000000	5.236129
348.000000	5.239102
349.000000	5.227739
350.000000	5.225451
351.000000	5.228396
352.000000	5.230182
353.000000	5.225577
354.000000	5.225818
355.000000	5.238359
356.000000	5.250436
357.000000	5.267312
358.000000	5.267824
359.000000	5.275894
360.000000	5.283232
361.000000	5.286389
362.000000	5.298872
363.000000	5.313411
364.000000	5.319503
365.000000	5.317997
366.000000	5.314984
367.000000	5.313247
368.000000	5.318112
369.000000	5.320333
370.000000	5.330537
371.000000	5.345289
372.000000	5.351815
373.000000	5.340443
374.000000	5.334515
375.000000	5.343889
376.000000	5.361566
377.000000	5.367494
378.000000	5.377167
379.000000	5.388357
380.000000	5.390596
381.000000	5.392508
382.000000	5.403408
383.000000	5.427070
384.000000	5.453803
385.000000	5.466759
386.000000	5.471074
387.000000	5.495084
388.000000	5.521228
389.000000	5.548395
390.000000	5.578738
391.000000	5.612219
392.000000	5.647776
393.000000	5.683467
394.000000	5.722055
395.000000	5.764447
396.000000	5.810575
397.000000	5.860014
398.000000	5.913489
399.000000	5.971714
400.000000	6.032951
401.000000	6.097701
402.000000	6.167144
403.000000	6.244706
404.000000	6.328187
405.000000	6.418067
406.000000	6.514890
407.000000	6.618712
408.000000	6.729697
409.000000	6.846513
410.000000	6.971825
411.000000	7.106859
412.000000	7.250958
413.000000	7.401332
414.000000	7.560646
415.000000	7.728736
416.000000	7.906171
417.000000	8.093724
418.000000	8.291829
419.000000	8.500776
420.000000	8.718189
421.000000	8.943818
422.000000	9.179333
423.000000	9.423856
424.000000	9.676420
425.000000	9.936689
426.000000	10.203754
427.000000	10.477722
428.000000	10.756430
429.000000	11.039029
430.000000	11.326425
431.000000	11.617703
432.000000	11.911279
433.000000	12.205907
434.000000	12.501259
435.000000	12.797547
436.000000	13.091393
437.000000	13.381677
438.000000	13.669016
439.000000	13.953488
440.000000	14.234561
441.000000	14.510711
442.000000	14.780827
443.000000	15.044851
444.000000	15.302609
445.000000	15.551524
446.000000	15.793923
447.000000	16.029824
448.000000	16.254671
449.000000	16.470877
450.000000	16.680094
451.000000	16.878064
452.000000	17.063802
453.000000	17.242357
454.000000	17.411480
455.000000	17.572860
456.000000	17.725435
457.000000	17.866793
458.000000	18.000987
459.000000	18.126694
460.000000	18.241483
461.000000	18.348298
462.000000	18.448586
463.000000	18.539857
464.000000	18.624110
465.000000	18.698341
466.000000	18.762783
467.000000	18.821626
468.000000	18.873092
469.000000	18.916035
470.000000	18.951137
471.000000	18.978565
472.000000	18.997536
473.000000	19.008426
474.000000	19.011177
475.000000	19.007141
476.000000	18.996406
477.000000	18.978700
478.000000	18.956264
479.000000	18.929492
480.000000	18.897315
481.000000	18.861150
482.000000	18.821239
483.000000	18.777110
484.000000	18.729833
485.000000	18.680992
486.000000	18.633928
487.000000	18.587414
488.000000	18.542580
489.000000	18.501366
490.000000	18.466398
491.000000	18.438266
492.000000	18.419614
493.000000	18.414024
494.000000	18.422442
495.000000	18.445651
496.000000	18.483592
497.000000	18.539819
498.000000	18.613094
499.000000	18.704626
500.000000	18.817137
501.000000	18.950326
502.000000	19.106793
503.000000	19.281824
504.000000	19.474445
505.000000	19.688354
506.000000	19.923560
507.000000	20.175372
508.000000	20.444512
509.000000	20.728549
510.000000	21.025649
511.000000	21.335289
512.000000	21.652962
513.000000	21.979487
514.000000	22.314344
515.000000	22.651287
516.000000	22.988934
517.000000	23.326890
518.000000	23.664441
519.000000	23.999877
520.000000	24.329376
521.000000	24.654309
522.000000	24.974810
523.000000	25.290407
524.000000	25.601669
525.000000	25.911522
526.000000	26.219376
527.000000	26.526207
528.000000	26.833018
529.000000	27.143286
530.000000	27.461654
531.000000	27.787002
532.000000	28.121588
533.000000	28.470126
534.000000	28.833666
535.000000	29.214708
536.000000	29.615292
537.000000	30.038813
538.000000	30.485756
539.000000	30.958041
540.000000	31.454781
541.000000	31.975858
542.000000	32.522008
543.000000	33.092419
544.000000	33.686425
545.000000	34.297209
546.000000	34.923171
547.000000	35.558274
548.000000	36.203583
549.000000	36.852685
550.000000	37.502348
551.000000	38.154723
552.000000	38.806818
553.000000	39.450167
554.000000	40.082249
555.000000	40.703180
556.000000	41.316967
557.000000	41.920733
558.000000	42.512355
559.000000	43.091088
560.000000	43.653591
561.000000	44.200156
562.000000	44.730657
563.000000	45.245343
564.000000	45.745519
565.000000	46.228617
566.000000	46.690949
567.000000	47.138104
568.000000	47.564802
569.000000	47.972336
570.000000	48.365283
571.000000	48.740234
572.000000	49.091117
573.000000	49.424594
574.000000	49.738887
575.000000	50.038053
576.000000	50.320352
577.000000	50.587002
578.000000	50.839596
579.000000	51.084128
580.000000	51.315144
581.000000	51.539547
582.000000	51.754866
583.000000	51.967046
584.000000	52.167989
585.000000	52.367388
586.000000	52.560067
587.000000	52.747775
588.000000	52.929013
589.000000	53.101419
590.000000	53.269943
591.000000	53.429064
592.000000	53.585366
593.000000	53.727283
594.000000	53.866314
595.000000	53.986326
596.000000	54.097041
597.000000	54.189567
598.000000	54.268297
599.000000	54.327796
600.000000	54.373934
601.000000	54.397316
602.000000	54.406410
603.000000	54.400618
604.000000	54.377255
605.000000	54.342471
606.000000	54.292056
607.000000	54.229892
608.000000	54.160865
609.000000	54.083235
610.000000	53.990120
611.000000	53.892525
612.000000	53.781357
613.000000	53.667746
614.000000	53.547521
615.000000	53.422596
616.000000	53.296096
617.000000	53.162742
618.000000	53.022206
619.000000	52.877054
620.000000	52.728128
621.000000	52.570967
622.000000	52.401960
623.000000	52.214233
624.000000	52.010365
625.000000	51.785855
626.000000	51.540078
627.000000	51.274741
628.000000	50.981455
629.000000	50.660983
630.000000	50.311490
631.000000	49.931142
632.000000	49.527556
633.000000	49.097392
634.000000	48.639193
635.000000	48.163761
636.000000	47.668016
637.000000	47.163167
638.000000	46.654244
639.000000	46.149791
640.000000	45.649045
641.000000	45.164672
642.000000	44.693903
643.000000	44.249731
644.000000	43.838094
645.000000	43.459966
646.000000	43.118563
647.000000	42.812254
648.000000	42.547129
649.000000	42.319405
650.000000	42.136998
651.000000	41.996046
652.000000	41.897052
653.000000	41.839677
654.000000	41.815715
655.000000	41.825668
656.000000	41.867838
657.000000	41.937918
658.000000	42.030222
659.000000	42.147232
660.000000	42.281744
661.000000	42.428266
662.000000	42.591645
663.000000	42.760305
664.000000	42.941389
665.000000	43.124742
666.000000	43.309978
667.000000	43.498197
668.000000	43.679735
669.000000	43.858831
670.000000	44.030319
671.000000	44.195764
672.000000	44.350705
673.000000	44.495151
674.000000	44.622915
675.000000	44.738496
676.000000	44.844374
677.000000	44.933067
678.000000	45.018710
679.000000	45.091822
680.000000	45.156939
681.000000	45.214826
682.000000	45.270376
683.000000	45.327848
684.000000	45.389317
685.000000	45.455023
686.000000	45.525519
687.000000	45.612397
688.000000	45.709924
689.000000	45.822126
690.000000	45.955827
691.000000	46.105381
692.000000	46.272563
693.000000	46.460918
694.000000	46.669922
695.000000	46.901151
696.000000	47.151939
697.000000	47.412777
698.000000	47.691099
699.000000	47.987484
700.000000	48.294266
701.000000	48.611292
702.000000	48.935066
703.000000	49.260230
704.000000	49.593707
705.000000	49.923563
706.000000	50.251305
707.000000	50.587157
708.000000	50.920479
709.000000	51.242158
710.000000	51.566270
711.000000	51.890797
712.000000	52.213345
713.000000	52.531124
714.000000	52.846228
715.000000	53.170263
716.000000	53.496045
717.000000	53.822271
718.000000	54.151404
719.000000	54.490209
720.000000	54.824999
721.000000	55.165311
722.000000	55.511347
723.000000	55.868216
724.000000	56.233059
725.000000	56.598414
726.000000	56.972786
727.000000	57.351811
728.000000	57.734051
729.000000	58.113830
730.000000	58.496582
731.000000	58.882239
732.000000	59.269181
733.000000	59.655930
734.000000	60.032088
735.000000	60.405021
736.000000	60.775049
737.000000	61.139013
738.000000	61.496596
739.000000	61.848146
740.000000	62.192821
741.000000	62.527871
742.000000	62.856125
743.000000	63.173180
744.000000	63.478881
745.000000	63.775430
746.000000	64.064160
747.000000	64.342317
748.000000	64.604179
749.000000	64.857081
750.000000	65.104268
751.000000	65.339078
752.000000	65.563163
753.000000	65.781030
754.000000	65.995161
755.000000	66.195428
756.000000	66.379766
757.000000	66.558534
758.000000	66.733102
759.000000	66.894511
760.000000	67.048727
761.000000	67.203639
762.000000	67.343915
763.000000	67.470637
764.000000	67.590282
765.000000	67.703188
766.000000	67.810775
767.000000	67.908051
768.000000	68.004294
769.000000	68.098790
770.000000	68.179760
771.000000	68.242976
772.000000	68.296238
773.000000	68.341671
774.000000	68.375200
775.000000	68.410814
776.000000	68.449586
777.000000	68.486040
778.000000	68.501844
779.000000	68.507086
780.000000	68.513063
781.000000	68.511981
782.000000	68.513903
783.000000	68.525468
784.000000	68.529774
785.000000	68.519550
786.000000	68.498581
787.000000	68.476251
788.000000	68.459964
789.000000	68.440299
790.000000	68.414136
791.000000	68.397019
792.000000	68.388397
793.000000	68.361259
794.000000	68.338871
795.000000	68.326996
796.000000	68.316386
797.000000	68.304840
798.000000	68.292077
799.000000	68.270741
800.000000	68.259282
801.000000	68.247648
802.000000	68.232462
803.000000	68.237260
804.000000	68.239606
805.000000	68.238004
806.000000	68.229170
807.000000	68.205170
808.000000	68.193884
809.000000	68.197823
810.000000	68.177365
811.000000	68.158395
812.000000	68.132937
813.000000	68.081373
814.000000	68.025253
815.000000	67.959904
816.000000	67.905956
817.000000	67.858660
818.000000	67.807705
819.000000	67.744866
820.000000	67.696102
821.000000	67.624680
822.000000	67.547822
823.000000	67.475223
824.000000	67.415096
825.000000	67.341183
826.000000	67.251273
827.000000	67.183771
828.000000	67.099625
829.000000	67.003671
830.000000	66.883409
831.000000	66.781228
832.000000	66.667762
833.000000	66.554083
834.000000	66.438985
835.000000	66.333426
836.000000	66.223860
837.000000	66.094242
838.000000	65.944080
839.000000	65.816046
840.000000	65.685453
841.000000	65.543507
842.000000	65.384289
843.000000	65.212898
844.000000	65.030490
845.000000	64.837261
846.000000	64.645827
847.000000	64.461470
848.000000	64.251027
849.000000	64.026566
850.000000	63.833529
851.000000	63.604319
852.000000	63.355008
853.000000	63.103389
854.000000	62.840939
855.000000	62.596861
856.000000	62.285415
857.000000	61.975398
858.000000	61.671599
859.000000	61.569307
860.000000	61.444796
861.000000	61.347931
862.000000	61.291157
863.000000	61.237313
864.000000	61.186126
865.000000	61.116508
866.000000	61.099230
867.000000	61.045372
868.000000	61.012670
869.000000	60.765430
870.000000	60.508770
871.000000	60.240180
872.000000	59.956070
873.000000	59.666550
874.000000	59.367700
875.000000	59.068110
876.000000	58.767160
877.000000	58.472240
878.000000	58.183100
879.000000	57.900940
880.000000	57.627060
881.000000	57.360540
882.000000	57.106910
883.000000	56.859520
884.000000	56.623160
885.000000	56.393230
886.000000	56.175590
887.000000	55.965420
888.000000	55.764310
889.000000	55.574590
890.000000	55.391620
891.000000	55.222010
892.000000	55.059990
893.000000	54.908480
894.000000	54.762890
895.000000	54.625130
896.000000	54.494600
897.000000	54.371240
898.000000	54.254230
899.000000	54.139680
900.000000	54.032660
901.000000	53.924990
902.000000	53.818920
903.000000	53.714950
904.000000	53.616570
905.000000	53.522150
906.000000	53.427210
907.000000	53.329040
908.000000	53.232460
909.000000	53.134460
910.000000	53.035990
911.000000	52.938320
912.000000	52.838540
913.000000	52.738680
914.000000	52.635580
915.000000	52.529510
916.000000	52.421340
917.000000	52.310290
918.000000	52.195680
919.000000	52.083510
920.000000	51.965910
921.000000	51.846680
922.000000	51.724350
923.000000	51.595460
924.000000	51.464440
925.000000	51.331420
926.000000	51.192160
927.000000	51.057380
928.000000	50.922850
929.000000	50.784950
930.000000	50.649540
931.000000	50.509110
932.000000	50.371010
933.000000	50.231920
934.000000	50.093060
935.000000	49.956040
936.000000	49.819780
937.000000	49.681110
938.000000	49.537810
939.000000	49.391000
940.000000	49.242650
941.000000	49.095710
942.000000	48.945900
943.000000	48.796390
944.000000	48.642900
945.000000	48.486650
946.000000	48.332080
947.000000	48.176810
948.000000	48.021510
949.000000	47.868850
950.000000	47.715070
951.000000	47.561110
952.000000	47.405520
953.000000	47.248550
954.000000	47.091720
955.000000	46.931400
956.000000	46.767260
957.000000	46.601330
958.000000	46.434590
959.000000	46.260740
960.000000	46.082580
961.000000	45.902260
962.000000	45.718560
963.000000	45.533760
964.000000	45.344630
965.000000	45.153730
966.000000	44.964010
967.000000	44.772250
968.000000	44.582040
969.000000	44.395420
970.000000	44.211660
971.000000	44.030370
972.000000	43.854180
973.000000	43.679410
974.000000	43.510520
975.000000	43.346010
976.000000	43.183530
977.000000	43.023810
978.000000	42.865210
979.000000	42.707950
980.000000	42.548380
981.000000	42.386740
982.000000	42.225630
983.000000	42.063190
984.000000	41.896930
985.000000	41.729290
986.000000	41.560850
987.000000	41.390570
988.000000	41.217220
989.000000	41.041390
990.000000	40.865630
991.000000	40.691110
992.000000	40.515030
993.000000	40.340770
994.000000	40.169320
995.000000	39.998900
996.000000	39.828870
997.000000	39.662900
998.000000	39.501620
999.000000	39.343650
1000.000000	39.189930
1001.000000	39.041080
1002.000000	38.895360
1003.000000	38.753160
1004.000000	38.615670
1005.000000	38.482350
1006.000000	38.353010
1007.000000	38.225020
1008.000000	38.099770
1009.000000	37.977890
1010.000000	37.858510
1011.000000	37.741830
1012.000000	37.629690
1013.000000	37.521460
1014.000000	37.415220
1015.000000	37.312170
1016.000000	37.211790
1017.000000	37.114660
1018.000000	37.020890
1019.000000	36.931600
1020.000000	36.844490
1021.000000	36.759060
1022.000000	36.674250
1023.000000	36.591140
1024.000000	36.508630
1025.000000	36.425830
1026.000000	36.342640
1027.000000	36.259450
1028.000000	36.176930
1029.000000	36.094140
1030.000000	36.012780
1031.000000	35.932370
1032.000000	35.854050
1033.000000	35.778700
1034.000000	35.707810
1035.000000	35.640740
1036.000000	35.578880
1037.000000	35.522500
1038.000000	35.470870
1039.000000	35.423990
1040.000000	35.381960
1041.000000	35.347200
1042.000000	35.316980
1043.000000	35.290930
1044.000000	35.269740
1045.000000	35.253850
1046.000000	35.242290
1047.000000	35.234740
1048.000000	35.231310
1049.000000	35.232810
1050.000000	35.239560
1051.000000	35.249130
1052.000000	35.261940
1053.000000	35.277480
1054.000000	35.294330
1055.000000	35.312930
1056.000000	35.336170
1057.000000	35.363200
1058.000000	35.392210
1059.000000	35.421850
1060.000000	35.452660
1061.000000	35.484270
1062.000000	35.519710
1063.000000	35.556980
1064.000000	35.595540
1065.000000	35.636900
1066.000000	35.677550
1067.000000	35.719300
1068.000000	35.764150
1069.000000	35.810660
1070.000000	35.857980
1071.000000	35.909100
1072.000000	35.959130
1073.000000	36.009070
1074.000000	36.060770
1075.000000	36.111400
1076.000000	36.164280
1077.000000	36.217410
1078.000000	36.268070
1079.000000	36.319980
1080.000000	36.370940
1081.000000	36.420390
1082.000000	36.470040
1083.000000	36.521090
1084.000000	36.571790
1085.000000	36.622440
1086.000000	36.672600
1087.000000	36.719930
1088.000000	36.766860
1089.000000	36.812070
1090.000000	36.857640
1091.000000	36.900530
1092.000000	36.942520
1093.000000	36.982440
1094.000000	37.022240
1095.000000	37.062960
1096.000000	37.101900
1097.000000	37.141410
1098.000000	37.180210
1099.000000	37.218790
1100.000000	37.256840
1101.000000	37.296720
1102.000000	37.336590
1103.000000	37.375140
1104.000000	37.415150
1105.000000	37.453460
1106.000000	37.492810
1107.000000	37.534750
1108.000000	37.577520
1109.000000	37.621760
1110.000000	37.667350
1111.000000	37.712790
1112.000000	37.759600
1113.000000	37.810260
1114.000000	37.858370
1115.000000	37.906770
1116.000000	37.954450
1117.000000	38.002360
1118.000000	38.053420
1119.000000	38.102390
1120.000000	38.149860
1121.000000	38.197430
1122.000000	38.243570
1123.000000	38.285810
1124.000000	38.327530
1125.000000	38.367310
1126.000000	38.402140
1127.000000	38.431440
1128.000000	38.451660
1129.000000	38.466320
1130.000000	38.472910
1131.000000	38.468300
1132.000000	38.451870
1133.000000	38.423680
1134.000000	38.387450
1135.000000	38.340390
1136.000000	38.282160
1137.000000	38.208470
1138.000000	38.121180
1139.000000	38.024130
1140.000000	37.922170
1141.000000	37.811410
1142.000000	37.696790
1143.000000	37.582060
1144.000000	37.463380
1145.000000	37.344580
1146.000000	37.231710
1147.000000	37.130310
1148.000000	37.043850
1149.000000	36.971390
1150.000000	36.910990
1151.000000	36.869000
1152.000000	36.842120
1153.000000	36.826870
1154.000000	36.819220
1155.000000	36.817320
1156.000000	36.815870
1157.000000	36.807980
1158.000000	36.791860
1159.000000	36.763170
1160.000000	36.720140
1161.000000	36.657720
1162.000000	36.579410
1163.000000	36.482260
1164.000000	36.373130
1165.000000	36.250230
1166.000000	36.118380
1167.000000	35.979400
1168.000000	35.833520
1169.000000	35.683230
1170.000000	35.527570
1171.000000	35.373090
1172.000000	35.213370
1173.000000	35.057130
1174.000000	34.897520
1175.000000	34.742180
1176.000000	34.582840
1177.000000	34.423470
1178.000000	34.260150
1179.000000	34.088680
1180.000000	33.905520
1181.000000	33.707610
1182.000000	33.498440
1183.000000	33.277510
1184.000000	33.051980
1185.000000	32.828280
1186.000000	32.615970
1187.000000	32.425410
1188.000000	32.262660
1189.000000	32.144230
1190.000000	32.078840
1191.000000	32.071120
1192.000000	32.121830
1193.000000	32.226470
1194.000000	32.375710
1195.000000	32.555830
1196.000000	32.761470
1197.000000	32.975850
1198.000000	33.193150
1199.000000	33.397760
1200.000000	33.585860
1201.000000	33.751680
1202.000000	33.891480
1203.000000	34.009720
1204.000000	34.109470
1205.000000	34.194770
1206.000000	34.265240
1207.000000	34.330570
1208.000000	34.393030
1209.000000	34.457060
1210.000000	34.522460
1211.000000	34.591990
1212.000000	34.670670
1213.000000	34.752430
1214.000000	34.841610
1215.000000	34.935470
1216.000000	35.037520
1217.000000	35.144180
1218.000000	35.255760
1219.000000	35.370270
1220.000000	35.487580
1221.000000	35.606610
1222.000000	35.726990
1223.000000	35.852640
1224.000000	35.977700
1225.000000	36.107100
1226.000000	36.235920
1227.000000	36.364130
1228.000000	36.493390
1229.000000	36.618960
1230.000000	36.744640
1231.000000	36.870590
1232.000000	36.994370
1233.000000	37.112440
1234.000000	37.229300
1235.000000	37.340700
1236.000000	37.449650
1237.000000	37.555480
1238.000000	37.655200
1239.000000	37.754950
1240.000000	37.849670
1241.000000	37.940370
1242.000000	38.028050
1243.000000	38.114960
1244.000000	38.198850
1245.000000	38.281560
1246.000000	38.362370
1247.000000	38.441650
1248.000000	38.519760
1249.000000	38.593430
1250.000000	38.667480
1251.000000	38.740100
1252.000000	38.807650
1253.000000	38.871050
1254.000000	38.933890
1255.000000	38.993910
1256.000000	39.050800
1257.000000	39.105240
1258.000000	39.157530
1259.000000	39.209900
1260.000000	39.258810
1261.000000	39.305750
1262.000000	39.353290
1263.000000	39.399840
1264.000000	39.443240
1265.000000	39.487380
1266.000000	39.530820
1267.000000	39.571160
1268.000000	39.612330
1269.000000	39.653260
1270.000000	39.693250
1271.000000	39.732630
1272.000000	39.772080
1273.000000	39.811790
1274.000000	39.851560
1275.000000	39.890810
1276.000000	39.933200
1277.000000	39.978780
1278.000000	40.024010
1279.000000	40.069660
1280.000000	40.118360
1281.000000	40.170210
1282.000000	40.224490
1283.000000	40.282350
1284.000000	40.343350
1285.000000	40.405330
1286.000000	40.467460
1287.000000	40.530380
1288.000000	40.593970
1289.000000	40.657800
1290.000000	40.721540
1291.000000	40.783680
1292.000000	40.843500
1293.000000	40.899600
1294.000000	40.952490
1295.000000	41.002380
1296.000000	41.049730
1297.000000	41.094590
1298.000000	41.135110
1299.000000	41.172140
1300.000000	41.204650
1301.000000	41.232710
1302.000000	41.257710
1303.000000	41.280090
1304.000000	41.299880
1305.000000	41.315640
1306.000000	41.326910
1307.000000	41.334330
1308.000000	41.337860
1309.000000	41.335740
1310.000000	41.330880
1311.000000	41.323020
1312.000000	41.310920
1313.000000	41.294450
1314.000000	41.271510
1315.000000	41.244260
1316.000000	41.212680
1317.000000	41.175910
1318.000000	41.136090
1319.000000	41.095210
1320.000000	41.048480
1321.000000	40.997190
1322.000000	40.943500
1323.000000	40.886600
1324.000000	40.827940
1325.000000	40.767120
1326.000000	40.702350
1327.000000	40.634030
1328.000000	40.561950
1329.000000	40.485260
1330.000000	40.404530
1331.000000	40.319060
1332.000000	40.229390
1333.000000	40.134380
1334.000000	40.032600
1335.000000	39.925290
1336.000000	39.814340
1337.000000	39.697010
1338.000000	39.572930
1339.000000	39.442690
1340.000000	39.305750
1341.000000	39.162420
1342.000000	39.009850
1343.000000	38.848800
1344.000000	38.684900
1345.000000	38.510790
1346.000000	38.326710
1347.000000	38.136010
1348.000000	37.934850
1349.000000	37.721360
1350.000000	37.495250
1351.000000	37.252570
1352.000000	36.991470
1353.000000	36.712810
1354.000000	36.417930
1355.000000	36.114050
1356.000000	35.807130
1357.000000	35.500720
1358.000000	35.209710
1359.000000	34.938650
1360.000000	34.692270
1361.000000	34.477830
1362.000000	34.292530
1363.000000	34.131830
1364.000000	33.990630
1365.000000	33.866060
1366.000000	33.748260
1367.000000	33.631190
1368.000000	33.501960
1369.000000	33.352980
1370.000000	33.176830
1371.000000	32.965240
1372.000000	32.718070
1373.000000	32.436340
1374.000000	32.119300
1375.000000	31.772890
1376.000000	31.406520
1377.000000	31.023310
1378.000000	30.630150
1379.000000	30.236300
1380.000000	29.850510
1381.000000	29.476030
1382.000000	29.115600
1383.000000	28.771060
1384.000000	28.445590
1385.000000	28.132990
1386.000000	27.831800
1387.000000	27.548850
1388.000000	27.286640
1389.000000	27.034400
1390.000000	26.794010
1391.000000	26.572130
1392.000000	26.375540
1393.000000	26.204250
1394.000000	26.057900
1395.000000	25.943270
1396.000000	25.847620
1397.000000	25.756840
1398.000000	25.664490
1399.000000	25.579760
1400.000000	25.495730
1401.000000	25.395010
1402.000000	25.272290
1403.000000	25.129390
1404.000000	24.968880
1405.000000	24.780620
1406.000000	24.571030
1407.000000	24.349850
1408.000000	24.116230
1409.000000	23.866850
1410.000000	23.603350
1411.000000	23.340190
1412.000000	23.084660
1413.000000	22.839630
1414.000000	22.600390
1415.000000	22.370010
1416.000000	22.150690
1417.000000	21.937360
1418.000000	21.738080
1419.000000	21.547590
1420.000000	21.365450
1421.000000	21.188730
1422.000000	21.010870
1423.000000	20.836460
1424.000000	20.663150
1425.000000	20.489340
1426.000000	20.320030
1427.000000	20.153210
1428.000000	19.989240
1429.000000	19.827190
1430.000000	19.672900
1431.000000	19.525920
1432.000000	19.388840
1433.000000	19.256750
1434.000000	19.133970
1435.000000	19.018510
1436.000000	18.909930
1437.000000	18.810430
1438.000000	18.713440
1439.000000	18.621040
1440.000000	18.531830
1441.000000	18.446970
1442.000000	18.362710
1443.000000	18.278600
1444.000000	18.192450
1445.000000	18.111050
1446.000000	18.029220
1447.000000	17.946650
1448.000000	17.863020
1449.000000	17.783110
1450.000000	17.702530
1451.000000	17.625860
1452.000000	17.546180
1453.000000	17.467710
1454.000000	17.392400
1455.000000	17.316620
1456.000000	17.243260
1457.000000	17.172060
1458.000000	17.103020
1459.000000	17.036230
1460.000000	16.971080
1461.000000	16.903610
1462.000000	16.843810
1463.000000	16.784760
1464.000000	16.725410
1465.000000	16.673830
1466.000000	16.623450
1467.000000	16.576240
1468.000000	16.530100
1469.000000	16.485630
1470.000000	16.446320
1471.000000	16.410530
1472.000000	16.374170
1473.000000	16.338380
1474.000000	16.304830
1475.000000	16.270320
1476.000000	16.234390
1477.000000	16.200450
1478.000000	16.166980
1479.000000	16.136260
1480.000000	16.102370
1481.000000	16.067180
1482.000000	16.034690
1483.000000	16.004650
1484.000000	15.974610
1485.000000	15.942680
1486.000000	15.915040
1487.000000	15.888340
1488.000000	15.864480
1489.000000	15.839950
1490.000000	15.814980
1491.000000	15.792120
1492.000000	15.770060
1493.000000	15.750710
1494.000000	15.734080
1495.000000	15.719560
1496.000000	15.705160
1497.000000	15.692070
1498.000000	15.679950
1499.000000	15.668730
1500.000000	15.663140
1501.000000	15.661360
1502.000000	15.661850
1503.000000	15.660080
1504.000000	15.658060
1505.000000	15.659020
1506.000000	15.663300
1507.000000	15.669000
1508.000000	15.678240
1509.000000	15.690610
1510.000000	15.705540
1511.000000	15.719820
1512.000000	15.736070
1513.000000	15.757440
1514.000000	15.782560
1515.000000	15.808040
1516.000000	15.833590
1517.000000	15.860680
1518.000000	15.889470
1519.000000	15.917770
1520.000000	15.945340
1521.000000	15.974570
1522.000000	16.004750
1523.000000	16.036560
1524.000000	16.068100
1525.000000	16.101100
1526.000000	16.136470
1527.000000	16.171390
1528.000000	16.205150
1529.000000	16.239960
1530.000000	16.275940
1531.000000	16.310510
1532.000000	16.342960
1533.000000	16.374330
1534.000000	16.404240
1535.000000	16.433150
1536.000000	16.461200
1537.000000	16.488250
1538.000000	16.512080
1539.000000	16.535260
1540.000000	16.556220
1541.000000	16.575690
1542.000000	16.594630
1543.000000	16.611600
1544.000000	16.628960
1545.000000	16.645580
1546.000000	16.661060
1547.000000	16.676680
1548.000000	16.693040
1549.000000	16.708090
1550.000000	16.724320
1551.000000	16.741640
1552.000000	16.758800
1553.000000	16.776670
1554.000000	16.794620
1555.000000	16.810620
1556.000000	16.822010
1557.000000	16.831340
1558.000000	16.840520
1559.000000	16.847230
1560.000000	16.848250
1561.000000	16.845350
1562.000000	16.839280
1563.000000	16.829110
1564.000000	16.815360
1565.000000	16.798240
1566.000000	16.778540
1567.000000	16.755540
1568.000000	16.729500
1569.000000	16.700690
1570.000000	16.670380
1571.000000	16.640940
1572.000000	16.611400
1573.000000	16.580310
1574.000000	16.550400
1575.000000	16.522840
1576.000000	16.497340
1577.000000	16.473450
1578.000000	16.450770
1579.000000	16.432850
1580.000000	16.418720
1581.000000	16.404990
1582.000000	16.395360
1583.000000	16.389490
1584.000000	16.385310
1585.000000	16.382720
1586.000000	16.383320
1587.000000	16.387420
1588.000000	16.394170
1589.000000	16.402340
1590.000000	16.413710
1591.000000	16.428180
1592.000000	16.442900
1593.000000	16.461490
1594.000000	16.482200
1595.000000	16.505860
1596.000000	16.533280
1597.000000	16.563570
1598.000000	16.596420
1599.000000	16.632940
1600.000000	16.670960
1601.000000	16.712150
1602.000000	16.757570
1603.000000	16.804720
1604.000000	16.855160
1605.000000	16.906940
1606.000000	16.957950
1607.000000	17.011320
1608.000000	17.068130
1609.000000	17.125730
1610.000000	17.182540
1611.000000	17.241130
1612.000000	17.300130
1613.000000	17.360370
1614.000000	17.420390
1615.000000	17.482980
1616.000000	17.549120
1617.000000	17.614920
1618.000000	17.680050
1619.000000	17.746660
1620.000000	17.817450
1621.000000	17.888780
1622.000000	17.960860
1623.000000	18.033630
1624.000000	18.106620
1625.000000	18.180390
1626.000000	18.255300
1627.000000	18.332240
1628.000000	18.411150
1629.000000	18.489660
1630.000000	18.569000
1631.000000	18.649230
1632.000000	18.731530
1633.000000	18.813230
1634.000000	18.896330
1635.000000	18.977670
1636.000000	19.057260
1637.000000	19.136450
1638.000000	19.213900
1639.000000	19.289130
1640.000000	19.362830
1641.000000	19.433080
1642.000000	19.500190
1643.000000	19.567620
1644.000000	19.634190
1645.000000	19.699070
1646.000000	19.762540
1647.000000	19.822450
1648.000000	19.881480
1649.000000	19.938760
1650.000000	19.991780
1651.000000	20.042350
1652.000000	20.088820
1653.000000	20.130170
1654.000000	20.167490
1655.000000	20.201940
1656.000000	20.229740
1657.000000	20.251270
1658.000000	20.263970
1659.000000	20.272680
1660.000000	20.273000
1661.000000	20.268130
1662.000000	20.255100
1663.000000	20.235160
1664.000000	20.203570
1665.000000	20.161990
1666.000000	20.109700
1667.000000	20.049260
1668.000000	19.976990
1669.000000	19.890750
1670.000000	19.791000
1671.000000	19.677150
1672.000000	19.546420
1673.000000	19.396140
1674.000000	19.228100
1675.000000	19.033540
1676.000000	18.812640
1677.000000	18.561210
1678.000000	18.279600
1679.000000	17.963580
1680.000000	17.616930
1681.000000	17.243060
1682.000000	16.853800
1683.000000	16.461260
1684.000000	16.076120
1685.000000	15.713730
1686.000000	15.388180
1687.000000	15.099160
1688.000000	14.846690
1689.000000	14.634220
1690.000000	14.458490
1691.000000	14.312740
1692.000000	14.189610
1693.000000	14.078160
1694.000000	13.974260
1695.000000	13.877250
1696.000000	13.779910
1697.000000	13.691110
1698.000000	13.616700
1699.000000	13.561630
1700.000000	13.530490
1701.000000	13.524740
1702.000000	13.544200
1703.000000	13.588490
1704.000000	13.648880
1705.000000	13.719600
1706.000000	13.793790
1707.000000	13.867820
1708.000000	13.935700
1709.000000	13.992940
1710.000000	14.038520
1711.000000	14.070820
1712.000000	14.093410
1713.000000	14.099380
1714.000000	14.096030
1715.000000	14.083800
1716.000000	14.062040
1717.000000	14.033340
1718.000000	14.000840
1719.000000	13.964940
1720.000000	13.927690
1721.000000	13.893030
1722.000000	13.856680
1723.000000	13.825490
1724.000000	13.796670
1725.000000	13.765580
1726.000000	13.738860
1727.000000	13.704760
1728.000000	13.664740
1729.000000	13.620280
1730.000000	13.566730
1731.000000	13.505730
1732.000000	13.440130
1733.000000	13.374260
1734.000000	13.310010
1735.000000	13.255260
1736.000000	13.212050
1737.000000	13.189640
1738.000000	13.190620
1739.000000	13.217840
1740.000000	13.272690
1741.000000	13.355340
1742.000000	13.464490
1743.000000	13.590860
1744.000000	13.735130
1745.000000	13.887790
1746.000000	14.046510
1747.000000	14.203550
1748.000000	14.355420
1749.000000	14.497190
1750.000000	14.629050
1751.000000	14.746410
1752.000000	14.849460
1753.000000	14.941830
1754.000000	15.015540
1755.000000	15.076510
1756.000000	15.124060
1757.000000	15.160040
1758.000000	15.183810
1759.000000	15.194760
1760.000000	15.197300
1761.000000	15.188280
1762.000000	15.174200
1763.000000	15.155350
1764.000000	15.141610
1765.000000	15.134410
1766.000000	15.133000
1767.000000	15.141360
1768.000000	15.162750
1769.000000	15.198370
1770.000000	15.248730
1771.000000	15.314290
1772.000000	15.389780
1773.000000	15.478780
1774.000000	15.574780
1775.000000	15.675440
1776.000000	15.781080
1777.000000	15.889030
1778.000000	15.995460
1779.000000	16.098380
1780.000000	16.195110
1781.000000	16.288050
1782.000000	16.378890
1783.000000	16.463050
1784.000000	16.541580
1785.000000	16.617610
1786.000000	16.688510
1787.000000	16.753000
1788.000000	16.814000
1789.000000	16.871950
1790.000000	16.926720
1791.000000	16.981760
1792.000000	17.032520
1793.000000	17.081810
1794.000000	17.128840
1795.000000	17.170520
1796.000000	17.207900
1797.000000	17.244170
1798.000000	17.278010
1799.000000	17.310660
1800.000000	17.344810
1801.000000	17.374980
1802.000000	17.402650
1803.000000	17.427960
1804.000000	17.452860
1805.000000	17.478590
1806.000000	17.505040
1807.000000	17.532020
1808.000000	17.559020
1809.000000	17.584150
1810.000000	17.606290
1811.000000	17.628700
1812.000000	17.650320
1813.000000	17.671260
1814.000000	17.688500
1815.000000	17.700030
1816.000000	17.708280
1817.000000	17.713280
1818.000000	17.715240
1819.000000	17.717750
1820.000000	17.721730
1821.000000	17.723420
1822.000000	17.725340
1823.000000	17.726130
1824.000000	17.729660
1825.000000	17.738720
1826.000000	17.753050
1827.000000	17.772500
1828.000000	17.798560
1829.000000	17.829910
1830.000000	17.862720
1831.000000	17.899130
1832.000000	17.939380
1833.000000	17.985040
1834.000000	18.035240
1835.000000	18.088370
1836.000000	18.142430
1837.000000	18.194890
1838.000000	18.244020
1839.000000	18.291950
1840.000000	18.337800
1841.000000	18.383610
1842.000000	18.426850
1843.000000	18.463100
1844.000000	18.495520
1845.000000	18.525760
1846.000000	18.555700
1847.000000	18.589570
1848.000000	18.625590
1849.000000	18.659620
1850.000000	18.692670
1851.000000	18.724000
1852.000000	18.756210
1853.000000	18.792730
1854.000000	18.831020
1855.000000	18.866910
1856.000000	18.899120
1857.000000	18.925270
1858.000000	18.946520
1859.000000	18.962920
1860.000000	18.974810
1861.000000	18.980330
1862.000000	18.977390
1863.000000	18.965740
1864.000000	18.944180
1865.000000	18.915230
1866.000000	18.879310
1867.000000	18.834800
1868.000000	18.780580
1869.000000	18.714880
1870.000000	18.635500
1871.000000	18.542170
1872.000000	18.431740
1873.000000	18.304140
1874.000000	18.157030
1875.000000	17.991100
1876.000000	17.803640
1877.000000	17.592780
1878.000000	17.358880
1879.000000	17.108380
1880.000000	16.841520
1881.000000	16.558810
1882.000000	16.263820
1883.000000	15.957490
1884.000000	15.642470
1885.000000	15.319350
1886.000000	14.992980
1887.000000	14.672890
1888.000000	14.364500
1889.000000	14.064820
1890.000000	13.777110
1891.000000	13.503990
1892.000000	13.243760
1893.000000	12.997580
1894.000000	12.767480
1895.000000	12.554180
1896.000000	12.358550
1897.000000	12.174680
1898.000000	11.993900
1899.000000	11.817510
1900.000000	11.643590
1901.000000	11.471520
1902.000000	11.309440
1903.000000	11.154180
1904.000000	11.003410
1905.000000	10.853790
1906.000000	10.699330
1907.000000	10.544560
1908.000000	10.392560
1909.000000	10.249590
1910.000000	10.117380
1911.000000	9.991230
1912.000000	9.867370
1913.000000	9.744880
1914.000000	9.622700
1915.000000	9.502430
1916.000000	9.390380
1917.000000	9.285050
1918.000000	9.186980
1919.000000	9.089890
1920.000000	8.991660
1921.000000	8.896150
1922.000000	8.801400
1923.000000	8.709190
1924.000000	8.625550
1925.000000	8.550700
1926.000000	8.477640
1927.000000	8.406060
1928.000000	8.338670
1929.000000	8.274400
1930.000000	8.211060
1931.000000	8.152860
1932.000000	8.100700
1933.000000	8.053750
1934.000000	8.009030
1935.000000	7.968510
1936.000000	7.933180
1937.000000	7.901070
1938.000000	7.871870
1939.000000	7.845290
1940.000000	7.824170
1941.000000	7.805840
1942.000000	7.790450
1943.000000	7.779180
1944.000000	7.770060
1945.000000	7.761620
1946.000000	7.756530
1947.000000	7.756010
1948.000000	7.756840
1949.000000	7.761050
1950.000000	7.766890
1951.000000	7.775920
1952.000000	7.785910
1953.000000	7.798860
1954.000000	7.815290
1955.000000	7.830890
1956.000000	7.847800
1957.000000	7.863520
1958.000000	7.880980
1959.000000	7.897570
1960.000000	7.917360
1961.000000	7.938570
1962.000000	7.958000
1963.000000	7.974750
1964.000000	7.991630
1965.000000	8.011720
1966.000000	8.031580
1967.000000	8.051430
1968.000000	8.071980
1969.000000	8.092400
1970.000000	8.111540
1971.000000	8.128560
1972.000000	8.150720
1973.000000	8.174930
1974.000000	8.199350
1975.000000	8.222500
1976.000000	8.245590
1977.000000	8.270780
1978.000000	8.295460
1979.000000	8.322290
1980.000000	8.350450
1981.000000	8.379730
1982.000000	8.408220
1983.000000	8.433740
1984.000000	8.460930
1985.000000	8.488210
1986.000000	8.517150
1987.000000	8.544620
1988.000000	8.570840
1989.000000	8.597560
1990.000000	8.625420
1991.000000	8.650050
1992.000000	8.675110
1993.000000	8.700430
1994.000000	8.722110
1995.000000	8.744160
1996.000000	8.765460
1997.000000	8.786490
1998.000000	8.808970
1999.000000	8.829100
2000.000000	8.845500
2001.000000	8.865430
2002.000000	8.882620
2003.000000	8.900530
2004.000000	8.919310
2005.000000	8.937010
2006.000000	8.951930
2007.000000	8.965250
2008.000000	8.977840
2009.000000	8.990700
2010.000000	9.003370
2011.000000	9.012360
2012.000000	9.019230
2013.000000	9.026630
2014.000000	9.028520
2015.000000	9.028050
2016.000000	9.028090
2017.000000	9.027000
2018.000000	9.023770
2019.000000	9.017890
2020.000000	9.008220
2021.000000	8.998040
2022.000000	8.987300
2023.000000	8.972620
2024.000000	8.960620
2025.000000	8.947670
2026.000000	8.932370
2027.000000	8.914960
2028.000000	8.896430
2029.000000	8.878190
2030.000000	8.861100
2031.000000	8.839980
2032.000000	8.818080
2033.000000	8.796560
2034.000000	8.770230
2035.000000	8.741670
2036.000000	8.710990
2037.000000	8.677790
2038.000000	8.641250
2039.000000	8.601470
2040.000000	8.561270
2041.000000	8.518890
2042.000000	8.474240
2043.000000	8.427260
2044.000000	8.379640
2045.000000	8.330660
2046.000000	8.280790
2047.000000	8.233300
2048.000000	8.186020
2049.000000	8.138510
2050.000000	8.090680
2051.000000	8.047050
2052.000000	8.005360
2053.000000	7.965570
2054.000000	7.930600
2055.000000	7.900340
2056.000000	7.872950
2057.000000	7.848310
2058.000000	7.830010
2059.000000	7.817140
2060.000000	7.806180
2061.000000	7.797830
2062.000000	7.793700
2063.000000	7.794500
2064.000000	7.798280
2065.000000	7.804780
2066.000000	7.814290
2067.000000	7.827370
2068.000000	7.840170
2069.000000	7.852940
2070.000000	7.869950
2071.000000	7.890380
2072.000000	7.910150
2073.000000	7.929830
2074.000000	7.949740
2075.000000	7.969390
2076.000000	7.991250
2077.000000	8.011090
2078.000000	8.029020
2079.000000	8.048160
2080.000000	8.067030
2081.000000	8.083570
2082.000000	8.100210
2083.000000	8.116540
2084.000000	8.132000
2085.000000	8.148160
2086.000000	8.162200
2087.000000	8.175310
2088.000000	8.190550
2089.000000	8.204310
2090.000000	8.216310
2091.000000	8.228070
2092.000000	8.239400
2093.000000	8.251320
2094.000000	8.263700
2095.000000	8.274300
2096.000000	8.284190
2097.000000	8.293300
2098.000000	8.301110
2099.000000	8.309910
2100.000000	8.320590
2101.000000	8.331880
2102.000000	8.342860
2103.000000	8.352510
2104.000000	8.361950
2105.000000	8.371170
2106.000000	8.380660
2107.000000	8.390790
2108.000000	8.400600
2109.000000	8.409420
2110.000000	8.417420
2111.000000	8.424990
2112.000000	8.432680
2113.000000	8.440520
2114.000000	8.447050
2115.000000	8.453670
2116.000000	8.459790
2117.000000	8.465760
2118.000000	8.472090
2119.000000	8.477740
2120.000000	8.481060
2121.000000	8.483730
2122.000000	8.485790
2123.000000	8.486530
2124.000000	8.487770
2125.000000	8.487560
2126.000000	8.486730
2127.000000	8.483840
2128.000000	8.479340
2129.000000	8.474820
2130.000000	8.469980
2131.000000	8.463020
2132.000000	8.453360
2133.000000	8.442530
2134.000000	8.430070
2135.000000	8.415600
2136.000000	8.399680
2137.000000	8.383160
2138.000000	8.363830
2139.000000	8.342860
2140.000000	8.319950
2141.000000	8.296340
2142.000000	8.272990
2143.000000	8.249090
2144.000000	8.223750
2145.000000	8.199250
2146.000000	8.170970
2147.000000	8.141570
2148.000000	8.113390
2149.000000	8.084940
2150.000000	8.056580
2151.000000	8.028140
2152.000000	7.998200
2153.000000	7.966850
2154.000000	7.934920
2155.000000	7.899850
2156.000000	7.865880
2157.000000	7.833120
2158.000000	7.801220
2159.000000	7.767110
2160.000000	7.732710
2161.000000	7.698780
2162.000000	7.665300
2163.000000	7.633200
2164.000000	7.599940
2165.000000	7.567690
2166.000000	7.538220
2167.000000	7.510290
2168.000000	7.482710
2169.000000	7.457770
2170.000000	7.434250
2171.000000	7.409790
2172.000000	7.387060
2173.000000	7.366060
2174.000000	7.347220
2175.000000	7.329920
2176.000000	7.313050
2177.000000	7.296460
2178.000000	7.278700
2179.000000	7.260810
2180.000000	7.241760
2181.000000	7.224030
2182.000000	7.206480
2183.000000	7.189330
2184.000000	7.170690
2185.000000	7.150610
2186.000000	7.128190
2187.000000	7.100480
2188.000000	7.072050
2189.000000	7.040660
2190.000000	7.006790
2191.000000	6.967510
2192.000000	6.924290
2193.000000	6.874020
2194.000000	6.821750
2195.000000	6.764950
2196.000000	6.703810
2197.000000	6.641200
2198.000000	6.573800
2199.000000	6.500810
2200.000000	6.425690
2201.000000	6.349620
2202.000000	6.268340
2203.000000	6.187940
2204.000000	6.105580
2205.000000	6.025790
2206.000000	5.951790
2207.000000	5.881680
2208.000000	5.813780
2209.000000	5.754840
2210.000000	5.699780
2211.000000	5.653950
2212.000000	5.621870
2213.000000	5.597490
2214.000000	5.583530
2215.000000	5.574970
2216.000000	5.572260
2217.000000	5.576660
2218.000000	5.592040
2219.000000	5.612300
2220.000000	5.637290
2221.000000	5.666960
2222.000000	5.697350
2223.000000	5.730810
2224.000000	5.765310
2225.000000	5.803970
2226.000000	5.842290
2227.000000	5.880720
2228.000000	5.913960
2229.000000	5.944510
2230.000000	5.976320
2231.000000	6.004790
2232.000000	6.027610
2233.000000	6.046000
2234.000000	6.062050
2235.000000	6.073540
2236.000000	6.076780
2237.000000	6.076280
2238.000000	6.073800
2239.000000	6.069620
2240.000000	6.059490
2241.000000	6.045490
2242.000000	6.029200
2243.000000	6.009450
2244.000000	5.983730
2245.000000	5.954840
2246.000000	5.927440
2247.000000	5.895770
2248.000000	5.860670
2249.000000	5.821360
2250.000000	5.778900
2251.000000	5.732270
2252.000000	5.681950
2253.000000	5.629630
2254.000000	5.575210
2255.000000	5.518250
2256.000000	5.460430
2257.000000	5.397720
2258.000000	5.335460
2259.000000	5.272740
2260.000000	5.210460
2261.000000	5.151180
2262.000000	5.094610
2263.000000	5.041480
2264.000000	4.989360
2265.000000	4.941560
2266.000000	4.896680
2267.000000	4.858340
2268.000000	4.824330
2269.000000	4.796810
2270.000000	4.776780
2271.000000	4.760110
2272.000000	4.748470
2273.000000	4.741580
2274.000000	4.742340
2275.000000	4.747690
2276.000000	4.755400
2277.000000	4.769530
2278.000000	4.786760
2279.000000	4.806010
2280.000000	4.827750
2281.000000	4.851310
2282.000000	4.877620
2283.000000	4.904650
2284.000000	4.933340
2285.000000	4.960670
2286.000000	4.989320
2287.000000	5.014880
2288.000000	5.039260
2289.000000	5.061750
2290.000000	5.082170
2291.000000	5.098120
2292.000000	5.111840
2293.000000	5.121340
2294.000000	5.126230
2295.000000	5.129600
2296.000000	5.128000
2297.000000	5.124360
2298.000000	5.118170
2299.000000	5.108120
2300.000000	5.093810
2301.000000	5.079710
2302.000000	5.063200
2303.000000	5.047210
2304.000000	5.030810
2305.000000	5.013720
2306.000000	4.999160
2307.000000	4.985430
2308.000000	4.975030
2309.000000	4.969380
2310.000000	4.968330
2311.000000	4.969830
2312.000000	4.976130
2313.000000	4.985570
2314.000000	5.001390
2315.000000	5.022790
2316.000000	5.048160
2317.000000	5.078140
2318.000000	5.108340
2319.000000	5.140360
2320.000000	5.173780
2321.000000	5.210450
2322.000000	5.249250
2323.000000	5.288760
2324.000000	5.326910
2325.000000	5.364590
2326.000000	5.401270
2327.000000	5.435530
2328.000000	5.471670
2329.000000	5.506740
2330.000000	5.540660
2331.000000	5.572610
2332.000000	5.600800
2333.000000	5.626590
2334.000000	5.650040
2335.000000	5.671690
2336.000000	5.690670
2337.000000	5.708130
2338.000000	5.720550
2339.000000	5.729480
2340.000000	5.736190
2341.000000	5.738620
2342.000000	5.739590
2343.000000	5.738320
2344.000000	5.731600
2345.000000	5.722020
2346.000000	5.712170
2347.000000	5.700410
2348.000000	5.687810
2349.000000	5.672820
2350.000000	5.657270
2351.000000	5.643700
2352.000000	5.628450
2353.000000	5.614250
2354.000000	5.606560
2355.000000	5.600800
2356.000000	5.596580
2357.000000	5.596250
2358.000000	5.598900
2359.000000	5.606080
2360.000000	5.615220
2361.000000	5.627730
2362.000000	5.647130
2363.000000	5.668590
2364.000000	5.688430
2365.000000	5.710330
2366.000000	5.734060
2367.000000	5.757530
2368.000000	5.782110
2369.000000	5.808000
2370.000000	5.834290
2371.000000	5.857610
2372.000000	5.877300
2373.000000	5.895580
2374.000000	5.914410
2375.000000	5.932700
2376.000000	5.948460
2377.000000	5.962270
2378.000000	5.973390
2379.000000	5.982380
2380.000000	5.990090
2381.000000	5.997930
2382.000000	6.005490
2383.000000	6.011910
2384.000000	6.015780
2385.000000	6.016970
2386.000000	6.017030
2387.000000	6.017880
2388.000000	6.019750
2389.000000	6.018630
2390.000000	6.016290
2391.000000	6.013580
2392.000000	6.009320
2393.000000	6.003670
2394.000000	5.998110
2395.000000	5.990980
2396.000000	5.983080
2397.000000	5.973960
2398.000000	5.964340
2399.000000	5.954010
2400.000000	5.941990
2401.000000	5.928200
2402.000000	5.913990
2403.000000	5.900950
2404.000000	5.889570
2405.000000	5.879890
2406.000000	5.869830
2407.000000	5.856280
2408.000000	5.842670
2409.000000	5.831100
2410.000000	5.820620
2411.000000	5.812300
2412.000000	5.802110
2413.000000	5.791850
2414.000000	5.781570
2415.000000	5.769690
2416.000000	5.758040
2417.000000	5.749160
2418.000000	5.739610
2419.000000	5.730550
2420.000000	5.720300
2421.000000	5.710370
2422.000000	5.701690
2423.000000	5.691640
2424.000000	5.678860
2425.000000	5.667200
2426.000000	5.655830
2427.000000	5.643350
2428.000000	5.630450
2429.000000	5.614060
2430.000000	5.597990
2431.000000	5.578910
2432.000000	5.560760
2433.000000	5.543450
2434.000000	5.524530
2435.000000	5.503750
2436.000000	5.482370
2437.000000	5.461300
2438.000000	5.440990
2439.000000	5.418570
2440.000000	5.397770
2441.000000	5.375070
2442.000000	5.350810
2443.000000	5.325910
2444.000000	5.301720
2445.000000	5.275890
2446.000000	5.248680
2447.000000	5.221240
2448.000000	5.192270
2449.000000	5.166190
2450.000000	5.137080
2451.000000	5.108990
2452.000000	5.080180
2453.000000	5.050950
2454.000000	5.022810
2455.000000	4.996170
2456.000000	4.969150
2457.000000	4.943630
2458.000000	4.916000
2459.000000	4.888590
2460.000000	4.866560
2461.000000	4.843480
2462.000000	4.822730
2463.000000	4.803910
2464.000000	4.787320
2465.000000	4.772430
2466.000000	4.756240
2467.000000	4.743120
2468.000000	4.736680
2469.000000	4.725710
2470.000000	4.716720
2471.000000	4.712080
2472.000000	4.707670
2473.000000	4.706230
2474.000000	4.698650
2475.000000	4.698010
2476.000000	4.703930
2477.000000	4.705770
2478.000000	4.705270
2479.000000	4.714440
2480.000000	4.719430
2481.000000	4.723280
2482.000000	4.727660
2483.000000	4.729350
2484.000000	4.737960
2485.000000	4.738230
2486.000000	4.743850
2487.000000	4.746690
2488.000000	4.743030
2489.000000	4.743790
2490.000000	4.747610
2491.000000	4.754000
2492.000000	4.756540
2493.000000	4.763100
2494.000000	4.769040
2495.000000	4.769820
2496.000000	4.767670
2497.000000	4.781240
2498.000000	4.803820
2499.000000	4.802810
2500.000000	4.812180
