PE UV       SUBTECH     SPECTRUM    ASCII       PEDS        4.00        
   -1
CICIMAUCR0070-1.ASC
24/04/03
14:43:34.00
24/04/03
14:43:34.00
Vinicio Soto Monge
C. resplendens
250,000000
1
Lambda 1050
1050L1511233
PerkinElmer UV WinLab 6.3.2.0749 / 2.02.05 Lambda 900 UV/VIS/NIR, Aug  7 2015 09:38:08

0
0
3350/servo 860,8/2
0
0
UV/VIS
1
1
1
DoubleDePol,CommonBeamDepol,RBeamAtt,SBeamAtt,60mm sphere, WB InGaAs Detector
0
0
0
0
Program
Program
3350/servo 860,8/2
3350/0,2 860,8/0,2
3350/0,2 860,8/0,2
0
15.00
 
 
 
0
 
860,8
319,2
860,8
Front
100
on
S:100 R:100
0
0
0
0
 
0
 
 
 
0
 
 
0
0
0
0
0
 
 
 
 
0
0


0
0
#HDR
-1
-1
#GR
nm
%R
1.0
0.0
2500,000000
-1,000000
2251
8
71,428400
5,238700
#DATA

250.000000	nan
251.000000	nan
252.000000	nan
253.000000	nan
254.000000	nan
255.000000	nan
256.000000	nan
257.000000	nan
258.000000	nan
259.000000	6.100513
260.000000	6.084482
261.000000	6.065083
262.000000	6.038670
263.000000	6.022372
264.000000	5.997276
265.000000	5.970051
266.000000	5.947471
267.000000	5.919344
268.000000	5.894070
269.000000	5.865932
270.000000	5.836368
271.000000	5.813314
272.000000	5.788634
273.000000	5.762835
274.000000	5.750569
275.000000	5.729714
276.000000	5.714704
277.000000	5.698763
278.000000	5.674886
279.000000	5.661005
280.000000	5.655893
281.000000	5.640735
282.000000	5.629391
283.000000	5.616224
284.000000	5.597498
285.000000	5.592208
286.000000	5.584410
287.000000	5.571788
288.000000	5.566022
289.000000	5.560989
290.000000	5.545662
291.000000	5.534169
292.000000	5.534467
293.000000	5.535735
294.000000	5.524480
295.000000	5.514780
296.000000	5.497066
297.000000	5.496471
298.000000	5.491508
299.000000	5.479718
300.000000	5.481055
301.000000	5.482393
302.000000	5.471920
303.000000	5.466660
304.000000	5.470018
305.000000	5.469483
306.000000	5.476815
307.000000	5.470573
308.000000	5.471504
309.000000	5.473902
310.000000	5.463469
311.000000	5.455316
312.000000	5.452423
313.000000	5.440563
314.000000	5.431181
315.000000	5.428120
316.000000	5.424751
317.000000	5.489625
318.000000	5.547109
319.000000	5.584589
320.000000	5.654189
321.000000	5.715239
322.000000	5.759665
323.000000	5.802673
324.000000	5.854083
325.000000	5.897369
326.000000	5.908793
327.000000	5.854727
328.000000	5.781778
329.000000	5.753859
330.000000	5.716705
331.000000	5.668248
332.000000	5.631313
333.000000	5.596914
334.000000	5.545840
335.000000	5.508915
336.000000	5.489328
337.000000	5.463489
338.000000	5.473783
339.000000	5.469295
340.000000	5.437165
341.000000	5.433994
342.000000	5.425147
343.000000	5.417162
344.000000	5.404460
345.000000	5.400160
346.000000	5.394226
347.000000	5.385468
348.000000	5.382892
349.000000	5.383139
350.000000	5.382753
351.000000	5.365980
352.000000	5.355081
353.000000	5.348790
354.000000	5.356984
355.000000	5.349424
356.000000	5.351812
357.000000	5.383952
358.000000	5.384437
359.000000	5.385061
360.000000	5.386657
361.000000	5.387172
362.000000	5.394018
363.000000	5.396267
364.000000	5.391462
365.000000	5.390679
366.000000	5.395435
367.000000	5.377878
368.000000	5.374986
369.000000	5.358172
370.000000	5.346680
371.000000	5.345184
372.000000	5.343301
373.000000	5.343212
374.000000	5.342479
375.000000	5.330540
376.000000	5.326379
377.000000	5.327013
378.000000	5.323952
379.000000	5.323001
380.000000	5.326726
381.000000	5.329341
382.000000	5.329847
383.000000	5.331927
384.000000	5.338159
385.000000	5.349761
386.000000	5.353139
387.000000	5.355963
388.000000	5.358579
389.000000	5.363750
390.000000	5.368902
391.000000	5.369794
392.000000	5.371409
393.000000	5.374748
394.000000	5.378701
395.000000	5.381514
396.000000	5.384289
397.000000	5.386924
398.000000	5.390837
399.000000	5.392859
400.000000	5.393483
401.000000	5.396861
402.000000	5.401349
403.000000	5.405015
404.000000	5.409355
405.000000	5.415071
406.000000	5.420025
407.000000	5.425316
408.000000	5.430378
409.000000	5.435679
410.000000	5.442367
411.000000	5.449757
412.000000	5.457069
413.000000	5.463410
414.000000	5.470999
415.000000	5.480768
416.000000	5.492647
417.000000	5.505150
418.000000	5.518813
419.000000	5.535785
420.000000	5.555471
421.000000	5.577307
422.000000	5.602690
423.000000	5.632739
424.000000	5.666365
425.000000	5.702795
426.000000	5.743248
427.000000	5.789813
428.000000	5.843859
429.000000	5.904235
430.000000	5.970051
431.000000	6.044486
432.000000	6.127907
433.000000	6.221038
434.000000	6.323898
435.000000	6.437378
436.000000	6.562421
437.000000	6.700938
438.000000	6.850898
439.000000	7.012024
440.000000	7.188527
441.000000	7.377720
442.000000	7.579180
443.000000	7.794212
444.000000	8.023779
445.000000	8.266553
446.000000	8.519502
447.000000	8.781516
448.000000	9.054696
449.000000	9.337209
450.000000	9.625706
451.000000	9.920890
452.000000	10.220454
453.000000	10.521107
454.000000	10.821899
455.000000	11.123831
456.000000	11.426575
457.000000	11.726327
458.000000	12.020659
459.000000	12.310504
460.000000	12.595394
461.000000	12.874330
462.000000	13.148343
463.000000	13.419224
464.000000	13.684171
465.000000	13.940607
466.000000	14.191663
467.000000	14.440193
468.000000	14.684800
469.000000	14.924136
470.000000	15.159083
471.000000	15.391414
472.000000	15.621784
473.000000	15.845852
474.000000	16.066730
475.000000	16.287093
476.000000	16.504107
477.000000	16.717455
478.000000	16.930090
479.000000	17.142508
480.000000	17.354281
481.000000	17.564944
482.000000	17.773854
483.000000	17.983299
484.000000	18.193695
485.000000	18.402437
486.000000	18.611039
487.000000	18.820207
488.000000	19.027383
489.000000	19.236342
490.000000	19.446272
491.000000	19.657095
492.000000	19.868224
493.000000	20.080690
494.000000	20.290531
495.000000	20.500898
496.000000	20.710897
497.000000	20.920045
498.000000	21.128667
499.000000	21.332257
500.000000	21.531557
501.000000	21.725526
502.000000	21.913313
503.000000	22.092896
504.000000	22.268210
505.000000	22.436261
506.000000	22.596773
507.000000	22.748041
508.000000	22.889699
509.000000	23.022697
510.000000	23.145540
511.000000	23.257991
512.000000	23.358770
513.000000	23.447779
514.000000	23.526217
515.000000	23.594658
516.000000	23.653548
517.000000	23.705384
518.000000	23.753020
519.000000	23.798891
520.000000	23.848142
521.000000	23.908617
522.000000	23.990176
523.000000	24.102844
524.000000	24.252457
525.000000	24.450340
526.000000	24.706945
527.000000	25.030544
528.000000	25.429589
529.000000	25.912442
530.000000	26.483778
531.000000	27.144630
532.000000	27.897482
533.000000	28.737926
534.000000	29.660138
535.000000	30.653772
536.000000	31.705841
537.000000	32.805675
538.000000	33.939501
539.000000	35.089060
540.000000	36.244395
541.000000	37.390149
542.000000	38.512314
543.000000	39.601755
544.000000	40.649147
545.000000	41.650430
546.000000	42.604673
547.000000	43.506039
548.000000	44.354082
549.000000	45.152123
550.000000	45.900427
551.000000	46.605090
552.000000	47.266555
553.000000	47.884397
554.000000	48.466781
555.000000	49.005244
556.000000	49.500541
557.000000	49.959556
558.000000	50.375196
559.000000	50.750968
560.000000	51.077698
561.000000	51.358022
562.000000	51.597060
563.000000	51.795894
564.000000	51.956366
565.000000	52.093863
566.000000	52.208641
567.000000	52.299751
568.000000	52.381042
569.000000	52.457013
570.000000	52.538581
571.000000	52.626342
572.000000	52.721771
573.000000	52.831061
574.000000	52.954122
575.000000	53.084991
576.000000	53.225341
577.000000	53.377609
578.000000	53.542272
579.000000	53.706984
580.000000	53.875373
581.000000	54.037103
582.000000	54.195326
583.000000	54.344355
584.000000	54.478780
585.000000	54.599800
586.000000	54.708159
587.000000	54.805024
588.000000	54.888773
589.000000	54.965922
590.000000	55.031163
591.000000	55.092006
592.000000	55.150886
593.000000	55.200978
594.000000	55.242362
595.000000	55.281933
596.000000	55.307415
597.000000	55.313438
598.000000	55.298835
599.000000	55.262702
600.000000	55.199878
601.000000	55.105311
602.000000	54.969539
603.000000	54.800556
604.000000	54.599949
605.000000	54.361108
606.000000	54.098975
607.000000	53.812836
608.000000	53.510479
609.000000	53.192408
610.000000	52.866223
611.000000	52.541811
612.000000	52.223473
613.000000	51.916419
614.000000	51.625465
615.000000	51.353742
616.000000	51.097959
617.000000	50.865053
618.000000	50.644215
619.000000	50.437653
620.000000	50.244605
621.000000	50.059275
622.000000	49.869120
623.000000	49.676300
624.000000	49.469689
625.000000	49.240102
626.000000	48.988372
627.000000	48.704561
628.000000	48.392118
629.000000	48.043968
630.000000	47.653691
631.000000	47.216571
632.000000	46.743408
633.000000	46.226196
634.000000	45.670682
635.000000	45.080471
636.000000	44.460182
637.000000	43.813241
638.000000	43.150309
639.000000	42.474795
640.000000	41.802937
641.000000	41.144315
642.000000	40.511522
643.000000	39.913702
644.000000	39.364529
645.000000	38.881765
646.000000	38.475210
647.000000	38.153266
648.000000	37.916932
649.000000	37.776443
650.000000	37.733346
651.000000	37.788223
652.000000	37.933438
653.000000	38.162450
654.000000	38.466155
655.000000	38.824341
656.000000	39.218284
657.000000	39.635163
658.000000	40.061721
659.000000	40.481780
660.000000	40.879725
661.000000	41.243658
662.000000	41.566365
663.000000	41.845073
664.000000	42.071054
665.000000	42.248537
666.000000	42.379277
667.000000	42.469564
668.000000	42.526007
669.000000	42.555284
670.000000	42.562526
671.000000	42.558177
672.000000	42.552995
673.000000	42.551192
674.000000	42.561387
675.000000	42.590475
676.000000	42.646809
677.000000	42.731251
678.000000	42.841274
679.000000	42.985220
680.000000	43.163298
681.000000	43.372862
682.000000	43.606867
683.000000	43.859985
684.000000	44.124297
685.000000	44.396893
686.000000	44.670380
687.000000	44.932939
688.000000	45.180300
689.000000	45.405042
690.000000	45.603212
691.000000	45.773096
692.000000	45.906739
693.000000	46.006745
694.000000	46.079426
695.000000	46.121345
696.000000	46.138495
697.000000	46.140843
698.000000	46.138872
699.000000	46.131590
700.000000	46.128370
701.000000	46.131669
702.000000	46.144321
703.000000	46.174905
704.000000	46.227445
705.000000	46.303059
706.000000	46.403838
707.000000	46.530476
708.000000	46.674888
709.000000	46.845505
710.000000	47.033431
711.000000	47.241370
712.000000	47.474761
713.000000	47.721855
714.000000	47.972049
715.000000	48.228059
716.000000	48.489192
717.000000	48.746787
718.000000	48.997655
719.000000	49.244878
720.000000	49.487770
721.000000	49.718199
722.000000	49.933351
723.000000	50.142320
724.000000	50.352696
725.000000	50.557138
726.000000	50.754624
727.000000	50.953884
728.000000	51.153531
729.000000	51.346856
730.000000	51.542638
731.000000	51.745564
732.000000	51.949451
733.000000	52.155289
734.000000	52.360207
735.000000	52.569721
736.000000	52.776025
737.000000	52.979446
738.000000	53.186216
739.000000	53.396642
740.000000	53.600756
741.000000	53.802661
742.000000	54.008599
743.000000	54.205620
744.000000	54.397092
745.000000	54.590418
746.000000	54.778611
747.000000	54.960860
748.000000	55.139561
749.000000	55.310952
750.000000	55.477130
751.000000	55.640327
752.000000	55.797648
753.000000	55.954415
754.000000	56.109012
755.000000	56.250660
756.000000	56.387433
757.000000	56.528764
758.000000	56.669351
759.000000	56.804004
760.000000	56.935388
761.000000	57.064859
762.000000	57.190595
763.000000	57.315569
764.000000	57.443564
765.000000	57.570202
766.000000	57.695661
767.000000	57.828421
768.000000	57.958884
769.000000	58.092635
770.000000	58.227843
771.000000	58.355065
772.000000	58.485339
773.000000	58.616257
774.000000	58.740468
775.000000	58.872555
776.000000	59.014559
777.000000	59.144833
778.000000	59.270807
779.000000	59.392204
780.000000	59.519000
781.000000	59.650136
782.000000	59.776705
783.000000	59.903997
784.000000	60.027345
785.000000	60.142044
786.000000	60.250888
787.000000	60.360693
788.000000	60.468021
789.000000	60.589289
790.000000	60.713183
791.000000	60.824444
792.000000	60.926591
793.000000	61.039804
794.000000	61.161924
795.000000	61.288899
796.000000	61.424176
797.000000	61.548060
798.000000	61.682881
799.000000	61.811451
800.000000	61.935334
801.000000	62.066708
802.000000	62.208960
803.000000	62.343068
804.000000	62.475066
805.000000	62.600723
806.000000	62.722694
807.000000	62.856297
808.000000	62.985243
809.000000	63.120570
810.000000	63.238093
811.000000	63.364503
812.000000	63.475824
813.000000	63.587026
814.000000	63.720936
815.000000	63.857551
816.000000	63.988478
817.000000	64.125787
818.000000	64.259627
819.000000	64.388702
820.000000	64.536136
821.000000	64.692398
822.000000	64.865521
823.000000	65.043609
824.000000	65.180194
825.000000	65.318652
826.000000	65.483523
827.000000	65.630213
828.000000	65.784602
829.000000	65.925626
830.000000	66.045100
831.000000	66.165804
832.000000	66.284367
833.000000	66.398531
834.000000	66.536345
835.000000	66.656107
836.000000	66.758035
837.000000	66.862837
838.000000	66.948824
839.000000	67.043847
840.000000	67.154058
841.000000	67.234745
842.000000	67.337010
843.000000	67.434233
844.000000	67.500811
845.000000	67.581974
846.000000	67.646125
847.000000	67.731607
848.000000	67.859444
849.000000	67.930679
850.000000	68.027792
851.000000	68.148198
852.000000	68.228320
853.000000	68.304014
854.000000	68.383522
855.000000	68.448931
856.000000	68.544528
857.000000	68.635598
858.000000	68.742362
859.000000	68.972380
860.000000	69.181918
861.000000	69.388051
862.000000	69.614843
863.000000	69.846862
864.000000	70.096248
865.000000	70.358942
866.000000	70.595086
867.000000	70.815287
868.000000	70.982250
869.000000	71.073040
870.000000	71.153810
871.000000	71.217820
872.000000	71.269180
873.000000	71.310220
874.000000	71.340630
875.000000	71.364320
876.000000	71.383260
877.000000	71.394800
878.000000	71.400710
879.000000	71.402710
880.000000	71.398780
881.000000	71.391850
882.000000	71.379450
883.000000	71.365020
884.000000	71.349200
885.000000	71.331350
886.000000	71.308960
887.000000	71.285360
888.000000	71.260780
889.000000	71.235720
890.000000	71.208530
891.000000	71.180510
892.000000	71.153330
893.000000	71.122670
894.000000	71.090580
895.000000	71.056560
896.000000	71.022660
897.000000	70.988250
898.000000	70.952980
899.000000	70.912970
900.000000	70.872150
901.000000	70.828710
902.000000	70.783380
903.000000	70.736630
904.000000	70.692340
905.000000	70.641800
906.000000	70.589900
907.000000	70.536640
908.000000	70.481560
909.000000	70.429760
910.000000	70.381660
911.000000	70.332030
912.000000	70.281330
913.000000	70.231180
914.000000	70.177520
915.000000	70.128290
916.000000	70.078180
917.000000	70.028420
918.000000	69.979840
919.000000	69.930000
920.000000	69.873840
921.000000	69.819270
922.000000	69.764760
923.000000	69.707280
924.000000	69.646610
925.000000	69.587000
926.000000	69.526320
927.000000	69.460910
928.000000	69.394880
929.000000	69.328780
930.000000	69.262180
931.000000	69.195160
932.000000	69.130030
933.000000	69.063030
934.000000	68.997820
935.000000	68.927350
936.000000	68.855730
937.000000	68.787070
938.000000	68.712760
939.000000	68.633770
940.000000	68.554090
941.000000	68.473090
942.000000	68.386660
943.000000	68.303260
944.000000	68.220810
945.000000	68.140600
946.000000	68.062240
947.000000	67.986080
948.000000	67.912910
949.000000	67.844480
950.000000	67.781430
951.000000	67.718810
952.000000	67.662460
953.000000	67.609140
954.000000	67.555480
955.000000	67.504750
956.000000	67.455460
957.000000	67.406660
958.000000	67.360860
959.000000	67.312700
960.000000	67.263860
961.000000	67.218530
962.000000	67.173050
963.000000	67.124580
964.000000	67.077650
965.000000	67.029530
966.000000	66.982300
967.000000	66.934400
968.000000	66.888070
969.000000	66.842690
970.000000	66.798100
971.000000	66.753420
972.000000	66.709250
973.000000	66.667010
974.000000	66.625600
975.000000	66.586550
976.000000	66.548040
977.000000	66.512210
978.000000	66.474660
979.000000	66.437620
980.000000	66.400960
981.000000	66.365730
982.000000	66.328580
983.000000	66.290590
984.000000	66.252410
985.000000	66.212250
986.000000	66.169660
987.000000	66.125180
988.000000	66.080260
989.000000	66.036880
990.000000	65.992630
991.000000	65.946150
992.000000	65.898660
993.000000	65.852160
994.000000	65.807350
995.000000	65.763300
996.000000	65.722090
997.000000	65.680230
998.000000	65.640330
999.000000	65.602120
1000.000000	65.563210
1001.000000	65.525120
1002.000000	65.488490
1003.000000	65.451650
1004.000000	65.414030
1005.000000	65.376210
1006.000000	65.338370
1007.000000	65.301210
1008.000000	65.263870
1009.000000	65.225340
1010.000000	65.188450
1011.000000	65.152390
1012.000000	65.118780
1013.000000	65.087660
1014.000000	65.057290
1015.000000	65.028790
1016.000000	65.002010
1017.000000	64.979040
1018.000000	64.958380
1019.000000	64.940760
1020.000000	64.925840
1021.000000	64.913110
1022.000000	64.902300
1023.000000	64.892800
1024.000000	64.886870
1025.000000	64.883930
1026.000000	64.882650
1027.000000	64.881980
1028.000000	64.884230
1029.000000	64.888670
1030.000000	64.895430
1031.000000	64.905030
1032.000000	64.916020
1033.000000	64.929810
1034.000000	64.943330
1035.000000	64.956810
1036.000000	64.972740
1037.000000	64.991180
1038.000000	65.009920
1039.000000	65.028690
1040.000000	65.047100
1041.000000	65.065580
1042.000000	65.084190
1043.000000	65.100440
1044.000000	65.118760
1045.000000	65.140370
1046.000000	65.161870
1047.000000	65.181550
1048.000000	65.201630
1049.000000	65.221070
1050.000000	65.240680
1051.000000	65.260870
1052.000000	65.280100
1053.000000	65.301700
1054.000000	65.323190
1055.000000	65.343190
1056.000000	65.362570
1057.000000	65.381840
1058.000000	65.400990
1059.000000	65.420540
1060.000000	65.439940
1061.000000	65.456390
1062.000000	65.474140
1063.000000	65.491270
1064.000000	65.507390
1065.000000	65.523070
1066.000000	65.536960
1067.000000	65.550740
1068.000000	65.564470
1069.000000	65.577790
1070.000000	65.590850
1071.000000	65.605160
1072.000000	65.618960
1073.000000	65.632680
1074.000000	65.647000
1075.000000	65.659690
1076.000000	65.672660
1077.000000	65.685400
1078.000000	65.697460
1079.000000	65.708900
1080.000000	65.718210
1081.000000	65.727020
1082.000000	65.736820
1083.000000	65.746400
1084.000000	65.753690
1085.000000	65.760820
1086.000000	65.766750
1087.000000	65.772100
1088.000000	65.777490
1089.000000	65.783180
1090.000000	65.788770
1091.000000	65.794360
1092.000000	65.797500
1093.000000	65.800050
1094.000000	65.801990
1095.000000	65.804000
1096.000000	65.808170
1097.000000	65.812140
1098.000000	65.814370
1099.000000	65.817020
1100.000000	65.821140
1101.000000	65.825030
1102.000000	65.828280
1103.000000	65.830910
1104.000000	65.834140
1105.000000	65.837900
1106.000000	65.840300
1107.000000	65.842920
1108.000000	65.847570
1109.000000	65.850510
1110.000000	65.854130
1111.000000	65.856820
1112.000000	65.861650
1113.000000	65.866720
1114.000000	65.872860
1115.000000	65.877910
1116.000000	65.883670
1117.000000	65.890300
1118.000000	65.896330
1119.000000	65.901510
1120.000000	65.907250
1121.000000	65.913020
1122.000000	65.917600
1123.000000	65.921190
1124.000000	65.924880
1125.000000	65.924770
1126.000000	65.922350
1127.000000	65.915950
1128.000000	65.906770
1129.000000	65.896620
1130.000000	65.880000
1131.000000	65.858000
1132.000000	65.830470
1133.000000	65.800310
1134.000000	65.769220
1135.000000	65.738510
1136.000000	65.704000
1137.000000	65.665280
1138.000000	65.618230
1139.000000	65.569640
1140.000000	65.519560
1141.000000	65.469590
1142.000000	65.419830
1143.000000	65.367980
1144.000000	65.312770
1145.000000	65.258560
1146.000000	65.208650
1147.000000	65.160780
1148.000000	65.118800
1149.000000	65.076250
1150.000000	65.034970
1151.000000	64.994880
1152.000000	64.955980
1153.000000	64.919400
1154.000000	64.879150
1155.000000	64.836110
1156.000000	64.788200
1157.000000	64.739010
1158.000000	64.688930
1159.000000	64.633900
1160.000000	64.576920
1161.000000	64.517640
1162.000000	64.451650
1163.000000	64.381910
1164.000000	64.311510
1165.000000	64.238840
1166.000000	64.163820
1167.000000	64.086730
1168.000000	64.008450
1169.000000	63.930820
1170.000000	63.856260
1171.000000	63.781880
1172.000000	63.711710
1173.000000	63.642360
1174.000000	63.577780
1175.000000	63.517360
1176.000000	63.458680
1177.000000	63.406950
1178.000000	63.356360
1179.000000	63.310630
1180.000000	63.263980
1181.000000	63.222010
1182.000000	63.181560
1183.000000	63.143260
1184.000000	63.104830
1185.000000	63.070220
1186.000000	63.040200
1187.000000	63.011160
1188.000000	62.987500
1189.000000	62.969900
1190.000000	62.957550
1191.000000	62.951160
1192.000000	62.951020
1193.000000	62.958250
1194.000000	62.969670
1195.000000	62.986320
1196.000000	63.007310
1197.000000	63.033320
1198.000000	63.060600
1199.000000	63.087340
1200.000000	63.118930
1201.000000	63.148300
1202.000000	63.178860
1203.000000	63.209260
1204.000000	63.240860
1205.000000	63.269620
1206.000000	63.298250
1207.000000	63.325760
1208.000000	63.353490
1209.000000	63.383550
1210.000000	63.410130
1211.000000	63.435490
1212.000000	63.461190
1213.000000	63.485890
1214.000000	63.508780
1215.000000	63.531190
1216.000000	63.552690
1217.000000	63.572080
1218.000000	63.591640
1219.000000	63.607650
1220.000000	63.622670
1221.000000	63.638510
1222.000000	63.652680
1223.000000	63.665400
1224.000000	63.678950
1225.000000	63.692670
1226.000000	63.705790
1227.000000	63.718240
1228.000000	63.729110
1229.000000	63.739900
1230.000000	63.750320
1231.000000	63.760730
1232.000000	63.770650
1233.000000	63.780810
1234.000000	63.790070
1235.000000	63.797340
1236.000000	63.802870
1237.000000	63.807900
1238.000000	63.813210
1239.000000	63.818240
1240.000000	63.822500
1241.000000	63.826330
1242.000000	63.829870
1243.000000	63.833280
1244.000000	63.838090
1245.000000	63.844730
1246.000000	63.855620
1247.000000	63.869600
1248.000000	63.884690
1249.000000	63.901920
1250.000000	63.922680
1251.000000	63.944330
1252.000000	63.967950
1253.000000	63.993340
1254.000000	64.019280
1255.000000	64.043610
1256.000000	64.065210
1257.000000	64.087030
1258.000000	64.108600
1259.000000	64.129620
1260.000000	64.148560
1261.000000	64.166710
1262.000000	64.183210
1263.000000	64.198190
1264.000000	64.211470
1265.000000	64.224990
1266.000000	64.238460
1267.000000	64.248130
1268.000000	64.255370
1269.000000	64.261350
1270.000000	64.265740
1271.000000	64.269130
1272.000000	64.272020
1273.000000	64.273580
1274.000000	64.274160
1275.000000	64.273280
1276.000000	64.272560
1277.000000	64.273060
1278.000000	64.275230
1279.000000	64.277970
1280.000000	64.281950
1281.000000	64.287260
1282.000000	64.292740
1283.000000	64.298730
1284.000000	64.305980
1285.000000	64.314750
1286.000000	64.323560
1287.000000	64.332420
1288.000000	64.340930
1289.000000	64.349120
1290.000000	64.357410
1291.000000	64.364630
1292.000000	64.370710
1293.000000	64.376240
1294.000000	64.381280
1295.000000	64.386140
1296.000000	64.389810
1297.000000	64.391880
1298.000000	64.392500
1299.000000	64.391360
1300.000000	64.388280
1301.000000	64.383920
1302.000000	64.379310
1303.000000	64.372450
1304.000000	64.361990
1305.000000	64.350380
1306.000000	64.336990
1307.000000	64.321100
1308.000000	64.304110
1309.000000	64.285300
1310.000000	64.264310
1311.000000	64.240350
1312.000000	64.214670
1313.000000	64.189320
1314.000000	64.163110
1315.000000	64.133020
1316.000000	64.101420
1317.000000	64.069600
1318.000000	64.035720
1319.000000	63.999810
1320.000000	63.962560
1321.000000	63.925540
1322.000000	63.886190
1323.000000	63.843170
1324.000000	63.799530
1325.000000	63.754840
1326.000000	63.707010
1327.000000	63.657180
1328.000000	63.606420
1329.000000	63.554460
1330.000000	63.500030
1331.000000	63.442460
1332.000000	63.381010
1333.000000	63.316530
1334.000000	63.249370
1335.000000	63.178170
1336.000000	63.104840
1337.000000	63.027460
1338.000000	62.944920
1339.000000	62.859160
1340.000000	62.770560
1341.000000	62.678970
1342.000000	62.584510
1343.000000	62.488410
1344.000000	62.389160
1345.000000	62.287270
1346.000000	62.180970
1347.000000	62.074010
1348.000000	61.969790
1349.000000	61.862960
1350.000000	61.753710
1351.000000	61.642880
1352.000000	61.532170
1353.000000	61.416410
1354.000000	61.308060
1355.000000	61.210540
1356.000000	61.116140
1357.000000	61.023080
1358.000000	60.931110
1359.000000	60.844550
1360.000000	60.766290
1361.000000	60.700240
1362.000000	60.641010
1363.000000	60.584220
1364.000000	60.517330
1365.000000	60.441950
1366.000000	60.361650
1367.000000	60.274430
1368.000000	60.178750
1369.000000	60.068780
1370.000000	59.936940
1371.000000	59.774830
1372.000000	59.577920
1373.000000	59.345810
1374.000000	59.069770
1375.000000	58.744440
1376.000000	58.377170
1377.000000	57.969000
1378.000000	57.517760
1379.000000	57.040520
1380.000000	56.538210
1381.000000	56.042210
1382.000000	55.559780
1383.000000	55.103360
1384.000000	54.690060
1385.000000	54.317300
1386.000000	53.987300
1387.000000	53.708210
1388.000000	53.488910
1389.000000	53.310530
1390.000000	53.176700
1391.000000	53.065710
1392.000000	52.983400
1393.000000	52.921350
1394.000000	52.872000
1395.000000	52.845800
1396.000000	52.829680
1397.000000	52.804310
1398.000000	52.759190
1399.000000	52.717560
1400.000000	52.682720
1401.000000	52.648050
1402.000000	52.580520
1403.000000	52.492120
1404.000000	52.383990
1405.000000	52.260790
1406.000000	52.122490
1407.000000	51.978730
1408.000000	51.830730
1409.000000	51.665580
1410.000000	51.474930
1411.000000	51.259390
1412.000000	51.045010
1413.000000	50.835930
1414.000000	50.632910
1415.000000	50.417090
1416.000000	50.196130
1417.000000	49.971860
1418.000000	49.756100
1419.000000	49.545170
1420.000000	49.343280
1421.000000	49.140960
1422.000000	48.947330
1423.000000	48.757780
1424.000000	48.569550
1425.000000	48.387230
1426.000000	48.211120
1427.000000	48.046660
1428.000000	47.885140
1429.000000	47.723890
1430.000000	47.564270
1431.000000	47.420740
1432.000000	47.287180
1433.000000	47.158920
1434.000000	47.031690
1435.000000	46.910360
1436.000000	46.798040
1437.000000	46.690140
1438.000000	46.585760
1439.000000	46.484290
1440.000000	46.390660
1441.000000	46.297010
1442.000000	46.206640
1443.000000	46.117020
1444.000000	46.033990
1445.000000	45.955960
1446.000000	45.884920
1447.000000	45.809100
1448.000000	45.732120
1449.000000	45.659890
1450.000000	45.590400
1451.000000	45.528440
1452.000000	45.466550
1453.000000	45.400720
1454.000000	45.335320
1455.000000	45.269520
1456.000000	45.199540
1457.000000	45.135230
1458.000000	45.071770
1459.000000	45.009180
1460.000000	44.944210
1461.000000	44.874690
1462.000000	44.806700
1463.000000	44.742360
1464.000000	44.679870
1465.000000	44.619770
1466.000000	44.561050
1467.000000	44.503170
1468.000000	44.446690
1469.000000	44.391810
1470.000000	44.341100
1471.000000	44.294060
1472.000000	44.247270
1473.000000	44.202950
1474.000000	44.157870
1475.000000	44.113230
1476.000000	44.070660
1477.000000	44.033050
1478.000000	44.000210
1479.000000	43.969600
1480.000000	43.940950
1481.000000	43.915400
1482.000000	43.893960
1483.000000	43.877060
1484.000000	43.862420
1485.000000	43.852340
1486.000000	43.845490
1487.000000	43.840860
1488.000000	43.837300
1489.000000	43.834160
1490.000000	43.832860
1491.000000	43.831750
1492.000000	43.832610
1493.000000	43.834740
1494.000000	43.838790
1495.000000	43.843220
1496.000000	43.850780
1497.000000	43.859000
1498.000000	43.871320
1499.000000	43.888770
1500.000000	43.908610
1501.000000	43.933050
1502.000000	43.961250
1503.000000	43.994070
1504.000000	44.033390
1505.000000	44.077450
1506.000000	44.123540
1507.000000	44.174220
1508.000000	44.227200
1509.000000	44.283220
1510.000000	44.343410
1511.000000	44.404790
1512.000000	44.467430
1513.000000	44.530460
1514.000000	44.594360
1515.000000	44.659110
1516.000000	44.725890
1517.000000	44.790790
1518.000000	44.855100
1519.000000	44.921690
1520.000000	44.986950
1521.000000	45.050400
1522.000000	45.113250
1523.000000	45.177410
1524.000000	45.240350
1525.000000	45.302700
1526.000000	45.362810
1527.000000	45.423910
1528.000000	45.483630
1529.000000	45.540530
1530.000000	45.595780
1531.000000	45.652120
1532.000000	45.707350
1533.000000	45.760410
1534.000000	45.813300
1535.000000	45.863950
1536.000000	45.913820
1537.000000	45.962870
1538.000000	46.010990
1539.000000	46.057180
1540.000000	46.101710
1541.000000	46.144200
1542.000000	46.186210
1543.000000	46.228360
1544.000000	46.270650
1545.000000	46.315090
1546.000000	46.359660
1547.000000	46.405440
1548.000000	46.454910
1549.000000	46.506480
1550.000000	46.561470
1551.000000	46.619490
1552.000000	46.678670
1553.000000	46.738760
1554.000000	46.799740
1555.000000	46.859810
1556.000000	46.920360
1557.000000	46.977780
1558.000000	47.030760
1559.000000	47.081830
1560.000000	47.128050
1561.000000	47.168790
1562.000000	47.205600
1563.000000	47.238440
1564.000000	47.265090
1565.000000	47.285090
1566.000000	47.298710
1567.000000	47.309160
1568.000000	47.317120
1569.000000	47.321400
1570.000000	47.323260
1571.000000	47.324050
1572.000000	47.323810
1573.000000	47.321590
1574.000000	47.319320
1575.000000	47.319570
1576.000000	47.323190
1577.000000	47.329540
1578.000000	47.338810
1579.000000	47.349880
1580.000000	47.362860
1581.000000	47.378840
1582.000000	47.399110
1583.000000	47.421250
1584.000000	47.447060
1585.000000	47.477160
1586.000000	47.508240
1587.000000	47.540910
1588.000000	47.573220
1589.000000	47.607160
1590.000000	47.642640
1591.000000	47.678240
1592.000000	47.714120
1593.000000	47.753290
1594.000000	47.792090
1595.000000	47.830150
1596.000000	47.870820
1597.000000	47.910770
1598.000000	47.952930
1599.000000	47.995970
1600.000000	48.040660
1601.000000	48.088320
1602.000000	48.136830
1603.000000	48.185800
1604.000000	48.236520
1605.000000	48.288070
1606.000000	48.338900
1607.000000	48.390740
1608.000000	48.441890
1609.000000	48.492150
1610.000000	48.541050
1611.000000	48.588260
1612.000000	48.632750
1613.000000	48.675270
1614.000000	48.715290
1615.000000	48.752080
1616.000000	48.787740
1617.000000	48.821720
1618.000000	48.853320
1619.000000	48.883530
1620.000000	48.913680
1621.000000	48.941770
1622.000000	48.969840
1623.000000	48.997690
1624.000000	49.025420
1625.000000	49.054200
1626.000000	49.083090
1627.000000	49.112790
1628.000000	49.143400
1629.000000	49.174510
1630.000000	49.203970
1631.000000	49.234640
1632.000000	49.264420
1633.000000	49.293020
1634.000000	49.321850
1635.000000	49.347770
1636.000000	49.372220
1637.000000	49.394330
1638.000000	49.415530
1639.000000	49.435350
1640.000000	49.455570
1641.000000	49.472150
1642.000000	49.486110
1643.000000	49.499290
1644.000000	49.510200
1645.000000	49.521340
1646.000000	49.531960
1647.000000	49.542810
1648.000000	49.552420
1649.000000	49.560770
1650.000000	49.566000
1651.000000	49.570840
1652.000000	49.575630
1653.000000	49.576910
1654.000000	49.574410
1655.000000	49.568340
1656.000000	49.556780
1657.000000	49.538610
1658.000000	49.515560
1659.000000	49.485450
1660.000000	49.450450
1661.000000	49.408230
1662.000000	49.357580
1663.000000	49.300770
1664.000000	49.237670
1665.000000	49.169000
1666.000000	49.093390
1667.000000	49.012070
1668.000000	48.926640
1669.000000	48.834400
1670.000000	48.735510
1671.000000	48.632440
1672.000000	48.525090
1673.000000	48.415070
1674.000000	48.301760
1675.000000	48.184770
1676.000000	48.064480
1677.000000	47.942730
1678.000000	47.814970
1679.000000	47.686570
1680.000000	47.553540
1681.000000	47.417060
1682.000000	47.278690
1683.000000	47.135450
1684.000000	46.989140
1685.000000	46.840390
1686.000000	46.697200
1687.000000	46.556820
1688.000000	46.427440
1689.000000	46.312850
1690.000000	46.216030
1691.000000	46.139930
1692.000000	46.086430
1693.000000	46.053830
1694.000000	46.042730
1695.000000	46.051730
1696.000000	46.070320
1697.000000	46.100730
1698.000000	46.135330
1699.000000	46.169950
1700.000000	46.204160
1701.000000	46.231590
1702.000000	46.251640
1703.000000	46.264330
1704.000000	46.268900
1705.000000	46.263870
1706.000000	46.254130
1707.000000	46.236140
1708.000000	46.209790
1709.000000	46.174870
1710.000000	46.128520
1711.000000	46.074180
1712.000000	46.008590
1713.000000	45.932270
1714.000000	45.841850
1715.000000	45.739810
1716.000000	45.625150
1717.000000	45.499260
1718.000000	45.363070
1719.000000	45.217750
1720.000000	45.067060
1721.000000	44.911060
1722.000000	44.756400
1723.000000	44.608370
1724.000000	44.473710
1725.000000	44.354800
1726.000000	44.252970
1727.000000	44.170680
1728.000000	44.109070
1729.000000	44.068770
1730.000000	44.048530
1731.000000	44.045450
1732.000000	44.057450
1733.000000	44.077450
1734.000000	44.102620
1735.000000	44.132210
1736.000000	44.163980
1737.000000	44.199210
1738.000000	44.236100
1739.000000	44.272770
1740.000000	44.311940
1741.000000	44.354940
1742.000000	44.396660
1743.000000	44.444280
1744.000000	44.494940
1745.000000	44.545420
1746.000000	44.597040
1747.000000	44.645640
1748.000000	44.692990
1749.000000	44.741160
1750.000000	44.783630
1751.000000	44.819490
1752.000000	44.854090
1753.000000	44.881100
1754.000000	44.902230
1755.000000	44.919010
1756.000000	44.931270
1757.000000	44.941320
1758.000000	44.947350
1759.000000	44.947850
1760.000000	44.947060
1761.000000	44.946120
1762.000000	44.944020
1763.000000	44.941420
1764.000000	44.939680
1765.000000	44.939220
1766.000000	44.941020
1767.000000	44.943830
1768.000000	44.949810
1769.000000	44.958410
1770.000000	44.970830
1771.000000	44.986230
1772.000000	45.003090
1773.000000	45.021720
1774.000000	45.042910
1775.000000	45.065560
1776.000000	45.088420
1777.000000	45.111820
1778.000000	45.134530
1779.000000	45.157590
1780.000000	45.179430
1781.000000	45.198570
1782.000000	45.214740
1783.000000	45.229810
1784.000000	45.242490
1785.000000	45.254040
1786.000000	45.261220
1787.000000	45.266710
1788.000000	45.269830
1789.000000	45.269940
1790.000000	45.267250
1791.000000	45.264600
1792.000000	45.264140
1793.000000	45.265470
1794.000000	45.268830
1795.000000	45.272060
1796.000000	45.277510
1797.000000	45.283760
1798.000000	45.292070
1799.000000	45.301680
1800.000000	45.315710
1801.000000	45.335450
1802.000000	45.355260
1803.000000	45.373260
1804.000000	45.388470
1805.000000	45.403910
1806.000000	45.422600
1807.000000	45.444090
1808.000000	45.464600
1809.000000	45.484040
1810.000000	45.500970
1811.000000	45.516230
1812.000000	45.533080
1813.000000	45.551340
1814.000000	45.569470
1815.000000	45.586960
1816.000000	45.602550
1817.000000	45.614010
1818.000000	45.624530
1819.000000	45.638400
1820.000000	45.656850
1821.000000	45.674400
1822.000000	45.686580
1823.000000	45.691480
1824.000000	45.693050
1825.000000	45.693740
1826.000000	45.696460
1827.000000	45.700920
1828.000000	45.709270
1829.000000	45.719160
1830.000000	45.725070
1831.000000	45.731560
1832.000000	45.741130
1833.000000	45.756510
1834.000000	45.779790
1835.000000	45.809430
1836.000000	45.841380
1837.000000	45.876280
1838.000000	45.910230
1839.000000	45.941920
1840.000000	45.974340
1841.000000	46.004960
1842.000000	46.034380
1843.000000	46.059170
1844.000000	46.075270
1845.000000	46.084580
1846.000000	46.089760
1847.000000	46.095370
1848.000000	46.103420
1849.000000	46.108450
1850.000000	46.102180
1851.000000	46.085810
1852.000000	46.062050
1853.000000	46.039730
1854.000000	46.022650
1855.000000	46.002590
1856.000000	45.975760
1857.000000	45.938430
1858.000000	45.889770
1859.000000	45.836060
1860.000000	45.783490
1861.000000	45.727560
1862.000000	45.666890
1863.000000	45.597320
1864.000000	45.516480
1865.000000	45.430480
1866.000000	45.339470
1867.000000	45.245840
1868.000000	45.151150
1869.000000	45.047720
1870.000000	44.935800
1871.000000	44.821630
1872.000000	44.700270
1873.000000	44.566390
1874.000000	44.416460
1875.000000	44.247620
1876.000000	44.057930
1877.000000	43.846240
1878.000000	43.609330
1879.000000	43.352840
1880.000000	43.077070
1881.000000	42.782900
1882.000000	42.469390
1883.000000	42.142760
1884.000000	41.802110
1885.000000	41.442810
1886.000000	41.067260
1887.000000	40.674850
1888.000000	40.268460
1889.000000	39.844030
1890.000000	39.403630
1891.000000	38.942870
1892.000000	38.464710
1893.000000	37.965000
1894.000000	37.449420
1895.000000	36.925460
1896.000000	36.397980
1897.000000	35.866790
1898.000000	35.330800
1899.000000	34.790910
1900.000000	34.247360
1901.000000	33.703240
1902.000000	33.168300
1903.000000	32.643120
1904.000000	32.130570
1905.000000	31.627140
1906.000000	31.127120
1907.000000	30.632740
1908.000000	30.149610
1909.000000	29.686310
1910.000000	29.246450
1911.000000	28.826290
1912.000000	28.423080
1913.000000	28.039500
1914.000000	27.670140
1915.000000	27.316270
1916.000000	26.984890
1917.000000	26.673910
1918.000000	26.382810
1919.000000	26.106800
1920.000000	25.844640
1921.000000	25.596750
1922.000000	25.359420
1923.000000	25.136660
1924.000000	24.930030
1925.000000	24.737870
1926.000000	24.559440
1927.000000	24.396830
1928.000000	24.243450
1929.000000	24.103890
1930.000000	23.974850
1931.000000	23.859070
1932.000000	23.754590
1933.000000	23.662850
1934.000000	23.580730
1935.000000	23.511840
1936.000000	23.452880
1937.000000	23.404120
1938.000000	23.367630
1939.000000	23.341470
1940.000000	23.325930
1941.000000	23.321420
1942.000000	23.326340
1943.000000	23.336780
1944.000000	23.357730
1945.000000	23.387120
1946.000000	23.425500
1947.000000	23.466710
1948.000000	23.516100
1949.000000	23.570010
1950.000000	23.628270
1951.000000	23.690510
1952.000000	23.760800
1953.000000	23.838200
1954.000000	23.919420
1955.000000	24.002020
1956.000000	24.087790
1957.000000	24.179310
1958.000000	24.271300
1959.000000	24.365510
1960.000000	24.461620
1961.000000	24.559430
1962.000000	24.658020
1963.000000	24.755530
1964.000000	24.855000
1965.000000	24.958290
1966.000000	25.058450
1967.000000	25.159590
1968.000000	25.260670
1969.000000	25.363480
1970.000000	25.464840
1971.000000	25.568790
1972.000000	25.671550
1973.000000	25.775420
1974.000000	25.877540
1975.000000	25.978140
1976.000000	26.081500
1977.000000	26.185500
1978.000000	26.292190
1979.000000	26.398010
1980.000000	26.506630
1981.000000	26.612850
1982.000000	26.723190
1983.000000	26.830750
1984.000000	26.941310
1985.000000	27.054460
1986.000000	27.165310
1987.000000	27.276040
1988.000000	27.386990
1989.000000	27.496090
1990.000000	27.606070
1991.000000	27.714790
1992.000000	27.821700
1993.000000	27.929840
1994.000000	28.034310
1995.000000	28.134820
1996.000000	28.236850
1997.000000	28.338130
1998.000000	28.432900
1999.000000	28.527370
2000.000000	28.619180
2001.000000	28.705870
2002.000000	28.788440
2003.000000	28.871360
2004.000000	28.951030
2005.000000	29.026170
2006.000000	29.096200
2007.000000	29.160660
2008.000000	29.223480
2009.000000	29.281120
2010.000000	29.331220
2011.000000	29.378770
2012.000000	29.422080
2013.000000	29.456680
2014.000000	29.485170
2015.000000	29.510580
2016.000000	29.531770
2017.000000	29.547300
2018.000000	29.556180
2019.000000	29.559960
2020.000000	29.561590
2021.000000	29.559130
2022.000000	29.549200
2023.000000	29.533720
2024.000000	29.514930
2025.000000	29.490760
2026.000000	29.460630
2027.000000	29.425270
2028.000000	29.386930
2029.000000	29.343060
2030.000000	29.293240
2031.000000	29.235850
2032.000000	29.177170
2033.000000	29.114150
2034.000000	29.044310
2035.000000	28.968670
2036.000000	28.889160
2037.000000	28.803350
2038.000000	28.712180
2039.000000	28.616770
2040.000000	28.514800
2041.000000	28.410020
2042.000000	28.299420
2043.000000	28.183820
2044.000000	28.066010
2045.000000	27.947140
2046.000000	27.824480
2047.000000	27.702640
2048.000000	27.579620
2049.000000	27.459720
2050.000000	27.344940
2051.000000	27.236880
2052.000000	27.138180
2053.000000	27.051400
2054.000000	26.975740
2055.000000	26.913460
2056.000000	26.867060
2057.000000	26.835940
2058.000000	26.823410
2059.000000	26.827870
2060.000000	26.848950
2061.000000	26.884700
2062.000000	26.932710
2063.000000	26.992960
2064.000000	27.064250
2065.000000	27.145860
2066.000000	27.236440
2067.000000	27.335470
2068.000000	27.439500
2069.000000	27.544860
2070.000000	27.652010
2071.000000	27.761800
2072.000000	27.870750
2073.000000	27.980650
2074.000000	28.088980
2075.000000	28.192810
2076.000000	28.291460
2077.000000	28.385390
2078.000000	28.473600
2079.000000	28.557280
2080.000000	28.635730
2081.000000	28.707380
2082.000000	28.773720
2083.000000	28.832410
2084.000000	28.884570
2085.000000	28.929980
2086.000000	28.970370
2087.000000	29.004080
2088.000000	29.031120
2089.000000	29.052450
2090.000000	29.068450
2091.000000	29.078170
2092.000000	29.082510
2093.000000	29.084510
2094.000000	29.084920
2095.000000	29.083190
2096.000000	29.078070
2097.000000	29.070260
2098.000000	29.063540
2099.000000	29.059090
2100.000000	29.054210
2101.000000	29.051140
2102.000000	29.051530
2103.000000	29.052020
2104.000000	29.051750
2105.000000	29.052300
2106.000000	29.054430
2107.000000	29.059230
2108.000000	29.063310
2109.000000	29.065290
2110.000000	29.068270
2111.000000	29.070850
2112.000000	29.070860
2113.000000	29.069720
2114.000000	29.066590
2115.000000	29.062560
2116.000000	29.058440
2117.000000	29.051620
2118.000000	29.042440
2119.000000	29.031630
2120.000000	29.016010
2121.000000	28.996860
2122.000000	28.974880
2123.000000	28.949100
2124.000000	28.922750
2125.000000	28.891900
2126.000000	28.855960
2127.000000	28.816010
2128.000000	28.772660
2129.000000	28.725010
2130.000000	28.674710
2131.000000	28.619810
2132.000000	28.560730
2133.000000	28.497180
2134.000000	28.426740
2135.000000	28.353440
2136.000000	28.276920
2137.000000	28.195310
2138.000000	28.108260
2139.000000	28.016140
2140.000000	27.921070
2141.000000	27.823490
2142.000000	27.720430
2143.000000	27.614430
2144.000000	27.505870
2145.000000	27.394120
2146.000000	27.278100
2147.000000	27.159160
2148.000000	27.036700
2149.000000	26.913900
2150.000000	26.787490
2151.000000	26.656830
2152.000000	26.527290
2153.000000	26.397100
2154.000000	26.266060
2155.000000	26.135490
2156.000000	26.006710
2157.000000	25.878470
2158.000000	25.754290
2159.000000	25.632810
2160.000000	25.514760
2161.000000	25.402400
2162.000000	25.293580
2163.000000	25.189640
2164.000000	25.091370
2165.000000	24.996990
2166.000000	24.906440
2167.000000	24.822400
2168.000000	24.742160
2169.000000	24.665580
2170.000000	24.594060
2171.000000	24.526390
2172.000000	24.461570
2173.000000	24.397990
2174.000000	24.334570
2175.000000	24.276350
2176.000000	24.220310
2177.000000	24.163570
2178.000000	24.108810
2179.000000	24.055050
2180.000000	23.999070
2181.000000	23.942570
2182.000000	23.883760
2183.000000	23.821980
2184.000000	23.757330
2185.000000	23.684930
2186.000000	23.605060
2187.000000	23.519270
2188.000000	23.422410
2189.000000	23.313330
2190.000000	23.193230
2191.000000	23.058040
2192.000000	22.908810
2193.000000	22.747440
2194.000000	22.572410
2195.000000	22.379350
2196.000000	22.169320
2197.000000	21.947350
2198.000000	21.711690
2199.000000	21.463320
2200.000000	21.206280
2201.000000	20.945020
2202.000000	20.678330
2203.000000	20.409720
2204.000000	20.145360
2205.000000	19.892590
2206.000000	19.652280
2207.000000	19.425860
2208.000000	19.220450
2209.000000	19.041240
2210.000000	18.886000
2211.000000	18.757760
2212.000000	18.660820
2213.000000	18.593540
2214.000000	18.553500
2215.000000	18.541450
2216.000000	18.558780
2217.000000	18.601350
2218.000000	18.668060
2219.000000	18.753430
2220.000000	18.859340
2221.000000	18.979420
2222.000000	19.111700
2223.000000	19.254870
2224.000000	19.403360
2225.000000	19.556580
2226.000000	19.709480
2227.000000	19.862530
2228.000000	20.010540
2229.000000	20.152120
2230.000000	20.286850
2231.000000	20.414120
2232.000000	20.531840
2233.000000	20.638090
2234.000000	20.735750
2235.000000	20.821210
2236.000000	20.897280
2237.000000	20.960040
2238.000000	21.013060
2239.000000	21.054230
2240.000000	21.083350
2241.000000	21.103280
2242.000000	21.112760
2243.000000	21.114810
2244.000000	21.106450
2245.000000	21.089380
2246.000000	21.064080
2247.000000	21.033560
2248.000000	20.995460
2249.000000	20.954050
2250.000000	20.905780
2251.000000	20.852350
2252.000000	20.798370
2253.000000	20.739130
2254.000000	20.681010
2255.000000	20.622630
2256.000000	20.562220
2257.000000	20.504610
2258.000000	20.450100
2259.000000	20.396280
2260.000000	20.348710
2261.000000	20.305530
2262.000000	20.266390
2263.000000	20.235890
2264.000000	20.210900
2265.000000	20.191170
2266.000000	20.184070
2267.000000	20.182480
2268.000000	20.187730
2269.000000	20.201260
2270.000000	20.221820
2271.000000	20.249040
2272.000000	20.282130
2273.000000	20.320560
2274.000000	20.363320
2275.000000	20.409410
2276.000000	20.454390
2277.000000	20.502070
2278.000000	20.550150
2279.000000	20.599440
2280.000000	20.648340
2281.000000	20.693530
2282.000000	20.737040
2283.000000	20.775940
2284.000000	20.815420
2285.000000	20.852280
2286.000000	20.889610
2287.000000	20.921880
2288.000000	20.956110
2289.000000	20.989870
2290.000000	21.022380
2291.000000	21.056450
2292.000000	21.091160
2293.000000	21.126430
2294.000000	21.159470
2295.000000	21.197540
2296.000000	21.234970
2297.000000	21.276220
2298.000000	21.316910
2299.000000	21.358050
2300.000000	21.400830
2301.000000	21.447110
2302.000000	21.494300
2303.000000	21.543970
2304.000000	21.595480
2305.000000	21.647410
2306.000000	21.702810
2307.000000	21.758630
2308.000000	21.816730
2309.000000	21.875870
2310.000000	21.936080
2311.000000	21.996370
2312.000000	22.057900
2313.000000	22.119820
2314.000000	22.181590
2315.000000	22.242590
2316.000000	22.298740
2317.000000	22.353650
2318.000000	22.405680
2319.000000	22.456240
2320.000000	22.502780
2321.000000	22.544260
2322.000000	22.580780
2323.000000	22.612110
2324.000000	22.637090
2325.000000	22.654200
2326.000000	22.670690
2327.000000	22.681370
2328.000000	22.687760
2329.000000	22.689390
2330.000000	22.688650
2331.000000	22.686850
2332.000000	22.683710
2333.000000	22.679500
2334.000000	22.676920
2335.000000	22.676800
2336.000000	22.676510
2337.000000	22.678770
2338.000000	22.681520
2339.000000	22.687310
2340.000000	22.695540
2341.000000	22.703430
2342.000000	22.711660
2343.000000	22.723520
2344.000000	22.737020
2345.000000	22.750870
2346.000000	22.765300
2347.000000	22.781510
2348.000000	22.799090
2349.000000	22.815800
2350.000000	22.831870
2351.000000	22.851410
2352.000000	22.872120
2353.000000	22.890710
2354.000000	22.909180
2355.000000	22.929390
2356.000000	22.949200
2357.000000	22.966110
2358.000000	22.981970
2359.000000	22.996940
2360.000000	23.011080
2361.000000	23.021260
2362.000000	23.029730
2363.000000	23.037920
2364.000000	23.043170
2365.000000	23.045980
2366.000000	23.047730
2367.000000	23.048760
2368.000000	23.048640
2369.000000	23.048580
2370.000000	23.047030
2371.000000	23.045980
2372.000000	23.046000
2373.000000	23.045990
2374.000000	23.047410
2375.000000	23.049820
2376.000000	23.051290
2377.000000	23.053190
2378.000000	23.057030
2379.000000	23.060910
2380.000000	23.065530
2381.000000	23.070000
2382.000000	23.073270
2383.000000	23.076350
2384.000000	23.077660
2385.000000	23.076120
2386.000000	23.073200
2387.000000	23.068290
2388.000000	23.060080
2389.000000	23.050130
2390.000000	23.038620
2391.000000	23.023780
2392.000000	23.005610
2393.000000	22.983750
2394.000000	22.960460
2395.000000	22.935920
2396.000000	22.909080
2397.000000	22.877890
2398.000000	22.844810
2399.000000	22.810850
2400.000000	22.773680
2401.000000	22.734360
2402.000000	22.691930
2403.000000	22.646670
2404.000000	22.599080
2405.000000	22.550400
2406.000000	22.499310
2407.000000	22.448440
2408.000000	22.395370
2409.000000	22.337900
2410.000000	22.278740
2411.000000	22.217150
2412.000000	22.153810
2413.000000	22.089530
2414.000000	22.023020
2415.000000	21.950670
2416.000000	21.876960
2417.000000	21.801070
2418.000000	21.721550
2419.000000	21.638860
2420.000000	21.553480
2421.000000	21.464270
2422.000000	21.371850
2423.000000	21.276200
2424.000000	21.177030
2425.000000	21.076620
2426.000000	20.972460
2427.000000	20.865310
2428.000000	20.755830
2429.000000	20.645820
2430.000000	20.533600
2431.000000	20.421010
2432.000000	20.308170
2433.000000	20.191890
2434.000000	20.074770
2435.000000	19.956070
2436.000000	19.835040
2437.000000	19.712970
2438.000000	19.591440
2439.000000	19.465080
2440.000000	19.336580
2441.000000	19.208490
2442.000000	19.079760
2443.000000	18.952290
2444.000000	18.823480
2445.000000	18.694600
2446.000000	18.564250
2447.000000	18.436500
2448.000000	18.309290
2449.000000	18.183310
2450.000000	18.058840
2451.000000	17.935010
2452.000000	17.811320
2453.000000	17.691340
2454.000000	17.569700
2455.000000	17.449990
2456.000000	17.337550
2457.000000	17.222050
2458.000000	17.110530
2459.000000	17.003640
2460.000000	16.899120
2461.000000	16.795270
2462.000000	16.696720
2463.000000	16.600080
2464.000000	16.507530
2465.000000	16.420430
2466.000000	16.331010
2467.000000	16.248640
2468.000000	16.164170
2469.000000	16.087960
2470.000000	16.015770
2471.000000	15.945550
2472.000000	15.879680
2473.000000	15.808650
2474.000000	15.742750
2475.000000	15.680030
2476.000000	15.625510
2477.000000	15.564130
2478.000000	15.509380
2479.000000	15.446890
2480.000000	15.391740
2481.000000	15.340700
2482.000000	15.288380
2483.000000	15.244300
2484.000000	15.197860
2485.000000	15.146250
2486.000000	15.100770
2487.000000	15.063300
2488.000000	15.018450
2489.000000	14.987280
2490.000000	14.952710
2491.000000	14.922220
2492.000000	14.892710
2493.000000	14.872030
2494.000000	14.855070
2495.000000	14.835030
2496.000000	14.815680
2497.000000	14.798150
2498.000000	14.779960
2499.000000	14.753350
2500.000000	14.735470
