PE UV       SUBTECH     SPECTRUM    ASCII       PEDS        4.00        
   -1
CICIMAUCR0021-1.Sample.ASC
24/03/08
13:20:54.00
24/03/08
13:20:54.00
Vinicio Soto Monge
C. resplendens. 
250,000000
1
Lambda 1050
1050L1511233
PerkinElmer UV WinLab 6.3.2.0749 / 2.02.05 Lambda 900 UV/VIS/NIR, Aug  7 2015 09:38:08

0
0
3350/servo 860,8/2
0
0
UV/VIS
1
1
1
DoubleDePol,CommonBeamDepol,RBeamAtt,SBeamAtt,60mm sphere, WB InGaAs Detector
0
0
0
0
Program
Program
3350/servo 860,8/2
3350/0,2 860,8/0,2
3350/0,2 860,8/0,2
0
15.00
 
 
 
0
 
860,8
319,2
860,8
Front
100
on
S:100 R:100
0
0
0
0
 
0
 
 
 
0
 
 
0
0
0
0
0
 
 
 
 
0
0


0
0
#HDR
-1
-1
#GR
nm
%R
1.0
0.0
2500,000000
-1,000000
2251
8
31,927300
2,181000
#DATA

250.000000	nan
251.000000	nan
252.000000	nan
253.000000	nan
254.000000	nan
255.000000	nan
256.000000	nan
257.000000	nan
258.000000	nan
259.000000	2.628685
260.000000	2.622905
261.000000	2.617908
262.000000	2.612101
263.000000	2.602998
264.000000	2.597876
265.000000	2.589512
266.000000	2.583858
267.000000	2.572820
268.000000	2.564951
269.000000	2.554615
270.000000	2.548043
271.000000	2.543316
272.000000	2.531774
273.000000	2.524689
274.000000	2.514884
275.000000	2.509401
276.000000	2.501298
277.000000	2.500713
278.000000	2.495194
279.000000	2.487757
280.000000	2.481959
281.000000	2.474658
282.000000	2.474523
283.000000	2.471597
284.000000	2.469103
285.000000	2.462557
286.000000	2.456615
287.000000	2.449989
288.000000	2.442399
289.000000	2.443759
290.000000	2.441859
291.000000	2.441067
292.000000	2.435881
293.000000	2.429813
294.000000	2.424879
295.000000	2.421062
296.000000	2.420990
297.000000	2.419495
298.000000	2.417605
299.000000	2.405216
300.000000	2.395709
301.000000	2.388596
302.000000	2.384905
303.000000	2.382402
304.000000	2.382042
305.000000	2.380628
306.000000	2.375659
307.000000	2.373246
308.000000	2.371013
309.000000	2.378801
310.000000	2.379215
311.000000	2.380862
312.000000	2.378657
313.000000	2.373687
314.000000	2.370365
315.000000	2.371679
316.000000	2.383086
317.000000	2.452762
318.000000	2.499579
319.000000	2.516658
320.000000	2.516190
321.000000	2.550816
322.000000	2.597858
323.000000	2.641100
324.000000	2.673017
325.000000	2.681507
326.000000	2.686008
327.000000	2.629117
328.000000	2.611525
329.000000	2.603800
330.000000	2.626272
331.000000	2.613235
332.000000	2.576916
333.000000	2.558307
334.000000	2.545549
335.000000	2.541885
336.000000	2.536411
337.000000	2.536051
338.000000	2.528704
339.000000	2.516973
340.000000	2.513975
341.000000	2.506772
342.000000	2.511715
343.000000	2.508366
344.000000	2.499030
345.000000	2.507304
346.000000	2.515524
347.000000	2.521754
348.000000	2.520106
349.000000	2.531117
350.000000	2.521321
351.000000	2.515640
352.000000	2.513678
353.000000	2.511004
354.000000	2.517810
355.000000	2.519980
356.000000	2.522186
357.000000	2.520304
358.000000	2.522681
359.000000	2.527129
360.000000	2.541678
361.000000	2.555642
362.000000	2.561863
363.000000	2.569687
364.000000	2.579653
365.000000	2.589611
366.000000	2.593167
367.000000	2.597245
368.000000	2.602125
369.000000	2.610012
370.000000	2.608751
371.000000	2.603665
372.000000	2.607140
373.000000	2.595220
374.000000	2.592357
375.000000	2.594508
376.000000	2.592456
377.000000	2.570074
378.000000	2.546413
379.000000	2.523176
380.000000	2.507456
381.000000	2.494843
382.000000	2.479087
383.000000	2.479087
384.000000	2.468581
385.000000	2.453941
386.000000	2.446856
387.000000	2.463017
388.000000	2.479519
389.000000	2.498291
390.000000	2.516865
391.000000	2.535772
392.000000	2.557028
393.000000	2.578465
394.000000	2.601675
395.000000	2.625714
396.000000	2.652768
397.000000	2.682326
398.000000	2.714044
399.000000	2.747194
400.000000	2.783414
401.000000	2.822794
402.000000	2.864191
403.000000	2.909288
404.000000	2.958022
405.000000	3.010979
406.000000	3.066610
407.000000	3.126202
408.000000	3.191493
409.000000	3.261151
410.000000	3.335905
411.000000	3.416177
412.000000	3.502014
413.000000	3.593198
414.000000	3.689029
415.000000	3.790594
416.000000	3.899082
417.000000	4.013639
418.000000	4.132418
419.000000	4.256573
420.000000	4.385706
421.000000	4.519665
422.000000	4.658728
423.000000	4.801528
424.000000	4.948217
425.000000	5.098166
426.000000	5.250437
427.000000	5.405067
428.000000	5.562326
429.000000	5.720873
430.000000	5.880346
431.000000	6.040108
432.000000	6.199897
433.000000	6.359767
434.000000	6.519394
435.000000	6.677563
436.000000	6.833039
437.000000	6.986309
438.000000	7.136834
439.000000	7.284370
440.000000	7.429241
441.000000	7.571122
442.000000	7.708709
443.000000	7.841830
444.000000	7.969721
445.000000	8.092570
446.000000	8.212087
447.000000	8.327428
448.000000	8.437402
449.000000	8.542766
450.000000	8.643350
451.000000	8.738217
452.000000	8.828042
453.000000	8.914734
454.000000	8.997572
455.000000	9.075531
456.000000	9.149105
457.000000	9.218412
458.000000	9.284693
459.000000	9.346780
460.000000	9.403725
461.000000	9.457348
462.000000	9.508288
463.000000	9.553791
464.000000	9.595394
465.000000	9.634567
466.000000	9.670319
467.000000	9.700669
468.000000	9.725941
469.000000	9.747891
470.000000	9.766041
471.000000	9.779123
472.000000	9.786370
473.000000	9.788234
474.000000	9.783957
475.000000	9.772713
476.000000	9.754571
477.000000	9.731595
478.000000	9.702406
479.000000	9.666583
480.000000	9.623952
481.000000	9.575011
482.000000	9.520731
483.000000	9.461985
484.000000	9.400898
485.000000	9.338938
486.000000	9.277032
487.000000	9.216134
488.000000	9.156848
489.000000	9.101019
490.000000	9.052303
491.000000	9.010321
492.000000	8.977468
493.000000	8.956095
494.000000	8.945786
495.000000	8.948199
496.000000	8.964134
497.000000	8.993998
498.000000	9.041643
499.000000	9.107087
500.000000	9.188557
501.000000	9.289339
502.000000	9.408650
503.000000	9.544076
504.000000	9.695276
505.000000	9.862510
506.000000	10.043106
507.000000	10.236225
508.000000	10.437959
509.000000	10.647968
510.000000	10.864901
511.000000	11.085371
512.000000	11.306580
513.000000	11.527987
514.000000	11.748583
515.000000	11.966200
516.000000	12.180467
517.000000	12.391052
518.000000	12.599009
519.000000	12.804057
520.000000	13.007790
521.000000	13.211641
522.000000	13.415726
523.000000	13.621809
524.000000	13.832214
525.000000	14.048750
526.000000	14.272849
527.000000	14.506275
528.000000	14.750839
529.000000	15.005890
530.000000	15.272412
531.000000	15.550684
532.000000	15.844566
533.000000	16.152665
534.000000	16.476384
535.000000	16.813978
536.000000	17.165490
537.000000	17.529345
538.000000	17.903942
539.000000	18.288235
540.000000	18.682143
541.000000	19.083678
542.000000	19.490676
543.000000	19.900575
544.000000	20.312408
545.000000	20.721991
546.000000	21.130575
547.000000	21.534720
548.000000	21.933436
549.000000	22.326282
550.000000	22.710008
551.000000	23.083812
552.000000	23.445813
553.000000	23.797514
554.000000	24.136728
555.000000	24.463959
556.000000	24.775218
557.000000	25.074016
558.000000	25.361551
559.000000	25.632548
560.000000	25.823911
561.000000	25.995053
562.000000	26.150764
563.000000	26.295841
564.000000	26.427297
565.000000	26.547670
566.000000	26.657347
567.000000	26.758732
568.000000	26.844938
569.000000	26.927632
570.000000	27.069667
571.000000	27.211188
572.000000	27.345849
573.000000	27.471822
574.000000	27.591016
575.000000	27.701638
576.000000	27.809650
577.000000	27.907551
578.000000	28.001787
579.000000	28.088092
580.000000	28.166897
581.000000	28.239634
582.000000	28.307707
583.000000	28.368731
584.000000	28.423362
585.000000	28.477652
586.000000	28.521605
587.000000	28.560175
588.000000	28.594324
589.000000	28.625341
590.000000	28.648902
591.000000	28.670762
592.000000	28.687256
593.000000	28.697861
594.000000	28.706550
595.000000	28.703939
596.000000	28.702588
597.000000	28.696331
598.000000	28.685473
599.000000	28.665702
600.000000	28.642753
601.000000	28.610134
602.000000	28.574148
603.000000	28.533238
604.000000	28.483909
605.000000	28.430745
606.000000	28.370064
607.000000	28.304619
608.000000	28.231360
609.000000	28.153572
610.000000	28.070239
611.000000	27.981278
612.000000	27.884998
613.000000	27.783946
614.000000	27.682488
615.000000	27.574810
616.000000	27.459245
617.000000	27.339448
618.000000	27.217563
619.000000	27.090357
620.000000	26.957865
621.000000	26.821809
622.000000	26.681098
623.000000	26.535507
624.000000	26.381273
625.000000	26.225995
626.000000	26.064918
627.000000	25.901699
628.000000	25.734077
629.000000	25.565006
630.000000	25.395521
631.000000	25.224397
632.000000	25.053714
633.000000	24.882293
634.000000	24.711934
635.000000	24.540162
636.000000	24.371406
637.000000	24.203451
638.000000	24.036909
639.000000	23.867496
640.000000	23.695643
641.000000	23.521755
642.000000	23.344590
643.000000	23.165129
644.000000	22.980023
645.000000	22.791289
646.000000	22.598935
647.000000	22.401180
648.000000	22.199103
649.000000	21.996206
650.000000	21.792950
651.000000	21.585174
652.000000	21.377704
653.000000	21.172629
654.000000	20.967230
655.000000	20.764540
656.000000	20.566452
657.000000	20.370884
658.000000	20.177135
659.000000	19.987717
660.000000	19.800621
661.000000	19.620782
662.000000	19.444535
663.000000	19.269126
664.000000	19.099226
665.000000	18.935089
666.000000	18.773679
667.000000	18.619463
668.000000	18.472981
669.000000	18.334710
670.000000	18.203857
671.000000	18.083862
672.000000	17.976949
673.000000	17.884945
674.000000	17.809868
675.000000	17.749096
676.000000	17.704062
677.000000	17.673550
678.000000	17.659424
679.000000	17.659946
680.000000	17.679402
681.000000	17.714631
682.000000	17.764707
683.000000	17.828684
684.000000	17.905130
685.000000	17.993353
686.000000	18.092397
687.000000	18.201417
688.000000	18.318054
689.000000	18.440263
690.000000	18.569333
691.000000	18.704804
692.000000	18.842752
693.000000	18.986110
694.000000	19.130485
695.000000	19.275617
696.000000	19.423324
697.000000	19.571300
698.000000	19.718791
699.000000	19.869757
700.000000	20.017949
701.000000	20.161226
702.000000	20.301370
703.000000	20.438030
704.000000	20.572601
705.000000	20.703589
706.000000	20.829246
707.000000	20.949583
708.000000	21.065220
709.000000	21.174844
710.000000	21.278741
711.000000	21.381476
712.000000	21.480394
713.000000	21.574163
714.000000	21.663196
715.000000	21.743873
716.000000	21.818330
717.000000	21.891607
718.000000	21.963795
719.000000	22.029383
720.000000	22.092568
721.000000	22.151629
722.000000	22.204820
723.000000	22.252753
724.000000	22.297589
725.000000	22.343046
726.000000	22.385496
727.000000	22.421887
728.000000	22.452696
729.000000	22.482767
730.000000	22.510641
731.000000	22.530421
732.000000	22.549859
733.000000	22.567253
734.000000	22.579767
735.000000	22.590535
736.000000	22.600646
737.000000	22.610126
738.000000	22.616978
739.000000	22.619813
740.000000	22.621929
741.000000	22.623424
742.000000	22.620381
743.000000	22.618985
744.000000	22.617310
745.000000	22.612728
746.000000	22.604265
747.000000	22.592147
748.000000	22.580046
749.000000	22.567478
750.000000	22.553919
751.000000	22.543007
752.000000	22.535598
753.000000	22.526963
754.000000	22.522111
755.000000	22.521228
756.000000	22.524055
757.000000	22.532473
758.000000	22.544898
759.000000	22.563417
760.000000	22.585610
761.000000	22.616446
762.000000	22.649110
763.000000	22.677956
764.000000	22.709729
765.000000	22.746344
766.000000	22.792828
767.000000	22.841391
768.000000	22.889280
769.000000	22.945459
770.000000	23.007294
771.000000	23.070199
772.000000	23.140199
773.000000	23.218932
774.000000	23.301131
775.000000	23.392784
776.000000	23.489694
777.000000	23.589621
778.000000	23.698434
779.000000	23.815466
780.000000	23.935389
781.000000	24.057806
782.000000	24.185714
783.000000	24.318503
784.000000	24.456783
785.000000	24.593425
786.000000	24.724431
787.000000	24.859929
788.000000	25.006015
789.000000	25.141108
790.000000	25.277696
791.000000	25.415940
792.000000	25.553041
793.000000	25.690106
794.000000	25.827017
795.000000	25.957276
796.000000	26.087615
797.000000	26.219737
798.000000	26.343279
799.000000	26.466488
800.000000	26.585322
801.000000	26.699266
802.000000	26.807503
803.000000	26.915856
804.000000	27.017070
805.000000	27.119527
806.000000	27.219183
807.000000	27.311052
808.000000	27.399149
809.000000	27.485246
810.000000	27.562710
811.000000	27.638130
812.000000	27.715413
813.000000	27.784999
814.000000	27.860869
815.000000	27.927529
816.000000	27.994018
817.000000	28.056032
818.000000	28.111662
819.000000	28.166069
820.000000	28.219854
821.000000	28.264114
822.000000	28.304223
823.000000	28.346340
824.000000	28.373881
825.000000	28.403718
826.000000	28.432294
827.000000	28.465273
828.000000	28.487376
829.000000	28.519211
830.000000	28.536101
831.000000	28.546617
832.000000	28.558024
833.000000	28.563561
834.000000	28.563336
835.000000	28.550929
836.000000	28.540539
837.000000	28.525504
838.000000	28.506327
839.000000	28.471188
840.000000	28.442602
841.000000	28.406059
842.000000	28.363113
843.000000	28.299650
844.000000	28.250375
845.000000	28.215145
846.000000	28.152582
847.000000	28.090739
848.000000	28.028302
849.000000	27.962092
850.000000	27.887411
851.000000	27.825000
852.000000	27.772377
853.000000	27.723885
854.000000	27.660386
855.000000	27.561017
856.000000	27.478629
857.000000	27.416282
858.000000	27.164498
859.000000	27.162312
860.000000	27.184175
861.000000	27.227087
862.000000	27.280403
863.000000	27.369029
864.000000	27.485275
865.000000	27.643676
866.000000	27.820549
867.000000	27.984925
868.000000	28.369050
869.000000	28.515110
870.000000	28.667060
871.000000	28.817330
872.000000	28.963270
873.000000	29.101530
874.000000	29.236170
875.000000	29.370150
876.000000	29.494140
877.000000	29.614170
878.000000	29.731380
879.000000	29.848600
880.000000	29.964380
881.000000	30.072170
882.000000	30.166010
883.000000	30.253350
884.000000	30.334180
885.000000	30.409140
886.000000	30.478180
887.000000	30.541230
888.000000	30.587740
889.000000	30.629960
890.000000	30.658230
891.000000	30.677930
892.000000	30.692120
893.000000	30.700050
894.000000	30.693110
895.000000	30.679350
896.000000	30.658980
897.000000	30.637590
898.000000	30.612350
899.000000	30.579710
900.000000	30.540630
901.000000	30.494790
902.000000	30.448110
903.000000	30.400170
904.000000	30.348450
905.000000	30.291170
906.000000	30.235130
907.000000	30.175860
908.000000	30.112520
909.000000	30.049570
910.000000	29.984610
911.000000	29.922960
912.000000	29.862700
913.000000	29.798300
914.000000	29.738900
915.000000	29.677850
916.000000	29.615330
917.000000	29.551480
918.000000	29.489370
919.000000	29.424940
920.000000	29.361200
921.000000	29.295510
922.000000	29.225730
923.000000	29.154780
924.000000	29.076670
925.000000	29.003770
926.000000	28.930170
927.000000	28.854010
928.000000	28.777400
929.000000	28.699350
930.000000	28.623240
931.000000	28.547830
932.000000	28.470860
933.000000	28.395210
934.000000	28.324860
935.000000	28.251800
936.000000	28.180520
937.000000	28.114270
938.000000	28.051010
939.000000	27.989350
940.000000	27.929820
941.000000	27.872250
942.000000	27.822130
943.000000	27.773910
944.000000	27.729390
945.000000	27.688420
946.000000	27.649630
947.000000	27.612370
948.000000	27.581540
949.000000	27.554030
950.000000	27.530040
951.000000	27.511460
952.000000	27.492330
953.000000	27.479450
954.000000	27.467920
955.000000	27.459700
956.000000	27.452470
957.000000	27.445560
958.000000	27.437290
959.000000	27.428840
960.000000	27.419620
961.000000	27.406990
962.000000	27.393500
963.000000	27.374560
964.000000	27.355190
965.000000	27.333540
966.000000	27.311560
967.000000	27.289070
968.000000	27.265350
969.000000	27.242980
970.000000	27.220470
971.000000	27.196580
972.000000	27.174930
973.000000	27.155700
974.000000	27.134070
975.000000	27.112330
976.000000	27.090840
977.000000	27.069470
978.000000	27.048080
979.000000	27.026080
980.000000	27.004560
981.000000	26.983820
982.000000	26.962140
983.000000	26.941150
984.000000	26.920310
985.000000	26.899960
986.000000	26.880440
987.000000	26.860930
988.000000	26.839920
989.000000	26.818140
990.000000	26.796270
991.000000	26.774790
992.000000	26.752720
993.000000	26.729760
994.000000	26.707060
995.000000	26.682760
996.000000	26.658870
997.000000	26.635690
998.000000	26.613810
999.000000	26.591900
1000.000000	26.568980
1001.000000	26.546360
1002.000000	26.523360
1003.000000	26.501200
1004.000000	26.480770
1005.000000	26.462930
1006.000000	26.444460
1007.000000	26.423370
1008.000000	26.400960
1009.000000	26.380270
1010.000000	26.361050
1011.000000	26.343260
1012.000000	26.325050
1013.000000	26.305650
1014.000000	26.287550
1015.000000	26.271150
1016.000000	26.256910
1017.000000	26.248480
1018.000000	26.245350
1019.000000	26.244100
1020.000000	26.244330
1021.000000	26.247710
1022.000000	26.257130
1023.000000	26.271330
1024.000000	26.287310
1025.000000	26.306910
1026.000000	26.328790
1027.000000	26.350420
1028.000000	26.373160
1029.000000	26.397950
1030.000000	26.424220
1031.000000	26.450370
1032.000000	26.476250
1033.000000	26.502720
1034.000000	26.528940
1035.000000	26.552750
1036.000000	26.575460
1037.000000	26.596640
1038.000000	26.616230
1039.000000	26.634030
1040.000000	26.651100
1041.000000	26.667620
1042.000000	26.681390
1043.000000	26.693060
1044.000000	26.705420
1045.000000	26.717690
1046.000000	26.728840
1047.000000	26.740230
1048.000000	26.751090
1049.000000	26.762170
1050.000000	26.771590
1051.000000	26.779790
1052.000000	26.787760
1053.000000	26.796760
1054.000000	26.805880
1055.000000	26.815590
1056.000000	26.825850
1057.000000	26.835470
1058.000000	26.844780
1059.000000	26.853450
1060.000000	26.864080
1061.000000	26.876540
1062.000000	26.891450
1063.000000	26.905930
1064.000000	26.918900
1065.000000	26.932410
1066.000000	26.946480
1067.000000	26.961430
1068.000000	26.977480
1069.000000	26.993900
1070.000000	27.010440
1071.000000	27.027390
1072.000000	27.043750
1073.000000	27.061210
1074.000000	27.080710
1075.000000	27.100300
1076.000000	27.120500
1077.000000	27.139470
1078.000000	27.159090
1079.000000	27.180090
1080.000000	27.201710
1081.000000	27.222660
1082.000000	27.244190
1083.000000	27.267080
1084.000000	27.289280
1085.000000	27.310670
1086.000000	27.334080
1087.000000	27.361790
1088.000000	27.388330
1089.000000	27.413080
1090.000000	27.438290
1091.000000	27.465640
1092.000000	27.492200
1093.000000	27.515380
1094.000000	27.539290
1095.000000	27.564250
1096.000000	27.586800
1097.000000	27.607830
1098.000000	27.627510
1099.000000	27.646890
1100.000000	27.665730
1101.000000	27.679660
1102.000000	27.693870
1103.000000	27.709430
1104.000000	27.722790
1105.000000	27.732160
1106.000000	27.740610
1107.000000	27.747030
1108.000000	27.752630
1109.000000	27.758440
1110.000000	27.762930
1111.000000	27.766920
1112.000000	27.768450
1113.000000	27.768730
1114.000000	27.769630
1115.000000	27.771520
1116.000000	27.772390
1117.000000	27.772220
1118.000000	27.772100
1119.000000	27.770010
1120.000000	27.765110
1121.000000	27.759390
1122.000000	27.752960
1123.000000	27.743340
1124.000000	27.728590
1125.000000	27.710300
1126.000000	27.687500
1127.000000	27.658420
1128.000000	27.625000
1129.000000	27.586190
1130.000000	27.539110
1131.000000	27.480140
1132.000000	27.410830
1133.000000	27.329110
1134.000000	27.235420
1135.000000	27.135020
1136.000000	27.020560
1137.000000	26.893250
1138.000000	26.752860
1139.000000	26.599960
1140.000000	26.440750
1141.000000	26.280640
1142.000000	26.113790
1143.000000	25.946390
1144.000000	25.778930
1145.000000	25.613430
1146.000000	25.454830
1147.000000	25.311040
1148.000000	25.183260
1149.000000	25.075310
1150.000000	24.982190
1151.000000	24.907580
1152.000000	24.850710
1153.000000	24.807820
1154.000000	24.777780
1155.000000	24.752080
1156.000000	24.730290
1157.000000	24.700680
1158.000000	24.659740
1159.000000	24.601680
1160.000000	24.526720
1161.000000	24.431670
1162.000000	24.319990
1163.000000	24.189870
1164.000000	24.046050
1165.000000	23.885550
1166.000000	23.713660
1167.000000	23.535700
1168.000000	23.353760
1169.000000	23.174270
1170.000000	22.991830
1171.000000	22.807430
1172.000000	22.625050
1173.000000	22.446360
1174.000000	22.269570
1175.000000	22.097170
1176.000000	21.929240
1177.000000	21.765040
1178.000000	21.600040
1179.000000	21.429190
1180.000000	21.255720
1181.000000	21.077330
1182.000000	20.890400
1183.000000	20.697550
1184.000000	20.501310
1185.000000	20.308780
1186.000000	20.124700
1187.000000	19.959950
1188.000000	19.819610
1189.000000	19.712590
1190.000000	19.648530
1191.000000	19.628080
1192.000000	19.652970
1193.000000	19.721190
1194.000000	19.826550
1195.000000	19.958280
1196.000000	20.109290
1197.000000	20.264210
1198.000000	20.420390
1199.000000	20.567320
1200.000000	20.699990
1201.000000	20.813990
1202.000000	20.907150
1203.000000	20.979980
1204.000000	21.034850
1205.000000	21.074950
1206.000000	21.106710
1207.000000	21.131850
1208.000000	21.152020
1209.000000	21.172440
1210.000000	21.191820
1211.000000	21.214940
1212.000000	21.243630
1213.000000	21.275150
1214.000000	21.310220
1215.000000	21.354770
1216.000000	21.400950
1217.000000	21.452190
1218.000000	21.505470
1219.000000	21.561930
1220.000000	21.622960
1221.000000	21.685970
1222.000000	21.752230
1223.000000	21.823080
1224.000000	21.895810
1225.000000	21.968580
1226.000000	22.044160
1227.000000	22.121010
1228.000000	22.200590
1229.000000	22.280060
1230.000000	22.359510
1231.000000	22.441290
1232.000000	22.520100
1233.000000	22.597150
1234.000000	22.675460
1235.000000	22.753010
1236.000000	22.827700
1237.000000	22.901860
1238.000000	22.974990
1239.000000	23.047700
1240.000000	23.119680
1241.000000	23.187110
1242.000000	23.255260
1243.000000	23.323260
1244.000000	23.387460
1245.000000	23.448920
1246.000000	23.510610
1247.000000	23.571220
1248.000000	23.629840
1249.000000	23.686540
1250.000000	23.739790
1251.000000	23.792190
1252.000000	23.841090
1253.000000	23.888190
1254.000000	23.934950
1255.000000	23.979910
1256.000000	24.023220
1257.000000	24.061810
1258.000000	24.100260
1259.000000	24.136630
1260.000000	24.173990
1261.000000	24.210370
1262.000000	24.247280
1263.000000	24.282030
1264.000000	24.314890
1265.000000	24.345800
1266.000000	24.375150
1267.000000	24.407150
1268.000000	24.437610
1269.000000	24.467550
1270.000000	24.494550
1271.000000	24.521200
1272.000000	24.546030
1273.000000	24.569750
1274.000000	24.593090
1275.000000	24.618140
1276.000000	24.643370
1277.000000	24.666870
1278.000000	24.690450
1279.000000	24.715630
1280.000000	24.741730
1281.000000	24.766950
1282.000000	24.791890
1283.000000	24.819920
1284.000000	24.850710
1285.000000	24.882540
1286.000000	24.914770
1287.000000	24.947100
1288.000000	24.980550
1289.000000	25.014840
1290.000000	25.047670
1291.000000	25.079640
1292.000000	25.110450
1293.000000	25.138390
1294.000000	25.164030
1295.000000	25.187440
1296.000000	25.210570
1297.000000	25.232630
1298.000000	25.251550
1299.000000	25.265890
1300.000000	25.279990
1301.000000	25.294430
1302.000000	25.306840
1303.000000	25.317610
1304.000000	25.328070
1305.000000	25.338260
1306.000000	25.346060
1307.000000	25.350550
1308.000000	25.352280
1309.000000	25.352930
1310.000000	25.350820
1311.000000	25.344960
1312.000000	25.337250
1313.000000	25.328120
1314.000000	25.316070
1315.000000	25.299230
1316.000000	25.277520
1317.000000	25.253680
1318.000000	25.227740
1319.000000	25.199630
1320.000000	25.169460
1321.000000	25.136090
1322.000000	25.100840
1323.000000	25.060940
1324.000000	25.015630
1325.000000	24.968480
1326.000000	24.920540
1327.000000	24.871470
1328.000000	24.819380
1329.000000	24.762270
1330.000000	24.701260
1331.000000	24.638240
1332.000000	24.571010
1333.000000	24.498870
1334.000000	24.425260
1335.000000	24.349400
1336.000000	24.268670
1337.000000	24.180470
1338.000000	24.087340
1339.000000	23.989550
1340.000000	23.886600
1341.000000	23.778960
1342.000000	23.667430
1343.000000	23.553030
1344.000000	23.433840
1345.000000	23.306890
1346.000000	23.170740
1347.000000	23.030100
1348.000000	22.883520
1349.000000	22.728260
1350.000000	22.563620
1351.000000	22.387450
1352.000000	22.198490
1353.000000	21.995420
1354.000000	21.777390
1355.000000	21.550760
1356.000000	21.325430
1357.000000	21.103800
1358.000000	20.890860
1359.000000	20.693960
1360.000000	20.512580
1361.000000	20.354220
1362.000000	20.219930
1363.000000	20.106570
1364.000000	20.009130
1365.000000	19.927770
1366.000000	19.850170
1367.000000	19.772650
1368.000000	19.691110
1369.000000	19.596130
1370.000000	19.488390
1371.000000	19.361520
1372.000000	19.212280
1373.000000	19.040810
1374.000000	18.853130
1375.000000	18.644820
1376.000000	18.427220
1377.000000	18.202530
1378.000000	17.973530
1379.000000	17.747870
1380.000000	17.525470
1381.000000	17.313810
1382.000000	17.116060
1383.000000	16.937150
1384.000000	16.772660
1385.000000	16.621460
1386.000000	16.481850
1387.000000	16.355970
1388.000000	16.243330
1389.000000	16.143520
1390.000000	16.056600
1391.000000	15.976930
1392.000000	15.909890
1393.000000	15.853390
1394.000000	15.811800
1395.000000	15.789090
1396.000000	15.783230
1397.000000	15.780700
1398.000000	15.774890
1399.000000	15.765400
1400.000000	15.755290
1401.000000	15.746410
1402.000000	15.721040
1403.000000	15.678130
1404.000000	15.623360
1405.000000	15.554920
1406.000000	15.467190
1407.000000	15.369750
1408.000000	15.266400
1409.000000	15.159880
1410.000000	15.045890
1411.000000	14.923080
1412.000000	14.802180
1413.000000	14.692210
1414.000000	14.587260
1415.000000	14.485600
1416.000000	14.385710
1417.000000	14.292420
1418.000000	14.204750
1419.000000	14.119450
1420.000000	14.035040
1421.000000	13.949160
1422.000000	13.866040
1423.000000	13.780470
1424.000000	13.691730
1425.000000	13.600600
1426.000000	13.511560
1427.000000	13.419950
1428.000000	13.327480
1429.000000	13.236010
1430.000000	13.145870
1431.000000	13.058110
1432.000000	12.974980
1433.000000	12.894340
1434.000000	12.816120
1435.000000	12.741260
1436.000000	12.669580
1437.000000	12.600040
1438.000000	12.535120
1439.000000	12.470940
1440.000000	12.408080
1441.000000	12.346380
1442.000000	12.286800
1443.000000	12.224680
1444.000000	12.163410
1445.000000	12.102270
1446.000000	12.042650
1447.000000	11.984670
1448.000000	11.923770
1449.000000	11.863350
1450.000000	11.804130
1451.000000	11.747410
1452.000000	11.690040
1453.000000	11.635230
1454.000000	11.581770
1455.000000	11.528260
1456.000000	11.475200
1457.000000	11.424000
1458.000000	11.376520
1459.000000	11.329470
1460.000000	11.282390
1461.000000	11.237520
1462.000000	11.192080
1463.000000	11.151540
1464.000000	11.110990
1465.000000	11.073230
1466.000000	11.038330
1467.000000	11.004160
1468.000000	10.970450
1469.000000	10.937200
1470.000000	10.910880
1471.000000	10.885270
1472.000000	10.861640
1473.000000	10.837980
1474.000000	10.817370
1475.000000	10.796630
1476.000000	10.773240
1477.000000	10.751990
1478.000000	10.731590
1479.000000	10.713880
1480.000000	10.691790
1481.000000	10.671030
1482.000000	10.651510
1483.000000	10.628260
1484.000000	10.607080
1485.000000	10.586110
1486.000000	10.570490
1487.000000	10.553760
1488.000000	10.539180
1489.000000	10.524990
1490.000000	10.514630
1491.000000	10.503780
1492.000000	10.492470
1493.000000	10.483600
1494.000000	10.474780
1495.000000	10.469230
1496.000000	10.461340
1497.000000	10.457510
1498.000000	10.451430
1499.000000	10.445080
1500.000000	10.439760
1501.000000	10.437020
1502.000000	10.437520
1503.000000	10.441470
1504.000000	10.443060
1505.000000	10.445780
1506.000000	10.452120
1507.000000	10.458570
1508.000000	10.468040
1509.000000	10.479900
1510.000000	10.489390
1511.000000	10.500450
1512.000000	10.510530
1513.000000	10.521260
1514.000000	10.532880
1515.000000	10.546680
1516.000000	10.560250
1517.000000	10.571050
1518.000000	10.581740
1519.000000	10.591590
1520.000000	10.603630
1521.000000	10.615040
1522.000000	10.626790
1523.000000	10.637020
1524.000000	10.647970
1525.000000	10.656360
1526.000000	10.665810
1527.000000	10.676390
1528.000000	10.686050
1529.000000	10.696280
1530.000000	10.706310
1531.000000	10.713720
1532.000000	10.720370
1533.000000	10.727670
1534.000000	10.734620
1535.000000	10.739900
1536.000000	10.743120
1537.000000	10.745340
1538.000000	10.747890
1539.000000	10.749890
1540.000000	10.750910
1541.000000	10.751790
1542.000000	10.752320
1543.000000	10.751260
1544.000000	10.749490
1545.000000	10.749290
1546.000000	10.748430
1547.000000	10.747290
1548.000000	10.745380
1549.000000	10.742240
1550.000000	10.739840
1551.000000	10.739170
1552.000000	10.738260
1553.000000	10.738260
1554.000000	10.738500
1555.000000	10.738010
1556.000000	10.738060
1557.000000	10.735940
1558.000000	10.733680
1559.000000	10.731310
1560.000000	10.726300
1561.000000	10.718470
1562.000000	10.709310
1563.000000	10.700760
1564.000000	10.691160
1565.000000	10.679100
1566.000000	10.665060
1567.000000	10.651620
1568.000000	10.638710
1569.000000	10.626360
1570.000000	10.614450
1571.000000	10.602050
1572.000000	10.589440
1573.000000	10.574870
1574.000000	10.562340
1575.000000	10.551770
1576.000000	10.542000
1577.000000	10.534160
1578.000000	10.526910
1579.000000	10.519080
1580.000000	10.513550
1581.000000	10.511680
1582.000000	10.511990
1583.000000	10.514760
1584.000000	10.519240
1585.000000	10.524920
1586.000000	10.530490
1587.000000	10.536880
1588.000000	10.545730
1589.000000	10.557840
1590.000000	10.572970
1591.000000	10.586910
1592.000000	10.601190
1593.000000	10.618030
1594.000000	10.634910
1595.000000	10.653680
1596.000000	10.676450
1597.000000	10.700900
1598.000000	10.725150
1599.000000	10.749290
1600.000000	10.773450
1601.000000	10.800450
1602.000000	10.829420
1603.000000	10.857760
1604.000000	10.887270
1605.000000	10.917750
1606.000000	10.947770
1607.000000	10.977270
1608.000000	11.008940
1609.000000	11.043130
1610.000000	11.076880
1611.000000	11.108790
1612.000000	11.141360
1613.000000	11.173980
1614.000000	11.208040
1615.000000	11.241290
1616.000000	11.275760
1617.000000	11.313510
1618.000000	11.349440
1619.000000	11.383900
1620.000000	11.417510
1621.000000	11.454460
1622.000000	11.490430
1623.000000	11.528200
1624.000000	11.564120
1625.000000	11.601110
1626.000000	11.639130
1627.000000	11.675320
1628.000000	11.714150
1629.000000	11.753500
1630.000000	11.794390
1631.000000	11.834760
1632.000000	11.875410
1633.000000	11.914110
1634.000000	11.952780
1635.000000	11.992280
1636.000000	12.030830
1637.000000	12.070130
1638.000000	12.107030
1639.000000	12.141510
1640.000000	12.174570
1641.000000	12.208030
1642.000000	12.239900
1643.000000	12.272550
1644.000000	12.305250
1645.000000	12.334670
1646.000000	12.362220
1647.000000	12.389120
1648.000000	12.414950
1649.000000	12.441810
1650.000000	12.466820
1651.000000	12.491360
1652.000000	12.512340
1653.000000	12.530370
1654.000000	12.547110
1655.000000	12.562230
1656.000000	12.576420
1657.000000	12.585900
1658.000000	12.593020
1659.000000	12.595960
1660.000000	12.596030
1661.000000	12.591190
1662.000000	12.586700
1663.000000	12.577300
1664.000000	12.564970
1665.000000	12.550000
1666.000000	12.526490
1667.000000	12.499610
1668.000000	12.465990
1669.000000	12.426280
1670.000000	12.379940
1671.000000	12.325310
1672.000000	12.259310
1673.000000	12.186360
1674.000000	12.101760
1675.000000	12.005990
1676.000000	11.897440
1677.000000	11.769550
1678.000000	11.625150
1679.000000	11.460970
1680.000000	11.279200
1681.000000	11.078560
1682.000000	10.870640
1683.000000	10.659450
1684.000000	10.450010
1685.000000	10.250310
1686.000000	10.069870
1687.000000	9.914280
1688.000000	9.781750
1689.000000	9.672940
1690.000000	9.586620
1691.000000	9.519910
1692.000000	9.466540
1693.000000	9.421770
1694.000000	9.381990
1695.000000	9.342890
1696.000000	9.304660
1697.000000	9.269820
1698.000000	9.241000
1699.000000	9.222480
1700.000000	9.215370
1701.000000	9.224650
1702.000000	9.248230
1703.000000	9.280330
1704.000000	9.325130
1705.000000	9.374790
1706.000000	9.424450
1707.000000	9.471840
1708.000000	9.516200
1709.000000	9.555420
1710.000000	9.585560
1711.000000	9.608320
1712.000000	9.622010
1713.000000	9.631540
1714.000000	9.631800
1715.000000	9.628620
1716.000000	9.622730
1717.000000	9.611390
1718.000000	9.596600
1719.000000	9.580850
1720.000000	9.564290
1721.000000	9.545660
1722.000000	9.526530
1723.000000	9.510000
1724.000000	9.495680
1725.000000	9.481560
1726.000000	9.466160
1727.000000	9.449370
1728.000000	9.429610
1729.000000	9.404560
1730.000000	9.373880
1731.000000	9.340870
1732.000000	9.306290
1733.000000	9.267700
1734.000000	9.229120
1735.000000	9.193290
1736.000000	9.168600
1737.000000	9.154050
1738.000000	9.153890
1739.000000	9.169450
1740.000000	9.205350
1741.000000	9.255990
1742.000000	9.324130
1743.000000	9.403320
1744.000000	9.493030
1745.000000	9.590330
1746.000000	9.688260
1747.000000	9.785440
1748.000000	9.877610
1749.000000	9.964280
1750.000000	10.042090
1751.000000	10.113530
1752.000000	10.171870
1753.000000	10.221750
1754.000000	10.262050
1755.000000	10.293140
1756.000000	10.316910
1757.000000	10.333600
1758.000000	10.343120
1759.000000	10.344930
1760.000000	10.337380
1761.000000	10.322010
1762.000000	10.303320
1763.000000	10.286330
1764.000000	10.270020
1765.000000	10.254790
1766.000000	10.243370
1767.000000	10.240340
1768.000000	10.243900
1769.000000	10.255040
1770.000000	10.279960
1771.000000	10.315030
1772.000000	10.358720
1773.000000	10.409420
1774.000000	10.463630
1775.000000	10.524730
1776.000000	10.588170
1777.000000	10.649570
1778.000000	10.712670
1779.000000	10.775870
1780.000000	10.833170
1781.000000	10.887810
1782.000000	10.941680
1783.000000	10.991200
1784.000000	11.041000
1785.000000	11.088390
1786.000000	11.132940
1787.000000	11.176240
1788.000000	11.215620
1789.000000	11.253240
1790.000000	11.291100
1791.000000	11.326580
1792.000000	11.359790
1793.000000	11.393100
1794.000000	11.424130
1795.000000	11.451950
1796.000000	11.477160
1797.000000	11.501720
1798.000000	11.526100
1799.000000	11.548520
1800.000000	11.569790
1801.000000	11.593360
1802.000000	11.617440
1803.000000	11.638880
1804.000000	11.658190
1805.000000	11.677520
1806.000000	11.699940
1807.000000	11.724400
1808.000000	11.747760
1809.000000	11.769100
1810.000000	11.790510
1811.000000	11.811700
1812.000000	11.831920
1813.000000	11.851330
1814.000000	11.868660
1815.000000	11.885950
1816.000000	11.900680
1817.000000	11.909460
1818.000000	11.914460
1819.000000	11.918930
1820.000000	11.926580
1821.000000	11.935210
1822.000000	11.943830
1823.000000	11.951800
1824.000000	11.959700
1825.000000	11.965850
1826.000000	11.974070
1827.000000	11.987660
1828.000000	12.008830
1829.000000	12.036080
1830.000000	12.062240
1831.000000	12.088710
1832.000000	12.116390
1833.000000	12.144630
1834.000000	12.175280
1835.000000	12.208960
1836.000000	12.243340
1837.000000	12.279560
1838.000000	12.315200
1839.000000	12.347500
1840.000000	12.379420
1841.000000	12.411190
1842.000000	12.443840
1843.000000	12.477120
1844.000000	12.508600
1845.000000	12.533260
1846.000000	12.553140
1847.000000	12.574160
1848.000000	12.601140
1849.000000	12.634600
1850.000000	12.666000
1851.000000	12.691960
1852.000000	12.712800
1853.000000	12.734560
1854.000000	12.761940
1855.000000	12.796670
1856.000000	12.834270
1857.000000	12.864870
1858.000000	12.885150
1859.000000	12.901750
1860.000000	12.920390
1861.000000	12.940120
1862.000000	12.959770
1863.000000	12.975500
1864.000000	12.981870
1865.000000	12.978560
1866.000000	12.966820
1867.000000	12.950990
1868.000000	12.931070
1869.000000	12.898710
1870.000000	12.860230
1871.000000	12.818910
1872.000000	12.771560
1873.000000	12.717130
1874.000000	12.658820
1875.000000	12.594010
1876.000000	12.521140
1877.000000	12.438490
1878.000000	12.344510
1879.000000	12.238840
1880.000000	12.117050
1881.000000	11.977720
1882.000000	11.824260
1883.000000	11.661810
1884.000000	11.489470
1885.000000	11.311820
1886.000000	11.133560
1887.000000	10.953540
1888.000000	10.772820
1889.000000	10.597440
1890.000000	10.429260
1891.000000	10.270130
1892.000000	10.121160
1893.000000	9.978340
1894.000000	9.840500
1895.000000	9.708720
1896.000000	9.578410
1897.000000	9.450530
1898.000000	9.325390
1899.000000	9.202990
1900.000000	9.080200
1901.000000	8.955330
1902.000000	8.831170
1903.000000	8.706120
1904.000000	8.581500
1905.000000	8.457980
1906.000000	8.339760
1907.000000	8.225460
1908.000000	8.112680
1909.000000	8.000140
1910.000000	7.890750
1911.000000	7.781050
1912.000000	7.674810
1913.000000	7.571330
1914.000000	7.475920
1915.000000	7.381210
1916.000000	7.285480
1917.000000	7.188810
1918.000000	7.095160
1919.000000	7.005740
1920.000000	6.921150
1921.000000	6.844380
1922.000000	6.767050
1923.000000	6.693280
1924.000000	6.616970
1925.000000	6.545180
1926.000000	6.477920
1927.000000	6.417770
1928.000000	6.362960
1929.000000	6.310740
1930.000000	6.262030
1931.000000	6.214290
1932.000000	6.171980
1933.000000	6.132250
1934.000000	6.096330
1935.000000	6.064230
1936.000000	6.036930
1937.000000	6.011980
1938.000000	5.989490
1939.000000	5.970320
1940.000000	5.955070
1941.000000	5.945750
1942.000000	5.935290
1943.000000	5.929870
1944.000000	5.928300
1945.000000	5.930920
1946.000000	5.935000
1947.000000	5.940740
1948.000000	5.949670
1949.000000	5.959320
1950.000000	5.968150
1951.000000	5.980450
1952.000000	5.996480
1953.000000	6.011960
1954.000000	6.031350
1955.000000	6.051040
1956.000000	6.069270
1957.000000	6.092710
1958.000000	6.112120
1959.000000	6.136050
1960.000000	6.162170
1961.000000	6.184880
1962.000000	6.208940
1963.000000	6.236140
1964.000000	6.261390
1965.000000	6.285260
1966.000000	6.312830
1967.000000	6.337610
1968.000000	6.363530
1969.000000	6.390950
1970.000000	6.415860
1971.000000	6.442170
1972.000000	6.467950
1973.000000	6.492370
1974.000000	6.518300
1975.000000	6.543700
1976.000000	6.567670
1977.000000	6.590690
1978.000000	6.618760
1979.000000	6.646980
1980.000000	6.674540
1981.000000	6.701850
1982.000000	6.729360
1983.000000	6.754470
1984.000000	6.780410
1985.000000	6.808360
1986.000000	6.836360
1987.000000	6.865370
1988.000000	6.891830
1989.000000	6.914610
1990.000000	6.940770
1991.000000	6.963380
1992.000000	6.986160
1993.000000	7.011790
1994.000000	7.034620
1995.000000	7.054730
1996.000000	7.075110
1997.000000	7.094240
1998.000000	7.112310
1999.000000	7.127490
2000.000000	7.140170
2001.000000	7.152890
2002.000000	7.164850
2003.000000	7.173230
2004.000000	7.182980
2005.000000	7.191380
2006.000000	7.195230
2007.000000	7.196740
2008.000000	7.197540
2009.000000	7.195270
2010.000000	7.190830
2011.000000	7.187050
2012.000000	7.178690
2013.000000	7.171200
2014.000000	7.156360
2015.000000	7.140650
2016.000000	7.123870
2017.000000	7.105720
2018.000000	7.083650
2019.000000	7.063130
2020.000000	7.039810
2021.000000	7.013960
2022.000000	6.987030
2023.000000	6.955820
2024.000000	6.926560
2025.000000	6.894290
2026.000000	6.860950
2027.000000	6.827100
2028.000000	6.793290
2029.000000	6.757100
2030.000000	6.719460
2031.000000	6.680230
2032.000000	6.639810
2033.000000	6.598090
2034.000000	6.554190
2035.000000	6.510970
2036.000000	6.465250
2037.000000	6.417120
2038.000000	6.367710
2039.000000	6.317390
2040.000000	6.265760
2041.000000	6.212480
2042.000000	6.158380
2043.000000	6.103350
2044.000000	6.048700
2045.000000	5.992520
2046.000000	5.936020
2047.000000	5.878690
2048.000000	5.822860
2049.000000	5.766560
2050.000000	5.712510
2051.000000	5.662470
2052.000000	5.614100
2053.000000	5.569350
2054.000000	5.526440
2055.000000	5.487460
2056.000000	5.453130
2057.000000	5.423550
2058.000000	5.396230
2059.000000	5.373390
2060.000000	5.353020
2061.000000	5.334630
2062.000000	5.321780
2063.000000	5.311020
2064.000000	5.303090
2065.000000	5.297480
2066.000000	5.292790
2067.000000	5.290370
2068.000000	5.290110
2069.000000	5.291520
2070.000000	5.293880
2071.000000	5.297030
2072.000000	5.299990
2073.000000	5.304670
2074.000000	5.308820
2075.000000	5.312810
2076.000000	5.317400
2077.000000	5.322430
2078.000000	5.328000
2079.000000	5.333130
2080.000000	5.340160
2081.000000	5.346700
2082.000000	5.351740
2083.000000	5.355940
2084.000000	5.361420
2085.000000	5.366070
2086.000000	5.370790
2087.000000	5.374820
2088.000000	5.378220
2089.000000	5.382020
2090.000000	5.384830
2091.000000	5.387460
2092.000000	5.389450
2093.000000	5.391710
2094.000000	5.395350
2095.000000	5.401640
2096.000000	5.408370
2097.000000	5.413730
2098.000000	5.418310
2099.000000	5.423700
2100.000000	5.429090
2101.000000	5.434280
2102.000000	5.442250
2103.000000	5.450540
2104.000000	5.457190
2105.000000	5.462240
2106.000000	5.466560
2107.000000	5.473220
2108.000000	5.481250
2109.000000	5.488200
2110.000000	5.495370
2111.000000	5.503260
2112.000000	5.510450
2113.000000	5.517580
2114.000000	5.524160
2115.000000	5.530190
2116.000000	5.537160
2117.000000	5.544870
2118.000000	5.552640
2119.000000	5.559900
2120.000000	5.565820
2121.000000	5.570480
2122.000000	5.575270
2123.000000	5.580090
2124.000000	5.584410
2125.000000	5.589000
2126.000000	5.592790
2127.000000	5.593950
2128.000000	5.593900
2129.000000	5.594090
2130.000000	5.594120
2131.000000	5.593930
2132.000000	5.592270
2133.000000	5.588160
2134.000000	5.583680
2135.000000	5.580000
2136.000000	5.575830
2137.000000	5.570360
2138.000000	5.563090
2139.000000	5.555720
2140.000000	5.548190
2141.000000	5.539800
2142.000000	5.529340
2143.000000	5.519930
2144.000000	5.509160
2145.000000	5.496970
2146.000000	5.484210
2147.000000	5.470550
2148.000000	5.455880
2149.000000	5.440330
2150.000000	5.424310
2151.000000	5.409180
2152.000000	5.392910
2153.000000	5.375770
2154.000000	5.359050
2155.000000	5.340800
2156.000000	5.321950
2157.000000	5.304210
2158.000000	5.289160
2159.000000	5.273270
2160.000000	5.257440
2161.000000	5.239720
2162.000000	5.226570
2163.000000	5.212550
2164.000000	5.198890
2165.000000	5.185720
2166.000000	5.174280
2167.000000	5.162650
2168.000000	5.147720
2169.000000	5.135230
2170.000000	5.123590
2171.000000	5.113390
2172.000000	5.102120
2173.000000	5.090660
2174.000000	5.079410
2175.000000	5.069380
2176.000000	5.060230
2177.000000	5.049860
2178.000000	5.040690
2179.000000	5.029670
2180.000000	5.018890
2181.000000	5.009280
2182.000000	4.997660
2183.000000	4.989090
2184.000000	4.979270
2185.000000	4.965790
2186.000000	4.949660
2187.000000	4.932990
2188.000000	4.916640
2189.000000	4.898360
2190.000000	4.875420
2191.000000	4.848190
2192.000000	4.818670
2193.000000	4.784180
2194.000000	4.745790
2195.000000	4.703660
2196.000000	4.657920
2197.000000	4.611650
2198.000000	4.558650
2199.000000	4.503200
2200.000000	4.447140
2201.000000	4.389150
2202.000000	4.332190
2203.000000	4.273180
2204.000000	4.215890
2205.000000	4.162050
2206.000000	4.110450
2207.000000	4.059710
2208.000000	4.016000
2209.000000	3.976430
2210.000000	3.941860
2211.000000	3.912410
2212.000000	3.886920
2213.000000	3.868430
2214.000000	3.854950
2215.000000	3.848810
2216.000000	3.845660
2217.000000	3.850840
2218.000000	3.858750
2219.000000	3.872500
2220.000000	3.887110
2221.000000	3.903460
2222.000000	3.921860
2223.000000	3.942120
2224.000000	3.964540
2225.000000	3.988020
2226.000000	4.011270
2227.000000	4.030890
2228.000000	4.049690
2229.000000	4.064590
2230.000000	4.079860
2231.000000	4.092550
2232.000000	4.102990
2233.000000	4.108810
2234.000000	4.110890
2235.000000	4.108510
2236.000000	4.103320
2237.000000	4.094080
2238.000000	4.081690
2239.000000	4.068420
2240.000000	4.050470
2241.000000	4.032910
2242.000000	4.009330
2243.000000	3.982910
2244.000000	3.955320
2245.000000	3.926640
2246.000000	3.896720
2247.000000	3.862410
2248.000000	3.829100
2249.000000	3.790280
2250.000000	3.750400
2251.000000	3.706290
2252.000000	3.660720
2253.000000	3.615370
2254.000000	3.566160
2255.000000	3.512420
2256.000000	3.455690
2257.000000	3.400910
2258.000000	3.342030
2259.000000	3.284030
2260.000000	3.224120
2261.000000	3.164330
2262.000000	3.106180
2263.000000	3.049640
2264.000000	2.995440
2265.000000	2.944900
2266.000000	2.899470
2267.000000	2.855950
2268.000000	2.819470
2269.000000	2.787550
2270.000000	2.762030
2271.000000	2.742230
2272.000000	2.727990
2273.000000	2.717870
2274.000000	2.711100
2275.000000	2.708940
2276.000000	2.713440
2277.000000	2.720300
2278.000000	2.726820
2279.000000	2.737510
2280.000000	2.751180
2281.000000	2.765850
2282.000000	2.783150
2283.000000	2.801140
2284.000000	2.822220
2285.000000	2.840720
2286.000000	2.857620
2287.000000	2.876750
2288.000000	2.895650
2289.000000	2.911780
2290.000000	2.926600
2291.000000	2.939990
2292.000000	2.950450
2293.000000	2.957880
2294.000000	2.959580
2295.000000	2.960600
2296.000000	2.957340
2297.000000	2.951300
2298.000000	2.940970
2299.000000	2.928200
2300.000000	2.912040
2301.000000	2.894120
2302.000000	2.875180
2303.000000	2.856080
2304.000000	2.838000
2305.000000	2.819710
2306.000000	2.804240
2307.000000	2.789660
2308.000000	2.781120
2309.000000	2.775450
2310.000000	2.772720
2311.000000	2.773360
2312.000000	2.778090
2313.000000	2.788500
2314.000000	2.803450
2315.000000	2.823770
2316.000000	2.848020
2317.000000	2.875500
2318.000000	2.901230
2319.000000	2.930000
2320.000000	2.962150
2321.000000	2.995270
2322.000000	3.028770
2323.000000	3.061660
2324.000000	3.096020
2325.000000	3.127050
2326.000000	3.155720
2327.000000	3.185580
2328.000000	3.215690
2329.000000	3.241960
2330.000000	3.267080
2331.000000	3.291190
2332.000000	3.313320
2333.000000	3.332230
2334.000000	3.348040
2335.000000	3.363760
2336.000000	3.377310
2337.000000	3.386640
2338.000000	3.396050
2339.000000	3.404070
2340.000000	3.407550
2341.000000	3.406630
2342.000000	3.402400
2343.000000	3.398290
2344.000000	3.391010
2345.000000	3.380690
2346.000000	3.367370
2347.000000	3.352780
2348.000000	3.337170
2349.000000	3.320830
2350.000000	3.304590
2351.000000	3.289920
2352.000000	3.278090
2353.000000	3.265900
2354.000000	3.255490
2355.000000	3.249590
2356.000000	3.247670
2357.000000	3.248210
2358.000000	3.249610
2359.000000	3.254360
2360.000000	3.263860
2361.000000	3.276290
2362.000000	3.288520
2363.000000	3.303270
2364.000000	3.321470
2365.000000	3.340430
2366.000000	3.358140
2367.000000	3.374870
2368.000000	3.391950
2369.000000	3.408490
2370.000000	3.423600
2371.000000	3.438830
2372.000000	3.453410
2373.000000	3.464040
2374.000000	3.472520
2375.000000	3.479520
2376.000000	3.484930
2377.000000	3.490230
2378.000000	3.497070
2379.000000	3.503850
2380.000000	3.507010
2381.000000	3.507270
2382.000000	3.507700
2383.000000	3.510120
2384.000000	3.511310
2385.000000	3.509660
2386.000000	3.510330
2387.000000	3.509860
2388.000000	3.505030
2389.000000	3.498070
2390.000000	3.491690
2391.000000	3.485060
2392.000000	3.478760
2393.000000	3.471030
2394.000000	3.462990
2395.000000	3.453610
2396.000000	3.439870
2397.000000	3.425830
2398.000000	3.412380
2399.000000	3.398830
2400.000000	3.384820
2401.000000	3.372990
2402.000000	3.357740
2403.000000	3.341250
2404.000000	3.325180
2405.000000	3.309990
2406.000000	3.296840
2407.000000	3.285510
2408.000000	3.272760
2409.000000	3.257530
2410.000000	3.244380
2411.000000	3.231170
2412.000000	3.218440
2413.000000	3.206700
2414.000000	3.191940
2415.000000	3.177400
2416.000000	3.162570
2417.000000	3.145650
2418.000000	3.130560
2419.000000	3.118280
2420.000000	3.104590
2421.000000	3.086380
2422.000000	3.070340
2423.000000	3.051140
2424.000000	3.031400
2425.000000	3.010240
2426.000000	2.989070
2427.000000	2.967430
2428.000000	2.945170
2429.000000	2.921940
2430.000000	2.899060
2431.000000	2.879140
2432.000000	2.858600
2433.000000	2.839140
2434.000000	2.821820
2435.000000	2.806770
2436.000000	2.790360
2437.000000	2.775400
2438.000000	2.759080
2439.000000	2.742280
2440.000000	2.723970
2441.000000	2.703440
2442.000000	2.684590
2443.000000	2.666860
2444.000000	2.649200
2445.000000	2.628730
2446.000000	2.609690
2447.000000	2.589960
2448.000000	2.570260
2449.000000	2.552850
2450.000000	2.535620
2451.000000	2.516160
2452.000000	2.494510
2453.000000	2.471610
2454.000000	2.450430
2455.000000	2.431100
2456.000000	2.412180
2457.000000	2.394030
2458.000000	2.376670
2459.000000	2.358600
2460.000000	2.341350
2461.000000	2.327580
2462.000000	2.317260
2463.000000	2.307540
2464.000000	2.294960
2465.000000	2.282410
2466.000000	2.268340
2467.000000	2.261290
2468.000000	2.253910
2469.000000	2.245270
2470.000000	2.239400
2471.000000	2.232090
2472.000000	2.222250
2473.000000	2.221830
2474.000000	2.217440
2475.000000	2.215290
2476.000000	2.214620
2477.000000	2.212770
2478.000000	2.208560
2479.000000	2.209700
2480.000000	2.204860
2481.000000	2.207530
2482.000000	2.207750
2483.000000	2.201870
2484.000000	2.202970
2485.000000	2.202900
2486.000000	2.210860
2487.000000	2.211820
2488.000000	2.217830
2489.000000	2.219350
2490.000000	2.220720
2491.000000	2.221390
2492.000000	2.221330
2493.000000	2.230040
2494.000000	2.245890
2495.000000	2.263550
2496.000000	2.272640
2497.000000	2.286520
2498.000000	2.281360
2499.000000	2.284900
2500.000000	2.301080
