PE UV       SUBTECH     SPECTRUM    ASCII       PEDS        4.00        
   -1
CICIMAUCR0019-1.Sample.ASC
24/03/08
13:32:45.00
24/03/08
13:32:45.00
Vinicio Soto Monge
C. cupreomarginata
250,000000
1
Lambda 1050
1050L1511233
PerkinElmer UV WinLab 6.3.2.0749 / 2.02.05 Lambda 900 UV/VIS/NIR, Aug  7 2015 09:38:08

0
0
3350/servo 860,8/2
0
0
UV/VIS
1
1
1
DoubleDePol,CommonBeamDepol,RBeamAtt,SBeamAtt,60mm sphere, WB InGaAs Detector
0
0
0
0
Program
Program
3350/servo 860,8/2
3350/0,2 860,8/0,2
3350/0,2 860,8/0,2
0
15.00
 
 
 
0
 
860,8
319,2
860,8
Front
100
on
S:100 R:100
0
0
0
0
 
0
 
 
 
0
 
 
0
0
0
0
0
 
 
 
 
0
0


0
0
#HDR
-1
-1
#GR
nm
%R
1.0
0.0
2500,000000
-1,000000
2251
8
27,863200
2,274800
#DATA

250.000000	nan
251.000000	nan
252.000000	nan
253.000000	nan
254.000000	nan
255.000000	nan
256.000000	nan
257.000000	nan
258.000000	nan
259.000000	2.207118
260.000000	2.203388
261.000000	2.202130
262.000000	2.195893
263.000000	2.190756
264.000000	2.186815
265.000000	2.178784
266.000000	2.175758
267.000000	2.164991
268.000000	2.159027
269.000000	2.153714
270.000000	2.149228
271.000000	2.137634
272.000000	2.130139
273.000000	2.127852
274.000000	2.123577
275.000000	2.121862
276.000000	2.116303
277.000000	2.114992
278.000000	2.112872
279.000000	2.111614
280.000000	2.107480
281.000000	2.100425
282.000000	2.099255
283.000000	2.096071
284.000000	2.093942
285.000000	2.093845
286.000000	2.088743
287.000000	2.088901
288.000000	2.083738
289.000000	2.076903
290.000000	2.075759
291.000000	2.082260
292.000000	2.083201
293.000000	2.079586
294.000000	2.079164
295.000000	2.075020
296.000000	2.076217
297.000000	2.071959
298.000000	2.069408
299.000000	2.065177
300.000000	2.063858
301.000000	2.058932
302.000000	2.056073
303.000000	2.054085
304.000000	2.052431
305.000000	2.051666
306.000000	2.051261
307.000000	2.052220
308.000000	2.047285
309.000000	2.050698
310.000000	2.048024
311.000000	2.045262
312.000000	2.041101
313.000000	2.042623
314.000000	2.041752
315.000000	2.042764
316.000000	2.053487
317.000000	2.128125
318.000000	2.191478
319.000000	2.236780
320.000000	2.265588
321.000000	2.277085
322.000000	2.312236
323.000000	2.324041
324.000000	2.343068
325.000000	2.354512
326.000000	2.379644
327.000000	2.310855
328.000000	2.264665
329.000000	2.229725
330.000000	2.231264
331.000000	2.235742
332.000000	2.220955
333.000000	2.220902
334.000000	2.215562
335.000000	2.232267
336.000000	2.217814
337.000000	2.220427
338.000000	2.217902
339.000000	2.229048
340.000000	2.206863
341.000000	2.212862
342.000000	2.209739
343.000000	2.227183
344.000000	2.240773
345.000000	2.229505
346.000000	2.223822
347.000000	2.224825
348.000000	2.236868
349.000000	2.228924
350.000000	2.228344
351.000000	2.226681
352.000000	2.230262
353.000000	2.218219
354.000000	2.206564
355.000000	2.203265
356.000000	2.201998
357.000000	2.209423
358.000000	2.205675
359.000000	2.212572
360.000000	2.220858
361.000000	2.220603
362.000000	2.219741
363.000000	2.217647
364.000000	2.221377
365.000000	2.225168
366.000000	2.230578
367.000000	2.228177
368.000000	2.227218
369.000000	2.222072
370.000000	2.222855
371.000000	2.227068
372.000000	2.226224
373.000000	2.227191
374.000000	2.228784
375.000000	2.229672
376.000000	2.233639
377.000000	2.225142
378.000000	2.217691
379.000000	2.214780
380.000000	2.215193
381.000000	2.213011
382.000000	2.217911
383.000000	2.227359
384.000000	2.236331
385.000000	2.248532
386.000000	2.261744
387.000000	2.297115
388.000000	2.335081
389.000000	2.374428
390.000000	2.415842
391.000000	2.460203
392.000000	2.506956
393.000000	2.555495
394.000000	2.605627
395.000000	2.657649
396.000000	2.711422
397.000000	2.765213
398.000000	2.818951
399.000000	2.874237
400.000000	2.930359
401.000000	2.986578
402.000000	3.042779
403.000000	3.098927
404.000000	3.154811
405.000000	3.211777
406.000000	3.267715
407.000000	3.322754
408.000000	3.378498
409.000000	3.433907
410.000000	3.487830
411.000000	3.539897
412.000000	3.590864
413.000000	3.640828
414.000000	3.689736
415.000000	3.735382
416.000000	3.780314
417.000000	3.826136
418.000000	3.868288
419.000000	3.907741
420.000000	3.946190
421.000000	3.983382
422.000000	4.019501
423.000000	4.054317
424.000000	4.086873
425.000000	4.118778
426.000000	4.148704
427.000000	4.175023
428.000000	4.199583
429.000000	4.222577
430.000000	4.244586
431.000000	4.265091
432.000000	4.282921
433.000000	4.298438
434.000000	4.312785
435.000000	4.325250
436.000000	4.335525
437.000000	4.346001
438.000000	4.355677
439.000000	4.363524
440.000000	4.368327
441.000000	4.371045
442.000000	4.373385
443.000000	4.374546
444.000000	4.374484
445.000000	4.373103
446.000000	4.371669
447.000000	4.369840
448.000000	4.368784
449.000000	4.368520
450.000000	4.369831
451.000000	4.373613
452.000000	4.379437
453.000000	4.389517
454.000000	4.404568
455.000000	4.425011
456.000000	4.450838
457.000000	4.481547
458.000000	4.517841
459.000000	4.561085
460.000000	4.611682
461.000000	4.668525
462.000000	4.731210
463.000000	4.798987
464.000000	4.872007
465.000000	4.951131
466.000000	5.035516
467.000000	5.124062
468.000000	5.215959
469.000000	5.310337
470.000000	5.405516
471.000000	5.502119
472.000000	5.600086
473.000000	5.698203
474.000000	5.795448
475.000000	5.890899
476.000000	5.983219
477.000000	6.073876
478.000000	6.162835
479.000000	6.250017
480.000000	6.336443
481.000000	6.422306
482.000000	6.506691
483.000000	6.590733
484.000000	6.676226
485.000000	6.763989
486.000000	6.856062
487.000000	6.951997
488.000000	7.052656
489.000000	7.158364
490.000000	7.269622
491.000000	7.385551
492.000000	7.507489
493.000000	7.635733
494.000000	7.768930
495.000000	7.907625
496.000000	8.048844
497.000000	8.194181
498.000000	8.342455
499.000000	8.493676
500.000000	8.646357
501.000000	8.801554
502.000000	8.959601
503.000000	9.118581
504.000000	9.278387
505.000000	9.439003
506.000000	9.602513
507.000000	9.766366
508.000000	9.932224
509.000000	10.099393
510.000000	10.269228
511.000000	10.441191
512.000000	10.614843
513.000000	10.790263
514.000000	10.968991
515.000000	11.149460
516.000000	11.332331
517.000000	11.517894
518.000000	11.704530
519.000000	11.894315
520.000000	12.085921
521.000000	12.279761
522.000000	12.475686
523.000000	12.675428
524.000000	12.877344
525.000000	13.082953
526.000000	13.291897
527.000000	13.506418
528.000000	13.727659
529.000000	13.954909
530.000000	14.190040
531.000000	14.432842
532.000000	14.684431
533.000000	14.944773
534.000000	15.214914
535.000000	15.493086
536.000000	15.778331
537.000000	16.071167
538.000000	16.369343
539.000000	16.670598
540.000000	16.972776
541.000000	17.274655
542.000000	17.574748
543.000000	17.870619
544.000000	18.161274
545.000000	18.444020
546.000000	18.718551
547.000000	18.980987
548.000000	19.232083
549.000000	19.471015
550.000000	19.695827
551.000000	19.904745
552.000000	20.097995
553.000000	20.275149
554.000000	20.432677
555.000000	20.575735
556.000000	20.701050
557.000000	20.810751
558.000000	20.904962
559.000000	20.983022
560.000000	20.992558
561.000000	20.985432
562.000000	20.968781
563.000000	20.944942
564.000000	20.917946
565.000000	20.885214
566.000000	20.850740
567.000000	20.812757
568.000000	20.773911
569.000000	20.736720
570.000000	20.754533
571.000000	20.777668
572.000000	20.799483
573.000000	20.815642
574.000000	20.826902
575.000000	20.831538
576.000000	20.831916
577.000000	20.828775
578.000000	20.818123
579.000000	20.799298
580.000000	20.774378
581.000000	20.744443
582.000000	20.706152
583.000000	20.663999
584.000000	20.618468
585.000000	20.570184
586.000000	20.518724
587.000000	20.464766
588.000000	20.408882
589.000000	20.353939
590.000000	20.300623
591.000000	20.246234
592.000000	20.191713
593.000000	20.139656
594.000000	20.088952
595.000000	20.039103
596.000000	19.991012
597.000000	19.939438
598.000000	19.884732
599.000000	19.825866
600.000000	19.757808
601.000000	19.684647
602.000000	19.606877
603.000000	19.519483
604.000000	19.418350
605.000000	19.307030
606.000000	19.181688
607.000000	19.043820
608.000000	18.894579
609.000000	18.733576
610.000000	18.564410
611.000000	18.384626
612.000000	18.195800
613.000000	18.000693
614.000000	17.804223
615.000000	17.605448
616.000000	17.407034
617.000000	17.211443
618.000000	17.020998
619.000000	16.833395
620.000000	16.649064
621.000000	16.470697
622.000000	16.297449
623.000000	16.125732
624.000000	15.957076
625.000000	15.791200
626.000000	15.626090
627.000000	15.462413
628.000000	15.296502
629.000000	15.131540
630.000000	14.969148
631.000000	14.807916
632.000000	14.648884
633.000000	14.495094
634.000000	14.346935
635.000000	14.203543
636.000000	14.070205
637.000000	13.947643
638.000000	13.840695
639.000000	13.747557
640.000000	13.669277
641.000000	13.607226
642.000000	13.561352
643.000000	13.533371
644.000000	13.520880
645.000000	13.527125
646.000000	13.547656
647.000000	13.584021
648.000000	13.631320
649.000000	13.692139
650.000000	13.765309
651.000000	13.847758
652.000000	13.941327
653.000000	14.041854
654.000000	14.150016
655.000000	14.262418
656.000000	14.378224
657.000000	14.495992
658.000000	14.616311
659.000000	14.735679
660.000000	14.852559
661.000000	14.968576
662.000000	15.079764
663.000000	15.187698
664.000000	15.291408
665.000000	15.390959
666.000000	15.485741
667.000000	15.576090
668.000000	15.661417
669.000000	15.742441
670.000000	15.819613
671.000000	15.892440
672.000000	15.959478
673.000000	16.023789
674.000000	16.082383
675.000000	16.136218
676.000000	16.185566
677.000000	16.228731
678.000000	16.268227
679.000000	16.305647
680.000000	16.338907
681.000000	16.365261
682.000000	16.390226
683.000000	16.409842
684.000000	16.427866
685.000000	16.442644
686.000000	16.454027
687.000000	16.465955
688.000000	16.476405
689.000000	16.484577
690.000000	16.490717
691.000000	16.498837
692.000000	16.506877
693.000000	16.518506
694.000000	16.530733
695.000000	16.547323
696.000000	16.567159
697.000000	16.589028
698.000000	16.610729
699.000000	16.632007
700.000000	16.659101
701.000000	16.688903
702.000000	16.721424
703.000000	16.752819
704.000000	16.787371
705.000000	16.822813
706.000000	16.859802
707.000000	16.897530
708.000000	16.939147
709.000000	16.984633
710.000000	17.030692
711.000000	17.076628
712.000000	17.120769
713.000000	17.166167
714.000000	17.209499
715.000000	17.250535
716.000000	17.292433
717.000000	17.335817
718.000000	17.381911
719.000000	17.425559
720.000000	17.467079
721.000000	17.509399
722.000000	17.552220
723.000000	17.596098
724.000000	17.638602
725.000000	17.680245
726.000000	17.720595
727.000000	17.757628
728.000000	17.791116
729.000000	17.822476
730.000000	17.850607
731.000000	17.876918
732.000000	17.901935
733.000000	17.923917
734.000000	17.945398
735.000000	17.965076
736.000000	17.983136
737.000000	18.003447
738.000000	18.020248
739.000000	18.035220
740.000000	18.053895
741.000000	18.070749
742.000000	18.082853
743.000000	18.094526
744.000000	18.105821
745.000000	18.116148
746.000000	18.126449
747.000000	18.133582
748.000000	18.139450
749.000000	18.149821
750.000000	18.157861
751.000000	18.164661
752.000000	18.176501
753.000000	18.188745
754.000000	18.202600
755.000000	18.219322
756.000000	18.235833
757.000000	18.252634
758.000000	18.270861
759.000000	18.285525
760.000000	18.296450
761.000000	18.311413
762.000000	18.328487
763.000000	18.346010
764.000000	18.363436
765.000000	18.381574
766.000000	18.400988
767.000000	18.419487
768.000000	18.436711
769.000000	18.456714
770.000000	18.484141
771.000000	18.508217
772.000000	18.527675
773.000000	18.548875
774.000000	18.564146
775.000000	18.577974
776.000000	18.591661
777.000000	18.603589
778.000000	18.620083
779.000000	18.634377
780.000000	18.641889
781.000000	18.646974
782.000000	18.651337
783.000000	18.657319
784.000000	18.669625
785.000000	18.678571
786.000000	18.684966
787.000000	18.693798
788.000000	18.702858
789.000000	18.714030
790.000000	18.726301
791.000000	18.748371
792.000000	18.775614
793.000000	18.800200
794.000000	18.822262
795.000000	18.852540
796.000000	18.887312
797.000000	18.919807
798.000000	18.955521
799.000000	18.996750
800.000000	19.038190
801.000000	19.074063
802.000000	19.113392
803.000000	19.154823
804.000000	19.200284
805.000000	19.244706
806.000000	19.286217
807.000000	19.334273
808.000000	19.388829
809.000000	19.438124
810.000000	19.489223
811.000000	19.540613
812.000000	19.593374
813.000000	19.645107
814.000000	19.701114
815.000000	19.746557
816.000000	19.791727
817.000000	19.838357
818.000000	19.876754
819.000000	19.917104
820.000000	19.955263
821.000000	19.993158
822.000000	20.022222
823.000000	20.042841
824.000000	20.057927
825.000000	20.079294
826.000000	20.102086
827.000000	20.116565
828.000000	20.134712
829.000000	20.158041
830.000000	20.188556
831.000000	20.206465
832.000000	20.224366
833.000000	20.247369
834.000000	20.277427
835.000000	20.302928
836.000000	20.329969
837.000000	20.353139
838.000000	20.378006
839.000000	20.389926
840.000000	20.390973
841.000000	20.418374
842.000000	20.436591
843.000000	20.443338
844.000000	20.439644
845.000000	20.447596
846.000000	20.454826
847.000000	20.471646
848.000000	20.469525
849.000000	20.466728
850.000000	20.458697
851.000000	20.433187
852.000000	20.430302
853.000000	20.440593
854.000000	20.467053
855.000000	20.443039
856.000000	20.401774
857.000000	20.399338
858.000000	20.205823
859.000000	20.239259
860.000000	20.301659
861.000000	20.379030
862.000000	20.463765
863.000000	20.567946
864.000000	20.675659
865.000000	20.841928
866.000000	21.039939
867.000000	21.207766
868.000000	21.592830
869.000000	21.767690
870.000000	21.939730
871.000000	22.112570
872.000000	22.285830
873.000000	22.449440
874.000000	22.608660
875.000000	22.766360
876.000000	22.921530
877.000000	23.076830
878.000000	23.223500
879.000000	23.365820
880.000000	23.498810
881.000000	23.632000
882.000000	23.752870
883.000000	23.873950
884.000000	23.990220
885.000000	24.099210
886.000000	24.196180
887.000000	24.283930
888.000000	24.368950
889.000000	24.454080
890.000000	24.538390
891.000000	24.612050
892.000000	24.677560
893.000000	24.735290
894.000000	24.789210
895.000000	24.835740
896.000000	24.882610
897.000000	24.931120
898.000000	24.974390
899.000000	25.009330
900.000000	25.041540
901.000000	25.069800
902.000000	25.100080
903.000000	25.127250
904.000000	25.146940
905.000000	25.167850
906.000000	25.187660
907.000000	25.202700
908.000000	25.217640
909.000000	25.233500
910.000000	25.250210
911.000000	25.269270
912.000000	25.286240
913.000000	25.304920
914.000000	25.325460
915.000000	25.343260
916.000000	25.360570
917.000000	25.377540
918.000000	25.394460
919.000000	25.411560
920.000000	25.423580
921.000000	25.434470
922.000000	25.444950
923.000000	25.453040
924.000000	25.458320
925.000000	25.466770
926.000000	25.471470
927.000000	25.477560
928.000000	25.478410
929.000000	25.478990
930.000000	25.482700
931.000000	25.484260
932.000000	25.482630
933.000000	25.483120
934.000000	25.485970
935.000000	25.485750
936.000000	25.485170
937.000000	25.482370
938.000000	25.483180
939.000000	25.485200
940.000000	25.485490
941.000000	25.484310
942.000000	25.487220
943.000000	25.486510
944.000000	25.485990
945.000000	25.488740
946.000000	25.492790
947.000000	25.497230
948.000000	25.503430
949.000000	25.510200
950.000000	25.515430
951.000000	25.525060
952.000000	25.531940
953.000000	25.539560
954.000000	25.549890
955.000000	25.558540
956.000000	25.568570
957.000000	25.578910
958.000000	25.585850
959.000000	25.590300
960.000000	25.597820
961.000000	25.604140
962.000000	25.612020
963.000000	25.618540
964.000000	25.623740
965.000000	25.627330
966.000000	25.630230
967.000000	25.633690
968.000000	25.638650
969.000000	25.643370
970.000000	25.642670
971.000000	25.642360
972.000000	25.643280
973.000000	25.643650
974.000000	25.642410
975.000000	25.641290
976.000000	25.640270
977.000000	25.638520
978.000000	25.637620
979.000000	25.634620
980.000000	25.632750
981.000000	25.628630
982.000000	25.625260
983.000000	25.623140
984.000000	25.619220
985.000000	25.616220
986.000000	25.611250
987.000000	25.604760
988.000000	25.597540
989.000000	25.592490
990.000000	25.590040
991.000000	25.587900
992.000000	25.582730
993.000000	25.579100
994.000000	25.577540
995.000000	25.574690
996.000000	25.573220
997.000000	25.572140
998.000000	25.571520
999.000000	25.572480
1000.000000	25.572460
1001.000000	25.572580
1002.000000	25.575330
1003.000000	25.578200
1004.000000	25.581090
1005.000000	25.585390
1006.000000	25.589630
1007.000000	25.594230
1008.000000	25.600700
1009.000000	25.607020
1010.000000	25.613930
1011.000000	25.621740
1012.000000	25.628600
1013.000000	25.636760
1014.000000	25.646530
1015.000000	25.658860
1016.000000	25.674580
1017.000000	25.691720
1018.000000	25.709420
1019.000000	25.729240
1020.000000	25.750290
1021.000000	25.774090
1022.000000	25.801460
1023.000000	25.828230
1024.000000	25.855630
1025.000000	25.886050
1026.000000	25.916500
1027.000000	25.948120
1028.000000	25.979640
1029.000000	26.010050
1030.000000	26.042240
1031.000000	26.074890
1032.000000	26.105930
1033.000000	26.137390
1034.000000	26.167690
1035.000000	26.195230
1036.000000	26.221550
1037.000000	26.247700
1038.000000	26.274010
1039.000000	26.299840
1040.000000	26.324090
1041.000000	26.346250
1042.000000	26.366960
1043.000000	26.386970
1044.000000	26.406110
1045.000000	26.424260
1046.000000	26.442200
1047.000000	26.458800
1048.000000	26.474360
1049.000000	26.491640
1050.000000	26.508380
1051.000000	26.524400
1052.000000	26.541410
1053.000000	26.557590
1054.000000	26.574230
1055.000000	26.591340
1056.000000	26.608950
1057.000000	26.628290
1058.000000	26.647160
1059.000000	26.665110
1060.000000	26.682420
1061.000000	26.699470
1062.000000	26.717320
1063.000000	26.736260
1064.000000	26.756600
1065.000000	26.775550
1066.000000	26.792770
1067.000000	26.808960
1068.000000	26.826420
1069.000000	26.844420
1070.000000	26.863150
1071.000000	26.884510
1072.000000	26.906070
1073.000000	26.927030
1074.000000	26.946680
1075.000000	26.967280
1076.000000	26.990230
1077.000000	27.014140
1078.000000	27.037890
1079.000000	27.059900
1080.000000	27.081490
1081.000000	27.103380
1082.000000	27.124840
1083.000000	27.148000
1084.000000	27.172410
1085.000000	27.197860
1086.000000	27.223640
1087.000000	27.248920
1088.000000	27.273590
1089.000000	27.299190
1090.000000	27.325200
1091.000000	27.349160
1092.000000	27.374460
1093.000000	27.399080
1094.000000	27.423450
1095.000000	27.448050
1096.000000	27.472020
1097.000000	27.497020
1098.000000	27.519660
1099.000000	27.542360
1100.000000	27.564650
1101.000000	27.587180
1102.000000	27.607630
1103.000000	27.627730
1104.000000	27.645060
1105.000000	27.660930
1106.000000	27.677190
1107.000000	27.691700
1108.000000	27.707860
1109.000000	27.721620
1110.000000	27.735650
1111.000000	27.749810
1112.000000	27.760500
1113.000000	27.771830
1114.000000	27.783510
1115.000000	27.795140
1116.000000	27.804870
1117.000000	27.814680
1118.000000	27.822840
1119.000000	27.831000
1120.000000	27.835600
1121.000000	27.837970
1122.000000	27.839940
1123.000000	27.838230
1124.000000	27.834950
1125.000000	27.828820
1126.000000	27.817970
1127.000000	27.799990
1128.000000	27.778710
1129.000000	27.752660
1130.000000	27.722410
1131.000000	27.684310
1132.000000	27.636560
1133.000000	27.580390
1134.000000	27.515700
1135.000000	27.443220
1136.000000	27.359680
1137.000000	27.268140
1138.000000	27.166610
1139.000000	27.057730
1140.000000	26.941390
1141.000000	26.819340
1142.000000	26.697230
1143.000000	26.570770
1144.000000	26.444450
1145.000000	26.318340
1146.000000	26.200320
1147.000000	26.092280
1148.000000	25.995500
1149.000000	25.908360
1150.000000	25.835550
1151.000000	25.778570
1152.000000	25.733610
1153.000000	25.701020
1154.000000	25.674140
1155.000000	25.651060
1156.000000	25.630770
1157.000000	25.603320
1158.000000	25.566940
1159.000000	25.518990
1160.000000	25.454330
1161.000000	25.375450
1162.000000	25.282320
1163.000000	25.174910
1164.000000	25.054500
1165.000000	24.922400
1166.000000	24.778910
1167.000000	24.631430
1168.000000	24.482620
1169.000000	24.331770
1170.000000	24.181780
1171.000000	24.029480
1172.000000	23.877160
1173.000000	23.728310
1174.000000	23.585010
1175.000000	23.446200
1176.000000	23.310250
1177.000000	23.175460
1178.000000	23.037050
1179.000000	22.899210
1180.000000	22.755420
1181.000000	22.605180
1182.000000	22.449240
1183.000000	22.285950
1184.000000	22.120160
1185.000000	21.958060
1186.000000	21.805460
1187.000000	21.667790
1188.000000	21.551740
1189.000000	21.465410
1190.000000	21.416530
1191.000000	21.406910
1192.000000	21.436890
1193.000000	21.504760
1194.000000	21.603950
1195.000000	21.724450
1196.000000	21.857970
1197.000000	21.997630
1198.000000	22.139020
1199.000000	22.270830
1200.000000	22.389260
1201.000000	22.490230
1202.000000	22.572880
1203.000000	22.641330
1204.000000	22.692840
1205.000000	22.732830
1206.000000	22.765590
1207.000000	22.791070
1208.000000	22.811920
1209.000000	22.831870
1210.000000	22.853500
1211.000000	22.877830
1212.000000	22.905800
1213.000000	22.934400
1214.000000	22.967320
1215.000000	23.004600
1216.000000	23.043740
1217.000000	23.089500
1218.000000	23.139350
1219.000000	23.190140
1220.000000	23.242040
1221.000000	23.295400
1222.000000	23.350360
1223.000000	23.407700
1224.000000	23.466200
1225.000000	23.525950
1226.000000	23.586800
1227.000000	23.647800
1228.000000	23.708310
1229.000000	23.769680
1230.000000	23.830620
1231.000000	23.892200
1232.000000	23.953230
1233.000000	24.012700
1234.000000	24.071680
1235.000000	24.129900
1236.000000	24.187100
1237.000000	24.242020
1238.000000	24.296800
1239.000000	24.350090
1240.000000	24.402450
1241.000000	24.454680
1242.000000	24.505200
1243.000000	24.552810
1244.000000	24.600190
1245.000000	24.646980
1246.000000	24.692790
1247.000000	24.737650
1248.000000	24.781890
1249.000000	24.825130
1250.000000	24.865730
1251.000000	24.904530
1252.000000	24.941500
1253.000000	24.979960
1254.000000	25.017560
1255.000000	25.051850
1256.000000	25.085390
1257.000000	25.119330
1258.000000	25.151020
1259.000000	25.181840
1260.000000	25.213170
1261.000000	25.244110
1262.000000	25.275310
1263.000000	25.305120
1264.000000	25.331830
1265.000000	25.360390
1266.000000	25.388140
1267.000000	25.413510
1268.000000	25.436470
1269.000000	25.459240
1270.000000	25.481540
1271.000000	25.502690
1272.000000	25.524450
1273.000000	25.545500
1274.000000	25.566770
1275.000000	25.585490
1276.000000	25.604420
1277.000000	25.623370
1278.000000	25.643970
1279.000000	25.666210
1280.000000	25.689330
1281.000000	25.712770
1282.000000	25.735440
1283.000000	25.759570
1284.000000	25.786360
1285.000000	25.814930
1286.000000	25.843180
1287.000000	25.871620
1288.000000	25.900480
1289.000000	25.927990
1290.000000	25.956410
1291.000000	25.984910
1292.000000	26.011260
1293.000000	26.035630
1294.000000	26.058700
1295.000000	26.081970
1296.000000	26.104010
1297.000000	26.124700
1298.000000	26.144100
1299.000000	26.161800
1300.000000	26.177240
1301.000000	26.192610
1302.000000	26.209230
1303.000000	26.224590
1304.000000	26.237050
1305.000000	26.246190
1306.000000	26.254440
1307.000000	26.262290
1308.000000	26.268560
1309.000000	26.274750
1310.000000	26.279290
1311.000000	26.277910
1312.000000	26.272430
1313.000000	26.266610
1314.000000	26.259800
1315.000000	26.250510
1316.000000	26.237400
1317.000000	26.221230
1318.000000	26.203500
1319.000000	26.182570
1320.000000	26.157060
1321.000000	26.131810
1322.000000	26.105550
1323.000000	26.074160
1324.000000	26.038720
1325.000000	26.000960
1326.000000	25.961490
1327.000000	25.918760
1328.000000	25.872790
1329.000000	25.823690
1330.000000	25.773900
1331.000000	25.720180
1332.000000	25.662410
1333.000000	25.602520
1334.000000	25.539430
1335.000000	25.471790
1336.000000	25.402100
1337.000000	25.329440
1338.000000	25.252750
1339.000000	25.172000
1340.000000	25.086280
1341.000000	24.997320
1342.000000	24.904340
1343.000000	24.806390
1344.000000	24.702880
1345.000000	24.594890
1346.000000	24.479700
1347.000000	24.360790
1348.000000	24.237310
1349.000000	24.103230
1350.000000	23.960180
1351.000000	23.807140
1352.000000	23.641130
1353.000000	23.465740
1354.000000	23.280820
1355.000000	23.088830
1356.000000	22.895310
1357.000000	22.701150
1358.000000	22.511880
1359.000000	22.338960
1360.000000	22.180370
1361.000000	22.039590
1362.000000	21.919470
1363.000000	21.814190
1364.000000	21.723300
1365.000000	21.644150
1366.000000	21.568180
1367.000000	21.493560
1368.000000	21.416980
1369.000000	21.324740
1370.000000	21.217740
1371.000000	21.091980
1372.000000	20.945880
1373.000000	20.779760
1374.000000	20.591630
1375.000000	20.387690
1376.000000	20.172460
1377.000000	19.943930
1378.000000	19.706760
1379.000000	19.470680
1380.000000	19.243020
1381.000000	19.022090
1382.000000	18.815110
1383.000000	18.621470
1384.000000	18.447600
1385.000000	18.285790
1386.000000	18.137350
1387.000000	18.007300
1388.000000	17.895190
1389.000000	17.798980
1390.000000	17.712960
1391.000000	17.638650
1392.000000	17.577850
1393.000000	17.532380
1394.000000	17.501090
1395.000000	17.487470
1396.000000	17.488270
1397.000000	17.492930
1398.000000	17.495300
1399.000000	17.498120
1400.000000	17.500590
1401.000000	17.498470
1402.000000	17.478580
1403.000000	17.445490
1404.000000	17.395430
1405.000000	17.331380
1406.000000	17.251600
1407.000000	17.164090
1408.000000	17.068560
1409.000000	16.967030
1410.000000	16.856740
1411.000000	16.740460
1412.000000	16.631720
1413.000000	16.528560
1414.000000	16.431750
1415.000000	16.341020
1416.000000	16.253490
1417.000000	16.165660
1418.000000	16.081590
1419.000000	16.000900
1420.000000	15.923200
1421.000000	15.846600
1422.000000	15.768600
1423.000000	15.689840
1424.000000	15.607450
1425.000000	15.520270
1426.000000	15.433020
1427.000000	15.346580
1428.000000	15.259510
1429.000000	15.169040
1430.000000	15.081910
1431.000000	15.000510
1432.000000	14.921790
1433.000000	14.844980
1434.000000	14.772940
1435.000000	14.702400
1436.000000	14.637280
1437.000000	14.576740
1438.000000	14.518480
1439.000000	14.464510
1440.000000	14.408340
1441.000000	14.354970
1442.000000	14.301770
1443.000000	14.247000
1444.000000	14.190870
1445.000000	14.137840
1446.000000	14.085070
1447.000000	14.030190
1448.000000	13.976560
1449.000000	13.919520
1450.000000	13.865540
1451.000000	13.811650
1452.000000	13.756150
1453.000000	13.702930
1454.000000	13.652140
1455.000000	13.599970
1456.000000	13.548150
1457.000000	13.499660
1458.000000	13.451410
1459.000000	13.407300
1460.000000	13.362130
1461.000000	13.318370
1462.000000	13.280100
1463.000000	13.239960
1464.000000	13.203320
1465.000000	13.166960
1466.000000	13.131530
1467.000000	13.097590
1468.000000	13.067170
1469.000000	13.037230
1470.000000	13.009100
1471.000000	12.980610
1472.000000	12.953230
1473.000000	12.927480
1474.000000	12.900160
1475.000000	12.875160
1476.000000	12.850660
1477.000000	12.824600
1478.000000	12.797710
1479.000000	12.772130
1480.000000	12.746220
1481.000000	12.721970
1482.000000	12.696370
1483.000000	12.672140
1484.000000	12.650440
1485.000000	12.629350
1486.000000	12.607520
1487.000000	12.588420
1488.000000	12.570270
1489.000000	12.553180
1490.000000	12.536030
1491.000000	12.517740
1492.000000	12.500280
1493.000000	12.485930
1494.000000	12.470550
1495.000000	12.456560
1496.000000	12.443850
1497.000000	12.433110
1498.000000	12.422810
1499.000000	12.413560
1500.000000	12.407760
1501.000000	12.404330
1502.000000	12.401000
1503.000000	12.397030
1504.000000	12.396720
1505.000000	12.398250
1506.000000	12.401170
1507.000000	12.405960
1508.000000	12.412320
1509.000000	12.418560
1510.000000	12.425460
1511.000000	12.433600
1512.000000	12.442970
1513.000000	12.453780
1514.000000	12.464850
1515.000000	12.474220
1516.000000	12.481670
1517.000000	12.489370
1518.000000	12.498350
1519.000000	12.507360
1520.000000	12.517170
1521.000000	12.525600
1522.000000	12.532670
1523.000000	12.540570
1524.000000	12.547080
1525.000000	12.553570
1526.000000	12.564660
1527.000000	12.575480
1528.000000	12.584700
1529.000000	12.592980
1530.000000	12.598450
1531.000000	12.604360
1532.000000	12.611440
1533.000000	12.616520
1534.000000	12.621240
1535.000000	12.627570
1536.000000	12.630610
1537.000000	12.630320
1538.000000	12.629730
1539.000000	12.629970
1540.000000	12.629970
1541.000000	12.628110
1542.000000	12.625690
1543.000000	12.624180
1544.000000	12.622730
1545.000000	12.619720
1546.000000	12.616900
1547.000000	12.616250
1548.000000	12.615720
1549.000000	12.614620
1550.000000	12.614950
1551.000000	12.615650
1552.000000	12.617350
1553.000000	12.618640
1554.000000	12.619490
1555.000000	12.620810
1556.000000	12.620590
1557.000000	12.618580
1558.000000	12.615860
1559.000000	12.613190
1560.000000	12.610390
1561.000000	12.606390
1562.000000	12.599560
1563.000000	12.592280
1564.000000	12.584020
1565.000000	12.573500
1566.000000	12.563600
1567.000000	12.552900
1568.000000	12.542000
1569.000000	12.530200
1570.000000	12.516920
1571.000000	12.504940
1572.000000	12.494560
1573.000000	12.482880
1574.000000	12.472180
1575.000000	12.463420
1576.000000	12.455670
1577.000000	12.450340
1578.000000	12.446120
1579.000000	12.444920
1580.000000	12.445870
1581.000000	12.448520
1582.000000	12.452630
1583.000000	12.458530
1584.000000	12.465670
1585.000000	12.474200
1586.000000	12.485790
1587.000000	12.499910
1588.000000	12.515220
1589.000000	12.529620
1590.000000	12.545080
1591.000000	12.563240
1592.000000	12.583860
1593.000000	12.607040
1594.000000	12.631470
1595.000000	12.658440
1596.000000	12.685920
1597.000000	12.712160
1598.000000	12.740360
1599.000000	12.772170
1600.000000	12.804150
1601.000000	12.837110
1602.000000	12.870730
1603.000000	12.904570
1604.000000	12.938380
1605.000000	12.972090
1606.000000	13.007370
1607.000000	13.043920
1608.000000	13.081200
1609.000000	13.117590
1610.000000	13.153700
1611.000000	13.188950
1612.000000	13.225730
1613.000000	13.263340
1614.000000	13.303330
1615.000000	13.343070
1616.000000	13.380660
1617.000000	13.419640
1618.000000	13.457450
1619.000000	13.496990
1620.000000	13.538480
1621.000000	13.577840
1622.000000	13.614210
1623.000000	13.651000
1624.000000	13.688950
1625.000000	13.728490
1626.000000	13.768050
1627.000000	13.806710
1628.000000	13.847220
1629.000000	13.886680
1630.000000	13.925830
1631.000000	13.967720
1632.000000	14.012640
1633.000000	14.056490
1634.000000	14.098210
1635.000000	14.136850
1636.000000	14.175530
1637.000000	14.214710
1638.000000	14.252820
1639.000000	14.289990
1640.000000	14.325690
1641.000000	14.361300
1642.000000	14.393420
1643.000000	14.425700
1644.000000	14.457670
1645.000000	14.489660
1646.000000	14.519940
1647.000000	14.547700
1648.000000	14.575640
1649.000000	14.600140
1650.000000	14.623630
1651.000000	14.644630
1652.000000	14.663540
1653.000000	14.680450
1654.000000	14.694990
1655.000000	14.707020
1656.000000	14.718830
1657.000000	14.728220
1658.000000	14.732320
1659.000000	14.735170
1660.000000	14.734010
1661.000000	14.727100
1662.000000	14.718620
1663.000000	14.704810
1664.000000	14.687950
1665.000000	14.666660
1666.000000	14.637720
1667.000000	14.603800
1668.000000	14.559960
1669.000000	14.508370
1670.000000	14.450610
1671.000000	14.388500
1672.000000	14.314240
1673.000000	14.231370
1674.000000	14.134500
1675.000000	14.028460
1676.000000	13.905600
1677.000000	13.765850
1678.000000	13.610440
1679.000000	13.434980
1680.000000	13.239030
1681.000000	13.023760
1682.000000	12.801150
1683.000000	12.572950
1684.000000	12.347390
1685.000000	12.130920
1686.000000	11.936850
1687.000000	11.763990
1688.000000	11.616220
1689.000000	11.493480
1690.000000	11.393830
1691.000000	11.317140
1692.000000	11.248740
1693.000000	11.191010
1694.000000	11.138870
1695.000000	11.089720
1696.000000	11.044650
1697.000000	11.002030
1698.000000	10.967960
1699.000000	10.943560
1700.000000	10.934170
1701.000000	10.937820
1702.000000	10.960930
1703.000000	10.994660
1704.000000	11.041150
1705.000000	11.092040
1706.000000	11.142000
1707.000000	11.192590
1708.000000	11.237490
1709.000000	11.277000
1710.000000	11.306690
1711.000000	11.327500
1712.000000	11.337360
1713.000000	11.342440
1714.000000	11.338720
1715.000000	11.331980
1716.000000	11.319390
1717.000000	11.301010
1718.000000	11.276270
1719.000000	11.250840
1720.000000	11.224620
1721.000000	11.199380
1722.000000	11.174960
1723.000000	11.150410
1724.000000	11.132020
1725.000000	11.108350
1726.000000	11.086870
1727.000000	11.062790
1728.000000	11.038570
1729.000000	11.008730
1730.000000	10.976670
1731.000000	10.938490
1732.000000	10.900510
1733.000000	10.859570
1734.000000	10.815640
1735.000000	10.781360
1736.000000	10.754700
1737.000000	10.740640
1738.000000	10.743000
1739.000000	10.761130
1740.000000	10.795660
1741.000000	10.851370
1742.000000	10.921710
1743.000000	11.005150
1744.000000	11.102090
1745.000000	11.205800
1746.000000	11.310360
1747.000000	11.416950
1748.000000	11.516470
1749.000000	11.610640
1750.000000	11.695730
1751.000000	11.767840
1752.000000	11.831530
1753.000000	11.888290
1754.000000	11.933750
1755.000000	11.968760
1756.000000	11.994500
1757.000000	12.009930
1758.000000	12.017970
1759.000000	12.019230
1760.000000	12.015830
1761.000000	12.006310
1762.000000	11.991310
1763.000000	11.973610
1764.000000	11.954340
1765.000000	11.938810
1766.000000	11.930630
1767.000000	11.930380
1768.000000	11.940160
1769.000000	11.957430
1770.000000	11.983220
1771.000000	12.019730
1772.000000	12.065860
1773.000000	12.121090
1774.000000	12.183550
1775.000000	12.249470
1776.000000	12.317920
1777.000000	12.386610
1778.000000	12.451990
1779.000000	12.519610
1780.000000	12.585850
1781.000000	12.651070
1782.000000	12.712580
1783.000000	12.769430
1784.000000	12.823360
1785.000000	12.875620
1786.000000	12.925730
1787.000000	12.972560
1788.000000	13.020920
1789.000000	13.065460
1790.000000	13.106090
1791.000000	13.144850
1792.000000	13.184240
1793.000000	13.221390
1794.000000	13.256390
1795.000000	13.289900
1796.000000	13.320380
1797.000000	13.351030
1798.000000	13.378480
1799.000000	13.403640
1800.000000	13.430020
1801.000000	13.456640
1802.000000	13.481600
1803.000000	13.507950
1804.000000	13.534570
1805.000000	13.559000
1806.000000	13.585210
1807.000000	13.611370
1808.000000	13.636990
1809.000000	13.662020
1810.000000	13.687350
1811.000000	13.710850
1812.000000	13.734000
1813.000000	13.755230
1814.000000	13.773880
1815.000000	13.791220
1816.000000	13.805080
1817.000000	13.814930
1818.000000	13.821260
1819.000000	13.827060
1820.000000	13.832910
1821.000000	13.841450
1822.000000	13.852070
1823.000000	13.862400
1824.000000	13.872200
1825.000000	13.882930
1826.000000	13.894450
1827.000000	13.910570
1828.000000	13.933680
1829.000000	13.961050
1830.000000	13.989630
1831.000000	14.018260
1832.000000	14.046110
1833.000000	14.075350
1834.000000	14.107840
1835.000000	14.141720
1836.000000	14.176610
1837.000000	14.211790
1838.000000	14.246030
1839.000000	14.279740
1840.000000	14.313170
1841.000000	14.346340
1842.000000	14.379180
1843.000000	14.411620
1844.000000	14.441310
1845.000000	14.465640
1846.000000	14.487210
1847.000000	14.510130
1848.000000	14.537970
1849.000000	14.570260
1850.000000	14.602980
1851.000000	14.630630
1852.000000	14.654930
1853.000000	14.681400
1854.000000	14.712860
1855.000000	14.749370
1856.000000	14.787350
1857.000000	14.820580
1858.000000	14.844590
1859.000000	14.862650
1860.000000	14.879090
1861.000000	14.896900
1862.000000	14.913580
1863.000000	14.926410
1864.000000	14.930690
1865.000000	14.926620
1866.000000	14.914310
1867.000000	14.896430
1868.000000	14.873830
1869.000000	14.839710
1870.000000	14.796680
1871.000000	14.746820
1872.000000	14.690170
1873.000000	14.626240
1874.000000	14.556950
1875.000000	14.481230
1876.000000	14.399930
1877.000000	14.310560
1878.000000	14.208970
1879.000000	14.098910
1880.000000	13.975010
1881.000000	13.836180
1882.000000	13.683220
1883.000000	13.516440
1884.000000	13.340890
1885.000000	13.158530
1886.000000	12.971750
1887.000000	12.783440
1888.000000	12.597050
1889.000000	12.411830
1890.000000	12.233900
1891.000000	12.064280
1892.000000	11.902990
1893.000000	11.750840
1894.000000	11.602470
1895.000000	11.458160
1896.000000	11.318320
1897.000000	11.179680
1898.000000	11.039770
1899.000000	10.900320
1900.000000	10.759630
1901.000000	10.616780
1902.000000	10.474640
1903.000000	10.332040
1904.000000	10.189600
1905.000000	10.050040
1906.000000	9.908370
1907.000000	9.768770
1908.000000	9.635470
1909.000000	9.505490
1910.000000	9.377680
1911.000000	9.251480
1912.000000	9.127160
1913.000000	9.005090
1914.000000	8.887500
1915.000000	8.770490
1916.000000	8.659290
1917.000000	8.549700
1918.000000	8.440190
1919.000000	8.335020
1920.000000	8.234210
1921.000000	8.136580
1922.000000	8.043850
1923.000000	7.954350
1924.000000	7.868270
1925.000000	7.787600
1926.000000	7.710190
1927.000000	7.634310
1928.000000	7.565920
1929.000000	7.500440
1930.000000	7.440310
1931.000000	7.386630
1932.000000	7.336180
1933.000000	7.289620
1934.000000	7.246130
1935.000000	7.205030
1936.000000	7.169040
1937.000000	7.142850
1938.000000	7.116220
1939.000000	7.095010
1940.000000	7.076870
1941.000000	7.064420
1942.000000	7.055380
1943.000000	7.050350
1944.000000	7.049160
1945.000000	7.050810
1946.000000	7.055820
1947.000000	7.061200
1948.000000	7.073200
1949.000000	7.087770
1950.000000	7.100230
1951.000000	7.114680
1952.000000	7.132410
1953.000000	7.152860
1954.000000	7.175420
1955.000000	7.201770
1956.000000	7.226940
1957.000000	7.254790
1958.000000	7.282740
1959.000000	7.309960
1960.000000	7.339920
1961.000000	7.370690
1962.000000	7.399860
1963.000000	7.428920
1964.000000	7.458520
1965.000000	7.486930
1966.000000	7.517290
1967.000000	7.545800
1968.000000	7.573080
1969.000000	7.602010
1970.000000	7.630420
1971.000000	7.656170
1972.000000	7.684720
1973.000000	7.712970
1974.000000	7.741990
1975.000000	7.772220
1976.000000	7.800560
1977.000000	7.829200
1978.000000	7.861750
1979.000000	7.892110
1980.000000	7.925610
1981.000000	7.960030
1982.000000	7.991850
1983.000000	8.023640
1984.000000	8.055260
1985.000000	8.086530
1986.000000	8.118500
1987.000000	8.149190
1988.000000	8.178990
1989.000000	8.209050
1990.000000	8.238240
1991.000000	8.263300
1992.000000	8.291350
1993.000000	8.318200
1994.000000	8.341060
1995.000000	8.364420
1996.000000	8.387690
1997.000000	8.409450
1998.000000	8.427630
1999.000000	8.444170
2000.000000	8.459100
2001.000000	8.473040
2002.000000	8.483150
2003.000000	8.491570
2004.000000	8.500640
2005.000000	8.506100
2006.000000	8.509710
2007.000000	8.511060
2008.000000	8.510970
2009.000000	8.511910
2010.000000	8.506660
2011.000000	8.501420
2012.000000	8.491660
2013.000000	8.481280
2014.000000	8.467920
2015.000000	8.449460
2016.000000	8.428050
2017.000000	8.405990
2018.000000	8.380690
2019.000000	8.350890
2020.000000	8.321090
2021.000000	8.290680
2022.000000	8.260590
2023.000000	8.226490
2024.000000	8.189070
2025.000000	8.153250
2026.000000	8.117170
2027.000000	8.078690
2028.000000	8.037050
2029.000000	7.995910
2030.000000	7.952390
2031.000000	7.907690
2032.000000	7.858360
2033.000000	7.808120
2034.000000	7.759000
2035.000000	7.707540
2036.000000	7.654050
2037.000000	7.599990
2038.000000	7.543750
2039.000000	7.484030
2040.000000	7.422480
2041.000000	7.358050
2042.000000	7.296290
2043.000000	7.232290
2044.000000	7.165420
2045.000000	7.098470
2046.000000	7.030680
2047.000000	6.963250
2048.000000	6.899230
2049.000000	6.835550
2050.000000	6.776640
2051.000000	6.719990
2052.000000	6.664540
2053.000000	6.613700
2054.000000	6.565820
2055.000000	6.523040
2056.000000	6.484810
2057.000000	6.449460
2058.000000	6.419270
2059.000000	6.395770
2060.000000	6.375420
2061.000000	6.358270
2062.000000	6.345520
2063.000000	6.337110
2064.000000	6.334670
2065.000000	6.333930
2066.000000	6.334710
2067.000000	6.339130
2068.000000	6.344370
2069.000000	6.351250
2070.000000	6.359650
2071.000000	6.370450
2072.000000	6.381910
2073.000000	6.392660
2074.000000	6.402660
2075.000000	6.414660
2076.000000	6.427350
2077.000000	6.438450
2078.000000	6.450420
2079.000000	6.460790
2080.000000	6.470930
2081.000000	6.480140
2082.000000	6.487500
2083.000000	6.495110
2084.000000	6.503800
2085.000000	6.509670
2086.000000	6.514190
2087.000000	6.520970
2088.000000	6.528080
2089.000000	6.535620
2090.000000	6.542180
2091.000000	6.547660
2092.000000	6.554180
2093.000000	6.561760
2094.000000	6.566900
2095.000000	6.571920
2096.000000	6.578040
2097.000000	6.584010
2098.000000	6.589360
2099.000000	6.593360
2100.000000	6.597990
2101.000000	6.604870
2102.000000	6.612940
2103.000000	6.618430
2104.000000	6.625790
2105.000000	6.635490
2106.000000	6.644350
2107.000000	6.652890
2108.000000	6.660900
2109.000000	6.669700
2110.000000	6.679860
2111.000000	6.689570
2112.000000	6.698140
2113.000000	6.707920
2114.000000	6.716550
2115.000000	6.724830
2116.000000	6.733890
2117.000000	6.740800
2118.000000	6.748880
2119.000000	6.757530
2120.000000	6.762340
2121.000000	6.765950
2122.000000	6.770090
2123.000000	6.774890
2124.000000	6.780220
2125.000000	6.783740
2126.000000	6.785780
2127.000000	6.788400
2128.000000	6.789600
2129.000000	6.790340
2130.000000	6.791450
2131.000000	6.790460
2132.000000	6.787320
2133.000000	6.781090
2134.000000	6.772530
2135.000000	6.764010
2136.000000	6.756040
2137.000000	6.747690
2138.000000	6.737190
2139.000000	6.723980
2140.000000	6.710900
2141.000000	6.697090
2142.000000	6.682580
2143.000000	6.668790
2144.000000	6.654230
2145.000000	6.637840
2146.000000	6.619310
2147.000000	6.599240
2148.000000	6.577240
2149.000000	6.555460
2150.000000	6.534170
2151.000000	6.513190
2152.000000	6.490610
2153.000000	6.466610
2154.000000	6.444410
2155.000000	6.420310
2156.000000	6.397950
2157.000000	6.376020
2158.000000	6.355280
2159.000000	6.335440
2160.000000	6.313710
2161.000000	6.294250
2162.000000	6.277440
2163.000000	6.260640
2164.000000	6.243430
2165.000000	6.227630
2166.000000	6.211650
2167.000000	6.195950
2168.000000	6.180860
2169.000000	6.166540
2170.000000	6.153700
2171.000000	6.138900
2172.000000	6.123530
2173.000000	6.109740
2174.000000	6.096490
2175.000000	6.083360
2176.000000	6.070740
2177.000000	6.058120
2178.000000	6.046400
2179.000000	6.034250
2180.000000	6.021760
2181.000000	6.009580
2182.000000	5.997850
2183.000000	5.984040
2184.000000	5.967630
2185.000000	5.952140
2186.000000	5.933450
2187.000000	5.912370
2188.000000	5.887580
2189.000000	5.859640
2190.000000	5.829380
2191.000000	5.796270
2192.000000	5.756340
2193.000000	5.714310
2194.000000	5.669240
2195.000000	5.618720
2196.000000	5.564900
2197.000000	5.507340
2198.000000	5.447960
2199.000000	5.383590
2200.000000	5.316340
2201.000000	5.248440
2202.000000	5.178410
2203.000000	5.108530
2204.000000	5.040640
2205.000000	4.974130
2206.000000	4.908450
2207.000000	4.847340
2208.000000	4.792260
2209.000000	4.743120
2210.000000	4.697680
2211.000000	4.658190
2212.000000	4.629440
2213.000000	4.607540
2214.000000	4.591460
2215.000000	4.582600
2216.000000	4.580690
2217.000000	4.584940
2218.000000	4.592320
2219.000000	4.604980
2220.000000	4.623850
2221.000000	4.646970
2222.000000	4.672630
2223.000000	4.697460
2224.000000	4.724190
2225.000000	4.749570
2226.000000	4.776540
2227.000000	4.801930
2228.000000	4.823470
2229.000000	4.845490
2230.000000	4.862970
2231.000000	4.876080
2232.000000	4.885900
2233.000000	4.895040
2234.000000	4.898560
2235.000000	4.900530
2236.000000	4.896300
2237.000000	4.886680
2238.000000	4.878540
2239.000000	4.863320
2240.000000	4.847940
2241.000000	4.827820
2242.000000	4.804010
2243.000000	4.773090
2244.000000	4.743590
2245.000000	4.712070
2246.000000	4.677620
2247.000000	4.642440
2248.000000	4.601570
2249.000000	4.558910
2250.000000	4.511320
2251.000000	4.460940
2252.000000	4.406820
2253.000000	4.353420
2254.000000	4.294260
2255.000000	4.231410
2256.000000	4.168260
2257.000000	4.102890
2258.000000	4.035340
2259.000000	3.967330
2260.000000	3.899870
2261.000000	3.834020
2262.000000	3.767650
2263.000000	3.703180
2264.000000	3.642390
2265.000000	3.584650
2266.000000	3.532310
2267.000000	3.484490
2268.000000	3.441510
2269.000000	3.403730
2270.000000	3.371810
2271.000000	3.345140
2272.000000	3.328470
2273.000000	3.317480
2274.000000	3.309740
2275.000000	3.307650
2276.000000	3.309770
2277.000000	3.317520
2278.000000	3.327890
2279.000000	3.341510
2280.000000	3.359060
2281.000000	3.378040
2282.000000	3.397370
2283.000000	3.417150
2284.000000	3.439720
2285.000000	3.462240
2286.000000	3.485090
2287.000000	3.505720
2288.000000	3.525620
2289.000000	3.546000
2290.000000	3.562490
2291.000000	3.578660
2292.000000	3.591170
2293.000000	3.599560
2294.000000	3.605060
2295.000000	3.606680
2296.000000	3.602500
2297.000000	3.593950
2298.000000	3.584390
2299.000000	3.570690
2300.000000	3.554600
2301.000000	3.535740
2302.000000	3.514350
2303.000000	3.492540
2304.000000	3.468970
2305.000000	3.447350
2306.000000	3.429290
2307.000000	3.414160
2308.000000	3.402930
2309.000000	3.395510
2310.000000	3.393130
2311.000000	3.394370
2312.000000	3.402170
2313.000000	3.417550
2314.000000	3.438090
2315.000000	3.462310
2316.000000	3.490560
2317.000000	3.523860
2318.000000	3.558450
2319.000000	3.592390
2320.000000	3.628480
2321.000000	3.666620
2322.000000	3.705750
2323.000000	3.743040
2324.000000	3.779480
2325.000000	3.814890
2326.000000	3.845450
2327.000000	3.875730
2328.000000	3.905390
2329.000000	3.935250
2330.000000	3.963390
2331.000000	3.988670
2332.000000	4.010240
2333.000000	4.030920
2334.000000	4.049660
2335.000000	4.065820
2336.000000	4.081940
2337.000000	4.092620
2338.000000	4.098810
2339.000000	4.103770
2340.000000	4.105790
2341.000000	4.106480
2342.000000	4.104080
2343.000000	4.096150
2344.000000	4.085660
2345.000000	4.072970
2346.000000	4.058520
2347.000000	4.044690
2348.000000	4.030460
2349.000000	4.015140
2350.000000	3.997610
2351.000000	3.976660
2352.000000	3.960600
2353.000000	3.950770
2354.000000	3.941480
2355.000000	3.933060
2356.000000	3.927680
2357.000000	3.925350
2358.000000	3.925870
2359.000000	3.927060
2360.000000	3.932590
2361.000000	3.945160
2362.000000	3.957640
2363.000000	3.968490
2364.000000	3.982330
2365.000000	3.998120
2366.000000	4.014200
2367.000000	4.031740
2368.000000	4.049540
2369.000000	4.066740
2370.000000	4.083450
2371.000000	4.097130
2372.000000	4.109020
2373.000000	4.120770
2374.000000	4.130210
2375.000000	4.139450
2376.000000	4.147920
2377.000000	4.153110
2378.000000	4.156590
2379.000000	4.160910
2380.000000	4.163950
2381.000000	4.164870
2382.000000	4.165560
2383.000000	4.164410
2384.000000	4.161550
2385.000000	4.156950
2386.000000	4.151870
2387.000000	4.146120
2388.000000	4.140110
2389.000000	4.132820
2390.000000	4.124370
2391.000000	4.115580
2392.000000	4.104960
2393.000000	4.094890
2394.000000	4.084390
2395.000000	4.073570
2396.000000	4.061550
2397.000000	4.045650
2398.000000	4.027660
2399.000000	4.010630
2400.000000	3.995110
2401.000000	3.978540
2402.000000	3.960250
2403.000000	3.941280
2404.000000	3.923330
2405.000000	3.905230
2406.000000	3.886510
2407.000000	3.869160
2408.000000	3.852800
2409.000000	3.833910
2410.000000	3.812330
2411.000000	3.792730
2412.000000	3.774490
2413.000000	3.754450
2414.000000	3.734920
2415.000000	3.714790
2416.000000	3.693210
2417.000000	3.673210
2418.000000	3.654220
2419.000000	3.635080
2420.000000	3.616830
2421.000000	3.596940
2422.000000	3.571770
2423.000000	3.546190
2424.000000	3.518520
2425.000000	3.489890
2426.000000	3.461620
2427.000000	3.433590
2428.000000	3.404520
2429.000000	3.376650
2430.000000	3.348120
2431.000000	3.321040
2432.000000	3.299210
2433.000000	3.277260
2434.000000	3.255780
2435.000000	3.235110
2436.000000	3.215000
2437.000000	3.194010
2438.000000	3.173830
2439.000000	3.153300
2440.000000	3.130170
2441.000000	3.108050
2442.000000	3.084710
2443.000000	3.060650
2444.000000	3.038040
2445.000000	3.014220
2446.000000	2.989190
2447.000000	2.965000
2448.000000	2.939450
2449.000000	2.910790
2450.000000	2.887510
2451.000000	2.861740
2452.000000	2.838100
2453.000000	2.815810
2454.000000	2.791290
2455.000000	2.768320
2456.000000	2.748390
2457.000000	2.725100
2458.000000	2.702380
2459.000000	2.684180
2460.000000	2.667730
2461.000000	2.648810
2462.000000	2.630400
2463.000000	2.611950
2464.000000	2.596740
2465.000000	2.584170
2466.000000	2.574600
2467.000000	2.563290
2468.000000	2.554020
2469.000000	2.549150
2470.000000	2.535860
2471.000000	2.528130
2472.000000	2.526250
2473.000000	2.525680
2474.000000	2.518790
2475.000000	2.514650
2476.000000	2.509240
2477.000000	2.507630
2478.000000	2.504010
2479.000000	2.501530
2480.000000	2.501600
2481.000000	2.503590
2482.000000	2.495070
2483.000000	2.489900
2484.000000	2.496710
2485.000000	2.499340
2486.000000	2.492230
2487.000000	2.497600
2488.000000	2.494980
2489.000000	2.498960
2490.000000	2.504570
2491.000000	2.505840
2492.000000	2.513230
2493.000000	2.513310
2494.000000	2.519860
2495.000000	2.520230
2496.000000	2.539260
2497.000000	2.538740
2498.000000	2.541040
2499.000000	2.536960
2500.000000	2.545480
