PE UV       SUBTECH     SPECTRUM    ASCII       PEDS        4.00        
   -1
CICIMAUCR0006-1.Sample.ASC
24/03/08
11:34:28.00
24/03/08
11:34:28.00
Vinicio Soto Monge
C. kalinini
250,000000
1
Lambda 1050
1050L1511233
PerkinElmer UV WinLab 6.3.2.0749 / 2.02.05 Lambda 900 UV/VIS/NIR, Aug  7 2015 09:38:08

0
0
3350/servo 860,8/2
0
0
UV/VIS
1
1
1
DoubleDePol,CommonBeamDepol,RBeamAtt,SBeamAtt,60mm sphere, WB InGaAs Detector
0
0
0
0
Program
Program
3350/servo 860,8/2
3350/0,2 860,8/0,2
3350/0,2 860,8/0,2
0
15.00
 
 
 
0
 
860,8
319,2
860,8
Front
100
on
S:100 R:100
0
0
0
0
 
0
 
 
 
0
 
 
0
0
0
0
0
 
 
 
 
0
0


0
0
#HDR
-1
-1
#GR
nm
%R
1.0
0.0
2500,000000
-1,000000
2251
8
34,259900
1,836500
#DATA

250.000000	nan
251.000000	nan
252.000000	nan
253.000000	nan
254.000000	nan
255.000000	nan
256.000000	nan
257.000000	nan
258.000000	nan
259.000000	1.768553
260.000000	1.770274
261.000000	1.766764
262.000000	1.768844
263.000000	1.770939
264.000000	1.768737
265.000000	1.760439
266.000000	1.755966
267.000000	1.748885
268.000000	1.745122
269.000000	1.745451
270.000000	1.742797
271.000000	1.742514
272.000000	1.736443
273.000000	1.730707
274.000000	1.726272
275.000000	1.723649
276.000000	1.720315
277.000000	1.722609
278.000000	1.724658
279.000000	1.720812
280.000000	1.717600
281.000000	1.715925
282.000000	1.710587
283.000000	1.709463
284.000000	1.707727
285.000000	1.706404
286.000000	1.706718
287.000000	1.700753
288.000000	1.694589
289.000000	1.695224
290.000000	1.693587
291.000000	1.689741
292.000000	1.687240
293.000000	1.680610
294.000000	1.676396
295.000000	1.667571
296.000000	1.661324
297.000000	1.661729
298.000000	1.655366
299.000000	1.650900
300.000000	1.649799
301.000000	1.650641
302.000000	1.650013
303.000000	1.647153
304.000000	1.647444
305.000000	1.653218
306.000000	1.648866
307.000000	1.642274
308.000000	1.637541
309.000000	1.635644
310.000000	1.636088
311.000000	1.633006
312.000000	1.629649
313.000000	1.633962
314.000000	1.632884
315.000000	1.629091
316.000000	1.644270
317.000000	1.700363
318.000000	1.731655
319.000000	1.749282
320.000000	1.787901
321.000000	1.809894
322.000000	1.844766
323.000000	1.864847
324.000000	1.886336
325.000000	1.904888
326.000000	1.925100
327.000000	1.898258
328.000000	1.882291
329.000000	1.898449
330.000000	1.872020
331.000000	1.866032
332.000000	1.855128
333.000000	1.840628
334.000000	1.832553
335.000000	1.846746
336.000000	1.837975
337.000000	1.836285
338.000000	1.851671
339.000000	1.851212
340.000000	1.856519
341.000000	1.858599
342.000000	1.856474
343.000000	1.867417
344.000000	1.869183
345.000000	1.858814
346.000000	1.854776
347.000000	1.854462
348.000000	1.851151
349.000000	1.840613
350.000000	1.841791
351.000000	1.847412
352.000000	1.857651
353.000000	1.867363
354.000000	1.879140
355.000000	1.885938
356.000000	1.902747
357.000000	1.903963
358.000000	1.912352
359.000000	1.916726
360.000000	1.925681
361.000000	1.921483
362.000000	1.920099
363.000000	1.925444
364.000000	1.937458
365.000000	1.947399
366.000000	1.946887
367.000000	1.959184
368.000000	1.971419
369.000000	1.978241
370.000000	1.987043
371.000000	2.005862
372.000000	2.013318
373.000000	2.015414
374.000000	2.011628
375.000000	2.022327
376.000000	2.060433
377.000000	2.068394
378.000000	2.076821
379.000000	2.096123
380.000000	2.115929
381.000000	2.141165
382.000000	2.178231
383.000000	2.219648
384.000000	2.270288
385.000000	2.315606
386.000000	2.345254
387.000000	2.409583
388.000000	2.477054
389.000000	2.547807
390.000000	2.623132
391.000000	2.704392
392.000000	2.789398
393.000000	2.876898
394.000000	2.968542
395.000000	3.064530
396.000000	3.163034
397.000000	3.264957
398.000000	3.370749
399.000000	3.479852
400.000000	3.590224
401.000000	3.700291
402.000000	3.811795
403.000000	3.926886
404.000000	4.042833
405.000000	4.156770
406.000000	4.270706
407.000000	4.384061
408.000000	4.496383
409.000000	4.607666
410.000000	4.718283
411.000000	4.826996
412.000000	4.933423
413.000000	5.037165
414.000000	5.138101
415.000000	5.238173
416.000000	5.336623
417.000000	5.432550
418.000000	5.524455
419.000000	5.612482
420.000000	5.698192
421.000000	5.781563
422.000000	5.861178
423.000000	5.936916
424.000000	6.008999
425.000000	6.076769
426.000000	6.140164
427.000000	6.199690
428.000000	6.256463
429.000000	6.310239
430.000000	6.360206
431.000000	6.405714
432.000000	6.447935
433.000000	6.486668
434.000000	6.522044
435.000000	6.554147
436.000000	6.582748
437.000000	6.607265
438.000000	6.627782
439.000000	6.644981
440.000000	6.657951
441.000000	6.667694
442.000000	6.674415
443.000000	6.676794
444.000000	6.674676
445.000000	6.668810
446.000000	6.659251
447.000000	6.646159
448.000000	6.629825
449.000000	6.610309
450.000000	6.588851
451.000000	6.565932
452.000000	6.541476
453.000000	6.515988
454.000000	6.490209
455.000000	6.464958
456.000000	6.441419
457.000000	6.421521
458.000000	6.405845
459.000000	6.394924
460.000000	6.389640
461.000000	6.390757
462.000000	6.399880
463.000000	6.419143
464.000000	6.449648
465.000000	6.490844
466.000000	6.544688
467.000000	6.610729
468.000000	6.689404
469.000000	6.781041
470.000000	6.884324
471.000000	7.000119
472.000000	7.128661
473.000000	7.268216
474.000000	7.417321
475.000000	7.576216
476.000000	7.742543
477.000000	7.915447
478.000000	8.093414
479.000000	8.275800
480.000000	8.462240
481.000000	8.649895
482.000000	8.836633
483.000000	9.023769
484.000000	9.213229
485.000000	9.405557
486.000000	9.599797
487.000000	9.795474
488.000000	9.993132
489.000000	10.192633
490.000000	10.394429
491.000000	10.599573
492.000000	10.808198
493.000000	11.018787
494.000000	11.229744
495.000000	11.437359
496.000000	11.643306
497.000000	11.847931
498.000000	12.051516
499.000000	12.253089
500.000000	12.451267
501.000000	12.647916
502.000000	12.842469
503.000000	13.035027
504.000000	13.226123
505.000000	13.418795
506.000000	13.609839
507.000000	13.800010
508.000000	13.987566
509.000000	14.172889
510.000000	14.356163
511.000000	14.535789
512.000000	14.710047
513.000000	14.880282
514.000000	15.044720
515.000000	15.201764
516.000000	15.353967
517.000000	15.498576
518.000000	15.637266
519.000000	15.769862
520.000000	15.896584
521.000000	16.018290
522.000000	16.137128
523.000000	16.253266
524.000000	16.367478
525.000000	16.479257
526.000000	16.587428
527.000000	16.694894
528.000000	16.800816
529.000000	16.905759
530.000000	17.009142
531.000000	17.110682
532.000000	17.210822
533.000000	17.306925
534.000000	17.399824
535.000000	17.490061
536.000000	17.578494
537.000000	17.663286
538.000000	17.744110
539.000000	17.820911
540.000000	17.894417
541.000000	17.964427
542.000000	18.030331
543.000000	18.093329
544.000000	18.152182
545.000000	18.206875
546.000000	18.256743
547.000000	18.302121
548.000000	18.344709
549.000000	18.384016
550.000000	18.419040
551.000000	18.448413
552.000000	18.473832
553.000000	18.495581
554.000000	18.511954
555.000000	18.525252
556.000000	18.532127
557.000000	18.534941
558.000000	18.532479
559.000000	18.524204
560.000000	18.452841
561.000000	18.370059
562.000000	18.281818
563.000000	18.187741
564.000000	18.089107
565.000000	17.982750
566.000000	17.871827
567.000000	17.755948
568.000000	17.635382
569.000000	17.509141
570.000000	17.435185
571.000000	17.364325
572.000000	17.288710
573.000000	17.209163
574.000000	17.123759
575.000000	17.034852
576.000000	16.943269
577.000000	16.848412
578.000000	16.748035
579.000000	16.643275
580.000000	16.536665
581.000000	16.423983
582.000000	16.307493
583.000000	16.184510
584.000000	16.062873
585.000000	15.938376
586.000000	15.811019
587.000000	15.681636
588.000000	15.552596
589.000000	15.425323
590.000000	15.299526
591.000000	15.176513
592.000000	15.056918
593.000000	14.944748
594.000000	14.835469
595.000000	14.733646
596.000000	14.639960
597.000000	14.554708
598.000000	14.477785
599.000000	14.409671
600.000000	14.350894
601.000000	14.303550
602.000000	14.265895
603.000000	14.236790
604.000000	14.217404
605.000000	14.205948
606.000000	14.202331
607.000000	14.207073
608.000000	14.220968
609.000000	14.241600
610.000000	14.268426
611.000000	14.300889
612.000000	14.340700
613.000000	14.386706
614.000000	14.437400
615.000000	14.492689
616.000000	14.555182
617.000000	14.620711
618.000000	14.688672
619.000000	14.760182
620.000000	14.833840
621.000000	14.909762
622.000000	14.987909
623.000000	15.067111
624.000000	15.147132
625.000000	15.226633
626.000000	15.305682
627.000000	15.384494
628.000000	15.462833
629.000000	15.540781
630.000000	15.617926
631.000000	15.695920
632.000000	15.772760
633.000000	15.846517
634.000000	15.919908
635.000000	15.993918
636.000000	16.066597
637.000000	16.139651
638.000000	16.214632
639.000000	16.291365
640.000000	16.370590
641.000000	16.448707
642.000000	16.527427
643.000000	16.609811
644.000000	16.694940
645.000000	16.781415
646.000000	16.868616
647.000000	16.955504
648.000000	17.042507
649.000000	17.127804
650.000000	17.210371
651.000000	17.290430
652.000000	17.368470
653.000000	17.442388
654.000000	17.508254
655.000000	17.572216
656.000000	17.632017
657.000000	17.688973
658.000000	17.739315
659.000000	17.786866
660.000000	17.828979
661.000000	17.871108
662.000000	17.910981
663.000000	17.950012
664.000000	17.991728
665.000000	18.032839
666.000000	18.074983
667.000000	18.120515
668.000000	18.170596
669.000000	18.223332
670.000000	18.284234
671.000000	18.349182
672.000000	18.417870
673.000000	18.494335
674.000000	18.575938
675.000000	18.664906
676.000000	18.761621
677.000000	18.861264
678.000000	18.966421
679.000000	19.077887
680.000000	19.193812
681.000000	19.313162
682.000000	19.435977
683.000000	19.558669
684.000000	19.683174
685.000000	19.807334
686.000000	19.928902
687.000000	20.050172
688.000000	20.168483
689.000000	20.284690
690.000000	20.394665
691.000000	20.503263
692.000000	20.609116
693.000000	20.712668
694.000000	20.812303
695.000000	20.907710
696.000000	21.002574
697.000000	21.096054
698.000000	21.188387
699.000000	21.279863
700.000000	21.373962
701.000000	21.465951
702.000000	21.558483
703.000000	21.652261
704.000000	21.748348
705.000000	21.846470
706.000000	21.945540
707.000000	22.045971
708.000000	22.150011
709.000000	22.255918
710.000000	22.363147
711.000000	22.468779
712.000000	22.576949
713.000000	22.688774
714.000000	22.804951
715.000000	22.922650
716.000000	23.041572
717.000000	23.162031
718.000000	23.282200
719.000000	23.402988
720.000000	23.527462
721.000000	23.653925
722.000000	23.779874
723.000000	23.902506
724.000000	24.017673
725.000000	24.131900
726.000000	24.247901
727.000000	24.360514
728.000000	24.468210
729.000000	24.574621
730.000000	24.675266
731.000000	24.773602
732.000000	24.868367
733.000000	24.957809
734.000000	25.047893
735.000000	25.133336
736.000000	25.207468
737.000000	25.278488
738.000000	25.349018
739.000000	25.412758
740.000000	25.472888
741.000000	25.531734
742.000000	25.584469
743.000000	25.632226
744.000000	25.676878
745.000000	25.717416
746.000000	25.757572
747.000000	25.795571
748.000000	25.829081
749.000000	25.859739
750.000000	25.886298
751.000000	25.909255
752.000000	25.933833
753.000000	25.957685
754.000000	25.976780
755.000000	25.996655
756.000000	26.015597
757.000000	26.031419
758.000000	26.047815
759.000000	26.067568
760.000000	26.083291
761.000000	26.095626
762.000000	26.106057
763.000000	26.113367
764.000000	26.119462
765.000000	26.127843
766.000000	26.138794
767.000000	26.149317
768.000000	26.157278
769.000000	26.160482
770.000000	26.165713
771.000000	26.168863
772.000000	26.171020
773.000000	26.176717
774.000000	26.181114
775.000000	26.176044
776.000000	26.167005
777.000000	26.162562
778.000000	26.159580
779.000000	26.148721
780.000000	26.135873
781.000000	26.123951
782.000000	26.103854
783.000000	26.080790
784.000000	26.056548
785.000000	26.029378
786.000000	25.998154
787.000000	25.955590
788.000000	25.908146
789.000000	25.861559
790.000000	25.814773
791.000000	25.764837
792.000000	25.716957
793.000000	25.663052
794.000000	25.605338
795.000000	25.545437
796.000000	25.484160
797.000000	25.420115
798.000000	25.349913
799.000000	25.277578
800.000000	25.197014
801.000000	25.111480
802.000000	25.017289
803.000000	24.925369
804.000000	24.831362
805.000000	24.730219
806.000000	24.626240
807.000000	24.519125
808.000000	24.412155
809.000000	24.305828
810.000000	24.195425
811.000000	24.084433
812.000000	23.985715
813.000000	23.877706
814.000000	23.764832
815.000000	23.657909
816.000000	23.546856
817.000000	23.436453
818.000000	23.335257
819.000000	23.229075
820.000000	23.129324
821.000000	23.031822
822.000000	22.918956
823.000000	22.805663
824.000000	22.695711
825.000000	22.584703
826.000000	22.481726
827.000000	22.380354
828.000000	22.269270
829.000000	22.156099
830.000000	22.042346
831.000000	21.925802
832.000000	21.811361
833.000000	21.711381
834.000000	21.606063
835.000000	21.493244
836.000000	21.385334
837.000000	21.279756
838.000000	21.166569
839.000000	21.051738
840.000000	20.940884
841.000000	20.825503
842.000000	20.713754
843.000000	20.598349
844.000000	20.494775
845.000000	20.398428
846.000000	20.289355
847.000000	20.167213
848.000000	20.047442
849.000000	19.918984
850.000000	19.796842
851.000000	19.685070
852.000000	19.577650
853.000000	19.459676
854.000000	19.344302
855.000000	19.230955
856.000000	19.114250
857.000000	19.022116
858.000000	18.588250
859.000000	18.557846
860.000000	18.525267
861.000000	18.508415
862.000000	18.514786
863.000000	18.548659
864.000000	18.596429
865.000000	18.672807
866.000000	18.784461
867.000000	18.907429
868.000000	19.402560
869.000000	19.532300
870.000000	19.680430
871.000000	19.831790
872.000000	19.986480
873.000000	20.141370
874.000000	20.303360
875.000000	20.458040
876.000000	20.613040
877.000000	20.763550
878.000000	20.909730
879.000000	21.060690
880.000000	21.205670
881.000000	21.344010
882.000000	21.477610
883.000000	21.609210
884.000000	21.726210
885.000000	21.833540
886.000000	21.937400
887.000000	22.038090
888.000000	22.132430
889.000000	22.211160
890.000000	22.281590
891.000000	22.357080
892.000000	22.422850
893.000000	22.480710
894.000000	22.535160
895.000000	22.591870
896.000000	22.633290
897.000000	22.670690
898.000000	22.705040
899.000000	22.737450
900.000000	22.774760
901.000000	22.801540
902.000000	22.824610
903.000000	22.848030
904.000000	22.873470
905.000000	22.895790
906.000000	22.920180
907.000000	22.944150
908.000000	22.966440
909.000000	22.984780
910.000000	22.998250
911.000000	23.015420
912.000000	23.033180
913.000000	23.051550
914.000000	23.062360
915.000000	23.072380
916.000000	23.080340
917.000000	23.084630
918.000000	23.090260
919.000000	23.100140
920.000000	23.106710
921.000000	23.107630
922.000000	23.105580
923.000000	23.098290
924.000000	23.089740
925.000000	23.082030
926.000000	23.072740
927.000000	23.061990
928.000000	23.045270
929.000000	23.027310
930.000000	23.007140
931.000000	22.984210
932.000000	22.958960
933.000000	22.932260
934.000000	22.909490
935.000000	22.881500
936.000000	22.852570
937.000000	22.823610
938.000000	22.798170
939.000000	22.771300
940.000000	22.743850
941.000000	22.716280
942.000000	22.690940
943.000000	22.667120
944.000000	22.639540
945.000000	22.615230
946.000000	22.591290
947.000000	22.565650
948.000000	22.539770
949.000000	22.514730
950.000000	22.491130
951.000000	22.470900
952.000000	22.450180
953.000000	22.429530
954.000000	22.410010
955.000000	22.390290
956.000000	22.368900
957.000000	22.350800
958.000000	22.333140
959.000000	22.314330
960.000000	22.293180
961.000000	22.268730
962.000000	22.243460
963.000000	22.218260
964.000000	22.194050
965.000000	22.168770
966.000000	22.145230
967.000000	22.120660
968.000000	22.092160
969.000000	22.064750
970.000000	22.038380
971.000000	22.014760
972.000000	21.990450
973.000000	21.965200
974.000000	21.941090
975.000000	21.918750
976.000000	21.893640
977.000000	21.867630
978.000000	21.846430
979.000000	21.825140
980.000000	21.802000
981.000000	21.775640
982.000000	21.750860
983.000000	21.726750
984.000000	21.700840
985.000000	21.674230
986.000000	21.649200
987.000000	21.624510
988.000000	21.596210
989.000000	21.568000
990.000000	21.542550
991.000000	21.518520
992.000000	21.495060
993.000000	21.473080
994.000000	21.452500
995.000000	21.431010
996.000000	21.410360
997.000000	21.390740
998.000000	21.373680
999.000000	21.355990
1000.000000	21.337700
1001.000000	21.321710
1002.000000	21.304630
1003.000000	21.286670
1004.000000	21.268510
1005.000000	21.250310
1006.000000	21.232780
1007.000000	21.215660
1008.000000	21.197310
1009.000000	21.177530
1010.000000	21.159760
1011.000000	21.143290
1012.000000	21.126500
1013.000000	21.109660
1014.000000	21.095880
1015.000000	21.084260
1016.000000	21.073580
1017.000000	21.066360
1018.000000	21.063480
1019.000000	21.064780
1020.000000	21.067210
1021.000000	21.069950
1022.000000	21.075850
1023.000000	21.086990
1024.000000	21.099800
1025.000000	21.114020
1026.000000	21.130630
1027.000000	21.147100
1028.000000	21.162410
1029.000000	21.178070
1030.000000	21.194770
1031.000000	21.211500
1032.000000	21.228790
1033.000000	21.246030
1034.000000	21.263970
1035.000000	21.280730
1036.000000	21.295480
1037.000000	21.310690
1038.000000	21.326810
1039.000000	21.344080
1040.000000	21.360450
1041.000000	21.375220
1042.000000	21.389890
1043.000000	21.402570
1044.000000	21.414250
1045.000000	21.428110
1046.000000	21.442780
1047.000000	21.456940
1048.000000	21.469210
1049.000000	21.480400
1050.000000	21.492480
1051.000000	21.506180
1052.000000	21.518940
1053.000000	21.530610
1054.000000	21.542710
1055.000000	21.555760
1056.000000	21.569070
1057.000000	21.581340
1058.000000	21.595180
1059.000000	21.610700
1060.000000	21.625090
1061.000000	21.640230
1062.000000	21.655620
1063.000000	21.672390
1064.000000	21.690920
1065.000000	21.708190
1066.000000	21.725000
1067.000000	21.743400
1068.000000	21.762920
1069.000000	21.782410
1070.000000	21.803960
1071.000000	21.826240
1072.000000	21.852330
1073.000000	21.879350
1074.000000	21.905330
1075.000000	21.932920
1076.000000	21.962410
1077.000000	21.991320
1078.000000	22.021070
1079.000000	22.051970
1080.000000	22.083020
1081.000000	22.114220
1082.000000	22.145210
1083.000000	22.176120
1084.000000	22.206610
1085.000000	22.236390
1086.000000	22.265100
1087.000000	22.295610
1088.000000	22.324670
1089.000000	22.352730
1090.000000	22.378770
1091.000000	22.402730
1092.000000	22.423250
1093.000000	22.444520
1094.000000	22.464070
1095.000000	22.481710
1096.000000	22.498550
1097.000000	22.513330
1098.000000	22.528450
1099.000000	22.540010
1100.000000	22.550620
1101.000000	22.561210
1102.000000	22.571710
1103.000000	22.579730
1104.000000	22.587440
1105.000000	22.594060
1106.000000	22.600150
1107.000000	22.605380
1108.000000	22.608550
1109.000000	22.610560
1110.000000	22.613360
1111.000000	22.617020
1112.000000	22.620130
1113.000000	22.622130
1114.000000	22.623950
1115.000000	22.626490
1116.000000	22.628190
1117.000000	22.631020
1118.000000	22.633240
1119.000000	22.637470
1120.000000	22.638830
1121.000000	22.637810
1122.000000	22.635850
1123.000000	22.633710
1124.000000	22.626920
1125.000000	22.615900
1126.000000	22.603960
1127.000000	22.586000
1128.000000	22.563190
1129.000000	22.534930
1130.000000	22.501680
1131.000000	22.459700
1132.000000	22.407390
1133.000000	22.343330
1134.000000	22.270340
1135.000000	22.188230
1136.000000	22.097010
1137.000000	21.992190
1138.000000	21.879760
1139.000000	21.758770
1140.000000	21.632930
1141.000000	21.500660
1142.000000	21.366950
1143.000000	21.233310
1144.000000	21.101710
1145.000000	20.971000
1146.000000	20.843280
1147.000000	20.730030
1148.000000	20.624220
1149.000000	20.529730
1150.000000	20.443710
1151.000000	20.370560
1152.000000	20.310170
1153.000000	20.259440
1154.000000	20.216130
1155.000000	20.177420
1156.000000	20.139760
1157.000000	20.093780
1158.000000	20.043300
1159.000000	19.978600
1160.000000	19.906440
1161.000000	19.825900
1162.000000	19.729800
1163.000000	19.621470
1164.000000	19.502010
1165.000000	19.377120
1166.000000	19.244870
1167.000000	19.110440
1168.000000	18.975730
1169.000000	18.847680
1170.000000	18.716620
1171.000000	18.585290
1172.000000	18.457930
1173.000000	18.333870
1174.000000	18.213940
1175.000000	18.094210
1176.000000	17.978500
1177.000000	17.866210
1178.000000	17.752280
1179.000000	17.635400
1180.000000	17.515190
1181.000000	17.389210
1182.000000	17.259170
1183.000000	17.125320
1184.000000	16.991440
1185.000000	16.861310
1186.000000	16.738360
1187.000000	16.627130
1188.000000	16.531330
1189.000000	16.457720
1190.000000	16.412750
1191.000000	16.400480
1192.000000	16.418080
1193.000000	16.463420
1194.000000	16.534920
1195.000000	16.623150
1196.000000	16.719700
1197.000000	16.823050
1198.000000	16.924310
1199.000000	17.020730
1200.000000	17.106740
1201.000000	17.178060
1202.000000	17.235780
1203.000000	17.282900
1204.000000	17.310910
1205.000000	17.334080
1206.000000	17.350360
1207.000000	17.359640
1208.000000	17.369100
1209.000000	17.375560
1210.000000	17.382200
1211.000000	17.391830
1212.000000	17.403170
1213.000000	17.416710
1214.000000	17.440320
1215.000000	17.461690
1216.000000	17.487190
1217.000000	17.519980
1218.000000	17.555040
1219.000000	17.593980
1220.000000	17.638220
1221.000000	17.686030
1222.000000	17.736520
1223.000000	17.789830
1224.000000	17.843910
1225.000000	17.901510
1226.000000	17.961110
1227.000000	18.020760
1228.000000	18.084200
1229.000000	18.149700
1230.000000	18.214080
1231.000000	18.277850
1232.000000	18.343990
1233.000000	18.410250
1234.000000	18.474250
1235.000000	18.538760
1236.000000	18.604730
1237.000000	18.668280
1238.000000	18.729390
1239.000000	18.788600
1240.000000	18.847780
1241.000000	18.906190
1242.000000	18.961060
1243.000000	19.014320
1244.000000	19.067290
1245.000000	19.120480
1246.000000	19.171560
1247.000000	19.223190
1248.000000	19.274180
1249.000000	19.324260
1250.000000	19.371630
1251.000000	19.417960
1252.000000	19.464270
1253.000000	19.509520
1254.000000	19.555680
1255.000000	19.599130
1256.000000	19.640940
1257.000000	19.680430
1258.000000	19.719490
1259.000000	19.756020
1260.000000	19.793470
1261.000000	19.828750
1262.000000	19.861670
1263.000000	19.892940
1264.000000	19.921650
1265.000000	19.951130
1266.000000	19.978730
1267.000000	20.003100
1268.000000	20.027360
1269.000000	20.052800
1270.000000	20.075660
1271.000000	20.097260
1272.000000	20.117400
1273.000000	20.135520
1274.000000	20.152370
1275.000000	20.167070
1276.000000	20.181670
1277.000000	20.197290
1278.000000	20.210730
1279.000000	20.222840
1280.000000	20.235610
1281.000000	20.248790
1282.000000	20.263430
1283.000000	20.278260
1284.000000	20.293560
1285.000000	20.310850
1286.000000	20.328500
1287.000000	20.343910
1288.000000	20.358620
1289.000000	20.373040
1290.000000	20.386130
1291.000000	20.397400
1292.000000	20.408420
1293.000000	20.420110
1294.000000	20.429720
1295.000000	20.436600
1296.000000	20.442860
1297.000000	20.450270
1298.000000	20.457150
1299.000000	20.461430
1300.000000	20.465650
1301.000000	20.470150
1302.000000	20.472720
1303.000000	20.474260
1304.000000	20.476370
1305.000000	20.477800
1306.000000	20.477650
1307.000000	20.476090
1308.000000	20.473360
1309.000000	20.469790
1310.000000	20.462950
1311.000000	20.453300
1312.000000	20.441730
1313.000000	20.426630
1314.000000	20.409010
1315.000000	20.387900
1316.000000	20.363910
1317.000000	20.336690
1318.000000	20.307270
1319.000000	20.274770
1320.000000	20.240420
1321.000000	20.204380
1322.000000	20.165270
1323.000000	20.123950
1324.000000	20.077820
1325.000000	20.028510
1326.000000	19.976110
1327.000000	19.921820
1328.000000	19.863180
1329.000000	19.802980
1330.000000	19.740620
1331.000000	19.672720
1332.000000	19.602820
1333.000000	19.528560
1334.000000	19.451950
1335.000000	19.373040
1336.000000	19.289940
1337.000000	19.202510
1338.000000	19.112860
1339.000000	19.019380
1340.000000	18.921320
1341.000000	18.821070
1342.000000	18.716800
1343.000000	18.610230
1344.000000	18.501600
1345.000000	18.389680
1346.000000	18.275870
1347.000000	18.158190
1348.000000	18.037880
1349.000000	17.911280
1350.000000	17.782960
1351.000000	17.651690
1352.000000	17.511380
1353.000000	17.361530
1354.000000	17.206970
1355.000000	17.049240
1356.000000	16.890940
1357.000000	16.735420
1358.000000	16.583370
1359.000000	16.443840
1360.000000	16.309720
1361.000000	16.190140
1362.000000	16.088330
1363.000000	16.002100
1364.000000	15.923230
1365.000000	15.852810
1366.000000	15.787300
1367.000000	15.720260
1368.000000	15.653310
1369.000000	15.578390
1370.000000	15.495370
1371.000000	15.395380
1372.000000	15.281490
1373.000000	15.153490
1374.000000	15.010730
1375.000000	14.854510
1376.000000	14.685860
1377.000000	14.513590
1378.000000	14.333260
1379.000000	14.147120
1380.000000	13.963110
1381.000000	13.781290
1382.000000	13.604940
1383.000000	13.436130
1384.000000	13.276200
1385.000000	13.122940
1386.000000	12.977360
1387.000000	12.836300
1388.000000	12.706660
1389.000000	12.591750
1390.000000	12.483950
1391.000000	12.386970
1392.000000	12.300360
1393.000000	12.224740
1394.000000	12.162170
1395.000000	12.110450
1396.000000	12.077050
1397.000000	12.052620
1398.000000	12.026320
1399.000000	11.996400
1400.000000	11.969240
1401.000000	11.948150
1402.000000	11.915560
1403.000000	11.873090
1404.000000	11.823150
1405.000000	11.770120
1406.000000	11.701630
1407.000000	11.626750
1408.000000	11.551490
1409.000000	11.474010
1410.000000	11.390360
1411.000000	11.293850
1412.000000	11.202490
1413.000000	11.116360
1414.000000	11.034210
1415.000000	10.950950
1416.000000	10.872180
1417.000000	10.791760
1418.000000	10.715150
1419.000000	10.639100
1420.000000	10.565980
1421.000000	10.499530
1422.000000	10.430170
1423.000000	10.360730
1424.000000	10.291060
1425.000000	10.223200
1426.000000	10.152000
1427.000000	10.085380
1428.000000	10.015400
1429.000000	9.949720
1430.000000	9.885140
1431.000000	9.817220
1432.000000	9.756190
1433.000000	9.695940
1434.000000	9.638240
1435.000000	9.581800
1436.000000	9.529160
1437.000000	9.477690
1438.000000	9.430710
1439.000000	9.384620
1440.000000	9.337020
1441.000000	9.293380
1442.000000	9.248770
1443.000000	9.205900
1444.000000	9.161750
1445.000000	9.117510
1446.000000	9.076850
1447.000000	9.036360
1448.000000	8.994530
1449.000000	8.951910
1450.000000	8.914180
1451.000000	8.877170
1452.000000	8.840600
1453.000000	8.807430
1454.000000	8.772940
1455.000000	8.740140
1456.000000	8.707940
1457.000000	8.678110
1458.000000	8.648620
1459.000000	8.622430
1460.000000	8.597760
1461.000000	8.573020
1462.000000	8.553280
1463.000000	8.534830
1464.000000	8.520610
1465.000000	8.507030
1466.000000	8.493600
1467.000000	8.483300
1468.000000	8.477320
1469.000000	8.469970
1470.000000	8.463890
1471.000000	8.460810
1472.000000	8.455660
1473.000000	8.449650
1474.000000	8.446270
1475.000000	8.446570
1476.000000	8.448850
1477.000000	8.450210
1478.000000	8.451020
1479.000000	8.454020
1480.000000	8.457930
1481.000000	8.462720
1482.000000	8.470440
1483.000000	8.477840
1484.000000	8.484680
1485.000000	8.490930
1486.000000	8.497450
1487.000000	8.504720
1488.000000	8.512420
1489.000000	8.520840
1490.000000	8.529610
1491.000000	8.539680
1492.000000	8.548280
1493.000000	8.558200
1494.000000	8.567450
1495.000000	8.576870
1496.000000	8.585110
1497.000000	8.595220
1498.000000	8.607590
1499.000000	8.618450
1500.000000	8.628520
1501.000000	8.638210
1502.000000	8.648340
1503.000000	8.659510
1504.000000	8.670880
1505.000000	8.682860
1506.000000	8.693670
1507.000000	8.703810
1508.000000	8.712440
1509.000000	8.721980
1510.000000	8.733390
1511.000000	8.745230
1512.000000	8.756690
1513.000000	8.767700
1514.000000	8.777500
1515.000000	8.785870
1516.000000	8.795650
1517.000000	8.803610
1518.000000	8.812460
1519.000000	8.820560
1520.000000	8.827590
1521.000000	8.833920
1522.000000	8.838000
1523.000000	8.840450
1524.000000	8.844130
1525.000000	8.848600
1526.000000	8.853370
1527.000000	8.859020
1528.000000	8.862500
1529.000000	8.865300
1530.000000	8.866470
1531.000000	8.866420
1532.000000	8.868620
1533.000000	8.870980
1534.000000	8.872530
1535.000000	8.874970
1536.000000	8.876480
1537.000000	8.875390
1538.000000	8.872960
1539.000000	8.870860
1540.000000	8.868680
1541.000000	8.866440
1542.000000	8.862870
1543.000000	8.859900
1544.000000	8.858030
1545.000000	8.853660
1546.000000	8.847790
1547.000000	8.844000
1548.000000	8.841570
1549.000000	8.839460
1550.000000	8.837920
1551.000000	8.836450
1552.000000	8.835600
1553.000000	8.834340
1554.000000	8.832030
1555.000000	8.830660
1556.000000	8.832350
1557.000000	8.833360
1558.000000	8.835120
1559.000000	8.838110
1560.000000	8.840710
1561.000000	8.843300
1562.000000	8.846150
1563.000000	8.848200
1564.000000	8.849970
1565.000000	8.852060
1566.000000	8.852640
1567.000000	8.852920
1568.000000	8.852590
1569.000000	8.851730
1570.000000	8.850910
1571.000000	8.849450
1572.000000	8.848600
1573.000000	8.849210
1574.000000	8.849730
1575.000000	8.849870
1576.000000	8.851450
1577.000000	8.854800
1578.000000	8.859610
1579.000000	8.866510
1580.000000	8.874230
1581.000000	8.885090
1582.000000	8.897670
1583.000000	8.910620
1584.000000	8.924830
1585.000000	8.941150
1586.000000	8.958600
1587.000000	8.975160
1588.000000	8.991630
1589.000000	9.009370
1590.000000	9.028010
1591.000000	9.044650
1592.000000	9.060840
1593.000000	9.077040
1594.000000	9.093580
1595.000000	9.109840
1596.000000	9.126990
1597.000000	9.146520
1598.000000	9.166620
1599.000000	9.185140
1600.000000	9.204010
1601.000000	9.224460
1602.000000	9.243280
1603.000000	9.262360
1604.000000	9.282980
1605.000000	9.304190
1606.000000	9.324390
1607.000000	9.343100
1608.000000	9.360760
1609.000000	9.379530
1610.000000	9.397760
1611.000000	9.414770
1612.000000	9.432210
1613.000000	9.449520
1614.000000	9.465020
1615.000000	9.479470
1616.000000	9.493970
1617.000000	9.509130
1618.000000	9.524560
1619.000000	9.538600
1620.000000	9.553530
1621.000000	9.569920
1622.000000	9.587090
1623.000000	9.604470
1624.000000	9.622650
1625.000000	9.638770
1626.000000	9.655200
1627.000000	9.671940
1628.000000	9.688980
1629.000000	9.705820
1630.000000	9.721180
1631.000000	9.735190
1632.000000	9.748730
1633.000000	9.761880
1634.000000	9.775980
1635.000000	9.792580
1636.000000	9.807340
1637.000000	9.822140
1638.000000	9.836720
1639.000000	9.850690
1640.000000	9.863700
1641.000000	9.876330
1642.000000	9.889770
1643.000000	9.903310
1644.000000	9.915700
1645.000000	9.927320
1646.000000	9.941070
1647.000000	9.951960
1648.000000	9.961600
1649.000000	9.972830
1650.000000	9.985700
1651.000000	9.997710
1652.000000	10.008420
1653.000000	10.016870
1654.000000	10.024900
1655.000000	10.031800
1656.000000	10.035710
1657.000000	10.039670
1658.000000	10.042760
1659.000000	10.042420
1660.000000	10.041020
1661.000000	10.039000
1662.000000	10.032950
1663.000000	10.025730
1664.000000	10.016020
1665.000000	10.004580
1666.000000	9.989520
1667.000000	9.973230
1668.000000	9.952290
1669.000000	9.927190
1670.000000	9.896760
1671.000000	9.862140
1672.000000	9.823090
1673.000000	9.778830
1674.000000	9.725010
1675.000000	9.662400
1676.000000	9.592210
1677.000000	9.511230
1678.000000	9.418740
1679.000000	9.315050
1680.000000	9.200050
1681.000000	9.073900
1682.000000	8.943930
1683.000000	8.810590
1684.000000	8.684140
1685.000000	8.564460
1686.000000	8.455730
1687.000000	8.361050
1688.000000	8.283030
1689.000000	8.218410
1690.000000	8.165600
1691.000000	8.124250
1692.000000	8.091560
1693.000000	8.064380
1694.000000	8.038840
1695.000000	8.017030
1696.000000	7.994790
1697.000000	7.972220
1698.000000	7.955790
1699.000000	7.950040
1700.000000	7.953700
1701.000000	7.966260
1702.000000	7.986260
1703.000000	8.014420
1704.000000	8.050350
1705.000000	8.087810
1706.000000	8.127140
1707.000000	8.166840
1708.000000	8.200410
1709.000000	8.228980
1710.000000	8.251210
1711.000000	8.268860
1712.000000	8.283660
1713.000000	8.292750
1714.000000	8.296380
1715.000000	8.295370
1716.000000	8.291180
1717.000000	8.282970
1718.000000	8.273560
1719.000000	8.261870
1720.000000	8.250710
1721.000000	8.237590
1722.000000	8.222270
1723.000000	8.209520
1724.000000	8.193880
1725.000000	8.178290
1726.000000	8.164730
1727.000000	8.150950
1728.000000	8.132230
1729.000000	8.111650
1730.000000	8.085530
1731.000000	8.060200
1732.000000	8.032330
1733.000000	8.002790
1734.000000	7.975470
1735.000000	7.953360
1736.000000	7.935270
1737.000000	7.923730
1738.000000	7.923690
1739.000000	7.931870
1740.000000	7.951700
1741.000000	7.980150
1742.000000	8.018930
1743.000000	8.062830
1744.000000	8.111160
1745.000000	8.159900
1746.000000	8.209920
1747.000000	8.259430
1748.000000	8.304940
1749.000000	8.346780
1750.000000	8.383300
1751.000000	8.410800
1752.000000	8.432220
1753.000000	8.447710
1754.000000	8.460470
1755.000000	8.469060
1756.000000	8.468530
1757.000000	8.460730
1758.000000	8.448340
1759.000000	8.432940
1760.000000	8.413290
1761.000000	8.390980
1762.000000	8.366350
1763.000000	8.343990
1764.000000	8.319890
1765.000000	8.297730
1766.000000	8.280680
1767.000000	8.269670
1768.000000	8.266470
1769.000000	8.264670
1770.000000	8.270140
1771.000000	8.284000
1772.000000	8.302300
1773.000000	8.323980
1774.000000	8.349210
1775.000000	8.376060
1776.000000	8.405150
1777.000000	8.435080
1778.000000	8.465410
1779.000000	8.497060
1780.000000	8.528260
1781.000000	8.556300
1782.000000	8.582550
1783.000000	8.609420
1784.000000	8.634330
1785.000000	8.658810
1786.000000	8.684360
1787.000000	8.709730
1788.000000	8.731130
1789.000000	8.750380
1790.000000	8.769680
1791.000000	8.790980
1792.000000	8.812900
1793.000000	8.832220
1794.000000	8.853530
1795.000000	8.873890
1796.000000	8.891410
1797.000000	8.908870
1798.000000	8.926210
1799.000000	8.943360
1800.000000	8.959900
1801.000000	8.975980
1802.000000	8.992110
1803.000000	9.009990
1804.000000	9.026540
1805.000000	9.043940
1806.000000	9.062550
1807.000000	9.081100
1808.000000	9.102350
1809.000000	9.124820
1810.000000	9.144650
1811.000000	9.163030
1812.000000	9.181340
1813.000000	9.198270
1814.000000	9.213550
1815.000000	9.226740
1816.000000	9.239380
1817.000000	9.250150
1818.000000	9.256320
1819.000000	9.260330
1820.000000	9.267270
1821.000000	9.279900
1822.000000	9.297020
1823.000000	9.312820
1824.000000	9.325160
1825.000000	9.337280
1826.000000	9.348730
1827.000000	9.362380
1828.000000	9.381130
1829.000000	9.404340
1830.000000	9.429170
1831.000000	9.451650
1832.000000	9.468200
1833.000000	9.484580
1834.000000	9.506090
1835.000000	9.528960
1836.000000	9.552450
1837.000000	9.575410
1838.000000	9.597000
1839.000000	9.616650
1840.000000	9.633380
1841.000000	9.649610
1842.000000	9.671150
1843.000000	9.694450
1844.000000	9.713680
1845.000000	9.727730
1846.000000	9.735960
1847.000000	9.744150
1848.000000	9.758310
1849.000000	9.777320
1850.000000	9.797490
1851.000000	9.811000
1852.000000	9.814570
1853.000000	9.815730
1854.000000	9.822120
1855.000000	9.834880
1856.000000	9.850130
1857.000000	9.859440
1858.000000	9.856950
1859.000000	9.846830
1860.000000	9.834930
1861.000000	9.825880
1862.000000	9.819210
1863.000000	9.808280
1864.000000	9.786750
1865.000000	9.755670
1866.000000	9.720400
1867.000000	9.682900
1868.000000	9.639650
1869.000000	9.588650
1870.000000	9.530990
1871.000000	9.467530
1872.000000	9.397970
1873.000000	9.324540
1874.000000	9.250320
1875.000000	9.171900
1876.000000	9.087530
1877.000000	8.996780
1878.000000	8.899650
1879.000000	8.795460
1880.000000	8.682970
1881.000000	8.559710
1882.000000	8.426080
1883.000000	8.286100
1884.000000	8.140660
1885.000000	7.992910
1886.000000	7.843160
1887.000000	7.693040
1888.000000	7.545900
1889.000000	7.403400
1890.000000	7.264300
1891.000000	7.132890
1892.000000	7.010740
1893.000000	6.895300
1894.000000	6.783600
1895.000000	6.676890
1896.000000	6.572730
1897.000000	6.473150
1898.000000	6.376920
1899.000000	6.282700
1900.000000	6.193170
1901.000000	6.106120
1902.000000	6.019890
1903.000000	5.933270
1904.000000	5.848820
1905.000000	5.768280
1906.000000	5.691520
1907.000000	5.615510
1908.000000	5.540840
1909.000000	5.467690
1910.000000	5.394470
1911.000000	5.323650
1912.000000	5.253230
1913.000000	5.186650
1914.000000	5.124220
1915.000000	5.060870
1916.000000	4.999350
1917.000000	4.940840
1918.000000	4.886110
1919.000000	4.834790
1920.000000	4.784400
1921.000000	4.733550
1922.000000	4.687570
1923.000000	4.643260
1924.000000	4.599900
1925.000000	4.558840
1926.000000	4.520350
1927.000000	4.484520
1928.000000	4.451030
1929.000000	4.419970
1930.000000	4.391380
1931.000000	4.367960
1932.000000	4.345460
1933.000000	4.321480
1934.000000	4.301320
1935.000000	4.284850
1936.000000	4.272240
1937.000000	4.258500
1938.000000	4.245420
1939.000000	4.234520
1940.000000	4.227800
1941.000000	4.221350
1942.000000	4.216500
1943.000000	4.218250
1944.000000	4.221410
1945.000000	4.225780
1946.000000	4.229290
1947.000000	4.237720
1948.000000	4.248500
1949.000000	4.261930
1950.000000	4.274110
1951.000000	4.287190
1952.000000	4.304840
1953.000000	4.319860
1954.000000	4.335920
1955.000000	4.351770
1956.000000	4.369680
1957.000000	4.389990
1958.000000	4.409660
1959.000000	4.428570
1960.000000	4.450370
1961.000000	4.470860
1962.000000	4.489900
1963.000000	4.512310
1964.000000	4.533770
1965.000000	4.557080
1966.000000	4.581280
1967.000000	4.603420
1968.000000	4.626340
1969.000000	4.648860
1970.000000	4.670580
1971.000000	4.696090
1972.000000	4.721320
1973.000000	4.744590
1974.000000	4.766410
1975.000000	4.789250
1976.000000	4.812060
1977.000000	4.834000
1978.000000	4.857940
1979.000000	4.882130
1980.000000	4.906540
1981.000000	4.931060
1982.000000	4.953010
1983.000000	4.978160
1984.000000	5.003730
1985.000000	5.029510
1986.000000	5.055280
1987.000000	5.079640
1988.000000	5.103100
1989.000000	5.125590
1990.000000	5.147980
1991.000000	5.170850
1992.000000	5.193520
1993.000000	5.214750
1994.000000	5.237150
1995.000000	5.257980
1996.000000	5.277080
1997.000000	5.296530
1998.000000	5.314530
1999.000000	5.332810
2000.000000	5.347510
2001.000000	5.359960
2002.000000	5.375490
2003.000000	5.389240
2004.000000	5.400500
2005.000000	5.411370
2006.000000	5.421780
2007.000000	5.432150
2008.000000	5.443260
2009.000000	5.452020
2010.000000	5.462450
2011.000000	5.470730
2012.000000	5.474300
2013.000000	5.477820
2014.000000	5.481420
2015.000000	5.483510
2016.000000	5.484070
2017.000000	5.482880
2018.000000	5.477800
2019.000000	5.474470
2020.000000	5.470910
2021.000000	5.464570
2022.000000	5.457750
2023.000000	5.450280
2024.000000	5.441340
2025.000000	5.429800
2026.000000	5.419790
2027.000000	5.410940
2028.000000	5.400070
2029.000000	5.386240
2030.000000	5.371060
2031.000000	5.356380
2032.000000	5.340130
2033.000000	5.322520
2034.000000	5.304750
2035.000000	5.286590
2036.000000	5.265900
2037.000000	5.243580
2038.000000	5.222020
2039.000000	5.199840
2040.000000	5.176360
2041.000000	5.151020
2042.000000	5.126860
2043.000000	5.101730
2044.000000	5.074390
2045.000000	5.045850
2046.000000	5.016870
2047.000000	4.985180
2048.000000	4.955420
2049.000000	4.924630
2050.000000	4.895710
2051.000000	4.868620
2052.000000	4.841930
2053.000000	4.814760
2054.000000	4.790760
2055.000000	4.769650
2056.000000	4.749270
2057.000000	4.731060
2058.000000	4.715020
2059.000000	4.701080
2060.000000	4.687740
2061.000000	4.677110
2062.000000	4.668650
2063.000000	4.662290
2064.000000	4.656080
2065.000000	4.651460
2066.000000	4.648390
2067.000000	4.648910
2068.000000	4.647320
2069.000000	4.648020
2070.000000	4.649720
2071.000000	4.650100
2072.000000	4.651490
2073.000000	4.653890
2074.000000	4.657580
2075.000000	4.662150
2076.000000	4.666610
2077.000000	4.668040
2078.000000	4.670380
2079.000000	4.672790
2080.000000	4.675100
2081.000000	4.677920
2082.000000	4.680540
2083.000000	4.682720
2084.000000	4.683790
2085.000000	4.682560
2086.000000	4.681690
2087.000000	4.683460
2088.000000	4.684730
2089.000000	4.685760
2090.000000	4.687310
2091.000000	4.689250
2092.000000	4.689040
2093.000000	4.688190
2094.000000	4.688410
2095.000000	4.689560
2096.000000	4.690560
2097.000000	4.690580
2098.000000	4.691290
2099.000000	4.692280
2100.000000	4.692410
2101.000000	4.692090
2102.000000	4.692870
2103.000000	4.694310
2104.000000	4.696510
2105.000000	4.700250
2106.000000	4.703560
2107.000000	4.705930
2108.000000	4.707480
2109.000000	4.708300
2110.000000	4.710640
2111.000000	4.714290
2112.000000	4.717160
2113.000000	4.719320
2114.000000	4.721920
2115.000000	4.723320
2116.000000	4.722610
2117.000000	4.723310
2118.000000	4.727280
2119.000000	4.732040
2120.000000	4.735200
2121.000000	4.736950
2122.000000	4.739570
2123.000000	4.742610
2124.000000	4.744480
2125.000000	4.745990
2126.000000	4.749440
2127.000000	4.751360
2128.000000	4.750320
2129.000000	4.747090
2130.000000	4.743320
2131.000000	4.740760
2132.000000	4.738160
2133.000000	4.735720
2134.000000	4.731980
2135.000000	4.727130
2136.000000	4.720570
2137.000000	4.714660
2138.000000	4.710380
2139.000000	4.706300
2140.000000	4.702960
2141.000000	4.696800
2142.000000	4.689020
2143.000000	4.681410
2144.000000	4.673290
2145.000000	4.664540
2146.000000	4.657580
2147.000000	4.651140
2148.000000	4.641180
2149.000000	4.631110
2150.000000	4.620530
2151.000000	4.611030
2152.000000	4.602680
2153.000000	4.593220
2154.000000	4.582760
2155.000000	4.571870
2156.000000	4.561870
2157.000000	4.550690
2158.000000	4.542270
2159.000000	4.534830
2160.000000	4.525400
2161.000000	4.517230
2162.000000	4.508730
2163.000000	4.501540
2164.000000	4.497350
2165.000000	4.496240
2166.000000	4.493260
2167.000000	4.490140
2168.000000	4.486420
2169.000000	4.480300
2170.000000	4.475000
2171.000000	4.468520
2172.000000	4.462330
2173.000000	4.454650
2174.000000	4.447600
2175.000000	4.439710
2176.000000	4.430080
2177.000000	4.422770
2178.000000	4.414160
2179.000000	4.407920
2180.000000	4.400560
2181.000000	4.393630
2182.000000	4.386410
2183.000000	4.380160
2184.000000	4.371980
2185.000000	4.362100
2186.000000	4.351700
2187.000000	4.337670
2188.000000	4.320180
2189.000000	4.302400
2190.000000	4.285560
2191.000000	4.265090
2192.000000	4.239830
2193.000000	4.210270
2194.000000	4.178000
2195.000000	4.140920
2196.000000	4.101550
2197.000000	4.059430
2198.000000	4.016030
2199.000000	3.968110
2200.000000	3.915160
2201.000000	3.862740
2202.000000	3.810890
2203.000000	3.758590
2204.000000	3.705240
2205.000000	3.651140
2206.000000	3.602160
2207.000000	3.556180
2208.000000	3.515610
2209.000000	3.475740
2210.000000	3.440610
2211.000000	3.408570
2212.000000	3.383460
2213.000000	3.364030
2214.000000	3.349190
2215.000000	3.342870
2216.000000	3.339240
2217.000000	3.340390
2218.000000	3.344020
2219.000000	3.350950
2220.000000	3.362510
2221.000000	3.378320
2222.000000	3.392590
2223.000000	3.408850
2224.000000	3.427010
2225.000000	3.444700
2226.000000	3.461070
2227.000000	3.474900
2228.000000	3.487930
2229.000000	3.501790
2230.000000	3.515660
2231.000000	3.525870
2232.000000	3.535430
2233.000000	3.541180
2234.000000	3.543610
2235.000000	3.545370
2236.000000	3.543290
2237.000000	3.540380
2238.000000	3.538030
2239.000000	3.534020
2240.000000	3.521600
2241.000000	3.507360
2242.000000	3.493300
2243.000000	3.476120
2244.000000	3.458830
2245.000000	3.440310
2246.000000	3.421510
2247.000000	3.399560
2248.000000	3.372320
2249.000000	3.342240
2250.000000	3.315070
2251.000000	3.286030
2252.000000	3.255010
2253.000000	3.222800
2254.000000	3.188250
2255.000000	3.150010
2256.000000	3.112170
2257.000000	3.073900
2258.000000	3.032890
2259.000000	2.994040
2260.000000	2.952830
2261.000000	2.911300
2262.000000	2.868060
2263.000000	2.828400
2264.000000	2.791090
2265.000000	2.757120
2266.000000	2.722630
2267.000000	2.691200
2268.000000	2.665210
2269.000000	2.641060
2270.000000	2.623890
2271.000000	2.609140
2272.000000	2.600050
2273.000000	2.593210
2274.000000	2.588260
2275.000000	2.586810
2276.000000	2.590590
2277.000000	2.597510
2278.000000	2.604970
2279.000000	2.617650
2280.000000	2.629490
2281.000000	2.644090
2282.000000	2.658880
2283.000000	2.674160
2284.000000	2.692400
2285.000000	2.710430
2286.000000	2.727760
2287.000000	2.742220
2288.000000	2.758600
2289.000000	2.771400
2290.000000	2.783650
2291.000000	2.793200
2292.000000	2.800490
2293.000000	2.805790
2294.000000	2.805580
2295.000000	2.800690
2296.000000	2.795290
2297.000000	2.789110
2298.000000	2.779510
2299.000000	2.767850
2300.000000	2.754030
2301.000000	2.739360
2302.000000	2.724730
2303.000000	2.709360
2304.000000	2.696230
2305.000000	2.684990
2306.000000	2.673160
2307.000000	2.664180
2308.000000	2.659480
2309.000000	2.656180
2310.000000	2.657150
2311.000000	2.660950
2312.000000	2.666390
2313.000000	2.675430
2314.000000	2.688140
2315.000000	2.705170
2316.000000	2.724500
2317.000000	2.746130
2318.000000	2.769660
2319.000000	2.794820
2320.000000	2.818460
2321.000000	2.844140
2322.000000	2.869870
2323.000000	2.897880
2324.000000	2.923620
2325.000000	2.945820
2326.000000	2.969160
2327.000000	2.990130
2328.000000	3.008540
2329.000000	3.025830
2330.000000	3.042820
2331.000000	3.058750
2332.000000	3.073840
2333.000000	3.085180
2334.000000	3.094710
2335.000000	3.103130
2336.000000	3.108400
2337.000000	3.112380
2338.000000	3.113160
2339.000000	3.111790
2340.000000	3.110030
2341.000000	3.105960
2342.000000	3.100930
2343.000000	3.095550
2344.000000	3.086530
2345.000000	3.076740
2346.000000	3.065710
2347.000000	3.054590
2348.000000	3.043210
2349.000000	3.031210
2350.000000	3.019090
2351.000000	3.006690
2352.000000	2.992760
2353.000000	2.979060
2354.000000	2.970550
2355.000000	2.964130
2356.000000	2.958420
2357.000000	2.954490
2358.000000	2.954460
2359.000000	2.955780
2360.000000	2.957730
2361.000000	2.963160
2362.000000	2.971280
2363.000000	2.980400
2364.000000	2.988780
2365.000000	2.998310
2366.000000	3.007260
2367.000000	3.013550
2368.000000	3.018930
2369.000000	3.026080
2370.000000	3.034000
2371.000000	3.038820
2372.000000	3.042330
2373.000000	3.046250
2374.000000	3.048190
2375.000000	3.047600
2376.000000	3.048220
2377.000000	3.050520
2378.000000	3.051760
2379.000000	3.051440
2380.000000	3.048910
2381.000000	3.046470
2382.000000	3.043590
2383.000000	3.039370
2384.000000	3.036760
2385.000000	3.033570
2386.000000	3.028720
2387.000000	3.022090
2388.000000	3.015930
2389.000000	3.009460
2390.000000	3.002960
2391.000000	2.995600
2392.000000	2.987080
2393.000000	2.976610
2394.000000	2.964230
2395.000000	2.952880
2396.000000	2.941250
2397.000000	2.930000
2398.000000	2.916810
2399.000000	2.903400
2400.000000	2.889790
2401.000000	2.874320
2402.000000	2.857930
2403.000000	2.843820
2404.000000	2.831500
2405.000000	2.816830
2406.000000	2.801600
2407.000000	2.787820
2408.000000	2.773110
2409.000000	2.757920
2410.000000	2.743780
2411.000000	2.729780
2412.000000	2.716580
2413.000000	2.701970
2414.000000	2.687060
2415.000000	2.672870
2416.000000	2.656810
2417.000000	2.639980
2418.000000	2.625070
2419.000000	2.610900
2420.000000	2.594990
2421.000000	2.579020
2422.000000	2.563810
2423.000000	2.547030
2424.000000	2.527130
2425.000000	2.508200
2426.000000	2.489630
2427.000000	2.470150
2428.000000	2.449230
2429.000000	2.429070
2430.000000	2.409250
2431.000000	2.389940
2432.000000	2.370670
2433.000000	2.354340
2434.000000	2.339100
2435.000000	2.323710
2436.000000	2.310330
2437.000000	2.296230
2438.000000	2.283870
2439.000000	2.270980
2440.000000	2.256210
2441.000000	2.243150
2442.000000	2.231650
2443.000000	2.216060
2444.000000	2.202400
2445.000000	2.187160
2446.000000	2.172550
2447.000000	2.159770
2448.000000	2.143990
2449.000000	2.127520
2450.000000	2.113520
2451.000000	2.098330
2452.000000	2.081590
2453.000000	2.065090
2454.000000	2.048190
2455.000000	2.034620
2456.000000	2.020300
2457.000000	2.002870
2458.000000	1.989660
2459.000000	1.975330
2460.000000	1.961080
2461.000000	1.950370
2462.000000	1.941980
2463.000000	1.936500
2464.000000	1.929040
2465.000000	1.919910
2466.000000	1.911310
2467.000000	1.906170
2468.000000	1.898470
2469.000000	1.894350
2470.000000	1.893760
2471.000000	1.894290
2472.000000	1.885750
2473.000000	1.879080
2474.000000	1.877020
2475.000000	1.873210
2476.000000	1.873450
2477.000000	1.873180
2478.000000	1.871560
2479.000000	1.872490
2480.000000	1.870090
2481.000000	1.867840
2482.000000	1.869570
2483.000000	1.868660
2484.000000	1.871130
2485.000000	1.880370
2486.000000	1.879410
2487.000000	1.877600
2488.000000	1.885780
2489.000000	1.890200
2490.000000	1.893050
2491.000000	1.886100
2492.000000	1.886570
2493.000000	1.891790
2494.000000	1.895790
2495.000000	1.897680
2496.000000	1.898230
2497.000000	1.915750
2498.000000	1.914050
2499.000000	1.932430
2500.000000	1.953930
