PE UV       SUBTECH     SPECTRUM    ASCII       PEDS        4.00        
   -1
CICIMAUCR0113-1.ASC
24/04/03
16:15:49.00
24/04/03
16:15:49.00
Vinicio Soto Monge
C. kalinini
250,000000
1
Lambda 1050
1050L1511233
PerkinElmer UV WinLab 6.3.2.0749 / 2.02.05 Lambda 900 UV/VIS/NIR, Aug  7 2015 09:38:08

0
0
3350/servo 860,8/2
0
0
UV/VIS
1
1
1
DoubleDePol,CommonBeamDepol,RBeamAtt,SBeamAtt,60mm sphere, WB InGaAs Detector
0
0
0
0
Program
Program
3350/servo 860,8/2
3350/0,2 860,8/0,2
3350/0,2 860,8/0,2
0
15.00
 
 
 
0
 
860,8
319,2
860,8
Front
100
on
S:100 R:100
0
0
0
0
 
0
 
 
 
0
 
 
0
0
0
0
0
 
 
 
 
0
0


0
0
#HDR
-1
-1
#GR
nm
%R
1.0
0.0
2500,000000
-1,000000
2251
8
83,958100
4,718900
#DATA

250.000000	nan
251.000000	nan
252.000000	nan
253.000000	nan
254.000000	nan
255.000000	nan
256.000000	nan
257.000000	nan
258.000000	nan
259.000000	5.203376
260.000000	5.182838
261.000000	5.168381
262.000000	5.148665
263.000000	5.141413
264.000000	5.134237
265.000000	5.120284
266.000000	5.102854
267.000000	5.074327
268.000000	5.057739
269.000000	5.046226
270.000000	5.035923
271.000000	5.016856
272.000000	5.007154
273.000000	4.991157
274.000000	4.974753
275.000000	4.956713
276.000000	4.947350
277.000000	4.943902
278.000000	4.936737
279.000000	4.925310
280.000000	4.914552
281.000000	4.915201
282.000000	4.907609
283.000000	4.895612
284.000000	4.888310
285.000000	4.886064
286.000000	4.883013
287.000000	4.873330
288.000000	4.860287
289.000000	4.849587
290.000000	4.845384
291.000000	4.840242
292.000000	4.831266
293.000000	4.827392
294.000000	4.812548
295.000000	4.806031
296.000000	4.792058
297.000000	4.781435
298.000000	4.778153
299.000000	4.771549
300.000000	4.758796
301.000000	4.744116
302.000000	4.732409
303.000000	4.726909
304.000000	4.723645
305.000000	4.709459
306.000000	4.700134
307.000000	4.696522
308.000000	4.686355
309.000000	4.683111
310.000000	4.675907
311.000000	4.670184
312.000000	4.668276
313.000000	4.660452
314.000000	4.653151
315.000000	4.655669
316.000000	4.659988
317.000000	4.680661
318.000000	4.696697
319.000000	4.734714
320.000000	4.746779
321.000000	4.766630
322.000000	4.789831
323.000000	4.789221
324.000000	4.801955
325.000000	4.821389
326.000000	4.842053
327.000000	4.829126
328.000000	4.831925
329.000000	4.810766
330.000000	4.820973
331.000000	4.827761
332.000000	4.808104
333.000000	4.822173
334.000000	4.823239
335.000000	4.810515
336.000000	4.795399
337.000000	4.785716
338.000000	4.772604
339.000000	4.767279
340.000000	4.757034
341.000000	4.745878
342.000000	4.756462
343.000000	4.763018
344.000000	4.766804
345.000000	4.773776
346.000000	4.776478
347.000000	4.787613
348.000000	4.793065
349.000000	4.806380
350.000000	4.820508
351.000000	4.824701
352.000000	4.836301
353.000000	4.842169
354.000000	4.856733
355.000000	4.871994
356.000000	4.886422
357.000000	4.896532
358.000000	4.906128
359.000000	4.907483
360.000000	4.913351
361.000000	4.926850
362.000000	4.934403
363.000000	4.948628
364.000000	4.956742
365.000000	4.966096
366.000000	4.986015
367.000000	5.003735
368.000000	5.019897
369.000000	5.031246
370.000000	5.038808
371.000000	5.046226
372.000000	5.051222
373.000000	5.045132
374.000000	5.044008
375.000000	5.042808
376.000000	5.045015
377.000000	5.058446
378.000000	5.074637
379.000000	5.092377
380.000000	5.110823
381.000000	5.132059
382.000000	5.156451
383.000000	5.187496
384.000000	5.218860
385.000000	5.250379
386.000000	5.274926
387.000000	5.294244
388.000000	5.316371
389.000000	5.336348
390.000000	5.357932
391.000000	5.379709
392.000000	5.400935
393.000000	5.421870
394.000000	5.442796
395.000000	5.463693
396.000000	5.484434
397.000000	5.505486
398.000000	5.525966
399.000000	5.549341
400.000000	5.575167
401.000000	5.601535
402.000000	5.631233
403.000000	5.663769
404.000000	5.697738
405.000000	5.734080
406.000000	5.775166
407.000000	5.821297
408.000000	5.871060
409.000000	5.925848
410.000000	5.984887
411.000000	6.052525
412.000000	6.127503
413.000000	6.210751
414.000000	6.306044
415.000000	6.411050
416.000000	6.525991
417.000000	6.654547
418.000000	6.798499
419.000000	6.957586
420.000000	7.134258
421.000000	7.327701
422.000000	7.539882
423.000000	7.770616
424.000000	8.020000
425.000000	8.292256
426.000000	8.585718
427.000000	8.898286
428.000000	9.231092
429.000000	9.584581
430.000000	9.956614
431.000000	10.347684
432.000000	10.756320
433.000000	11.181398
434.000000	11.621882
435.000000	12.074558
436.000000	12.536868
437.000000	13.008601
438.000000	13.487208
439.000000	13.968188
440.000000	14.451908
441.000000	14.933256
442.000000	15.411631
443.000000	15.886248
444.000000	16.352267
445.000000	16.808439
446.000000	17.255246
447.000000	17.691692
448.000000	18.114834
449.000000	18.523644
450.000000	18.917706
451.000000	19.299848
452.000000	19.667746
453.000000	20.019599
454.000000	20.356511
455.000000	20.679808
456.000000	20.990845
457.000000	21.286883
458.000000	21.568794
459.000000	21.840779
460.000000	22.101163
461.000000	22.348320
462.000000	22.583682
463.000000	22.810727
464.000000	23.030567
465.000000	23.241228
466.000000	23.440956
467.000000	23.632617
468.000000	23.817220
469.000000	23.993931
470.000000	24.163767
471.000000	24.327366
472.000000	24.486104
473.000000	24.639275
474.000000	24.786442
475.000000	24.927247
476.000000	25.062998
477.000000	25.194875
478.000000	25.321474
479.000000	25.442457
480.000000	25.559141
481.000000	25.669425
482.000000	25.771322
483.000000	25.859586
484.000000	25.933237
485.000000	25.996876
486.000000	26.045951
487.000000	26.076821
488.000000	26.092663
489.000000	26.089448
490.000000	26.061522
491.000000	26.009784
492.000000	25.933363
493.000000	25.834458
494.000000	25.713339
495.000000	25.565184
496.000000	25.392337
497.000000	25.194565
498.000000	24.968130
499.000000	24.718930
500.000000	24.451710
501.000000	24.169548
502.000000	23.879978
503.000000	23.588074
504.000000	23.299192
505.000000	23.023673
506.000000	22.772565
507.000000	22.555049
508.000000	22.385794
509.000000	22.269962
510.000000	22.214951
511.000000	22.232372
512.000000	22.324160
513.000000	22.496358
514.000000	22.752714
515.000000	23.089355
516.000000	23.502096
517.000000	23.985981
518.000000	24.532149
519.000000	25.134557
520.000000	25.788907
521.000000	26.480993
522.000000	27.200482
523.000000	27.940045
524.000000	28.692622
525.000000	29.450225
526.000000	30.203558
527.000000	30.951613
528.000000	31.689743
529.000000	32.418258
530.000000	33.133574
531.000000	33.834704
532.000000	34.522916
533.000000	35.198666
534.000000	35.862254
535.000000	36.521920
536.000000	37.179320
537.000000	37.833873
538.000000	38.488968
539.000000	39.143521
540.000000	39.800389
541.000000	40.461130
542.000000	41.128029
543.000000	41.798628
544.000000	42.471589
545.000000	43.140957
546.000000	43.810926
547.000000	44.483790
548.000000	45.152830
549.000000	45.821743
550.000000	46.491267
551.000000	47.156559
552.000000	47.824814
553.000000	48.492982
554.000000	49.162544
555.000000	49.836270
556.000000	50.512224
557.000000	51.188138
558.000000	51.870173
559.000000	52.553040
560.000000	53.247537
561.000000	53.938809
562.000000	54.616331
563.000000	55.283192
564.000000	55.936699
565.000000	56.574645
566.000000	57.188422
567.000000	57.781428
568.000000	58.347205
569.000000	58.888192
570.000000	59.385169
571.000000	59.856969
572.000000	60.298780
573.000000	60.712615
574.000000	61.102940
575.000000	61.467420
576.000000	61.817036
577.000000	62.147508
578.000000	62.466263
579.000000	62.769719
580.000000	63.064701
581.000000	63.347038
582.000000	63.620078
583.000000	63.887396
584.000000	64.148022
585.000000	64.401599
586.000000	64.644698
587.000000	64.880293
588.000000	65.100502
589.000000	65.312188
590.000000	65.510387
591.000000	65.693924
592.000000	65.872068
593.000000	66.033634
594.000000	66.172783
595.000000	66.292837
596.000000	66.396874
597.000000	66.478098
598.000000	66.548438
599.000000	66.595440
600.000000	66.633651
601.000000	66.661461
602.000000	66.672268
603.000000	66.674379
604.000000	66.668656
605.000000	66.652988
606.000000	66.618477
607.000000	66.573682
608.000000	66.511196
609.000000	66.440236
610.000000	66.348700
611.000000	66.240082
612.000000	66.112582
613.000000	65.969375
614.000000	65.807645
615.000000	65.632813
616.000000	65.440454
617.000000	65.224545
618.000000	64.990441
619.000000	64.730357
620.000000	64.442530
621.000000	64.133274
622.000000	63.797428
623.000000	63.438623
624.000000	63.052733
625.000000	62.632080
626.000000	62.190705
627.000000	61.728859
628.000000	61.242205
629.000000	60.737095
630.000000	60.212191
631.000000	59.668929
632.000000	59.117144
633.000000	58.549847
634.000000	57.979500
635.000000	57.425867
636.000000	56.883698
637.000000	56.360208
638.000000	55.865323
639.000000	55.396816
640.000000	54.972803
641.000000	54.588288
642.000000	54.248530
643.000000	53.952211
644.000000	53.701607
645.000000	53.489803
646.000000	53.313364
647.000000	53.168356
648.000000	53.040846
649.000000	52.939433
650.000000	52.838746
651.000000	52.746987
652.000000	52.651936
653.000000	52.556410
654.000000	52.451365
655.000000	52.332309
656.000000	52.203898
657.000000	52.065960
658.000000	51.924409
659.000000	51.778404
660.000000	51.641463
661.000000	51.511522
662.000000	51.401907
663.000000	51.312056
664.000000	51.257761
665.000000	51.232149
666.000000	51.245570
667.000000	51.300290
668.000000	51.399419
669.000000	51.543158
670.000000	51.743021
671.000000	51.989210
672.000000	52.280329
673.000000	52.615313
674.000000	52.986552
675.000000	53.398374
676.000000	53.845597
677.000000	54.330141
678.000000	54.845332
679.000000	55.390880
680.000000	55.958215
681.000000	56.544917
682.000000	57.145932
683.000000	57.766526
684.000000	58.397761
685.000000	59.038467
686.000000	59.674516
687.000000	60.302730
688.000000	60.924718
689.000000	61.526178
690.000000	62.094192
691.000000	62.635189
692.000000	63.142420
693.000000	63.605137
694.000000	64.018692
695.000000	64.377410
696.000000	64.687276
697.000000	64.948880
698.000000	65.154961
699.000000	65.308761
700.000000	65.416110
701.000000	65.474122
702.000000	65.491523
703.000000	65.472757
704.000000	65.421010
705.000000	65.351484
706.000000	65.269524
707.000000	65.175170
708.000000	65.073698
709.000000	64.976149
710.000000	64.892979
711.000000	64.829243
712.000000	64.789164
713.000000	64.776624
714.000000	64.794983
715.000000	64.842112
716.000000	64.928603
717.000000	65.050187
718.000000	65.212247
719.000000	65.412372
720.000000	65.648664
721.000000	65.926469
722.000000	66.244633
723.000000	66.589630
724.000000	66.966001
725.000000	67.379130
726.000000	67.814966
727.000000	68.274111
728.000000	68.752011
729.000000	69.242180
730.000000	69.741142
731.000000	70.237722
732.000000	70.731251
733.000000	71.230668
734.000000	71.730888
735.000000	72.208130
736.000000	72.671070
737.000000	73.121015
738.000000	73.557965
739.000000	73.987972
740.000000	74.395474
741.000000	74.787716
742.000000	75.160001
743.000000	75.512929
744.000000	75.841967
745.000000	76.158622
746.000000	76.463075
747.000000	76.748655
748.000000	77.014404
749.000000	77.265473
750.000000	77.510344
751.000000	77.740216
752.000000	77.964075
753.000000	78.173080
754.000000	78.370348
755.000000	78.566193
756.000000	78.747339
757.000000	78.919353
758.000000	79.083698
759.000000	79.228628
760.000000	79.368262
761.000000	79.502085
762.000000	79.614073
763.000000	79.717674
764.000000	79.813529
765.000000	79.882465
766.000000	79.940904
767.000000	79.994269
768.000000	80.036343
769.000000	80.070776
770.000000	80.090027
771.000000	80.105733
772.000000	80.117314
773.000000	80.113925
774.000000	80.112299
775.000000	80.118767
776.000000	80.114661
777.000000	80.108532
778.000000	80.117731
779.000000	80.128780
780.000000	80.140864
781.000000	80.150538
782.000000	80.173788
783.000000	80.211369
784.000000	80.254295
785.000000	80.301830
786.000000	80.352174
787.000000	80.411174
788.000000	80.455872
789.000000	80.500977
790.000000	80.559464
791.000000	80.623297
792.000000	80.676690
793.000000	80.733483
794.000000	80.779721
795.000000	80.818173
796.000000	80.865321
797.000000	80.920971
798.000000	80.984019
799.000000	81.045247
800.000000	81.091698
801.000000	81.130412
802.000000	81.167886
803.000000	81.188715
804.000000	81.210338
805.000000	81.227545
806.000000	81.235960
807.000000	81.205680
808.000000	81.169706
809.000000	81.114628
810.000000	81.035970
811.000000	80.952413
812.000000	80.864111
813.000000	80.758601
814.000000	80.620198
815.000000	80.475878
816.000000	80.308279
817.000000	80.142782
818.000000	79.945126
819.000000	79.748603
820.000000	79.556273
821.000000	79.344364
822.000000	79.096345
823.000000	78.842923
824.000000	78.591418
825.000000	78.329698
826.000000	78.056173
827.000000	77.775125
828.000000	77.491036
829.000000	77.188006
830.000000	76.865281
831.000000	76.547591
832.000000	76.234026
833.000000	75.912888
834.000000	75.587500
835.000000	75.261986
836.000000	74.941758
837.000000	74.612313
838.000000	74.279371
839.000000	73.962930
840.000000	73.656579
841.000000	73.350800
842.000000	73.083356
843.000000	72.789749
844.000000	72.497932
845.000000	72.187911
846.000000	71.883662
847.000000	71.593685
848.000000	71.316123
849.000000	71.029574
850.000000	70.730157
851.000000	70.463778
852.000000	70.165455
853.000000	69.872670
854.000000	69.576564
855.000000	69.317933
856.000000	69.069749
857.000000	68.841843
858.000000	68.580539
859.000000	68.545124
860.000000	68.544881
861.000000	68.529766
862.000000	68.539456
863.000000	68.600941
864.000000	68.685499
865.000000	68.759843
866.000000	68.839729
867.000000	68.896449
868.000000	68.994610
869.000000	68.877150
870.000000	68.746250
871.000000	68.595110
872.000000	68.432370
873.000000	68.255960
874.000000	68.073970
875.000000	67.883620
876.000000	67.689440
877.000000	67.496490
878.000000	67.301310
879.000000	67.108620
880.000000	66.917250
881.000000	66.725510
882.000000	66.533120
883.000000	66.341670
884.000000	66.151170
885.000000	65.966880
886.000000	65.782810
887.000000	65.598480
888.000000	65.411970
889.000000	65.222670
890.000000	65.033820
891.000000	64.844600
892.000000	64.658800
893.000000	64.471670
894.000000	64.283800
895.000000	64.088680
896.000000	63.890890
897.000000	63.691500
898.000000	63.490240
899.000000	63.286930
900.000000	63.079450
901.000000	62.871600
902.000000	62.658590
903.000000	62.443300
904.000000	62.226820
905.000000	62.009940
906.000000	61.793690
907.000000	61.575560
908.000000	61.361030
909.000000	61.151910
910.000000	60.949770
911.000000	60.747250
912.000000	60.547500
913.000000	60.353640
914.000000	60.163520
915.000000	59.980880
916.000000	59.801370
917.000000	59.630150
918.000000	59.462130
919.000000	59.294140
920.000000	59.125690
921.000000	58.959780
922.000000	58.795330
923.000000	58.629160
924.000000	58.463390
925.000000	58.298240
926.000000	58.127550
927.000000	57.956180
928.000000	57.782130
929.000000	57.608430
930.000000	57.430000
931.000000	57.252880
932.000000	57.073220
933.000000	56.892520
934.000000	56.707040
935.000000	56.518900
936.000000	56.330900
937.000000	56.138650
938.000000	55.944090
939.000000	55.745920
940.000000	55.548670
941.000000	55.352240
942.000000	55.152080
943.000000	54.952030
944.000000	54.754150
945.000000	54.555810
946.000000	54.360640
947.000000	54.169500
948.000000	53.980170
949.000000	53.793890
950.000000	53.610240
951.000000	53.427310
952.000000	53.249380
953.000000	53.074440
954.000000	52.902030
955.000000	52.731840
956.000000	52.564130
957.000000	52.396050
958.000000	52.229650
959.000000	52.064500
960.000000	51.898480
961.000000	51.732630
962.000000	51.569160
963.000000	51.405980
964.000000	51.243480
965.000000	51.083970
966.000000	50.929010
967.000000	50.778110
968.000000	50.630520
969.000000	50.488020
970.000000	50.352480
971.000000	50.222440
972.000000	50.095670
973.000000	49.974680
974.000000	49.860890
975.000000	49.750240
976.000000	49.641460
977.000000	49.536270
978.000000	49.436180
979.000000	49.340210
980.000000	49.246910
981.000000	49.157880
982.000000	49.073050
983.000000	48.991360
984.000000	48.913100
985.000000	48.839050
986.000000	48.767810
987.000000	48.699240
988.000000	48.636390
989.000000	48.576220
990.000000	48.521380
991.000000	48.469880
992.000000	48.422290
993.000000	48.381400
994.000000	48.343380
995.000000	48.309100
996.000000	48.280780
997.000000	48.257170
998.000000	48.236030
999.000000	48.219150
1000.000000	48.204480
1001.000000	48.193640
1002.000000	48.186590
1003.000000	48.180990
1004.000000	48.178400
1005.000000	48.178420
1006.000000	48.180070
1007.000000	48.182250
1008.000000	48.184740
1009.000000	48.187940
1010.000000	48.193080
1011.000000	48.199830
1012.000000	48.208850
1013.000000	48.219920
1014.000000	48.236110
1015.000000	48.257350
1016.000000	48.283380
1017.000000	48.316600
1018.000000	48.357890
1019.000000	48.406750
1020.000000	48.462930
1021.000000	48.528320
1022.000000	48.600680
1023.000000	48.678630
1024.000000	48.760300
1025.000000	48.846050
1026.000000	48.937490
1027.000000	49.033410
1028.000000	49.130440
1029.000000	49.227790
1030.000000	49.326720
1031.000000	49.423880
1032.000000	49.519650
1033.000000	49.615960
1034.000000	49.712350
1035.000000	49.807530
1036.000000	49.901120
1037.000000	49.991360
1038.000000	50.078570
1039.000000	50.165060
1040.000000	50.250310
1041.000000	50.333880
1042.000000	50.414990
1043.000000	50.492190
1044.000000	50.567990
1045.000000	50.643060
1046.000000	50.715010
1047.000000	50.785400
1048.000000	50.853790
1049.000000	50.919390
1050.000000	50.981210
1051.000000	51.042560
1052.000000	51.105570
1053.000000	51.171150
1054.000000	51.238470
1055.000000	51.306020
1056.000000	51.376180
1057.000000	51.450130
1058.000000	51.529780
1059.000000	51.612260
1060.000000	51.697520
1061.000000	51.783590
1062.000000	51.870700
1063.000000	51.957460
1064.000000	52.041910
1065.000000	52.127900
1066.000000	52.213150
1067.000000	52.296550
1068.000000	52.378820
1069.000000	52.462230
1070.000000	52.545340
1071.000000	52.628470
1072.000000	52.710120
1073.000000	52.791790
1074.000000	52.875110
1075.000000	52.957960
1076.000000	53.040320
1077.000000	53.121870
1078.000000	53.201880
1079.000000	53.280120
1080.000000	53.359780
1081.000000	53.439160
1082.000000	53.518690
1083.000000	53.598350
1084.000000	53.675460
1085.000000	53.750120
1086.000000	53.823880
1087.000000	53.898400
1088.000000	53.974440
1089.000000	54.050810
1090.000000	54.124490
1091.000000	54.196700
1092.000000	54.266600
1093.000000	54.333490
1094.000000	54.399440
1095.000000	54.462560
1096.000000	54.523530
1097.000000	54.578750
1098.000000	54.629480
1099.000000	54.675420
1100.000000	54.716740
1101.000000	54.753890
1102.000000	54.789480
1103.000000	54.821140
1104.000000	54.850490
1105.000000	54.877780
1106.000000	54.900190
1107.000000	54.921000
1108.000000	54.939990
1109.000000	54.957550
1110.000000	54.976420
1111.000000	54.994580
1112.000000	55.011520
1113.000000	55.028450
1114.000000	55.043570
1115.000000	55.059760
1116.000000	55.076190
1117.000000	55.093370
1118.000000	55.106190
1119.000000	55.115970
1120.000000	55.118230
1121.000000	55.113330
1122.000000	55.098360
1123.000000	55.073640
1124.000000	55.038530
1125.000000	54.989750
1126.000000	54.927640
1127.000000	54.846930
1128.000000	54.747720
1129.000000	54.623590
1130.000000	54.472470
1131.000000	54.289500
1132.000000	54.072210
1133.000000	53.815260
1134.000000	53.522110
1135.000000	53.187000
1136.000000	52.810150
1137.000000	52.396750
1138.000000	51.952820
1139.000000	51.488470
1140.000000	51.008220
1141.000000	50.520540
1142.000000	50.030030
1143.000000	49.547750
1144.000000	49.070990
1145.000000	48.614970
1146.000000	48.189930
1147.000000	47.801960
1148.000000	47.453960
1149.000000	47.148550
1150.000000	46.884770
1151.000000	46.659820
1152.000000	46.472920
1153.000000	46.316160
1154.000000	46.182240
1155.000000	46.058780
1156.000000	45.929860
1157.000000	45.786560
1158.000000	45.619270
1159.000000	45.420370
1160.000000	45.185720
1161.000000	44.921800
1162.000000	44.623310
1163.000000	44.294490
1164.000000	43.941650
1165.000000	43.574140
1166.000000	43.195540
1167.000000	42.812700
1168.000000	42.428650
1169.000000	42.044920
1170.000000	41.669070
1171.000000	41.294950
1172.000000	40.927380
1173.000000	40.569270
1174.000000	40.223290
1175.000000	39.883120
1176.000000	39.552560
1177.000000	39.224970
1178.000000	38.893360
1179.000000	38.554140
1180.000000	38.200320
1181.000000	37.832910
1182.000000	37.454410
1183.000000	37.070100
1184.000000	36.684550
1185.000000	36.314210
1186.000000	35.968450
1187.000000	35.663310
1188.000000	35.416700
1189.000000	35.241300
1190.000000	35.150480
1191.000000	35.147050
1192.000000	35.231860
1193.000000	35.390250
1194.000000	35.612570
1195.000000	35.876970
1196.000000	36.168700
1197.000000	36.468510
1198.000000	36.760570
1199.000000	37.032010
1200.000000	37.272520
1201.000000	37.476590
1202.000000	37.640070
1203.000000	37.769680
1204.000000	37.866650
1205.000000	37.938600
1206.000000	37.993490
1207.000000	38.040030
1208.000000	38.084320
1209.000000	38.130990
1210.000000	38.181440
1211.000000	38.239030
1212.000000	38.305450
1213.000000	38.382150
1214.000000	38.470300
1215.000000	38.570900
1216.000000	38.682360
1217.000000	38.800430
1218.000000	38.926230
1219.000000	39.059720
1220.000000	39.200910
1221.000000	39.348860
1222.000000	39.506290
1223.000000	39.669370
1224.000000	39.842380
1225.000000	40.019580
1226.000000	40.202620
1227.000000	40.390770
1228.000000	40.583880
1229.000000	40.779170
1230.000000	40.976340
1231.000000	41.175510
1232.000000	41.374200
1233.000000	41.572630
1234.000000	41.765300
1235.000000	41.958220
1236.000000	42.145920
1237.000000	42.331160
1238.000000	42.511650
1239.000000	42.688330
1240.000000	42.862060
1241.000000	43.032200
1242.000000	43.196940
1243.000000	43.355250
1244.000000	43.510660
1245.000000	43.661010
1246.000000	43.808400
1247.000000	43.951330
1248.000000	44.089730
1249.000000	44.222570
1250.000000	44.350350
1251.000000	44.471190
1252.000000	44.587210
1253.000000	44.701350
1254.000000	44.809370
1255.000000	44.911330
1256.000000	45.008550
1257.000000	45.101170
1258.000000	45.189610
1259.000000	45.274040
1260.000000	45.354660
1261.000000	45.434250
1262.000000	45.510450
1263.000000	45.581110
1264.000000	45.649550
1265.000000	45.717190
1266.000000	45.782480
1267.000000	45.843920
1268.000000	45.905680
1269.000000	45.966350
1270.000000	46.024680
1271.000000	46.079790
1272.000000	46.132820
1273.000000	46.185480
1274.000000	46.237000
1275.000000	46.287340
1276.000000	46.337800
1277.000000	46.389890
1278.000000	46.440950
1279.000000	46.494250
1280.000000	46.549880
1281.000000	46.608030
1282.000000	46.669450
1283.000000	46.732670
1284.000000	46.797940
1285.000000	46.864080
1286.000000	46.930670
1287.000000	46.996450
1288.000000	47.061350
1289.000000	47.123170
1290.000000	47.180960
1291.000000	47.235020
1292.000000	47.283340
1293.000000	47.327250
1294.000000	47.364800
1295.000000	47.395660
1296.000000	47.420390
1297.000000	47.437780
1298.000000	47.447970
1299.000000	47.452730
1300.000000	47.452220
1301.000000	47.446530
1302.000000	47.437140
1303.000000	47.422620
1304.000000	47.402980
1305.000000	47.378320
1306.000000	47.347330
1307.000000	47.310810
1308.000000	47.267170
1309.000000	47.215210
1310.000000	47.155230
1311.000000	47.086180
1312.000000	47.008250
1313.000000	46.921250
1314.000000	46.825780
1315.000000	46.720950
1316.000000	46.607800
1317.000000	46.486520
1318.000000	46.358480
1319.000000	46.223480
1320.000000	46.081180
1321.000000	45.930420
1322.000000	45.770890
1323.000000	45.602710
1324.000000	45.428280
1325.000000	45.248100
1326.000000	45.059530
1327.000000	44.863060
1328.000000	44.658410
1329.000000	44.443750
1330.000000	44.221370
1331.000000	43.990490
1332.000000	43.752020
1333.000000	43.505140
1334.000000	43.246620
1335.000000	42.979250
1336.000000	42.705130
1337.000000	42.420880
1338.000000	42.126630
1339.000000	41.826380
1340.000000	41.520440
1341.000000	41.211200
1342.000000	40.892620
1343.000000	40.569380
1344.000000	40.243600
1345.000000	39.909670
1346.000000	39.568960
1347.000000	39.225400
1348.000000	38.877740
1349.000000	38.521560
1350.000000	38.152950
1351.000000	37.766890
1352.000000	37.366070
1353.000000	36.950510
1354.000000	36.524930
1355.000000	36.094030
1356.000000	35.666790
1357.000000	35.254940
1358.000000	34.866210
1359.000000	34.508590
1360.000000	34.188170
1361.000000	33.908440
1362.000000	33.666180
1363.000000	33.453460
1364.000000	33.267370
1365.000000	33.107390
1366.000000	32.957500
1367.000000	32.804890
1368.000000	32.637870
1369.000000	32.448910
1370.000000	32.230410
1371.000000	31.979530
1372.000000	31.696220
1373.000000	31.382390
1374.000000	31.036300
1375.000000	30.661690
1376.000000	30.266650
1377.000000	29.858090
1378.000000	29.440090
1379.000000	29.021310
1380.000000	28.600120
1381.000000	28.188890
1382.000000	27.785670
1383.000000	27.390930
1384.000000	27.006500
1385.000000	26.631610
1386.000000	26.269050
1387.000000	25.918280
1388.000000	25.587730
1389.000000	25.268910
1390.000000	24.971810
1391.000000	24.692410
1392.000000	24.439250
1393.000000	24.216500
1394.000000	24.025210
1395.000000	23.864110
1396.000000	23.721480
1397.000000	23.586330
1398.000000	23.451930
1399.000000	23.327320
1400.000000	23.205260
1401.000000	23.075790
1402.000000	22.929820
1403.000000	22.772680
1404.000000	22.598720
1405.000000	22.409660
1406.000000	22.207680
1407.000000	22.001070
1408.000000	21.788440
1409.000000	21.566840
1410.000000	21.335420
1411.000000	21.101020
1412.000000	20.874230
1413.000000	20.656380
1414.000000	20.446880
1415.000000	20.244190
1416.000000	20.048360
1417.000000	19.858190
1418.000000	19.677900
1419.000000	19.503690
1420.000000	19.338560
1421.000000	19.177230
1422.000000	19.023360
1423.000000	18.873980
1424.000000	18.725830
1425.000000	18.578290
1426.000000	18.437950
1427.000000	18.300580
1428.000000	18.166890
1429.000000	18.037680
1430.000000	17.913190
1431.000000	17.800310
1432.000000	17.692810
1433.000000	17.589460
1434.000000	17.493260
1435.000000	17.400690
1436.000000	17.315730
1437.000000	17.236700
1438.000000	17.160910
1439.000000	17.089590
1440.000000	17.019490
1441.000000	16.953510
1442.000000	16.889890
1443.000000	16.824240
1444.000000	16.761130
1445.000000	16.705020
1446.000000	16.648820
1447.000000	16.592880
1448.000000	16.539850
1449.000000	16.485760
1450.000000	16.441240
1451.000000	16.394440
1452.000000	16.352240
1453.000000	16.311080
1454.000000	16.271370
1455.000000	16.230100
1456.000000	16.189620
1457.000000	16.153990
1458.000000	16.120560
1459.000000	16.091370
1460.000000	16.061190
1461.000000	16.036460
1462.000000	16.010330
1463.000000	15.985690
1464.000000	15.964770
1465.000000	15.949030
1466.000000	15.935370
1467.000000	15.925170
1468.000000	15.915660
1469.000000	15.907140
1470.000000	15.897200
1471.000000	15.888080
1472.000000	15.882990
1473.000000	15.880960
1474.000000	15.879050
1475.000000	15.874480
1476.000000	15.871350
1477.000000	15.867600
1478.000000	15.864650
1479.000000	15.862740
1480.000000	15.860630
1481.000000	15.860160
1482.000000	15.858170
1483.000000	15.855620
1484.000000	15.854250
1485.000000	15.855610
1486.000000	15.858310
1487.000000	15.862330
1488.000000	15.868420
1489.000000	15.874540
1490.000000	15.881520
1491.000000	15.886170
1492.000000	15.892050
1493.000000	15.900290
1494.000000	15.910300
1495.000000	15.921660
1496.000000	15.931860
1497.000000	15.940780
1498.000000	15.949260
1499.000000	15.960180
1500.000000	15.974330
1501.000000	15.991410
1502.000000	16.008190
1503.000000	16.026080
1504.000000	16.044090
1505.000000	16.061300
1506.000000	16.079710
1507.000000	16.102030
1508.000000	16.125950
1509.000000	16.149230
1510.000000	16.173510
1511.000000	16.196940
1512.000000	16.223770
1513.000000	16.250600
1514.000000	16.275960
1515.000000	16.302800
1516.000000	16.330150
1517.000000	16.356240
1518.000000	16.382780
1519.000000	16.409440
1520.000000	16.435650
1521.000000	16.463650
1522.000000	16.489070
1523.000000	16.516000
1524.000000	16.541880
1525.000000	16.567320
1526.000000	16.593940
1527.000000	16.619070
1528.000000	16.643740
1529.000000	16.669090
1530.000000	16.694020
1531.000000	16.718110
1532.000000	16.742940
1533.000000	16.766310
1534.000000	16.790270
1535.000000	16.812980
1536.000000	16.835260
1537.000000	16.857470
1538.000000	16.878670
1539.000000	16.899260
1540.000000	16.917710
1541.000000	16.934750
1542.000000	16.950800
1543.000000	16.966530
1544.000000	16.982920
1545.000000	16.999320
1546.000000	17.014890
1547.000000	17.031290
1548.000000	17.046760
1549.000000	17.062710
1550.000000	17.081450
1551.000000	17.099800
1552.000000	17.117830
1553.000000	17.135640
1554.000000	17.154000
1555.000000	17.172470
1556.000000	17.189680
1557.000000	17.205800
1558.000000	17.220840
1559.000000	17.234610
1560.000000	17.245710
1561.000000	17.255020
1562.000000	17.263310
1563.000000	17.269330
1564.000000	17.273240
1565.000000	17.275460
1566.000000	17.275360
1567.000000	17.273550
1568.000000	17.271150
1569.000000	17.265110
1570.000000	17.258440
1571.000000	17.253430
1572.000000	17.246620
1573.000000	17.239460
1574.000000	17.233070
1575.000000	17.226890
1576.000000	17.222290
1577.000000	17.219590
1578.000000	17.217570
1579.000000	17.217910
1580.000000	17.219630
1581.000000	17.220670
1582.000000	17.223970
1583.000000	17.230370
1584.000000	17.237500
1585.000000	17.247030
1586.000000	17.258090
1587.000000	17.269760
1588.000000	17.281890
1589.000000	17.296030
1590.000000	17.312120
1591.000000	17.329810
1592.000000	17.349000
1593.000000	17.369200
1594.000000	17.389660
1595.000000	17.409330
1596.000000	17.430980
1597.000000	17.454200
1598.000000	17.479580
1599.000000	17.507080
1600.000000	17.535450
1601.000000	17.564940
1602.000000	17.595550
1603.000000	17.627730
1604.000000	17.660890
1605.000000	17.694690
1606.000000	17.730170
1607.000000	17.765940
1608.000000	17.802070
1609.000000	17.838010
1610.000000	17.873810
1611.000000	17.911440
1612.000000	17.949840
1613.000000	17.988650
1614.000000	18.027970
1615.000000	18.070850
1616.000000	18.111180
1617.000000	18.151880
1618.000000	18.193310
1619.000000	18.234100
1620.000000	18.277240
1621.000000	18.319540
1622.000000	18.361970
1623.000000	18.405070
1624.000000	18.449810
1625.000000	18.494590
1626.000000	18.541990
1627.000000	18.591070
1628.000000	18.641210
1629.000000	18.692890
1630.000000	18.743730
1631.000000	18.796130
1632.000000	18.850600
1633.000000	18.904750
1634.000000	18.957410
1635.000000	19.009540
1636.000000	19.061920
1637.000000	19.113390
1638.000000	19.164240
1639.000000	19.215710
1640.000000	19.265200
1641.000000	19.311750
1642.000000	19.357690
1643.000000	19.402130
1644.000000	19.446880
1645.000000	19.492170
1646.000000	19.536030
1647.000000	19.579120
1648.000000	19.620910
1649.000000	19.660890
1650.000000	19.698020
1651.000000	19.735780
1652.000000	19.769760
1653.000000	19.801330
1654.000000	19.831380
1655.000000	19.855760
1656.000000	19.875450
1657.000000	19.890300
1658.000000	19.901180
1659.000000	19.908090
1660.000000	19.910640
1661.000000	19.908290
1662.000000	19.901120
1663.000000	19.887620
1664.000000	19.866580
1665.000000	19.839110
1666.000000	19.805210
1667.000000	19.766800
1668.000000	19.721850
1669.000000	19.663730
1670.000000	19.598760
1671.000000	19.520510
1672.000000	19.428670
1673.000000	19.323600
1674.000000	19.201490
1675.000000	19.063120
1676.000000	18.904450
1677.000000	18.721860
1678.000000	18.515130
1679.000000	18.287500
1680.000000	18.037420
1681.000000	17.772670
1682.000000	17.500540
1683.000000	17.231860
1684.000000	16.972750
1685.000000	16.732690
1686.000000	16.517130
1687.000000	16.325980
1688.000000	16.163470
1689.000000	16.031640
1690.000000	15.920890
1691.000000	15.831210
1692.000000	15.757630
1693.000000	15.691220
1694.000000	15.631780
1695.000000	15.574610
1696.000000	15.518840
1697.000000	15.475170
1698.000000	15.441010
1699.000000	15.418100
1700.000000	15.416040
1701.000000	15.432110
1702.000000	15.461310
1703.000000	15.503310
1704.000000	15.554690
1705.000000	15.609770
1706.000000	15.666850
1707.000000	15.720240
1708.000000	15.767900
1709.000000	15.805820
1710.000000	15.835610
1711.000000	15.852200
1712.000000	15.860580
1713.000000	15.859270
1714.000000	15.850000
1715.000000	15.832330
1716.000000	15.807660
1717.000000	15.775870
1718.000000	15.738270
1719.000000	15.698550
1720.000000	15.655240
1721.000000	15.615530
1722.000000	15.574640
1723.000000	15.536500
1724.000000	15.499120
1725.000000	15.462780
1726.000000	15.427560
1727.000000	15.390820
1728.000000	15.350210
1729.000000	15.308640
1730.000000	15.262390
1731.000000	15.213970
1732.000000	15.163940
1733.000000	15.114300
1734.000000	15.070540
1735.000000	15.036210
1736.000000	15.015630
1737.000000	15.008100
1738.000000	15.019530
1739.000000	15.049580
1740.000000	15.100460
1741.000000	15.166550
1742.000000	15.251930
1743.000000	15.347380
1744.000000	15.451310
1745.000000	15.557140
1746.000000	15.660770
1747.000000	15.763080
1748.000000	15.858900
1749.000000	15.945650
1750.000000	16.019770
1751.000000	16.082140
1752.000000	16.133330
1753.000000	16.175790
1754.000000	16.207530
1755.000000	16.229850
1756.000000	16.242180
1757.000000	16.244980
1758.000000	16.239670
1759.000000	16.224930
1760.000000	16.205360
1761.000000	16.183690
1762.000000	16.157010
1763.000000	16.130440
1764.000000	16.105360
1765.000000	16.087400
1766.000000	16.077480
1767.000000	16.077280
1768.000000	16.088140
1769.000000	16.109220
1770.000000	16.142650
1771.000000	16.182560
1772.000000	16.234750
1773.000000	16.293550
1774.000000	16.359180
1775.000000	16.427880
1776.000000	16.499180
1777.000000	16.569730
1778.000000	16.638550
1779.000000	16.709050
1780.000000	16.777810
1781.000000	16.845230
1782.000000	16.906500
1783.000000	16.966790
1784.000000	17.025060
1785.000000	17.081610
1786.000000	17.136650
1787.000000	17.190040
1788.000000	17.240890
1789.000000	17.289370
1790.000000	17.336890
1791.000000	17.383640
1792.000000	17.429840
1793.000000	17.474230
1794.000000	17.515530
1795.000000	17.554390
1796.000000	17.592530
1797.000000	17.630380
1798.000000	17.667250
1799.000000	17.701550
1800.000000	17.735540
1801.000000	17.771620
1802.000000	17.808060
1803.000000	17.842740
1804.000000	17.875870
1805.000000	17.909920
1806.000000	17.942340
1807.000000	17.972790
1808.000000	18.004850
1809.000000	18.037550
1810.000000	18.066380
1811.000000	18.093350
1812.000000	18.118830
1813.000000	18.142740
1814.000000	18.165450
1815.000000	18.183590
1816.000000	18.199160
1817.000000	18.212380
1818.000000	18.221140
1819.000000	18.228430
1820.000000	18.238920
1821.000000	18.250430
1822.000000	18.260620
1823.000000	18.268430
1824.000000	18.277190
1825.000000	18.289210
1826.000000	18.303850
1827.000000	18.322980
1828.000000	18.348920
1829.000000	18.379820
1830.000000	18.411300
1831.000000	18.442530
1832.000000	18.475460
1833.000000	18.512120
1834.000000	18.550270
1835.000000	18.590400
1836.000000	18.633090
1837.000000	18.676320
1838.000000	18.715430
1839.000000	18.749330
1840.000000	18.780760
1841.000000	18.811420
1842.000000	18.841460
1843.000000	18.866590
1844.000000	18.886100
1845.000000	18.901270
1846.000000	18.913710
1847.000000	18.926630
1848.000000	18.942680
1849.000000	18.961890
1850.000000	18.976380
1851.000000	18.983170
1852.000000	18.988100
1853.000000	18.996710
1854.000000	19.008610
1855.000000	19.019920
1856.000000	19.025490
1857.000000	19.022260
1858.000000	19.010020
1859.000000	18.990280
1860.000000	18.967270
1861.000000	18.938230
1862.000000	18.900320
1863.000000	18.851060
1864.000000	18.790760
1865.000000	18.719810
1866.000000	18.639420
1867.000000	18.551900
1868.000000	18.455370
1869.000000	18.345670
1870.000000	18.222080
1871.000000	18.089100
1872.000000	17.944720
1873.000000	17.787270
1874.000000	17.614840
1875.000000	17.426430
1876.000000	17.222630
1877.000000	16.998320
1878.000000	16.756630
1879.000000	16.500260
1880.000000	16.234100
1881.000000	15.956560
1882.000000	15.667390
1883.000000	15.373470
1884.000000	15.075740
1885.000000	14.776640
1886.000000	14.479340
1887.000000	14.187670
1888.000000	13.906580
1889.000000	13.634970
1890.000000	13.373200
1891.000000	13.124380
1892.000000	12.890460
1893.000000	12.664700
1894.000000	12.450420
1895.000000	12.245750
1896.000000	12.049630
1897.000000	11.864580
1898.000000	11.685200
1899.000000	11.513140
1900.000000	11.347420
1901.000000	11.184830
1902.000000	11.024970
1903.000000	10.872420
1904.000000	10.725280
1905.000000	10.584770
1906.000000	10.449890
1907.000000	10.316870
1908.000000	10.186680
1909.000000	10.059280
1910.000000	9.934570
1911.000000	9.812720
1912.000000	9.697290
1913.000000	9.586790
1914.000000	9.481980
1915.000000	9.378810
1916.000000	9.276190
1917.000000	9.179300
1918.000000	9.084740
1919.000000	8.995450
1920.000000	8.910090
1921.000000	8.830200
1922.000000	8.755080
1923.000000	8.682400
1924.000000	8.610600
1925.000000	8.543940
1926.000000	8.483120
1927.000000	8.424160
1928.000000	8.371040
1929.000000	8.323960
1930.000000	8.282090
1931.000000	8.242400
1932.000000	8.201500
1933.000000	8.164610
1934.000000	8.131860
1935.000000	8.102670
1936.000000	8.077700
1937.000000	8.058780
1938.000000	8.044320
1939.000000	8.032340
1940.000000	8.019570
1941.000000	8.011750
1942.000000	8.010600
1943.000000	8.009170
1944.000000	8.010040
1945.000000	8.014420
1946.000000	8.021790
1947.000000	8.031160
1948.000000	8.041380
1949.000000	8.050240
1950.000000	8.066390
1951.000000	8.085590
1952.000000	8.103120
1953.000000	8.123910
1954.000000	8.147500
1955.000000	8.171760
1956.000000	8.196400
1957.000000	8.223360
1958.000000	8.250570
1959.000000	8.280340
1960.000000	8.307290
1961.000000	8.332260
1962.000000	8.362040
1963.000000	8.392650
1964.000000	8.424100
1965.000000	8.457070
1966.000000	8.490390
1967.000000	8.519470
1968.000000	8.549640
1969.000000	8.582990
1970.000000	8.614950
1971.000000	8.650470
1972.000000	8.683260
1973.000000	8.716340
1974.000000	8.751340
1975.000000	8.786030
1976.000000	8.822340
1977.000000	8.860790
1978.000000	8.901640
1979.000000	8.937750
1980.000000	8.975860
1981.000000	9.013310
1982.000000	9.051740
1983.000000	9.090220
1984.000000	9.128720
1985.000000	9.167170
1986.000000	9.204520
1987.000000	9.241310
1988.000000	9.279990
1989.000000	9.319540
1990.000000	9.359850
1991.000000	9.396430
1992.000000	9.436180
1993.000000	9.479770
1994.000000	9.517020
1995.000000	9.553820
1996.000000	9.590470
1997.000000	9.626290
1998.000000	9.657740
1999.000000	9.689910
2000.000000	9.721800
2001.000000	9.751950
2002.000000	9.780090
2003.000000	9.805010
2004.000000	9.831020
2005.000000	9.857540
2006.000000	9.881480
2007.000000	9.906100
2008.000000	9.928290
2009.000000	9.948810
2010.000000	9.966050
2011.000000	9.984020
2012.000000	10.000810
2013.000000	10.013650
2014.000000	10.025830
2015.000000	10.034730
2016.000000	10.042530
2017.000000	10.047470
2018.000000	10.051050
2019.000000	10.053560
2020.000000	10.055330
2021.000000	10.055400
2022.000000	10.051480
2023.000000	10.046570
2024.000000	10.039670
2025.000000	10.032130
2026.000000	10.021740
2027.000000	10.011080
2028.000000	9.998790
2029.000000	9.984490
2030.000000	9.969110
2031.000000	9.951500
2032.000000	9.931400
2033.000000	9.911090
2034.000000	9.887280
2035.000000	9.860760
2036.000000	9.833090
2037.000000	9.804790
2038.000000	9.775400
2039.000000	9.742940
2040.000000	9.707720
2041.000000	9.671770
2042.000000	9.633520
2043.000000	9.594240
2044.000000	9.555080
2045.000000	9.513190
2046.000000	9.471620
2047.000000	9.426110
2048.000000	9.380550
2049.000000	9.339240
2050.000000	9.297610
2051.000000	9.257720
2052.000000	9.219080
2053.000000	9.182120
2054.000000	9.149730
2055.000000	9.121960
2056.000000	9.098500
2057.000000	9.081030
2058.000000	9.067640
2059.000000	9.054590
2060.000000	9.048210
2061.000000	9.046910
2062.000000	9.051970
2063.000000	9.059610
2064.000000	9.069830
2065.000000	9.083740
2066.000000	9.101070
2067.000000	9.118170
2068.000000	9.137430
2069.000000	9.159460
2070.000000	9.182440
2071.000000	9.204150
2072.000000	9.225560
2073.000000	9.249450
2074.000000	9.274220
2075.000000	9.297560
2076.000000	9.319270
2077.000000	9.341830
2078.000000	9.362490
2079.000000	9.383490
2080.000000	9.402430
2081.000000	9.422710
2082.000000	9.443900
2083.000000	9.462920
2084.000000	9.479360
2085.000000	9.494090
2086.000000	9.508610
2087.000000	9.521750
2088.000000	9.536360
2089.000000	9.549290
2090.000000	9.560610
2091.000000	9.570940
2092.000000	9.578610
2093.000000	9.584940
2094.000000	9.591660
2095.000000	9.599870
2096.000000	9.607960
2097.000000	9.615880
2098.000000	9.623570
2099.000000	9.629760
2100.000000	9.636440
2101.000000	9.644500
2102.000000	9.654960
2103.000000	9.665540
2104.000000	9.674670
2105.000000	9.683530
2106.000000	9.692720
2107.000000	9.703930
2108.000000	9.714710
2109.000000	9.726600
2110.000000	9.740570
2111.000000	9.753530
2112.000000	9.764570
2113.000000	9.777380
2114.000000	9.791190
2115.000000	9.803910
2116.000000	9.815520
2117.000000	9.826030
2118.000000	9.837740
2119.000000	9.848820
2120.000000	9.857720
2121.000000	9.864520
2122.000000	9.871110
2123.000000	9.876740
2124.000000	9.881680
2125.000000	9.886170
2126.000000	9.889120
2127.000000	9.890470
2128.000000	9.888720
2129.000000	9.885230
2130.000000	9.881290
2131.000000	9.875610
2132.000000	9.867510
2133.000000	9.856990
2134.000000	9.845560
2135.000000	9.832050
2136.000000	9.816900
2137.000000	9.800700
2138.000000	9.781770
2139.000000	9.762180
2140.000000	9.741170
2141.000000	9.719900
2142.000000	9.696760
2143.000000	9.670560
2144.000000	9.642480
2145.000000	9.615050
2146.000000	9.587130
2147.000000	9.556770
2148.000000	9.524970
2149.000000	9.491810
2150.000000	9.457690
2151.000000	9.423100
2152.000000	9.387950
2153.000000	9.354160
2154.000000	9.319890
2155.000000	9.283750
2156.000000	9.246600
2157.000000	9.209690
2158.000000	9.174610
2159.000000	9.140710
2160.000000	9.105870
2161.000000	9.072170
2162.000000	9.042470
2163.000000	9.011400
2164.000000	8.981460
2165.000000	8.954240
2166.000000	8.927020
2167.000000	8.903000
2168.000000	8.880160
2169.000000	8.856940
2170.000000	8.837210
2171.000000	8.815290
2172.000000	8.790370
2173.000000	8.768670
2174.000000	8.747500
2175.000000	8.726400
2176.000000	8.706860
2177.000000	8.685240
2178.000000	8.663790
2179.000000	8.641930
2180.000000	8.619140
2181.000000	8.596440
2182.000000	8.574560
2183.000000	8.550860
2184.000000	8.525850
2185.000000	8.493670
2186.000000	8.460770
2187.000000	8.427150
2188.000000	8.390930
2189.000000	8.348400
2190.000000	8.300200
2191.000000	8.248730
2192.000000	8.189940
2193.000000	8.126110
2194.000000	8.056120
2195.000000	7.985460
2196.000000	7.909760
2197.000000	7.824120
2198.000000	7.733720
2199.000000	7.642150
2200.000000	7.547130
2201.000000	7.448060
2202.000000	7.348980
2203.000000	7.247290
2204.000000	7.148170
2205.000000	7.052620
2206.000000	6.959000
2207.000000	6.875300
2208.000000	6.797360
2209.000000	6.726010
2210.000000	6.665000
2211.000000	6.614910
2212.000000	6.576180
2213.000000	6.549540
2214.000000	6.531530
2215.000000	6.522730
2216.000000	6.524740
2217.000000	6.534220
2218.000000	6.550970
2219.000000	6.576840
2220.000000	6.605280
2221.000000	6.640270
2222.000000	6.679040
2223.000000	6.719690
2224.000000	6.762810
2225.000000	6.804810
2226.000000	6.843630
2227.000000	6.883450
2228.000000	6.922990
2229.000000	6.958570
2230.000000	6.992430
2231.000000	7.020320
2232.000000	7.043940
2233.000000	7.065600
2234.000000	7.080460
2235.000000	7.091250
2236.000000	7.099190
2237.000000	7.102210
2238.000000	7.099810
2239.000000	7.093030
2240.000000	7.081930
2241.000000	7.069260
2242.000000	7.049530
2243.000000	7.024300
2244.000000	6.998310
2245.000000	6.970850
2246.000000	6.939900
2247.000000	6.903130
2248.000000	6.860640
2249.000000	6.815620
2250.000000	6.767130
2251.000000	6.713630
2252.000000	6.658660
2253.000000	6.602960
2254.000000	6.537980
2255.000000	6.471780
2256.000000	6.398860
2257.000000	6.325590
2258.000000	6.252490
2259.000000	6.178610
2260.000000	6.103640
2261.000000	6.030590
2262.000000	5.960190
2263.000000	5.889750
2264.000000	5.828200
2265.000000	5.768210
2266.000000	5.716640
2267.000000	5.669700
2268.000000	5.629830
2269.000000	5.595760
2270.000000	5.571130
2271.000000	5.553110
2272.000000	5.542160
2273.000000	5.539000
2274.000000	5.542620
2275.000000	5.551440
2276.000000	5.569320
2277.000000	5.592430
2278.000000	5.619860
2279.000000	5.651120
2280.000000	5.684850
2281.000000	5.720050
2282.000000	5.757420
2283.000000	5.794390
2284.000000	5.832080
2285.000000	5.869540
2286.000000	5.902470
2287.000000	5.933730
2288.000000	5.962680
2289.000000	5.989010
2290.000000	6.010460
2291.000000	6.029560
2292.000000	6.043840
2293.000000	6.050600
2294.000000	6.052260
2295.000000	6.050330
2296.000000	6.045310
2297.000000	6.034480
2298.000000	6.018470
2299.000000	5.998590
2300.000000	5.978250
2301.000000	5.954560
2302.000000	5.929290
2303.000000	5.907670
2304.000000	5.886490
2305.000000	5.867510
2306.000000	5.852450
2307.000000	5.842640
2308.000000	5.837950
2309.000000	5.840590
2310.000000	5.847460
2311.000000	5.860350
2312.000000	5.881770
2313.000000	5.907200
2314.000000	5.938800
2315.000000	5.975980
2316.000000	6.017180
2317.000000	6.061180
2318.000000	6.108200
2319.000000	6.158370
2320.000000	6.209820
2321.000000	6.260820
2322.000000	6.310400
2323.000000	6.362200
2324.000000	6.410950
2325.000000	6.455840
2326.000000	6.497730
2327.000000	6.539110
2328.000000	6.578560
2329.000000	6.612170
2330.000000	6.643310
2331.000000	6.673290
2332.000000	6.701630
2333.000000	6.726240
2334.000000	6.749710
2335.000000	6.770270
2336.000000	6.787250
2337.000000	6.801290
2338.000000	6.811600
2339.000000	6.820350
2340.000000	6.826500
2341.000000	6.827440
2342.000000	6.824350
2343.000000	6.818150
2344.000000	6.808900
2345.000000	6.797190
2346.000000	6.783190
2347.000000	6.767550
2348.000000	6.752770
2349.000000	6.736670
2350.000000	6.721450
2351.000000	6.708800
2352.000000	6.695890
2353.000000	6.685810
2354.000000	6.678550
2355.000000	6.674670
2356.000000	6.676240
2357.000000	6.681770
2358.000000	6.689120
2359.000000	6.699900
2360.000000	6.712870
2361.000000	6.728800
2362.000000	6.748720
2363.000000	6.769510
2364.000000	6.791860
2365.000000	6.815380
2366.000000	6.838090
2367.000000	6.860250
2368.000000	6.883630
2369.000000	6.906170
2370.000000	6.927350
2371.000000	6.947710
2372.000000	6.965990
2373.000000	6.982630
2374.000000	6.996420
2375.000000	7.008280
2376.000000	7.019460
2377.000000	7.029910
2378.000000	7.038910
2379.000000	7.047560
2380.000000	7.054160
2381.000000	7.058210
2382.000000	7.061170
2383.000000	7.063130
2384.000000	7.064380
2385.000000	7.065610
2386.000000	7.065730
2387.000000	7.063620
2388.000000	7.059440
2389.000000	7.053180
2390.000000	7.047610
2391.000000	7.040660
2392.000000	7.031260
2393.000000	7.022250
2394.000000	7.013820
2395.000000	7.003150
2396.000000	6.990400
2397.000000	6.976060
2398.000000	6.960170
2399.000000	6.943770
2400.000000	6.926530
2401.000000	6.908090
2402.000000	6.889130
2403.000000	6.869630
2404.000000	6.849350
2405.000000	6.829180
2406.000000	6.808320
2407.000000	6.788780
2408.000000	6.770330
2409.000000	6.749810
2410.000000	6.729320
2411.000000	6.709810
2412.000000	6.692630
2413.000000	6.674100
2414.000000	6.653270
2415.000000	6.632690
2416.000000	6.613430
2417.000000	6.592330
2418.000000	6.569020
2419.000000	6.546300
2420.000000	6.521990
2421.000000	6.495920
2422.000000	6.468490
2423.000000	6.441260
2424.000000	6.414900
2425.000000	6.386700
2426.000000	6.356760
2427.000000	6.327260
2428.000000	6.299740
2429.000000	6.270810
2430.000000	6.240720
2431.000000	6.211360
2432.000000	6.179670
2433.000000	6.147730
2434.000000	6.114430
2435.000000	6.080670
2436.000000	6.046800
2437.000000	6.011730
2438.000000	5.974700
2439.000000	5.938520
2440.000000	5.902780
2441.000000	5.866020
2442.000000	5.830280
2443.000000	5.792740
2444.000000	5.757190
2445.000000	5.719340
2446.000000	5.680500
2447.000000	5.642340
2448.000000	5.604310
2449.000000	5.564920
2450.000000	5.525920
2451.000000	5.487230
2452.000000	5.450020
2453.000000	5.410710
2454.000000	5.371310
2455.000000	5.337750
2456.000000	5.303370
2457.000000	5.267560
2458.000000	5.232620
2459.000000	5.199210
2460.000000	5.168230
2461.000000	5.139730
2462.000000	5.107080
2463.000000	5.083820
2464.000000	5.060600
2465.000000	5.038930
2466.000000	5.016200
2467.000000	5.000580
2468.000000	4.981200
2469.000000	4.969970
2470.000000	4.958870
2471.000000	4.943070
2472.000000	4.934780
2473.000000	4.917780
2474.000000	4.907550
2475.000000	4.896030
2476.000000	4.889360
2477.000000	4.874590
2478.000000	4.866450
2479.000000	4.854290
2480.000000	4.843460
2481.000000	4.828560
2482.000000	4.823010
2483.000000	4.823120
2484.000000	4.814690
2485.000000	4.804520
2486.000000	4.794650
2487.000000	4.790090
2488.000000	4.793030
2489.000000	4.787720
2490.000000	4.788060
2491.000000	4.797740
2492.000000	4.800400
2493.000000	4.800030
2494.000000	4.807050
2495.000000	4.811140
2496.000000	4.820810
2497.000000	4.827310
2498.000000	4.827940
2499.000000	4.829210
2500.000000	4.839820
