PE UV       SUBTECH     SPECTRUM    ASCII       PEDS        4.00        
   -1
CICIMAUCR0158-1.ASC
24/04/03
16:46:49.00
24/04/03
16:46:49.00
Vinicio Soto Monge
C. cupreomarginata
250,000000
1
Lambda 1050
1050L1511233
PerkinElmer UV WinLab 6.3.2.0749 / 2.02.05 Lambda 900 UV/VIS/NIR, Aug  7 2015 09:38:08

0
0
3350/servo 860,8/2
0
0
UV/VIS
1
1
1
DoubleDePol,CommonBeamDepol,RBeamAtt,SBeamAtt,60mm sphere, WB InGaAs Detector
0
0
0
0
Program
Program
3350/servo 860,8/2
3350/0,2 860,8/0,2
3350/0,2 860,8/0,2
0
15.00
 
 
 
0
 
860,8
319,2
860,8
Front
100
on
S:100 R:100
0
0
0
0
 
0
 
 
 
0
 
 
0
0
0
0
0
 
 
 
 
0
0


0
0
#HDR
-1
-1
#GR
nm
%R
1.0
0.0
2500,000000
-1,000000
2251
8
61,268000
5,280400
#DATA

250.000000	nan
251.000000	nan
252.000000	nan
253.000000	nan
254.000000	nan
255.000000	nan
256.000000	nan
257.000000	nan
258.000000	nan
259.000000	5.812504
260.000000	5.804676
261.000000	5.792659
262.000000	5.780977
263.000000	5.763311
264.000000	5.737039
265.000000	5.709810
266.000000	5.679250
267.000000	5.649369
268.000000	5.623334
269.000000	5.601222
270.000000	5.578272
271.000000	5.557954
272.000000	5.532333
273.000000	5.507657
274.000000	5.490829
275.000000	5.473627
276.000000	5.455892
277.000000	5.445511
278.000000	5.430537
279.000000	5.416636
280.000000	5.400587
281.000000	5.385307
282.000000	5.374759
283.000000	5.374305
284.000000	5.367286
285.000000	5.360188
286.000000	5.352124
287.000000	5.347047
288.000000	5.347264
289.000000	5.340422
290.000000	5.339870
291.000000	5.336617
292.000000	5.332871
293.000000	5.330653
294.000000	5.325832
295.000000	5.326650
296.000000	5.328563
297.000000	5.326867
298.000000	5.324452
299.000000	5.321978
300.000000	5.319937
301.000000	5.319631
302.000000	5.321287
303.000000	5.318813
304.000000	5.313302
305.000000	5.310365
306.000000	5.313016
307.000000	5.309694
308.000000	5.306007
309.000000	5.308846
310.000000	5.303612
311.000000	5.305830
312.000000	5.306244
313.000000	5.306185
314.000000	5.314811
315.000000	5.320450
316.000000	5.323259
317.000000	5.378347
318.000000	5.422384
319.000000	5.450342
320.000000	5.486610
321.000000	5.499702
322.000000	5.513819
323.000000	5.539519
324.000000	5.561977
325.000000	5.578341
326.000000	5.585498
327.000000	5.549683
328.000000	5.515583
329.000000	5.483357
330.000000	5.452570
331.000000	5.455734
332.000000	5.443056
333.000000	5.408740
334.000000	5.373822
335.000000	5.355042
336.000000	5.343863
337.000000	5.341024
338.000000	5.346475
339.000000	5.357142
340.000000	5.373635
341.000000	5.369337
342.000000	5.379244
343.000000	5.393745
344.000000	5.410081
345.000000	5.409134
346.000000	5.420451
347.000000	5.428003
348.000000	5.418874
349.000000	5.418036
350.000000	5.415650
351.000000	5.409253
352.000000	5.412496
353.000000	5.423015
354.000000	5.433307
355.000000	5.442928
356.000000	5.456631
357.000000	5.456818
358.000000	5.476170
359.000000	5.496951
360.000000	5.510832
361.000000	5.530361
362.000000	5.544093
363.000000	5.565900
364.000000	5.592123
365.000000	5.619164
366.000000	5.634286
367.000000	5.661958
368.000000	5.684849
369.000000	5.712778
370.000000	5.745783
371.000000	5.791230
372.000000	5.831067
373.000000	5.864427
374.000000	5.907448
375.000000	5.971891
376.000000	6.053498
377.000000	6.132926
378.000000	6.224430
379.000000	6.321021
380.000000	6.427500
381.000000	6.538247
382.000000	6.667962
383.000000	6.808422
384.000000	6.952293
385.000000	7.095504
386.000000	7.236802
387.000000	7.389791
388.000000	7.550146
389.000000	7.715182
390.000000	7.882270
391.000000	8.050934
392.000000	8.224498
393.000000	8.401414
394.000000	8.581622
395.000000	8.761841
396.000000	8.939496
397.000000	9.116718
398.000000	9.293062
399.000000	9.465807
400.000000	9.635477
401.000000	9.801332
402.000000	9.960730
403.000000	10.115702
404.000000	10.264827
405.000000	10.405642
406.000000	10.541153
407.000000	10.672169
408.000000	10.794628
409.000000	10.910650
410.000000	11.019031
411.000000	11.119713
412.000000	11.214619
413.000000	11.301657
414.000000	11.380227
415.000000	11.452636
416.000000	11.517927
417.000000	11.573754
418.000000	11.622641
419.000000	11.663632
420.000000	11.696065
421.000000	11.721391
422.000000	11.736178
423.000000	11.740279
424.000000	11.735843
425.000000	11.723944
426.000000	11.704129
427.000000	11.676398
428.000000	11.641884
429.000000	11.603220
430.000000	11.561717
431.000000	11.515246
432.000000	11.466911
433.000000	11.420429
434.000000	11.376008
435.000000	11.336733
436.000000	11.306359
437.000000	11.287244
438.000000	11.280521
439.000000	11.285687
440.000000	11.307454
441.000000	11.350840
442.000000	11.415825
443.000000	11.501917
444.000000	11.609717
445.000000	11.739096
446.000000	11.888715
447.000000	12.058070
448.000000	12.244922
449.000000	12.449205
450.000000	12.669142
451.000000	12.902289
452.000000	13.145443
453.000000	13.396098
454.000000	13.653220
455.000000	13.912591
456.000000	14.171438
457.000000	14.428452
458.000000	14.682282
459.000000	14.930680
460.000000	15.170876
461.000000	15.400228
462.000000	15.618479
463.000000	15.826301
464.000000	16.021996
465.000000	16.206809
466.000000	16.381161
467.000000	16.544503
468.000000	16.698380
469.000000	16.844656
470.000000	16.985530
471.000000	17.124206
472.000000	17.263966
473.000000	17.405284
474.000000	17.552546
475.000000	17.705990
476.000000	17.865999
477.000000	18.034999
478.000000	18.215818
479.000000	18.408192
480.000000	18.611301
481.000000	18.824988
482.000000	19.048041
483.000000	19.281424
484.000000	19.521798
485.000000	19.769249
486.000000	20.023178
487.000000	20.282775
488.000000	20.544678
489.000000	20.810653
490.000000	21.080128
491.000000	21.350993
492.000000	21.625141
493.000000	21.900136
494.000000	22.174668
495.000000	22.446509
496.000000	22.718015
497.000000	22.989284
498.000000	23.259301
499.000000	23.525986
500.000000	23.789555
501.000000	24.052938
502.000000	24.312712
503.000000	24.569292
504.000000	24.823221
505.000000	25.076301
506.000000	25.330141
507.000000	25.583695
508.000000	25.840285
509.000000	26.100050
510.000000	26.366616
511.000000	26.640320
512.000000	26.921950
513.000000	27.214434
514.000000	27.522583
515.000000	27.848999
516.000000	28.193041
517.000000	28.556879
518.000000	28.942021
519.000000	29.354154
520.000000	29.788557
521.000000	30.246304
522.000000	30.730984
523.000000	31.239502
524.000000	31.772931
525.000000	32.330749
526.000000	32.912316
527.000000	33.519396
528.000000	34.150421
529.000000	34.804614
530.000000	35.484053
531.000000	36.185506
532.000000	36.909091
533.000000	37.659736
534.000000	38.432809
535.000000	39.225815
536.000000	40.039110
537.000000	40.861503
538.000000	41.692483
539.000000	42.521304
540.000000	43.343264
541.000000	44.156805
542.000000	44.952927
543.000000	45.723486
544.000000	46.465889
545.000000	47.175278
546.000000	47.841507
547.000000	48.470354
548.000000	49.058142
549.000000	49.603361
550.000000	50.108349
551.000000	50.569192
552.000000	50.988877
553.000000	51.367719
554.000000	51.704910
555.000000	52.002767
556.000000	52.268239
557.000000	52.496171
558.000000	52.690093
559.000000	52.856214
560.000000	53.009154
561.000000	53.140170
562.000000	53.251351
563.000000	53.346198
564.000000	53.431186
565.000000	53.504767
566.000000	53.569339
567.000000	53.630075
568.000000	53.682649
569.000000	53.729022
570.000000	53.753086
571.000000	53.766257
572.000000	53.772862
573.000000	53.775553
574.000000	53.768751
575.000000	53.756902
576.000000	53.739038
577.000000	53.713653
578.000000	53.685015
579.000000	53.658398
580.000000	53.631081
581.000000	53.602482
582.000000	53.564400
583.000000	53.514527
584.000000	53.456580
585.000000	53.387090
586.000000	53.305769
587.000000	53.215280
588.000000	53.115850
589.000000	52.995964
590.000000	52.864199
591.000000	52.729959
592.000000	52.592427
593.000000	52.455368
594.000000	52.317107
595.000000	52.178411
596.000000	52.041993
597.000000	51.908808
598.000000	51.773267
599.000000	51.638771
600.000000	51.502678
601.000000	51.357368
602.000000	51.200908
603.000000	51.027492
604.000000	50.834014
605.000000	50.621894
606.000000	50.383739
607.000000	50.120406
608.000000	49.835246
609.000000	49.530075
610.000000	49.200110
611.000000	48.840235
612.000000	48.462921
613.000000	48.066817
614.000000	47.655216
615.000000	47.229065
616.000000	46.796643
617.000000	46.355951
618.000000	45.913424
619.000000	45.462026
620.000000	45.012924
621.000000	44.567430
622.000000	44.119699
623.000000	43.678237
624.000000	43.236352
625.000000	42.798094
626.000000	42.363829
627.000000	41.933872
628.000000	41.507523
629.000000	41.095212
630.000000	40.690177
631.000000	40.302186
632.000000	39.940015
633.000000	39.603474
634.000000	39.307274
635.000000	39.051719
636.000000	38.840654
637.000000	38.682005
638.000000	38.576108
639.000000	38.524559
640.000000	38.526787
641.000000	38.585424
642.000000	38.695294
643.000000	38.849201
644.000000	39.039455
645.000000	39.266746
646.000000	39.521030
647.000000	39.793630
648.000000	40.082752
649.000000	40.379110
650.000000	40.686441
651.000000	40.992963
652.000000	41.299090
653.000000	41.602123
654.000000	41.906979
655.000000	42.203505
656.000000	42.491444
657.000000	42.770383
658.000000	43.042332
659.000000	43.306937
660.000000	43.562285
661.000000	43.811097
662.000000	44.048966
663.000000	44.276474
664.000000	44.490280
665.000000	44.691240
666.000000	44.885605
667.000000	45.070881
668.000000	45.237051
669.000000	45.390208
670.000000	45.530669
671.000000	45.656006
672.000000	45.764368
673.000000	45.862851
674.000000	45.947425
675.000000	46.021825
676.000000	46.083390
677.000000	46.134742
678.000000	46.178837
679.000000	46.215007
680.000000	46.243813
681.000000	46.266152
682.000000	46.286263
683.000000	46.307783
684.000000	46.326997
685.000000	46.344061
686.000000	46.357439
687.000000	46.369505
688.000000	46.386955
689.000000	46.405064
690.000000	46.422976
691.000000	46.446478
692.000000	46.471992
693.000000	46.495661
694.000000	46.525305
695.000000	46.557591
696.000000	46.603225
697.000000	46.658795
698.000000	46.717127
699.000000	46.783344
700.000000	46.854442
701.000000	46.929493
702.000000	47.012085
703.000000	47.104200
704.000000	47.204212
705.000000	47.310799
706.000000	47.418264
707.000000	47.527119
708.000000	47.641494
709.000000	47.759270
710.000000	47.882892
711.000000	48.010064
712.000000	48.136417
713.000000	48.266516
714.000000	48.397857
715.000000	48.528459
716.000000	48.654940
717.000000	48.784477
718.000000	48.910436
719.000000	49.029080
720.000000	49.143307
721.000000	49.251087
722.000000	49.356166
723.000000	49.450904
724.000000	49.538208
725.000000	49.625306
726.000000	49.708667
727.000000	49.781933
728.000000	49.852144
729.000000	49.931236
730.000000	50.006267
731.000000	50.073964
732.000000	50.140694
733.000000	50.204329
734.000000	50.260699
735.000000	50.313746
736.000000	50.362376
737.000000	50.410859
738.000000	50.460978
739.000000	50.504907
740.000000	50.549722
741.000000	50.602612
742.000000	50.651873
743.000000	50.700938
744.000000	50.755454
745.000000	50.810137
746.000000	50.875980
747.000000	50.946299
748.000000	51.015514
749.000000	51.090091
750.000000	51.164699
751.000000	51.238783
752.000000	51.322903
753.000000	51.411736
754.000000	51.504896
755.000000	51.603173
756.000000	51.696866
757.000000	51.789918
758.000000	51.885227
759.000000	51.981009
760.000000	52.080597
761.000000	52.189817
762.000000	52.299391
763.000000	52.402587
764.000000	52.514222
765.000000	52.628055
766.000000	52.742962
767.000000	52.860887
768.000000	52.973389
769.000000	53.083998
770.000000	53.204929
771.000000	53.322715
772.000000	53.438155
773.000000	53.561570
774.000000	53.671046
775.000000	53.787107
776.000000	53.904164
777.000000	54.015000
778.000000	54.133772
779.000000	54.255344
780.000000	54.366909
781.000000	54.482428
782.000000	54.601269
783.000000	54.718306
784.000000	54.834012
785.000000	54.940846
786.000000	55.054906
787.000000	55.176093
788.000000	55.292479
789.000000	55.400102
790.000000	55.516695
791.000000	55.623479
792.000000	55.720435
793.000000	55.825652
794.000000	55.936458
795.000000	56.045165
796.000000	56.151368
797.000000	56.246864
798.000000	56.348059
799.000000	56.457821
800.000000	56.550331
801.000000	56.644733
802.000000	56.741413
803.000000	56.819815
804.000000	56.893131
805.000000	56.964426
806.000000	57.041359
807.000000	57.120393
808.000000	57.195138
809.000000	57.256555
810.000000	57.319509
811.000000	57.382543
812.000000	57.449224
813.000000	57.512031
814.000000	57.581029
815.000000	57.655794
816.000000	57.705134
817.000000	57.746617
818.000000	57.788071
819.000000	57.841631
820.000000	57.885264
821.000000	57.921483
822.000000	57.951333
823.000000	58.006333
824.000000	58.048684
825.000000	58.088018
826.000000	58.148074
827.000000	58.213415
828.000000	58.252946
829.000000	58.291117
830.000000	58.341394
831.000000	58.382661
832.000000	58.442136
833.000000	58.470311
834.000000	58.512238
835.000000	58.535572
836.000000	58.552203
837.000000	58.571663
838.000000	58.611757
839.000000	58.616281
840.000000	58.599306
841.000000	58.603968
842.000000	58.576888
843.000000	58.573063
844.000000	58.546150
845.000000	58.512139
846.000000	58.505524
847.000000	58.471622
848.000000	58.413626
849.000000	58.395151
850.000000	58.373838
851.000000	58.323788
852.000000	58.325405
853.000000	58.275137
854.000000	58.271076
855.000000	58.249733
856.000000	58.142948
857.000000	58.075331
858.000000	58.053593
859.000000	58.106693
860.000000	58.183423
861.000000	58.275184
862.000000	58.326235
863.000000	58.415279
864.000000	58.467243
865.000000	58.549890
866.000000	58.679134
867.000000	58.786154
868.000000	58.865210
869.000000	58.849740
870.000000	58.826380
871.000000	58.801740
872.000000	58.774500
873.000000	58.745260
874.000000	58.714690
875.000000	58.686200
876.000000	58.656230
877.000000	58.630910
878.000000	58.607490
879.000000	58.586280
880.000000	58.566700
881.000000	58.547930
882.000000	58.527210
883.000000	58.510560
884.000000	58.494260
885.000000	58.479390
886.000000	58.465390
887.000000	58.454030
888.000000	58.442860
889.000000	58.432070
890.000000	58.420210
891.000000	58.405990
892.000000	58.394520
893.000000	58.381840
894.000000	58.369370
895.000000	58.353920
896.000000	58.337870
897.000000	58.320280
898.000000	58.300220
899.000000	58.277240
900.000000	58.255560
901.000000	58.233410
902.000000	58.209320
903.000000	58.185730
904.000000	58.159210
905.000000	58.133520
906.000000	58.108300
907.000000	58.081530
908.000000	58.053010
909.000000	58.025510
910.000000	57.994580
911.000000	57.965700
912.000000	57.937050
913.000000	57.902980
914.000000	57.874950
915.000000	57.846050
916.000000	57.815060
917.000000	57.782350
918.000000	57.752730
919.000000	57.723980
920.000000	57.695110
921.000000	57.666210
922.000000	57.637890
923.000000	57.615430
924.000000	57.587040
925.000000	57.558470
926.000000	57.534610
927.000000	57.516660
928.000000	57.496190
929.000000	57.477570
930.000000	57.463350
931.000000	57.449110
932.000000	57.434240
933.000000	57.419600
934.000000	57.410010
935.000000	57.398570
936.000000	57.388100
937.000000	57.371320
938.000000	57.358670
939.000000	57.344300
940.000000	57.326290
941.000000	57.309280
942.000000	57.294350
943.000000	57.279150
944.000000	57.262410
945.000000	57.249890
946.000000	57.237860
947.000000	57.228900
948.000000	57.223050
949.000000	57.216910
950.000000	57.216070
951.000000	57.217250
952.000000	57.220760
953.000000	57.222750
954.000000	57.226260
955.000000	57.231620
956.000000	57.234830
957.000000	57.240000
958.000000	57.243880
959.000000	57.249400
960.000000	57.251360
961.000000	57.251170
962.000000	57.251180
963.000000	57.252730
964.000000	57.254890
965.000000	57.255160
966.000000	57.256820
967.000000	57.259570
968.000000	57.260670
969.000000	57.263130
970.000000	57.270320
971.000000	57.278930
972.000000	57.285850
973.000000	57.292860
974.000000	57.301400
975.000000	57.311670
976.000000	57.323720
977.000000	57.334130
978.000000	57.346700
979.000000	57.358720
980.000000	57.371430
981.000000	57.382960
982.000000	57.397240
983.000000	57.412600
984.000000	57.428370
985.000000	57.443420
986.000000	57.456990
987.000000	57.473360
988.000000	57.490330
989.000000	57.508550
990.000000	57.525820
991.000000	57.545970
992.000000	57.566910
993.000000	57.589620
994.000000	57.612400
995.000000	57.636640
996.000000	57.663810
997.000000	57.691220
998.000000	57.718570
999.000000	57.747550
1000.000000	57.775930
1001.000000	57.804760
1002.000000	57.833730
1003.000000	57.862660
1004.000000	57.891610
1005.000000	57.920130
1006.000000	57.948230
1007.000000	57.976360
1008.000000	58.004700
1009.000000	58.033540
1010.000000	58.063900
1011.000000	58.093030
1012.000000	58.121720
1013.000000	58.149330
1014.000000	58.178120
1015.000000	58.208110
1016.000000	58.238360
1017.000000	58.269660
1018.000000	58.299510
1019.000000	58.328870
1020.000000	58.359710
1021.000000	58.391500
1022.000000	58.424950
1023.000000	58.461750
1024.000000	58.498570
1025.000000	58.537030
1026.000000	58.575810
1027.000000	58.612270
1028.000000	58.651680
1029.000000	58.692830
1030.000000	58.731890
1031.000000	58.771590
1032.000000	58.811060
1033.000000	58.848360
1034.000000	58.885760
1035.000000	58.923270
1036.000000	58.961450
1037.000000	59.000470
1038.000000	59.037440
1039.000000	59.073250
1040.000000	59.110610
1041.000000	59.146980
1042.000000	59.182200
1043.000000	59.218110
1044.000000	59.252910
1045.000000	59.286490
1046.000000	59.317840
1047.000000	59.349890
1048.000000	59.383620
1049.000000	59.416980
1050.000000	59.447980
1051.000000	59.478490
1052.000000	59.510790
1053.000000	59.544120
1054.000000	59.577030
1055.000000	59.609610
1056.000000	59.644090
1057.000000	59.678820
1058.000000	59.711910
1059.000000	59.744230
1060.000000	59.779510
1061.000000	59.816420
1062.000000	59.851310
1063.000000	59.885140
1064.000000	59.920140
1065.000000	59.956410
1066.000000	59.992410
1067.000000	60.027570
1068.000000	60.063310
1069.000000	60.100340
1070.000000	60.137800
1071.000000	60.174520
1072.000000	60.210940
1073.000000	60.246110
1074.000000	60.279790
1075.000000	60.313360
1076.000000	60.347050
1077.000000	60.381470
1078.000000	60.414390
1079.000000	60.447290
1080.000000	60.478040
1081.000000	60.508470
1082.000000	60.538080
1083.000000	60.567460
1084.000000	60.599650
1085.000000	60.630950
1086.000000	60.661440
1087.000000	60.689490
1088.000000	60.719390
1089.000000	60.748020
1090.000000	60.775360
1091.000000	60.800620
1092.000000	60.826590
1093.000000	60.854020
1094.000000	60.879280
1095.000000	60.902970
1096.000000	60.923500
1097.000000	60.945570
1098.000000	60.966420
1099.000000	60.986140
1100.000000	61.006210
1101.000000	61.026400
1102.000000	61.044470
1103.000000	61.060600
1104.000000	61.074730
1105.000000	61.089080
1106.000000	61.103770
1107.000000	61.116050
1108.000000	61.126770
1109.000000	61.138080
1110.000000	61.147730
1111.000000	61.157910
1112.000000	61.167900
1113.000000	61.176470
1114.000000	61.185590
1115.000000	61.193530
1116.000000	61.203020
1117.000000	61.213240
1118.000000	61.223230
1119.000000	61.231550
1120.000000	61.237980
1121.000000	61.242380
1122.000000	61.246980
1123.000000	61.248960
1124.000000	61.248040
1125.000000	61.244100
1126.000000	61.236220
1127.000000	61.221480
1128.000000	61.199850
1129.000000	61.173220
1130.000000	61.141000
1131.000000	61.099620
1132.000000	61.048980
1133.000000	60.992820
1134.000000	60.935570
1135.000000	60.872840
1136.000000	60.801030
1137.000000	60.720090
1138.000000	60.634770
1139.000000	60.542040
1140.000000	60.446740
1141.000000	60.352050
1142.000000	60.255680
1143.000000	60.160680
1144.000000	60.061960
1145.000000	59.963480
1146.000000	59.870020
1147.000000	59.782560
1148.000000	59.699090
1149.000000	59.619550
1150.000000	59.543570
1151.000000	59.468640
1152.000000	59.398020
1153.000000	59.326790
1154.000000	59.254730
1155.000000	59.181400
1156.000000	59.104050
1157.000000	59.025640
1158.000000	58.945940
1159.000000	58.860960
1160.000000	58.770510
1161.000000	58.676590
1162.000000	58.577330
1163.000000	58.469250
1164.000000	58.356630
1165.000000	58.243560
1166.000000	58.128030
1167.000000	58.010020
1168.000000	57.889940
1169.000000	57.771830
1170.000000	57.656140
1171.000000	57.542240
1172.000000	57.430100
1173.000000	57.327690
1174.000000	57.228130
1175.000000	57.133260
1176.000000	57.043670
1177.000000	56.959260
1178.000000	56.880400
1179.000000	56.804310
1180.000000	56.730660
1181.000000	56.660960
1182.000000	56.595150
1183.000000	56.530870
1184.000000	56.472110
1185.000000	56.416630
1186.000000	56.366210
1187.000000	56.324940
1188.000000	56.287970
1189.000000	56.262840
1190.000000	56.248340
1191.000000	56.244680
1192.000000	56.252860
1193.000000	56.272230
1194.000000	56.303220
1195.000000	56.341930
1196.000000	56.388230
1197.000000	56.438880
1198.000000	56.496290
1199.000000	56.556840
1200.000000	56.618670
1201.000000	56.682070
1202.000000	56.744010
1203.000000	56.804680
1204.000000	56.864270
1205.000000	56.920570
1206.000000	56.978990
1207.000000	57.037190
1208.000000	57.094630
1209.000000	57.151240
1210.000000	57.205240
1211.000000	57.259140
1212.000000	57.314780
1213.000000	57.369200
1214.000000	57.421070
1215.000000	57.474750
1216.000000	57.525650
1217.000000	57.572490
1218.000000	57.617930
1219.000000	57.661050
1220.000000	57.705020
1221.000000	57.746300
1222.000000	57.783960
1223.000000	57.819800
1224.000000	57.854510
1225.000000	57.885390
1226.000000	57.914650
1227.000000	57.945730
1228.000000	57.973790
1229.000000	57.999330
1230.000000	58.023680
1231.000000	58.043560
1232.000000	58.063320
1233.000000	58.082870
1234.000000	58.099750
1235.000000	58.116570
1236.000000	58.130030
1237.000000	58.139450
1238.000000	58.148410
1239.000000	58.158210
1240.000000	58.166890
1241.000000	58.178550
1242.000000	58.191530
1243.000000	58.203250
1244.000000	58.217350
1245.000000	58.234190
1246.000000	58.254280
1247.000000	58.276500
1248.000000	58.300970
1249.000000	58.330010
1250.000000	58.361200
1251.000000	58.393180
1252.000000	58.423600
1253.000000	58.455670
1254.000000	58.486620
1255.000000	58.516170
1256.000000	58.546960
1257.000000	58.577370
1258.000000	58.604700
1259.000000	58.625960
1260.000000	58.645530
1261.000000	58.661400
1262.000000	58.676100
1263.000000	58.688230
1264.000000	58.698290
1265.000000	58.706240
1266.000000	58.708910
1267.000000	58.709780
1268.000000	58.710080
1269.000000	58.709460
1270.000000	58.706400
1271.000000	58.701850
1272.000000	58.694450
1273.000000	58.687320
1274.000000	58.679820
1275.000000	58.671690
1276.000000	58.664620
1277.000000	58.658350
1278.000000	58.652030
1279.000000	58.647480
1280.000000	58.645830
1281.000000	58.648360
1282.000000	58.654330
1283.000000	58.661130
1284.000000	58.669290
1285.000000	58.678750
1286.000000	58.689990
1287.000000	58.701600
1288.000000	58.714610
1289.000000	58.729320
1290.000000	58.743660
1291.000000	58.756040
1292.000000	58.766200
1293.000000	58.775280
1294.000000	58.784270
1295.000000	58.792030
1296.000000	58.798200
1297.000000	58.802840
1298.000000	58.804940
1299.000000	58.804040
1300.000000	58.800850
1301.000000	58.795920
1302.000000	58.790290
1303.000000	58.782180
1304.000000	58.771100
1305.000000	58.759550
1306.000000	58.745550
1307.000000	58.728810
1308.000000	58.710310
1309.000000	58.689390
1310.000000	58.665470
1311.000000	58.639270
1312.000000	58.610200
1313.000000	58.578980
1314.000000	58.545750
1315.000000	58.508540
1316.000000	58.468410
1317.000000	58.426790
1318.000000	58.383790
1319.000000	58.338080
1320.000000	58.289560
1321.000000	58.239720
1322.000000	58.187010
1323.000000	58.132410
1324.000000	58.075070
1325.000000	58.015090
1326.000000	57.952590
1327.000000	57.887050
1328.000000	57.819100
1329.000000	57.747900
1330.000000	57.673960
1331.000000	57.595420
1332.000000	57.514380
1333.000000	57.430870
1334.000000	57.344000
1335.000000	57.252170
1336.000000	57.157290
1337.000000	57.059070
1338.000000	56.954710
1339.000000	56.845960
1340.000000	56.734090
1341.000000	56.617380
1342.000000	56.493670
1343.000000	56.365670
1344.000000	56.234290
1345.000000	56.099000
1346.000000	55.958780
1347.000000	55.815170
1348.000000	55.670620
1349.000000	55.522200
1350.000000	55.369790
1351.000000	55.215650
1352.000000	55.062530
1353.000000	54.908570
1354.000000	54.759960
1355.000000	54.615920
1356.000000	54.477870
1357.000000	54.342860
1358.000000	54.210860
1359.000000	54.089580
1360.000000	53.979620
1361.000000	53.883490
1362.000000	53.794020
1363.000000	53.702390
1364.000000	53.608850
1365.000000	53.513560
1366.000000	53.410820
1367.000000	53.301420
1368.000000	53.187360
1369.000000	53.054240
1370.000000	52.898290
1371.000000	52.714310
1372.000000	52.498820
1373.000000	52.251730
1374.000000	51.959250
1375.000000	51.623440
1376.000000	51.250210
1377.000000	50.839940
1378.000000	50.391290
1379.000000	49.921780
1380.000000	49.434020
1381.000000	48.948190
1382.000000	48.474230
1383.000000	48.020530
1384.000000	47.600210
1385.000000	47.209690
1386.000000	46.854080
1387.000000	46.541240
1388.000000	46.275690
1389.000000	46.036120
1390.000000	45.827380
1391.000000	45.637880
1392.000000	45.468940
1393.000000	45.314210
1394.000000	45.172450
1395.000000	45.049440
1396.000000	44.933030
1397.000000	44.805120
1398.000000	44.659000
1399.000000	44.521140
1400.000000	44.387740
1401.000000	44.242740
1402.000000	44.073610
1403.000000	43.887960
1404.000000	43.686740
1405.000000	43.475920
1406.000000	43.250390
1407.000000	43.023900
1408.000000	42.794820
1409.000000	42.554940
1410.000000	42.294480
1411.000000	42.027280
1412.000000	41.764350
1413.000000	41.509770
1414.000000	41.259730
1415.000000	41.003390
1416.000000	40.747170
1417.000000	40.490090
1418.000000	40.246540
1419.000000	40.008010
1420.000000	39.782990
1421.000000	39.561150
1422.000000	39.349520
1423.000000	39.144990
1424.000000	38.946690
1425.000000	38.754990
1426.000000	38.572980
1427.000000	38.403670
1428.000000	38.237180
1429.000000	38.074530
1430.000000	37.917860
1431.000000	37.777790
1432.000000	37.645130
1433.000000	37.515330
1434.000000	37.389850
1435.000000	37.271220
1436.000000	37.160860
1437.000000	37.055200
1438.000000	36.954950
1439.000000	36.859900
1440.000000	36.768960
1441.000000	36.681150
1442.000000	36.592540
1443.000000	36.508420
1444.000000	36.427910
1445.000000	36.355480
1446.000000	36.287990
1447.000000	36.219120
1448.000000	36.148000
1449.000000	36.078930
1450.000000	36.015730
1451.000000	35.953480
1452.000000	35.893750
1453.000000	35.832890
1454.000000	35.769950
1455.000000	35.704540
1456.000000	35.638690
1457.000000	35.576560
1458.000000	35.517290
1459.000000	35.457750
1460.000000	35.395400
1461.000000	35.329730
1462.000000	35.268220
1463.000000	35.210480
1464.000000	35.157470
1465.000000	35.102830
1466.000000	35.049320
1467.000000	35.000200
1468.000000	34.949490
1469.000000	34.902990
1470.000000	34.860030
1471.000000	34.823310
1472.000000	34.785550
1473.000000	34.749990
1474.000000	34.715050
1475.000000	34.681590
1476.000000	34.652360
1477.000000	34.624590
1478.000000	34.603060
1479.000000	34.582770
1480.000000	34.562240
1481.000000	34.543540
1482.000000	34.529890
1483.000000	34.518820
1484.000000	34.509020
1485.000000	34.505050
1486.000000	34.500970
1487.000000	34.498390
1488.000000	34.496270
1489.000000	34.495390
1490.000000	34.495940
1491.000000	34.496000
1492.000000	34.498500
1493.000000	34.500330
1494.000000	34.504260
1495.000000	34.509770
1496.000000	34.517730
1497.000000	34.529820
1498.000000	34.545360
1499.000000	34.565880
1500.000000	34.589670
1501.000000	34.617050
1502.000000	34.647170
1503.000000	34.683910
1504.000000	34.725610
1505.000000	34.770940
1506.000000	34.820280
1507.000000	34.869840
1508.000000	34.922260
1509.000000	34.978480
1510.000000	35.038130
1511.000000	35.100280
1512.000000	35.162660
1513.000000	35.225500
1514.000000	35.289930
1515.000000	35.354720
1516.000000	35.418530
1517.000000	35.484980
1518.000000	35.553210
1519.000000	35.618360
1520.000000	35.681840
1521.000000	35.745180
1522.000000	35.809230
1523.000000	35.872690
1524.000000	35.935670
1525.000000	35.998850
1526.000000	36.063090
1527.000000	36.126580
1528.000000	36.187230
1529.000000	36.246680
1530.000000	36.306450
1531.000000	36.365420
1532.000000	36.425050
1533.000000	36.483380
1534.000000	36.540250
1535.000000	36.596710
1536.000000	36.651630
1537.000000	36.703090
1538.000000	36.753480
1539.000000	36.805140
1540.000000	36.856370
1541.000000	36.906000
1542.000000	36.953440
1543.000000	37.000600
1544.000000	37.047870
1545.000000	37.095590
1546.000000	37.145270
1547.000000	37.198810
1548.000000	37.256250
1549.000000	37.315450
1550.000000	37.376880
1551.000000	37.441670
1552.000000	37.508380
1553.000000	37.577200
1554.000000	37.648600
1555.000000	37.719670
1556.000000	37.790100
1557.000000	37.857210
1558.000000	37.919630
1559.000000	37.978660
1560.000000	38.033890
1561.000000	38.084070
1562.000000	38.128610
1563.000000	38.167450
1564.000000	38.200380
1565.000000	38.227770
1566.000000	38.248690
1567.000000	38.265770
1568.000000	38.279910
1569.000000	38.290130
1570.000000	38.296080
1571.000000	38.300190
1572.000000	38.305410
1573.000000	38.310070
1574.000000	38.314020
1575.000000	38.319190
1576.000000	38.326120
1577.000000	38.334240
1578.000000	38.344540
1579.000000	38.358290
1580.000000	38.376670
1581.000000	38.398180
1582.000000	38.421800
1583.000000	38.448500
1584.000000	38.478130
1585.000000	38.510390
1586.000000	38.545210
1587.000000	38.582070
1588.000000	38.622220
1589.000000	38.665390
1590.000000	38.708980
1591.000000	38.752740
1592.000000	38.797060
1593.000000	38.842530
1594.000000	38.890280
1595.000000	38.938610
1596.000000	38.988170
1597.000000	39.039090
1598.000000	39.091850
1599.000000	39.145560
1600.000000	39.199880
1601.000000	39.256390
1602.000000	39.314990
1603.000000	39.376280
1604.000000	39.437220
1605.000000	39.499250
1606.000000	39.563070
1607.000000	39.628030
1608.000000	39.691410
1609.000000	39.753140
1610.000000	39.814950
1611.000000	39.875260
1612.000000	39.932920
1613.000000	39.987970
1614.000000	40.040220
1615.000000	40.091470
1616.000000	40.138940
1617.000000	40.182560
1618.000000	40.224380
1619.000000	40.264520
1620.000000	40.301480
1621.000000	40.335590
1622.000000	40.369430
1623.000000	40.402970
1624.000000	40.438820
1625.000000	40.472280
1626.000000	40.507540
1627.000000	40.545540
1628.000000	40.581930
1629.000000	40.617990
1630.000000	40.657160
1631.000000	40.697790
1632.000000	40.739140
1633.000000	40.780410
1634.000000	40.818970
1635.000000	40.855470
1636.000000	40.890240
1637.000000	40.921600
1638.000000	40.954520
1639.000000	40.985570
1640.000000	41.013900
1641.000000	41.040130
1642.000000	41.063110
1643.000000	41.082590
1644.000000	41.101130
1645.000000	41.120930
1646.000000	41.138330
1647.000000	41.155860
1648.000000	41.169320
1649.000000	41.183110
1650.000000	41.195410
1651.000000	41.207270
1652.000000	41.215380
1653.000000	41.221640
1654.000000	41.224050
1655.000000	41.222970
1656.000000	41.218220
1657.000000	41.204340
1658.000000	41.187790
1659.000000	41.160530
1660.000000	41.125610
1661.000000	41.082430
1662.000000	41.033800
1663.000000	40.975650
1664.000000	40.907920
1665.000000	40.831180
1666.000000	40.746460
1667.000000	40.657260
1668.000000	40.559760
1669.000000	40.456330
1670.000000	40.345870
1671.000000	40.228780
1672.000000	40.107120
1673.000000	39.982680
1674.000000	39.856150
1675.000000	39.725150
1676.000000	39.591530
1677.000000	39.454840
1678.000000	39.315220
1679.000000	39.173840
1680.000000	39.030020
1681.000000	38.883290
1682.000000	38.731130
1683.000000	38.575610
1684.000000	38.417630
1685.000000	38.258210
1686.000000	38.101210
1687.000000	37.949110
1688.000000	37.808220
1689.000000	37.679880
1690.000000	37.569120
1691.000000	37.477900
1692.000000	37.410580
1693.000000	37.364740
1694.000000	37.340620
1695.000000	37.335450
1696.000000	37.343910
1697.000000	37.363830
1698.000000	37.387890
1699.000000	37.416410
1700.000000	37.444380
1701.000000	37.468870
1702.000000	37.487030
1703.000000	37.498970
1704.000000	37.503840
1705.000000	37.502640
1706.000000	37.495930
1707.000000	37.482380
1708.000000	37.462990
1709.000000	37.435020
1710.000000	37.396510
1711.000000	37.351570
1712.000000	37.295870
1713.000000	37.229020
1714.000000	37.152520
1715.000000	37.063050
1716.000000	36.959850
1717.000000	36.847130
1718.000000	36.721960
1719.000000	36.589250
1720.000000	36.451240
1721.000000	36.308500
1722.000000	36.170010
1723.000000	36.038050
1724.000000	35.912590
1725.000000	35.804010
1726.000000	35.713040
1727.000000	35.637610
1728.000000	35.581190
1729.000000	35.543760
1730.000000	35.524010
1731.000000	35.518950
1732.000000	35.525040
1733.000000	35.537670
1734.000000	35.559460
1735.000000	35.584490
1736.000000	35.610760
1737.000000	35.639350
1738.000000	35.670800
1739.000000	35.702670
1740.000000	35.737870
1741.000000	35.775520
1742.000000	35.815400
1743.000000	35.858950
1744.000000	35.903970
1745.000000	35.950790
1746.000000	35.999390
1747.000000	36.049370
1748.000000	36.097120
1749.000000	36.145590
1750.000000	36.190620
1751.000000	36.232880
1752.000000	36.270480
1753.000000	36.303430
1754.000000	36.331360
1755.000000	36.355220
1756.000000	36.376900
1757.000000	36.396720
1758.000000	36.413850
1759.000000	36.424590
1760.000000	36.435400
1761.000000	36.445660
1762.000000	36.456240
1763.000000	36.468290
1764.000000	36.480460
1765.000000	36.495420
1766.000000	36.511760
1767.000000	36.527840
1768.000000	36.546940
1769.000000	36.571170
1770.000000	36.596190
1771.000000	36.623320
1772.000000	36.652390
1773.000000	36.683350
1774.000000	36.716680
1775.000000	36.748640
1776.000000	36.779110
1777.000000	36.809630
1778.000000	36.840260
1779.000000	36.870320
1780.000000	36.898720
1781.000000	36.923610
1782.000000	36.945100
1783.000000	36.964910
1784.000000	36.982210
1785.000000	36.999220
1786.000000	37.014660
1787.000000	37.025940
1788.000000	37.033100
1789.000000	37.038030
1790.000000	37.042110
1791.000000	37.046550
1792.000000	37.051010
1793.000000	37.056060
1794.000000	37.061800
1795.000000	37.066990
1796.000000	37.072940
1797.000000	37.082790
1798.000000	37.095360
1799.000000	37.109750
1800.000000	37.127420
1801.000000	37.148620
1802.000000	37.171070
1803.000000	37.190980
1804.000000	37.210510
1805.000000	37.231040
1806.000000	37.253230
1807.000000	37.275620
1808.000000	37.297890
1809.000000	37.318080
1810.000000	37.337060
1811.000000	37.357440
1812.000000	37.377590
1813.000000	37.399630
1814.000000	37.420680
1815.000000	37.442340
1816.000000	37.462920
1817.000000	37.479920
1818.000000	37.495250
1819.000000	37.513780
1820.000000	37.535640
1821.000000	37.553950
1822.000000	37.569400
1823.000000	37.579330
1824.000000	37.584890
1825.000000	37.588760
1826.000000	37.594070
1827.000000	37.603130
1828.000000	37.616850
1829.000000	37.631900
1830.000000	37.644250
1831.000000	37.657830
1832.000000	37.673500
1833.000000	37.695300
1834.000000	37.725090
1835.000000	37.758970
1836.000000	37.796850
1837.000000	37.836880
1838.000000	37.874070
1839.000000	37.909280
1840.000000	37.943950
1841.000000	37.976750
1842.000000	38.008110
1843.000000	38.034190
1844.000000	38.053090
1845.000000	38.066310
1846.000000	38.076240
1847.000000	38.086380
1848.000000	38.096910
1849.000000	38.101250
1850.000000	38.094600
1851.000000	38.080450
1852.000000	38.062010
1853.000000	38.044290
1854.000000	38.027760
1855.000000	38.006690
1856.000000	37.976520
1857.000000	37.935730
1858.000000	37.886330
1859.000000	37.832700
1860.000000	37.777720
1861.000000	37.716980
1862.000000	37.648240
1863.000000	37.567920
1864.000000	37.478310
1865.000000	37.383520
1866.000000	37.284550
1867.000000	37.181440
1868.000000	37.074420
1869.000000	36.958920
1870.000000	36.835280
1871.000000	36.705020
1872.000000	36.564510
1873.000000	36.411740
1874.000000	36.241390
1875.000000	36.049990
1876.000000	35.835120
1877.000000	35.596830
1878.000000	35.334570
1879.000000	35.053690
1880.000000	34.754960
1881.000000	34.439060
1882.000000	34.107000
1883.000000	33.762370
1884.000000	33.404640
1885.000000	33.031170
1886.000000	32.642290
1887.000000	32.240300
1888.000000	31.826700
1889.000000	31.397640
1890.000000	30.958050
1891.000000	30.503020
1892.000000	30.032930
1893.000000	29.548690
1894.000000	29.056550
1895.000000	28.562220
1896.000000	28.075220
1897.000000	27.592000
1898.000000	27.106440
1899.000000	26.627240
1900.000000	26.146920
1901.000000	25.672780
1902.000000	25.212290
1903.000000	24.767770
1904.000000	24.338160
1905.000000	23.918410
1906.000000	23.500510
1907.000000	23.089390
1908.000000	22.694980
1909.000000	22.317430
1910.000000	21.964290
1911.000000	21.631160
1912.000000	21.316150
1913.000000	21.014430
1914.000000	20.722280
1915.000000	20.446370
1916.000000	20.191360
1917.000000	19.955290
1918.000000	19.736200
1919.000000	19.527330
1920.000000	19.329250
1921.000000	19.141140
1922.000000	18.960300
1923.000000	18.790930
1924.000000	18.639310
1925.000000	18.497920
1926.000000	18.366100
1927.000000	18.244160
1928.000000	18.131820
1929.000000	18.029170
1930.000000	17.932180
1931.000000	17.848690
1932.000000	17.776540
1933.000000	17.711570
1934.000000	17.654780
1935.000000	17.607060
1936.000000	17.570100
1937.000000	17.541760
1938.000000	17.518420
1939.000000	17.505620
1940.000000	17.502280
1941.000000	17.502820
1942.000000	17.510540
1943.000000	17.527350
1944.000000	17.549340
1945.000000	17.580520
1946.000000	17.615280
1947.000000	17.652910
1948.000000	17.698910
1949.000000	17.748770
1950.000000	17.803560
1951.000000	17.860740
1952.000000	17.920370
1953.000000	17.985000
1954.000000	18.051770
1955.000000	18.122140
1956.000000	18.196850
1957.000000	18.273280
1958.000000	18.349600
1959.000000	18.428120
1960.000000	18.506320
1961.000000	18.589810
1962.000000	18.672320
1963.000000	18.755200
1964.000000	18.841480
1965.000000	18.924690
1966.000000	19.007030
1967.000000	19.089100
1968.000000	19.172560
1969.000000	19.253980
1970.000000	19.335970
1971.000000	19.416010
1972.000000	19.499150
1973.000000	19.585450
1974.000000	19.666960
1975.000000	19.750770
1976.000000	19.833900
1977.000000	19.921300
1978.000000	20.007010
1979.000000	20.096120
1980.000000	20.185020
1981.000000	20.274970
1982.000000	20.366230
1983.000000	20.454950
1984.000000	20.547950
1985.000000	20.639810
1986.000000	20.730920
1987.000000	20.825370
1988.000000	20.919530
1989.000000	21.012160
1990.000000	21.104770
1991.000000	21.196640
1992.000000	21.288110
1993.000000	21.377930
1994.000000	21.465820
1995.000000	21.553950
1996.000000	21.642910
1997.000000	21.724810
1998.000000	21.807480
1999.000000	21.887130
2000.000000	21.966580
2001.000000	22.042560
2002.000000	22.116960
2003.000000	22.187850
2004.000000	22.257640
2005.000000	22.323990
2006.000000	22.385570
2007.000000	22.442710
2008.000000	22.496810
2009.000000	22.545130
2010.000000	22.588960
2011.000000	22.630290
2012.000000	22.667470
2013.000000	22.701870
2014.000000	22.729410
2015.000000	22.754440
2016.000000	22.774930
2017.000000	22.791990
2018.000000	22.803000
2019.000000	22.811940
2020.000000	22.816650
2021.000000	22.816820
2022.000000	22.811480
2023.000000	22.801530
2024.000000	22.787520
2025.000000	22.769200
2026.000000	22.746210
2027.000000	22.721730
2028.000000	22.693150
2029.000000	22.662080
2030.000000	22.624940
2031.000000	22.585160
2032.000000	22.540550
2033.000000	22.491320
2034.000000	22.440420
2035.000000	22.384340
2036.000000	22.325570
2037.000000	22.260670
2038.000000	22.191390
2039.000000	22.117850
2040.000000	22.040880
2041.000000	21.959560
2042.000000	21.875990
2043.000000	21.788920
2044.000000	21.696010
2045.000000	21.601730
2046.000000	21.505980
2047.000000	21.409930
2048.000000	21.315490
2049.000000	21.222310
2050.000000	21.133610
2051.000000	21.050240
2052.000000	20.973590
2053.000000	20.907210
2054.000000	20.851010
2055.000000	20.805910
2056.000000	20.773440
2057.000000	20.754540
2058.000000	20.748530
2059.000000	20.754880
2060.000000	20.775630
2061.000000	20.807260
2062.000000	20.849430
2063.000000	20.901890
2064.000000	20.965380
2065.000000	21.037140
2066.000000	21.114950
2067.000000	21.199390
2068.000000	21.287270
2069.000000	21.380170
2070.000000	21.473330
2071.000000	21.568190
2072.000000	21.665040
2073.000000	21.762480
2074.000000	21.857530
2075.000000	21.949010
2076.000000	22.037800
2077.000000	22.121780
2078.000000	22.202670
2079.000000	22.278380
2080.000000	22.351740
2081.000000	22.420310
2082.000000	22.482550
2083.000000	22.537570
2084.000000	22.586880
2085.000000	22.631850
2086.000000	22.672380
2087.000000	22.708800
2088.000000	22.738660
2089.000000	22.761640
2090.000000	22.778900
2091.000000	22.793120
2092.000000	22.803080
2093.000000	22.810240
2094.000000	22.815840
2095.000000	22.818740
2096.000000	22.818970
2097.000000	22.817730
2098.000000	22.818580
2099.000000	22.821020
2100.000000	22.822860
2101.000000	22.822860
2102.000000	22.824670
2103.000000	22.827480
2104.000000	22.828800
2105.000000	22.831430
2106.000000	22.834820
2107.000000	22.837210
2108.000000	22.838450
2109.000000	22.839670
2110.000000	22.841860
2111.000000	22.844280
2112.000000	22.844490
2113.000000	22.843170
2114.000000	22.842110
2115.000000	22.836850
2116.000000	22.829940
2117.000000	22.822870
2118.000000	22.813170
2119.000000	22.801080
2120.000000	22.786450
2121.000000	22.769500
2122.000000	22.749030
2123.000000	22.724060
2124.000000	22.696080
2125.000000	22.668220
2126.000000	22.638350
2127.000000	22.602830
2128.000000	22.564370
2129.000000	22.522430
2130.000000	22.475550
2131.000000	22.424710
2132.000000	22.372360
2133.000000	22.317940
2134.000000	22.260920
2135.000000	22.198230
2136.000000	22.130120
2137.000000	22.059930
2138.000000	21.985260
2139.000000	21.906170
2140.000000	21.825070
2141.000000	21.742120
2142.000000	21.654320
2143.000000	21.561930
2144.000000	21.464860
2145.000000	21.365680
2146.000000	21.263560
2147.000000	21.160850
2148.000000	21.057080
2149.000000	20.950330
2150.000000	20.842540
2151.000000	20.733550
2152.000000	20.624280
2153.000000	20.516280
2154.000000	20.408030
2155.000000	20.300650
2156.000000	20.195330
2157.000000	20.090730
2158.000000	19.989030
2159.000000	19.890300
2160.000000	19.793330
2161.000000	19.698370
2162.000000	19.607240
2163.000000	19.519330
2164.000000	19.437840
2165.000000	19.359860
2166.000000	19.284980
2167.000000	19.214430
2168.000000	19.146820
2169.000000	19.081460
2170.000000	19.018480
2171.000000	18.959450
2172.000000	18.904630
2173.000000	18.851060
2174.000000	18.798470
2175.000000	18.749040
2176.000000	18.702910
2177.000000	18.656400
2178.000000	18.610530
2179.000000	18.566030
2180.000000	18.522530
2181.000000	18.478770
2182.000000	18.431530
2183.000000	18.382940
2184.000000	18.333020
2185.000000	18.276290
2186.000000	18.212900
2187.000000	18.142960
2188.000000	18.068240
2189.000000	17.986020
2190.000000	17.892030
2191.000000	17.787190
2192.000000	17.673500
2193.000000	17.549440
2194.000000	17.409530
2195.000000	17.259430
2196.000000	17.099380
2197.000000	16.930410
2198.000000	16.746310
2199.000000	16.556240
2200.000000	16.360670
2201.000000	16.160330
2202.000000	15.956530
2203.000000	15.751070
2204.000000	15.553410
2205.000000	15.362170
2206.000000	15.179440
2207.000000	15.005200
2208.000000	14.850210
2209.000000	14.711950
2210.000000	14.594760
2211.000000	14.497590
2212.000000	14.423860
2213.000000	14.373390
2214.000000	14.344820
2215.000000	14.339190
2216.000000	14.352870
2217.000000	14.391260
2218.000000	14.445590
2219.000000	14.518390
2220.000000	14.603780
2221.000000	14.700920
2222.000000	14.808470
2223.000000	14.922960
2224.000000	15.040180
2225.000000	15.159880
2226.000000	15.282680
2227.000000	15.401830
2228.000000	15.520040
2229.000000	15.628980
2230.000000	15.733380
2231.000000	15.834030
2232.000000	15.923700
2233.000000	16.006560
2234.000000	16.082560
2235.000000	16.149720
2236.000000	16.206230
2237.000000	16.253390
2238.000000	16.290670
2239.000000	16.320740
2240.000000	16.342760
2241.000000	16.352750
2242.000000	16.356540
2243.000000	16.353370
2244.000000	16.340810
2245.000000	16.321230
2246.000000	16.295580
2247.000000	16.267020
2248.000000	16.232650
2249.000000	16.192390
2250.000000	16.147060
2251.000000	16.102480
2252.000000	16.053730
2253.000000	16.002930
2254.000000	15.950040
2255.000000	15.896330
2256.000000	15.844020
2257.000000	15.791600
2258.000000	15.739960
2259.000000	15.692850
2260.000000	15.649930
2261.000000	15.609370
2262.000000	15.574830
2263.000000	15.544140
2264.000000	15.521780
2265.000000	15.505700
2266.000000	15.495970
2267.000000	15.490870
2268.000000	15.494070
2269.000000	15.505000
2270.000000	15.519650
2271.000000	15.539820
2272.000000	15.564460
2273.000000	15.594820
2274.000000	15.629250
2275.000000	15.665000
2276.000000	15.702290
2277.000000	15.742640
2278.000000	15.782500
2279.000000	15.820420
2280.000000	15.859770
2281.000000	15.895800
2282.000000	15.931830
2283.000000	15.962460
2284.000000	15.990470
2285.000000	16.019280
2286.000000	16.045590
2287.000000	16.069690
2288.000000	16.094000
2289.000000	16.116270
2290.000000	16.139180
2291.000000	16.163790
2292.000000	16.188040
2293.000000	16.213040
2294.000000	16.239490
2295.000000	16.265330
2296.000000	16.293310
2297.000000	16.323520
2298.000000	16.353300
2299.000000	16.386610
2300.000000	16.420130
2301.000000	16.454870
2302.000000	16.492950
2303.000000	16.535180
2304.000000	16.578860
2305.000000	16.625380
2306.000000	16.672660
2307.000000	16.720580
2308.000000	16.772570
2309.000000	16.825960
2310.000000	16.879840
2311.000000	16.935740
2312.000000	16.991290
2313.000000	17.045870
2314.000000	17.100110
2315.000000	17.152260
2316.000000	17.205100
2317.000000	17.254460
2318.000000	17.301090
2319.000000	17.344890
2320.000000	17.385410
2321.000000	17.421510
2322.000000	17.452140
2323.000000	17.480360
2324.000000	17.502620
2325.000000	17.520680
2326.000000	17.534050
2327.000000	17.543600
2328.000000	17.549970
2329.000000	17.553210
2330.000000	17.553850
2331.000000	17.553550
2332.000000	17.552050
2333.000000	17.549470
2334.000000	17.548440
2335.000000	17.548860
2336.000000	17.549960
2337.000000	17.552230
2338.000000	17.555520
2339.000000	17.560230
2340.000000	17.566870
2341.000000	17.573160
2342.000000	17.582100
2343.000000	17.593280
2344.000000	17.604390
2345.000000	17.615300
2346.000000	17.627650
2347.000000	17.642510
2348.000000	17.657550
2349.000000	17.671590
2350.000000	17.685880
2351.000000	17.701930
2352.000000	17.718090
2353.000000	17.733340
2354.000000	17.748660
2355.000000	17.765210
2356.000000	17.780990
2357.000000	17.795770
2358.000000	17.809170
2359.000000	17.823540
2360.000000	17.837940
2361.000000	17.849580
2362.000000	17.858840
2363.000000	17.866400
2364.000000	17.872890
2365.000000	17.878490
2366.000000	17.882860
2367.000000	17.886830
2368.000000	17.890420
2369.000000	17.893060
2370.000000	17.895990
2371.000000	17.899750
2372.000000	17.903600
2373.000000	17.909690
2374.000000	17.917310
2375.000000	17.922680
2376.000000	17.928140
2377.000000	17.935170
2378.000000	17.942980
2379.000000	17.950560
2380.000000	17.955730
2381.000000	17.960150
2382.000000	17.964470
2383.000000	17.966250
2384.000000	17.965480
2385.000000	17.966230
2386.000000	17.965640
2387.000000	17.961650
2388.000000	17.955980
2389.000000	17.947460
2390.000000	17.938900
2391.000000	17.930150
2392.000000	17.917950
2393.000000	17.902230
2394.000000	17.885750
2395.000000	17.865610
2396.000000	17.844000
2397.000000	17.821660
2398.000000	17.796500
2399.000000	17.771060
2400.000000	17.741490
2401.000000	17.708460
2402.000000	17.675280
2403.000000	17.641840
2404.000000	17.606480
2405.000000	17.569740
2406.000000	17.531470
2407.000000	17.489850
2408.000000	17.446440
2409.000000	17.401390
2410.000000	17.355480
2411.000000	17.306530
2412.000000	17.256540
2413.000000	17.205450
2414.000000	17.151110
2415.000000	17.093670
2416.000000	17.034680
2417.000000	16.973940
2418.000000	16.910190
2419.000000	16.842840
2420.000000	16.773680
2421.000000	16.702020
2422.000000	16.624480
2423.000000	16.543500
2424.000000	16.460340
2425.000000	16.376580
2426.000000	16.289120
2427.000000	16.198770
2428.000000	16.109260
2429.000000	16.018290
2430.000000	15.925660
2431.000000	15.832090
2432.000000	15.739400
2433.000000	15.646080
2434.000000	15.550780
2435.000000	15.453900
2436.000000	15.356130
2437.000000	15.258410
2438.000000	15.159430
2439.000000	15.058790
2440.000000	14.957600
2441.000000	14.856660
2442.000000	14.755570
2443.000000	14.651610
2444.000000	14.547500
2445.000000	14.443930
2446.000000	14.340700
2447.000000	14.238340
2448.000000	14.134360
2449.000000	14.032250
2450.000000	13.929130
2451.000000	13.830040
2452.000000	13.729610
2453.000000	13.632270
2454.000000	13.537200
2455.000000	13.441720
2456.000000	13.349480
2457.000000	13.258560
2458.000000	13.171870
2459.000000	13.086690
2460.000000	13.006190
2461.000000	12.925700
2462.000000	12.847980
2463.000000	12.773080
2464.000000	12.697790
2465.000000	12.627290
2466.000000	12.559090
2467.000000	12.493920
2468.000000	12.430020
2469.000000	12.371450
2470.000000	12.310530
2471.000000	12.250490
2472.000000	12.199750
2473.000000	12.147440
2474.000000	12.105930
2475.000000	12.062670
2476.000000	12.020160
2477.000000	11.976500
2478.000000	11.932440
2479.000000	11.889340
2480.000000	11.848210
2481.000000	11.807060
2482.000000	11.769680
2483.000000	11.739990
2484.000000	11.700850
2485.000000	11.663170
2486.000000	11.633370
2487.000000	11.602300
2488.000000	11.570210
2489.000000	11.546130
2490.000000	11.528750
2491.000000	11.514010
2492.000000	11.487830
2493.000000	11.460400
2494.000000	11.437720
2495.000000	11.431260
2496.000000	11.402540
2497.000000	11.396490
2498.000000	11.388220
2499.000000	11.381780
2500.000000	11.372710
