PE UV       SUBTECH     SPECTRUM    ASCII       PEDS        4.00        
   -1
CICIMAUCR0008-1.Sample.ASC
24/03/08
13:07:07.00
24/03/08
13:07:07.00
Vinicio Soto Monge
C. kalinini
250,000000
1
Lambda 1050
1050L1511233
PerkinElmer UV WinLab 6.3.2.0749 / 2.02.05 Lambda 900 UV/VIS/NIR, Aug  7 2015 09:38:08

0
0
3350/servo 860,8/2
0
0
UV/VIS
1
1
1
DoubleDePol,CommonBeamDepol,RBeamAtt,SBeamAtt,60mm sphere, WB InGaAs Detector
0
0
0
0
Program
Program
3350/servo 860,8/2
3350/0,2 860,8/0,2
3350/0,2 860,8/0,2
0
15.00
 
 
 
0
 
860,8
319,2
860,8
Front
100
on
S:100 R:100
0
0
0
0
 
0
 
 
 
0
 
 
0
0
0
0
0
 
 
 
 
0
0


0
0
#HDR
-1
-1
#GR
nm
%R
1.0
0.0
2500,000000
-1,000000
2251
8
36,165400
2,347300
#DATA

250.000000	nan
251.000000	nan
252.000000	nan
253.000000	nan
254.000000	nan
255.000000	nan
256.000000	nan
257.000000	nan
258.000000	nan
259.000000	2.680586
260.000000	2.680824
261.000000	2.677777
262.000000	2.669531
263.000000	2.663637
264.000000	2.655496
265.000000	2.650830
266.000000	2.645793
267.000000	2.631519
268.000000	2.617513
269.000000	2.607315
270.000000	2.593003
271.000000	2.581786
272.000000	2.574502
273.000000	2.565104
274.000000	2.562085
275.000000	2.553915
276.000000	2.546717
277.000000	2.544127
278.000000	2.542698
279.000000	2.538918
280.000000	2.538499
281.000000	2.536823
282.000000	2.532586
283.000000	2.531291
284.000000	2.526482
285.000000	2.518560
286.000000	2.513951
287.000000	2.507134
288.000000	2.506353
289.000000	2.500935
290.000000	2.497974
291.000000	2.494165
292.000000	2.489842
293.000000	2.488994
294.000000	2.485557
295.000000	2.486148
296.000000	2.479939
297.000000	2.479587
298.000000	2.474893
299.000000	2.471684
300.000000	2.467618
301.000000	2.460857
302.000000	2.456944
303.000000	2.446555
304.000000	2.443670
305.000000	2.445070
306.000000	2.444784
307.000000	2.440871
308.000000	2.436986
309.000000	2.441318
310.000000	2.437947
311.000000	2.440423
312.000000	2.440147
313.000000	2.441813
314.000000	2.439242
315.000000	2.434319
316.000000	2.435662
317.000000	2.475854
318.000000	2.514456
319.000000	2.582519
320.000000	2.622759
321.000000	2.680119
322.000000	2.737223
323.000000	2.759809
324.000000	2.793859
325.000000	2.815189
326.000000	2.838603
327.000000	2.829291
328.000000	2.827377
329.000000	2.770340
330.000000	2.743755
331.000000	2.698811
332.000000	2.664503
333.000000	2.659400
334.000000	2.655153
335.000000	2.645917
336.000000	2.651182
337.000000	2.635737
338.000000	2.623530
339.000000	2.625006
340.000000	2.625911
341.000000	2.637223
342.000000	2.631681
343.000000	2.635337
344.000000	2.633147
345.000000	2.641850
346.000000	2.629862
347.000000	2.635338
348.000000	2.631805
349.000000	2.634566
350.000000	2.640480
351.000000	2.640127
352.000000	2.653325
353.000000	2.661228
354.000000	2.662380
355.000000	2.670274
356.000000	2.689089
357.000000	2.702011
358.000000	2.717874
359.000000	2.728187
360.000000	2.745516
361.000000	2.748554
362.000000	2.750792
363.000000	2.761237
364.000000	2.773378
365.000000	2.791279
366.000000	2.798649
367.000000	2.797173
368.000000	2.795088
369.000000	2.798221
370.000000	2.789327
371.000000	2.795554
372.000000	2.797392
373.000000	2.795507
374.000000	2.784680
375.000000	2.779034
376.000000	2.780948
377.000000	2.762075
378.000000	2.744336
379.000000	2.728938
380.000000	2.718912
381.000000	2.705876
382.000000	2.696507
383.000000	2.686471
384.000000	2.684185
385.000000	2.671083
386.000000	2.656467
387.000000	2.677330
388.000000	2.697088
389.000000	2.717646
390.000000	2.740774
391.000000	2.764951
392.000000	2.791336
393.000000	2.820616
394.000000	2.850772
395.000000	2.885080
396.000000	2.923177
397.000000	2.963760
398.000000	3.008837
399.000000	3.057627
400.000000	3.111093
401.000000	3.171339
402.000000	3.236831
403.000000	3.308636
404.000000	3.389411
405.000000	3.478546
406.000000	3.573947
407.000000	3.677488
408.000000	3.789914
409.000000	3.912291
410.000000	4.044760
411.000000	4.185152
412.000000	4.334847
413.000000	4.493740
414.000000	4.661212
415.000000	4.836721
416.000000	5.020181
417.000000	5.211210
418.000000	5.408715
419.000000	5.610057
420.000000	5.814827
421.000000	6.024415
422.000000	6.236584
423.000000	6.450799
424.000000	6.664424
425.000000	6.875555
426.000000	7.084372
427.000000	7.289694
428.000000	7.490684
429.000000	7.687293
430.000000	7.877990
431.000000	8.062306
432.000000	8.239624
433.000000	8.409753
434.000000	8.574160
435.000000	8.731710
436.000000	8.882176
437.000000	9.027834
438.000000	9.168978
439.000000	9.304599
440.000000	9.434955
441.000000	9.559064
442.000000	9.677023
443.000000	9.789287
444.000000	9.895485
445.000000	9.998798
446.000000	10.097846
447.000000	10.189076
448.000000	10.273821
449.000000	10.353892
450.000000	10.430696
451.000000	10.503472
452.000000	10.572326
453.000000	10.636637
454.000000	10.696749
455.000000	10.752043
456.000000	10.802186
457.000000	10.849339
458.000000	10.890721
459.000000	10.925638
460.000000	10.953776
461.000000	10.974153
462.000000	10.988769
463.000000	10.996348
464.000000	10.994653
465.000000	10.983427
466.000000	10.963231
467.000000	10.932627
468.000000	10.893149
469.000000	10.844273
470.000000	10.784684
471.000000	10.716478
472.000000	10.638875
473.000000	10.553786
474.000000	10.464442
475.000000	10.370469
476.000000	10.275450
477.000000	10.183001
478.000000	10.094970
479.000000	10.015548
480.000000	9.947713
481.000000	9.893657
482.000000	9.856826
483.000000	9.841181
484.000000	9.849732
485.000000	9.887077
486.000000	9.953388
487.000000	10.046770
488.000000	10.168699
489.000000	10.317022
490.000000	10.490075
491.000000	10.686408
492.000000	10.901224
493.000000	11.129313
494.000000	11.364505
495.000000	11.600984
496.000000	11.835233
497.000000	12.064684
498.000000	12.283937
499.000000	12.490621
500.000000	12.682336
501.000000	12.856703
502.000000	13.014691
503.000000	13.157178
504.000000	13.284220
505.000000	13.396646
506.000000	13.495379
507.000000	13.582391
508.000000	13.661195
509.000000	13.734438
510.000000	13.805557
511.000000	13.877705
512.000000	13.952891
513.000000	14.034122
514.000000	14.127504
515.000000	14.235931
516.000000	14.361478
517.000000	14.507745
518.000000	14.674103
519.000000	14.863467
520.000000	15.075949
521.000000	15.313608
522.000000	15.576091
523.000000	15.860750
524.000000	16.163872
525.000000	16.484877
526.000000	16.822973
527.000000	17.174191
528.000000	17.540463
529.000000	17.918009
530.000000	18.305724
531.000000	18.697087
532.000000	19.092420
533.000000	19.489495
534.000000	19.886457
535.000000	20.280447
536.000000	20.668429
537.000000	21.048641
538.000000	21.419493
539.000000	21.778748
540.000000	22.125366
541.000000	22.460920
542.000000	22.783724
543.000000	23.092141
544.000000	23.388198
545.000000	23.673200
546.000000	23.944786
547.000000	24.207801
548.000000	24.460362
549.000000	24.703553
550.000000	24.940241
551.000000	25.170939
552.000000	25.396676
553.000000	25.617205
554.000000	25.833496
555.000000	26.041065
556.000000	26.246321
557.000000	26.444711
558.000000	26.639807
559.000000	26.829865
560.000000	26.943567
561.000000	27.041805
562.000000	27.130893
563.000000	27.215048
564.000000	27.291585
565.000000	27.363076
566.000000	27.423817
567.000000	27.474321
568.000000	27.513942
569.000000	27.547564
570.000000	27.640908
571.000000	27.737470
572.000000	27.830700
573.000000	27.922025
574.000000	28.007666
575.000000	28.087917
576.000000	28.166635
577.000000	28.244239
578.000000	28.319282
579.000000	28.387421
580.000000	28.449180
581.000000	28.506217
582.000000	28.559378
583.000000	28.603969
584.000000	28.644733
585.000000	28.682078
586.000000	28.713643
587.000000	28.736306
588.000000	28.747332
589.000000	28.747999
590.000000	28.738696
591.000000	28.710920
592.000000	28.668014
593.000000	28.610797
594.000000	28.536583
595.000000	28.448133
596.000000	28.345686
597.000000	28.232451
598.000000	28.110398
599.000000	27.978176
600.000000	27.837518
601.000000	27.685109
602.000000	27.518170
603.000000	27.338767
604.000000	27.149137
605.000000	26.946414
606.000000	26.736988
607.000000	26.520192
608.000000	26.296207
609.000000	26.066565
610.000000	25.834677
611.000000	25.604645
612.000000	25.375585
613.000000	25.147476
614.000000	24.917645
615.000000	24.690174
616.000000	24.459724
617.000000	24.231368
618.000000	24.000517
619.000000	23.772276
620.000000	23.542273
621.000000	23.312517
622.000000	23.087218
623.000000	22.861795
624.000000	22.644046
625.000000	22.434297
626.000000	22.235688
627.000000	22.047210
628.000000	21.875453
629.000000	21.716731
630.000000	21.576558
631.000000	21.455734
632.000000	21.353001
633.000000	21.275664
634.000000	21.220113
635.000000	21.184110
636.000000	21.171398
637.000000	21.179102
638.000000	21.204668
639.000000	21.250945
640.000000	21.316047
641.000000	21.402230
642.000000	21.504838
643.000000	21.625663
644.000000	21.762265
645.000000	21.914493
646.000000	22.075642
647.000000	22.247485
648.000000	22.432802
649.000000	22.623984
650.000000	22.818822
651.000000	23.015499
652.000000	23.214051
653.000000	23.411765
654.000000	23.604718
655.000000	23.789692
656.000000	23.967686
657.000000	24.137691
658.000000	24.297060
659.000000	24.444889
660.000000	24.584776
661.000000	24.713380
662.000000	24.825443
663.000000	24.922749
664.000000	25.008151
665.000000	25.087317
666.000000	25.154913
667.000000	25.213378
668.000000	25.263435
669.000000	25.311549
670.000000	25.356055
671.000000	25.398371
672.000000	25.447723
673.000000	25.501236
674.000000	25.564291
675.000000	25.635144
676.000000	25.719947
677.000000	25.820746
678.000000	25.938342
679.000000	26.075554
680.000000	26.232971
681.000000	26.412146
682.000000	26.612250
683.000000	26.829789
684.000000	27.066019
685.000000	27.324103
686.000000	27.599116
687.000000	27.885251
688.000000	28.184346
689.000000	28.490858
690.000000	28.798161
691.000000	29.105758
692.000000	29.410042
693.000000	29.710308
694.000000	30.004127
695.000000	30.284825
696.000000	30.550307
697.000000	30.801640
698.000000	31.031862
699.000000	31.241964
700.000000	31.439497
701.000000	31.620005
702.000000	31.782536
703.000000	31.928688
704.000000	32.054826
705.000000	32.164719
706.000000	32.262157
707.000000	32.346274
708.000000	32.423269
709.000000	32.491693
710.000000	32.545435
711.000000	32.592226
712.000000	32.632057
713.000000	32.666622
714.000000	32.699929
715.000000	32.727810
716.000000	32.752414
717.000000	32.772725
718.000000	32.787731
719.000000	32.802243
720.000000	32.820801
721.000000	32.836417
722.000000	32.852338
723.000000	32.869392
724.000000	32.881799
725.000000	32.896586
726.000000	32.913355
727.000000	32.933427
728.000000	32.959469
729.000000	32.983693
730.000000	33.005880
731.000000	33.032217
732.000000	33.062307
733.000000	33.094586
734.000000	33.130446
735.000000	33.167848
736.000000	33.210459
737.000000	33.257954
738.000000	33.305679
739.000000	33.353831
740.000000	33.404602
741.000000	33.452707
742.000000	33.497185
743.000000	33.545708
744.000000	33.596051
745.000000	33.642785
746.000000	33.686405
747.000000	33.732958
748.000000	33.776254
749.000000	33.819360
750.000000	33.863104
751.000000	33.914199
752.000000	33.971959
753.000000	34.022226
754.000000	34.071569
755.000000	34.121502
756.000000	34.170073
757.000000	34.205400
758.000000	34.239441
759.000000	34.279109
760.000000	34.313941
761.000000	34.338393
762.000000	34.354866
763.000000	34.371967
764.000000	34.384660
765.000000	34.396096
766.000000	34.400533
767.000000	34.405856
768.000000	34.409398
769.000000	34.401152
770.000000	34.389916
771.000000	34.377347
772.000000	34.362188
773.000000	34.342554
774.000000	34.316493
775.000000	34.287051
776.000000	34.254819
777.000000	34.218750
778.000000	34.177177
779.000000	34.133014
780.000000	34.081624
781.000000	34.026101
782.000000	33.968884
783.000000	33.903487
784.000000	33.833129
785.000000	33.756163
786.000000	33.671379
787.000000	33.579778
788.000000	33.484682
789.000000	33.383616
790.000000	33.278522
791.000000	33.170743
792.000000	33.049395
793.000000	32.917249
794.000000	32.784322
795.000000	32.640369
796.000000	32.499082
797.000000	32.359719
798.000000	32.207682
799.000000	32.053464
800.000000	31.896808
801.000000	31.722661
802.000000	31.551942
803.000000	31.389973
804.000000	31.216959
805.000000	31.042945
806.000000	30.860361
807.000000	30.664085
808.000000	30.477635
809.000000	30.292681
810.000000	30.101584
811.000000	29.915049
812.000000	29.727019
813.000000	29.527953
814.000000	29.336409
815.000000	29.139704
816.000000	28.935905
817.000000	28.738591
818.000000	28.540020
819.000000	28.345001
820.000000	28.145401
821.000000	27.945802
822.000000	27.743307
823.000000	27.549764
824.000000	27.358296
825.000000	27.179493
826.000000	27.025161
827.000000	26.871657
828.000000	26.724228
829.000000	26.573124
830.000000	26.432523
831.000000	26.308395
832.000000	26.197264
833.000000	26.099607
834.000000	26.010681
835.000000	25.941447
836.000000	25.859939
837.000000	25.798598
838.000000	25.727269
839.000000	25.662834
840.000000	25.626984
841.000000	25.599008
842.000000	25.571347
843.000000	25.534173
844.000000	25.503436
845.000000	25.478774
846.000000	25.457950
847.000000	25.443238
848.000000	25.437849
849.000000	25.439829
850.000000	25.433878
851.000000	25.421128
852.000000	25.418224
853.000000	25.407931
854.000000	25.400561
855.000000	25.387392
856.000000	25.384688
857.000000	25.381812
858.000000	25.319291
859.000000	25.369763
860.000000	25.422051
861.000000	25.491909
862.000000	25.567959
863.000000	25.672081
864.000000	25.785204
865.000000	25.904858
866.000000	26.030717
867.000000	26.158620
868.000000	26.360850
869.000000	26.458530
870.000000	26.555010
871.000000	26.650070
872.000000	26.739170
873.000000	26.828300
874.000000	26.911410
875.000000	26.993270
876.000000	27.076210
877.000000	27.152270
878.000000	27.225280
879.000000	27.299160
880.000000	27.375120
881.000000	27.441870
882.000000	27.510720
883.000000	27.575850
884.000000	27.632820
885.000000	27.680190
886.000000	27.726270
887.000000	27.769990
888.000000	27.808130
889.000000	27.838030
890.000000	27.857350
891.000000	27.871820
892.000000	27.882030
893.000000	27.884180
894.000000	27.884330
895.000000	27.881250
896.000000	27.869860
897.000000	27.853200
898.000000	27.832320
899.000000	27.806670
900.000000	27.779670
901.000000	27.752060
902.000000	27.716120
903.000000	27.680620
904.000000	27.641820
905.000000	27.601340
906.000000	27.561260
907.000000	27.519160
908.000000	27.476390
909.000000	27.434170
910.000000	27.393930
911.000000	27.352860
912.000000	27.314180
913.000000	27.270900
914.000000	27.232920
915.000000	27.193250
916.000000	27.152360
917.000000	27.114580
918.000000	27.078230
919.000000	27.044820
920.000000	27.008820
921.000000	26.971060
922.000000	26.935630
923.000000	26.900640
924.000000	26.859250
925.000000	26.819570
926.000000	26.778370
927.000000	26.737960
928.000000	26.699480
929.000000	26.657260
930.000000	26.615400
931.000000	26.572920
932.000000	26.527320
933.000000	26.484460
934.000000	26.445470
935.000000	26.403270
936.000000	26.363580
937.000000	26.322340
938.000000	26.280160
939.000000	26.237420
940.000000	26.194260
941.000000	26.153930
942.000000	26.113810
943.000000	26.072320
944.000000	26.030810
945.000000	25.990870
946.000000	25.949940
947.000000	25.909750
948.000000	25.872100
949.000000	25.832490
950.000000	25.794520
951.000000	25.757830
952.000000	25.719060
953.000000	25.680700
954.000000	25.641510
955.000000	25.603900
956.000000	25.565460
957.000000	25.526210
958.000000	25.485180
959.000000	25.443330
960.000000	25.399140
961.000000	25.353290
962.000000	25.308380
963.000000	25.261970
964.000000	25.216880
965.000000	25.171120
966.000000	25.126620
967.000000	25.082550
968.000000	25.039440
969.000000	24.999080
970.000000	24.962120
971.000000	24.927100
972.000000	24.894470
973.000000	24.862840
974.000000	24.832170
975.000000	24.801650
976.000000	24.773790
977.000000	24.746470
978.000000	24.719150
979.000000	24.694930
980.000000	24.671830
981.000000	24.648460
982.000000	24.625800
983.000000	24.606220
984.000000	24.587360
985.000000	24.569210
986.000000	24.550450
987.000000	24.532240
988.000000	24.515380
989.000000	24.499070
990.000000	24.483690
991.000000	24.469120
992.000000	24.455670
993.000000	24.441700
994.000000	24.429050
995.000000	24.419570
996.000000	24.411200
997.000000	24.402340
998.000000	24.393730
999.000000	24.385670
1000.000000	24.377210
1001.000000	24.368760
1002.000000	24.360630
1003.000000	24.353980
1004.000000	24.347780
1005.000000	24.341140
1006.000000	24.334360
1007.000000	24.329200
1008.000000	24.325130
1009.000000	24.322460
1010.000000	24.318800
1011.000000	24.316050
1012.000000	24.313600
1013.000000	24.313090
1014.000000	24.314870
1015.000000	24.317460
1016.000000	24.322460
1017.000000	24.331190
1018.000000	24.342450
1019.000000	24.356230
1020.000000	24.375520
1021.000000	24.397320
1022.000000	24.421180
1023.000000	24.448170
1024.000000	24.476690
1025.000000	24.507710
1026.000000	24.539670
1027.000000	24.573460
1028.000000	24.610130
1029.000000	24.645110
1030.000000	24.678210
1031.000000	24.713280
1032.000000	24.750110
1033.000000	24.785360
1034.000000	24.820000
1035.000000	24.855060
1036.000000	24.889300
1037.000000	24.921650
1038.000000	24.953340
1039.000000	24.985900
1040.000000	25.018140
1041.000000	25.046930
1042.000000	25.074230
1043.000000	25.102040
1044.000000	25.128320
1045.000000	25.152770
1046.000000	25.178420
1047.000000	25.204250
1048.000000	25.226980
1049.000000	25.247650
1050.000000	25.269180
1051.000000	25.293850
1052.000000	25.317990
1053.000000	25.340520
1054.000000	25.364110
1055.000000	25.389610
1056.000000	25.413850
1057.000000	25.439040
1058.000000	25.466330
1059.000000	25.494680
1060.000000	25.524030
1061.000000	25.552980
1062.000000	25.582340
1063.000000	25.613910
1064.000000	25.645780
1065.000000	25.675510
1066.000000	25.706690
1067.000000	25.737520
1068.000000	25.766730
1069.000000	25.797150
1070.000000	25.829170
1071.000000	25.861050
1072.000000	25.892890
1073.000000	25.923140
1074.000000	25.953260
1075.000000	25.985080
1076.000000	26.015760
1077.000000	26.046160
1078.000000	26.077070
1079.000000	26.108540
1080.000000	26.138050
1081.000000	26.166370
1082.000000	26.195470
1083.000000	26.224880
1084.000000	26.254140
1085.000000	26.282770
1086.000000	26.312980
1087.000000	26.342540
1088.000000	26.372860
1089.000000	26.401920
1090.000000	26.430200
1091.000000	26.459360
1092.000000	26.488230
1093.000000	26.515500
1094.000000	26.540490
1095.000000	26.565120
1096.000000	26.586050
1097.000000	26.607110
1098.000000	26.626070
1099.000000	26.643910
1100.000000	26.661250
1101.000000	26.676370
1102.000000	26.689650
1103.000000	26.701040
1104.000000	26.714620
1105.000000	26.726100
1106.000000	26.737930
1107.000000	26.745880
1108.000000	26.753820
1109.000000	26.763190
1110.000000	26.772050
1111.000000	26.779210
1112.000000	26.784870
1113.000000	26.791940
1114.000000	26.797290
1115.000000	26.799980
1116.000000	26.803540
1117.000000	26.805920
1118.000000	26.809460
1119.000000	26.809860
1120.000000	26.805030
1121.000000	26.800510
1122.000000	26.793840
1123.000000	26.783990
1124.000000	26.767800
1125.000000	26.748870
1126.000000	26.726110
1127.000000	26.696980
1128.000000	26.659530
1129.000000	26.611340
1130.000000	26.555720
1131.000000	26.485210
1132.000000	26.399210
1133.000000	26.298850
1134.000000	26.186910
1135.000000	26.063780
1136.000000	25.921510
1137.000000	25.765070
1138.000000	25.596300
1139.000000	25.416640
1140.000000	25.228810
1141.000000	25.040090
1142.000000	24.852030
1143.000000	24.663090
1144.000000	24.475310
1145.000000	24.291780
1146.000000	24.120690
1147.000000	23.965480
1148.000000	23.827310
1149.000000	23.708380
1150.000000	23.607630
1151.000000	23.523420
1152.000000	23.454470
1153.000000	23.400350
1154.000000	23.355940
1155.000000	23.316440
1156.000000	23.276280
1157.000000	23.228610
1158.000000	23.169500
1159.000000	23.095130
1160.000000	23.005420
1161.000000	22.898420
1162.000000	22.776220
1163.000000	22.639660
1164.000000	22.489880
1165.000000	22.329660
1166.000000	22.163650
1167.000000	21.995360
1168.000000	21.822540
1169.000000	21.652180
1170.000000	21.483750
1171.000000	21.317210
1172.000000	21.152490
1173.000000	20.990440
1174.000000	20.834580
1175.000000	20.683040
1176.000000	20.535520
1177.000000	20.388270
1178.000000	20.244510
1179.000000	20.093810
1180.000000	19.937670
1181.000000	19.777230
1182.000000	19.612330
1183.000000	19.440940
1184.000000	19.270870
1185.000000	19.107200
1186.000000	18.952070
1187.000000	18.816280
1188.000000	18.698860
1189.000000	18.616390
1190.000000	18.569430
1191.000000	18.560820
1192.000000	18.593790
1193.000000	18.662470
1194.000000	18.758360
1195.000000	18.872150
1196.000000	18.999790
1197.000000	19.131830
1198.000000	19.265080
1199.000000	19.387700
1200.000000	19.498520
1201.000000	19.591400
1202.000000	19.664290
1203.000000	19.721860
1204.000000	19.764920
1205.000000	19.796640
1206.000000	19.821260
1207.000000	19.841020
1208.000000	19.858830
1209.000000	19.876400
1210.000000	19.894500
1211.000000	19.917170
1212.000000	19.944130
1213.000000	19.976490
1214.000000	20.011410
1215.000000	20.055260
1216.000000	20.101260
1217.000000	20.150520
1218.000000	20.201460
1219.000000	20.257220
1220.000000	20.316110
1221.000000	20.377440
1222.000000	20.439250
1223.000000	20.504670
1224.000000	20.574680
1225.000000	20.644480
1226.000000	20.717220
1227.000000	20.792050
1228.000000	20.868000
1229.000000	20.944050
1230.000000	21.021470
1231.000000	21.098120
1232.000000	21.175680
1233.000000	21.251590
1234.000000	21.324320
1235.000000	21.395460
1236.000000	21.464570
1237.000000	21.530910
1238.000000	21.597350
1239.000000	21.663770
1240.000000	21.727380
1241.000000	21.790130
1242.000000	21.850830
1243.000000	21.908870
1244.000000	21.967520
1245.000000	22.025260
1246.000000	22.081860
1247.000000	22.138040
1248.000000	22.193530
1249.000000	22.245630
1250.000000	22.297060
1251.000000	22.346530
1252.000000	22.394690
1253.000000	22.442800
1254.000000	22.490540
1255.000000	22.536330
1256.000000	22.580110
1257.000000	22.623160
1258.000000	22.662330
1259.000000	22.702160
1260.000000	22.740960
1261.000000	22.778380
1262.000000	22.814590
1263.000000	22.850500
1264.000000	22.883810
1265.000000	22.916720
1266.000000	22.948640
1267.000000	22.978640
1268.000000	23.009950
1269.000000	23.039510
1270.000000	23.066400
1271.000000	23.092570
1272.000000	23.116950
1273.000000	23.140630
1274.000000	23.163900
1275.000000	23.185200
1276.000000	23.206260
1277.000000	23.226910
1278.000000	23.246400
1279.000000	23.265940
1280.000000	23.286140
1281.000000	23.306340
1282.000000	23.327720
1283.000000	23.346390
1284.000000	23.365370
1285.000000	23.386800
1286.000000	23.408850
1287.000000	23.430790
1288.000000	23.451290
1289.000000	23.471140
1290.000000	23.491020
1291.000000	23.511520
1292.000000	23.530850
1293.000000	23.549810
1294.000000	23.566070
1295.000000	23.578790
1296.000000	23.588290
1297.000000	23.596110
1298.000000	23.602980
1299.000000	23.608230
1300.000000	23.611050
1301.000000	23.610630
1302.000000	23.608050
1303.000000	23.604100
1304.000000	23.597930
1305.000000	23.591020
1306.000000	23.583870
1307.000000	23.574990
1308.000000	23.563110
1309.000000	23.547230
1310.000000	23.528220
1311.000000	23.505800
1312.000000	23.481040
1313.000000	23.453690
1314.000000	23.425080
1315.000000	23.391790
1316.000000	23.353410
1317.000000	23.310720
1318.000000	23.263900
1319.000000	23.214700
1320.000000	23.162980
1321.000000	23.108160
1322.000000	23.049610
1323.000000	22.987990
1324.000000	22.922610
1325.000000	22.855720
1326.000000	22.785930
1327.000000	22.713570
1328.000000	22.638960
1329.000000	22.560640
1330.000000	22.477220
1331.000000	22.391320
1332.000000	22.301970
1333.000000	22.207790
1334.000000	22.110490
1335.000000	22.008070
1336.000000	21.903030
1337.000000	21.793550
1338.000000	21.681900
1339.000000	21.564590
1340.000000	21.445130
1341.000000	21.322330
1342.000000	21.196810
1343.000000	21.068370
1344.000000	20.935440
1345.000000	20.801880
1346.000000	20.662990
1347.000000	20.521780
1348.000000	20.375450
1349.000000	20.227970
1350.000000	20.074420
1351.000000	19.911430
1352.000000	19.740600
1353.000000	19.562830
1354.000000	19.379030
1355.000000	19.188580
1356.000000	19.000610
1357.000000	18.817280
1358.000000	18.643200
1359.000000	18.481790
1360.000000	18.335850
1361.000000	18.209480
1362.000000	18.100840
1363.000000	18.003740
1364.000000	17.918700
1365.000000	17.845730
1366.000000	17.776700
1367.000000	17.706900
1368.000000	17.630530
1369.000000	17.541920
1370.000000	17.440310
1371.000000	17.321130
1372.000000	17.183160
1373.000000	17.029810
1374.000000	16.861660
1375.000000	16.676120
1376.000000	16.478500
1377.000000	16.271250
1378.000000	16.062840
1379.000000	15.853070
1380.000000	15.640120
1381.000000	15.435910
1382.000000	15.239450
1383.000000	15.053510
1384.000000	14.874270
1385.000000	14.702510
1386.000000	14.538260
1387.000000	14.386230
1388.000000	14.243180
1389.000000	14.113760
1390.000000	13.997480
1391.000000	13.890410
1392.000000	13.797710
1393.000000	13.716960
1394.000000	13.651750
1395.000000	13.602350
1396.000000	13.568450
1397.000000	13.537280
1398.000000	13.505880
1399.000000	13.472850
1400.000000	13.442750
1401.000000	13.411230
1402.000000	13.369040
1403.000000	13.316100
1404.000000	13.255590
1405.000000	13.185650
1406.000000	13.104380
1407.000000	13.019070
1408.000000	12.929270
1409.000000	12.836880
1410.000000	12.739130
1411.000000	12.635080
1412.000000	12.532310
1413.000000	12.437760
1414.000000	12.347290
1415.000000	12.260490
1416.000000	12.175300
1417.000000	12.090910
1418.000000	12.014300
1419.000000	11.939710
1420.000000	11.866020
1421.000000	11.793730
1422.000000	11.725300
1423.000000	11.656030
1424.000000	11.585800
1425.000000	11.515320
1426.000000	11.447430
1427.000000	11.384650
1428.000000	11.317990
1429.000000	11.253530
1430.000000	11.191530
1431.000000	11.132920
1432.000000	11.078680
1433.000000	11.024560
1434.000000	10.971730
1435.000000	10.924160
1436.000000	10.878570
1437.000000	10.831440
1438.000000	10.791090
1439.000000	10.752000
1440.000000	10.711030
1441.000000	10.673650
1442.000000	10.633660
1443.000000	10.593130
1444.000000	10.556210
1445.000000	10.517670
1446.000000	10.481840
1447.000000	10.446870
1448.000000	10.408960
1449.000000	10.369750
1450.000000	10.336240
1451.000000	10.300400
1452.000000	10.266670
1453.000000	10.235630
1454.000000	10.204940
1455.000000	10.174760
1456.000000	10.143340
1457.000000	10.115840
1458.000000	10.088430
1459.000000	10.062030
1460.000000	10.037940
1461.000000	10.017480
1462.000000	9.994040
1463.000000	9.973960
1464.000000	9.954220
1465.000000	9.934920
1466.000000	9.919950
1467.000000	9.906680
1468.000000	9.894240
1469.000000	9.884630
1470.000000	9.876490
1471.000000	9.867080
1472.000000	9.860650
1473.000000	9.853550
1474.000000	9.849190
1475.000000	9.843990
1476.000000	9.838770
1477.000000	9.831870
1478.000000	9.827620
1479.000000	9.822560
1480.000000	9.815750
1481.000000	9.810280
1482.000000	9.809020
1483.000000	9.808250
1484.000000	9.805090
1485.000000	9.803550
1486.000000	9.802150
1487.000000	9.803990
1488.000000	9.805120
1489.000000	9.807340
1490.000000	9.810230
1491.000000	9.813800
1492.000000	9.816670
1493.000000	9.820230
1494.000000	9.826360
1495.000000	9.834360
1496.000000	9.840150
1497.000000	9.845280
1498.000000	9.853250
1499.000000	9.862160
1500.000000	9.871740
1501.000000	9.881960
1502.000000	9.892480
1503.000000	9.903490
1504.000000	9.913900
1505.000000	9.927710
1506.000000	9.942480
1507.000000	9.957910
1508.000000	9.972480
1509.000000	9.986840
1510.000000	10.002670
1511.000000	10.018740
1512.000000	10.034030
1513.000000	10.050440
1514.000000	10.066550
1515.000000	10.079990
1516.000000	10.094930
1517.000000	10.109470
1518.000000	10.122740
1519.000000	10.137010
1520.000000	10.150620
1521.000000	10.165040
1522.000000	10.178910
1523.000000	10.192670
1524.000000	10.205420
1525.000000	10.219350
1526.000000	10.231790
1527.000000	10.242010
1528.000000	10.253170
1529.000000	10.264970
1530.000000	10.275090
1531.000000	10.283810
1532.000000	10.291590
1533.000000	10.298930
1534.000000	10.305850
1535.000000	10.310300
1536.000000	10.315390
1537.000000	10.321440
1538.000000	10.324340
1539.000000	10.324470
1540.000000	10.325360
1541.000000	10.326320
1542.000000	10.327570
1543.000000	10.327940
1544.000000	10.328310
1545.000000	10.330750
1546.000000	10.332380
1547.000000	10.332930
1548.000000	10.335850
1549.000000	10.340110
1550.000000	10.342610
1551.000000	10.345270
1552.000000	10.346980
1553.000000	10.348850
1554.000000	10.353450
1555.000000	10.356340
1556.000000	10.357930
1557.000000	10.361470
1558.000000	10.363860
1559.000000	10.364030
1560.000000	10.364200
1561.000000	10.363110
1562.000000	10.362900
1563.000000	10.361590
1564.000000	10.356750
1565.000000	10.351600
1566.000000	10.347940
1567.000000	10.341780
1568.000000	10.333510
1569.000000	10.326670
1570.000000	10.320620
1571.000000	10.314180
1572.000000	10.307780
1573.000000	10.303650
1574.000000	10.300490
1575.000000	10.298410
1576.000000	10.295910
1577.000000	10.294200
1578.000000	10.297130
1579.000000	10.300590
1580.000000	10.302340
1581.000000	10.306370
1582.000000	10.311940
1583.000000	10.318000
1584.000000	10.325890
1585.000000	10.333890
1586.000000	10.344140
1587.000000	10.355500
1588.000000	10.365000
1589.000000	10.375890
1590.000000	10.390340
1591.000000	10.405740
1592.000000	10.420390
1593.000000	10.434850
1594.000000	10.449780
1595.000000	10.466420
1596.000000	10.482900
1597.000000	10.500930
1598.000000	10.520340
1599.000000	10.541200
1600.000000	10.562360
1601.000000	10.583050
1602.000000	10.603980
1603.000000	10.624180
1604.000000	10.646600
1605.000000	10.669510
1606.000000	10.690760
1607.000000	10.711480
1608.000000	10.733770
1609.000000	10.755430
1610.000000	10.778130
1611.000000	10.800960
1612.000000	10.825650
1613.000000	10.850850
1614.000000	10.873560
1615.000000	10.894000
1616.000000	10.916440
1617.000000	10.941100
1618.000000	10.964210
1619.000000	10.985760
1620.000000	11.004850
1621.000000	11.025560
1622.000000	11.045240
1623.000000	11.066480
1624.000000	11.088760
1625.000000	11.112510
1626.000000	11.135870
1627.000000	11.157220
1628.000000	11.181630
1629.000000	11.205360
1630.000000	11.231060
1631.000000	11.256010
1632.000000	11.281250
1633.000000	11.305830
1634.000000	11.330630
1635.000000	11.353230
1636.000000	11.376230
1637.000000	11.399640
1638.000000	11.419770
1639.000000	11.440620
1640.000000	11.460800
1641.000000	11.480720
1642.000000	11.499810
1643.000000	11.519190
1644.000000	11.535860
1645.000000	11.553950
1646.000000	11.571830
1647.000000	11.588540
1648.000000	11.603950
1649.000000	11.621390
1650.000000	11.636450
1651.000000	11.647820
1652.000000	11.660870
1653.000000	11.670150
1654.000000	11.680060
1655.000000	11.687200
1656.000000	11.691480
1657.000000	11.695450
1658.000000	11.697950
1659.000000	11.696380
1660.000000	11.693830
1661.000000	11.690630
1662.000000	11.683030
1663.000000	11.675150
1664.000000	11.662120
1665.000000	11.648160
1666.000000	11.631190
1667.000000	11.608360
1668.000000	11.581350
1669.000000	11.545140
1670.000000	11.505670
1671.000000	11.460410
1672.000000	11.410520
1673.000000	11.351590
1674.000000	11.285680
1675.000000	11.210070
1676.000000	11.125050
1677.000000	11.030130
1678.000000	10.923340
1679.000000	10.807720
1680.000000	10.678820
1681.000000	10.539740
1682.000000	10.393140
1683.000000	10.247380
1684.000000	10.107260
1685.000000	9.975470
1686.000000	9.854920
1687.000000	9.750130
1688.000000	9.661760
1689.000000	9.588910
1690.000000	9.527390
1691.000000	9.480670
1692.000000	9.440730
1693.000000	9.408460
1694.000000	9.379040
1695.000000	9.352210
1696.000000	9.325440
1697.000000	9.301620
1698.000000	9.282850
1699.000000	9.274730
1700.000000	9.274720
1701.000000	9.282160
1702.000000	9.302110
1703.000000	9.327370
1704.000000	9.359290
1705.000000	9.393540
1706.000000	9.430650
1707.000000	9.463990
1708.000000	9.495030
1709.000000	9.517840
1710.000000	9.538780
1711.000000	9.554290
1712.000000	9.564040
1713.000000	9.566630
1714.000000	9.561610
1715.000000	9.555370
1716.000000	9.542310
1717.000000	9.527730
1718.000000	9.509340
1719.000000	9.492130
1720.000000	9.471600
1721.000000	9.454270
1722.000000	9.434980
1723.000000	9.418740
1724.000000	9.401390
1725.000000	9.383680
1726.000000	9.370220
1727.000000	9.354080
1728.000000	9.337080
1729.000000	9.315930
1730.000000	9.294480
1731.000000	9.268230
1732.000000	9.243840
1733.000000	9.217770
1734.000000	9.196220
1735.000000	9.175250
1736.000000	9.160050
1737.000000	9.154010
1738.000000	9.156510
1739.000000	9.170200
1740.000000	9.194850
1741.000000	9.228210
1742.000000	9.269700
1743.000000	9.321200
1744.000000	9.377800
1745.000000	9.436420
1746.000000	9.495190
1747.000000	9.550880
1748.000000	9.604680
1749.000000	9.653620
1750.000000	9.696220
1751.000000	9.732490
1752.000000	9.760960
1753.000000	9.781230
1754.000000	9.796920
1755.000000	9.808610
1756.000000	9.814720
1757.000000	9.815950
1758.000000	9.812020
1759.000000	9.803300
1760.000000	9.790120
1761.000000	9.774620
1762.000000	9.757740
1763.000000	9.741220
1764.000000	9.723490
1765.000000	9.708960
1766.000000	9.698130
1767.000000	9.694210
1768.000000	9.695160
1769.000000	9.700450
1770.000000	9.712280
1771.000000	9.731770
1772.000000	9.756310
1773.000000	9.785310
1774.000000	9.817630
1775.000000	9.852740
1776.000000	9.888480
1777.000000	9.925330
1778.000000	9.963090
1779.000000	10.001330
1780.000000	10.038920
1781.000000	10.072180
1782.000000	10.105660
1783.000000	10.138160
1784.000000	10.170220
1785.000000	10.198830
1786.000000	10.227130
1787.000000	10.251970
1788.000000	10.275460
1789.000000	10.296600
1790.000000	10.318960
1791.000000	10.342600
1792.000000	10.364250
1793.000000	10.383390
1794.000000	10.402730
1795.000000	10.421300
1796.000000	10.437880
1797.000000	10.455150
1798.000000	10.471330
1799.000000	10.489740
1800.000000	10.506110
1801.000000	10.523130
1802.000000	10.539730
1803.000000	10.557080
1804.000000	10.573530
1805.000000	10.591430
1806.000000	10.611030
1807.000000	10.630610
1808.000000	10.649450
1809.000000	10.666930
1810.000000	10.684220
1811.000000	10.701140
1812.000000	10.717340
1813.000000	10.731150
1814.000000	10.744370
1815.000000	10.757140
1816.000000	10.768250
1817.000000	10.777160
1818.000000	10.782890
1819.000000	10.787240
1820.000000	10.794610
1821.000000	10.803220
1822.000000	10.813540
1823.000000	10.823810
1824.000000	10.831170
1825.000000	10.839150
1826.000000	10.848980
1827.000000	10.861580
1828.000000	10.879510
1829.000000	10.902250
1830.000000	10.923400
1831.000000	10.944050
1832.000000	10.963020
1833.000000	10.984310
1834.000000	11.009220
1835.000000	11.034800
1836.000000	11.062420
1837.000000	11.091710
1838.000000	11.119230
1839.000000	11.142390
1840.000000	11.165460
1841.000000	11.189170
1842.000000	11.213920
1843.000000	11.236660
1844.000000	11.255050
1845.000000	11.268940
1846.000000	11.278680
1847.000000	11.289470
1848.000000	11.306400
1849.000000	11.327550
1850.000000	11.344070
1851.000000	11.354030
1852.000000	11.360460
1853.000000	11.368760
1854.000000	11.381590
1855.000000	11.397020
1856.000000	11.410150
1857.000000	11.417010
1858.000000	11.416190
1859.000000	11.411950
1860.000000	11.407240
1861.000000	11.401750
1862.000000	11.394790
1863.000000	11.382250
1864.000000	11.360570
1865.000000	11.333670
1866.000000	11.304620
1867.000000	11.268860
1868.000000	11.228410
1869.000000	11.180970
1870.000000	11.128920
1871.000000	11.074720
1872.000000	11.015710
1873.000000	10.948950
1874.000000	10.877230
1875.000000	10.797780
1876.000000	10.708610
1877.000000	10.611670
1878.000000	10.502720
1879.000000	10.383970
1880.000000	10.254220
1881.000000	10.112880
1882.000000	9.960580
1883.000000	9.804310
1884.000000	9.646020
1885.000000	9.484930
1886.000000	9.321880
1887.000000	9.160740
1888.000000	9.005120
1889.000000	8.851660
1890.000000	8.706560
1891.000000	8.568330
1892.000000	8.439540
1893.000000	8.316510
1894.000000	8.195990
1895.000000	8.079640
1896.000000	7.968210
1897.000000	7.860010
1898.000000	7.753000
1899.000000	7.651100
1900.000000	7.549640
1901.000000	7.449530
1902.000000	7.347830
1903.000000	7.247830
1904.000000	7.150480
1905.000000	7.056910
1906.000000	6.966160
1907.000000	6.873230
1908.000000	6.782510
1909.000000	6.692900
1910.000000	6.605680
1911.000000	6.519870
1912.000000	6.439680
1913.000000	6.358990
1914.000000	6.281590
1915.000000	6.206730
1916.000000	6.132130
1917.000000	6.062400
1918.000000	5.994810
1919.000000	5.930060
1920.000000	5.868210
1921.000000	5.809010
1922.000000	5.748670
1923.000000	5.692650
1924.000000	5.638030
1925.000000	5.584300
1926.000000	5.534120
1927.000000	5.490100
1928.000000	5.448110
1929.000000	5.410200
1930.000000	5.374070
1931.000000	5.341050
1932.000000	5.311820
1933.000000	5.285030
1934.000000	5.260930
1935.000000	5.239810
1936.000000	5.222290
1937.000000	5.206340
1938.000000	5.195060
1939.000000	5.183720
1940.000000	5.176920
1941.000000	5.170210
1942.000000	5.168770
1943.000000	5.170360
1944.000000	5.174010
1945.000000	5.181950
1946.000000	5.190390
1947.000000	5.201150
1948.000000	5.212770
1949.000000	5.227390
1950.000000	5.242050
1951.000000	5.261140
1952.000000	5.278810
1953.000000	5.299240
1954.000000	5.322270
1955.000000	5.342840
1956.000000	5.367830
1957.000000	5.390910
1958.000000	5.413970
1959.000000	5.439540
1960.000000	5.464410
1961.000000	5.489160
1962.000000	5.516360
1963.000000	5.542040
1964.000000	5.566520
1965.000000	5.596350
1966.000000	5.622630
1967.000000	5.650590
1968.000000	5.678270
1969.000000	5.705690
1970.000000	5.733850
1971.000000	5.762730
1972.000000	5.790600
1973.000000	5.814800
1974.000000	5.842710
1975.000000	5.868160
1976.000000	5.895620
1977.000000	5.924030
1978.000000	5.954320
1979.000000	5.982690
1980.000000	6.012720
1981.000000	6.041690
1982.000000	6.068950
1983.000000	6.101750
1984.000000	6.132300
1985.000000	6.163470
1986.000000	6.192840
1987.000000	6.222660
1988.000000	6.250180
1989.000000	6.277620
1990.000000	6.304610
1991.000000	6.331390
1992.000000	6.360070
1993.000000	6.388040
1994.000000	6.414720
1995.000000	6.438700
1996.000000	6.462030
1997.000000	6.486130
1998.000000	6.510600
1999.000000	6.532250
2000.000000	6.554050
2001.000000	6.575530
2002.000000	6.595440
2003.000000	6.613570
2004.000000	6.629570
2005.000000	6.644410
2006.000000	6.660810
2007.000000	6.674470
2008.000000	6.684670
2009.000000	6.696600
2010.000000	6.704770
2011.000000	6.710940
2012.000000	6.715080
2013.000000	6.719270
2014.000000	6.722340
2015.000000	6.726090
2016.000000	6.725720
2017.000000	6.723980
2018.000000	6.722060
2019.000000	6.718380
2020.000000	6.713020
2021.000000	6.707670
2022.000000	6.701890
2023.000000	6.692130
2024.000000	6.681860
2025.000000	6.669050
2026.000000	6.655000
2027.000000	6.639310
2028.000000	6.624260
2029.000000	6.606490
2030.000000	6.586980
2031.000000	6.567030
2032.000000	6.545810
2033.000000	6.524590
2034.000000	6.501020
2035.000000	6.475580
2036.000000	6.448990
2037.000000	6.420770
2038.000000	6.390890
2039.000000	6.361520
2040.000000	6.330000
2041.000000	6.295870
2042.000000	6.262560
2043.000000	6.225650
2044.000000	6.188310
2045.000000	6.148810
2046.000000	6.110450
2047.000000	6.071860
2048.000000	6.033690
2049.000000	5.994530
2050.000000	5.958280
2051.000000	5.921170
2052.000000	5.883220
2053.000000	5.851330
2054.000000	5.823080
2055.000000	5.797080
2056.000000	5.773060
2057.000000	5.751400
2058.000000	5.732200
2059.000000	5.717880
2060.000000	5.706960
2061.000000	5.700480
2062.000000	5.696560
2063.000000	5.694080
2064.000000	5.692400
2065.000000	5.694100
2066.000000	5.698530
2067.000000	5.705210
2068.000000	5.714390
2069.000000	5.724230
2070.000000	5.733250
2071.000000	5.741910
2072.000000	5.752390
2073.000000	5.761970
2074.000000	5.773110
2075.000000	5.784490
2076.000000	5.794660
2077.000000	5.805370
2078.000000	5.814630
2079.000000	5.821580
2080.000000	5.829870
2081.000000	5.839000
2082.000000	5.846780
2083.000000	5.854270
2084.000000	5.861310
2085.000000	5.869660
2086.000000	5.877040
2087.000000	5.881260
2088.000000	5.884960
2089.000000	5.889340
2090.000000	5.892330
2091.000000	5.895780
2092.000000	5.899550
2093.000000	5.903820
2094.000000	5.906390
2095.000000	5.905400
2096.000000	5.905220
2097.000000	5.907900
2098.000000	5.911210
2099.000000	5.914670
2100.000000	5.919710
2101.000000	5.923360
2102.000000	5.925060
2103.000000	5.927380
2104.000000	5.931180
2105.000000	5.935260
2106.000000	5.940900
2107.000000	5.947390
2108.000000	5.952250
2109.000000	5.956400
2110.000000	5.959960
2111.000000	5.965650
2112.000000	5.973190
2113.000000	5.980480
2114.000000	5.986840
2115.000000	5.994400
2116.000000	6.000640
2117.000000	6.004910
2118.000000	6.011620
2119.000000	6.018950
2120.000000	6.025100
2121.000000	6.030600
2122.000000	6.034320
2123.000000	6.035280
2124.000000	6.036580
2125.000000	6.038850
2126.000000	6.040970
2127.000000	6.042020
2128.000000	6.041880
2129.000000	6.041060
2130.000000	6.037450
2131.000000	6.033760
2132.000000	6.029510
2133.000000	6.025660
2134.000000	6.021200
2135.000000	6.014740
2136.000000	6.007030
2137.000000	5.999090
2138.000000	5.990930
2139.000000	5.980420
2140.000000	5.970560
2141.000000	5.957560
2142.000000	5.944180
2143.000000	5.930420
2144.000000	5.917560
2145.000000	5.904360
2146.000000	5.887300
2147.000000	5.869360
2148.000000	5.850590
2149.000000	5.832740
2150.000000	5.814950
2151.000000	5.796990
2152.000000	5.779210
2153.000000	5.761450
2154.000000	5.742140
2155.000000	5.723220
2156.000000	5.705810
2157.000000	5.688510
2158.000000	5.673090
2159.000000	5.657770
2160.000000	5.642910
2161.000000	5.627540
2162.000000	5.615060
2163.000000	5.602860
2164.000000	5.590060
2165.000000	5.576940
2166.000000	5.567220
2167.000000	5.555800
2168.000000	5.541600
2169.000000	5.528070
2170.000000	5.514720
2171.000000	5.503920
2172.000000	5.492110
2173.000000	5.481170
2174.000000	5.469900
2175.000000	5.458960
2176.000000	5.447250
2177.000000	5.438520
2178.000000	5.429250
2179.000000	5.420690
2180.000000	5.412090
2181.000000	5.400940
2182.000000	5.389020
2183.000000	5.374260
2184.000000	5.360990
2185.000000	5.347070
2186.000000	5.329850
2187.000000	5.310190
2188.000000	5.289890
2189.000000	5.264490
2190.000000	5.238130
2191.000000	5.207690
2192.000000	5.172950
2193.000000	5.135750
2194.000000	5.092040
2195.000000	5.044500
2196.000000	4.995060
2197.000000	4.942600
2198.000000	4.884420
2199.000000	4.825520
2200.000000	4.761030
2201.000000	4.699400
2202.000000	4.635860
2203.000000	4.572610
2204.000000	4.509500
2205.000000	4.449050
2206.000000	4.394340
2207.000000	4.340850
2208.000000	4.291770
2209.000000	4.248160
2210.000000	4.211970
2211.000000	4.177990
2212.000000	4.152680
2213.000000	4.134240
2214.000000	4.124650
2215.000000	4.119100
2216.000000	4.114600
2217.000000	4.117380
2218.000000	4.128940
2219.000000	4.143590
2220.000000	4.161870
2221.000000	4.183750
2222.000000	4.206760
2223.000000	4.231300
2224.000000	4.255420
2225.000000	4.277210
2226.000000	4.302750
2227.000000	4.327490
2228.000000	4.348130
2229.000000	4.369290
2230.000000	4.385440
2231.000000	4.402310
2232.000000	4.414480
2233.000000	4.424190
2234.000000	4.431850
2235.000000	4.438490
2236.000000	4.440080
2237.000000	4.438240
2238.000000	4.432400
2239.000000	4.423120
2240.000000	4.413360
2241.000000	4.399450
2242.000000	4.383720
2243.000000	4.364100
2244.000000	4.341670
2245.000000	4.317200
2246.000000	4.290840
2247.000000	4.261120
2248.000000	4.231660
2249.000000	4.195950
2250.000000	4.157690
2251.000000	4.117450
2252.000000	4.074930
2253.000000	4.030840
2254.000000	3.985650
2255.000000	3.936910
2256.000000	3.885960
2257.000000	3.835940
2258.000000	3.779670
2259.000000	3.725040
2260.000000	3.670100
2261.000000	3.614890
2262.000000	3.562690
2263.000000	3.510270
2264.000000	3.459410
2265.000000	3.413180
2266.000000	3.369030
2267.000000	3.327510
2268.000000	3.294200
2269.000000	3.265300
2270.000000	3.240510
2271.000000	3.221520
2272.000000	3.206050
2273.000000	3.197590
2274.000000	3.192280
2275.000000	3.191050
2276.000000	3.196130
2277.000000	3.205500
2278.000000	3.216980
2279.000000	3.232980
2280.000000	3.251830
2281.000000	3.271250
2282.000000	3.291820
2283.000000	3.314120
2284.000000	3.336630
2285.000000	3.360770
2286.000000	3.381720
2287.000000	3.402450
2288.000000	3.421950
2289.000000	3.437590
2290.000000	3.451820
2291.000000	3.462960
2292.000000	3.470560
2293.000000	3.472570
2294.000000	3.472990
2295.000000	3.469170
2296.000000	3.462380
2297.000000	3.450820
2298.000000	3.435230
2299.000000	3.418310
2300.000000	3.399710
2301.000000	3.379420
2302.000000	3.358980
2303.000000	3.339320
2304.000000	3.319580
2305.000000	3.302620
2306.000000	3.287740
2307.000000	3.275150
2308.000000	3.270090
2309.000000	3.268580
2310.000000	3.271080
2311.000000	3.276370
2312.000000	3.285640
2313.000000	3.300250
2314.000000	3.320830
2315.000000	3.344170
2316.000000	3.371250
2317.000000	3.400810
2318.000000	3.431400
2319.000000	3.464640
2320.000000	3.498550
2321.000000	3.536550
2322.000000	3.575680
2323.000000	3.612760
2324.000000	3.648560
2325.000000	3.683590
2326.000000	3.715420
2327.000000	3.746960
2328.000000	3.776310
2329.000000	3.801710
2330.000000	3.826450
2331.000000	3.847030
2332.000000	3.865140
2333.000000	3.882690
2334.000000	3.896680
2335.000000	3.905730
2336.000000	3.914950
2337.000000	3.923950
2338.000000	3.930080
2339.000000	3.932740
2340.000000	3.930980
2341.000000	3.927340
2342.000000	3.923030
2343.000000	3.915720
2344.000000	3.906850
2345.000000	3.899480
2346.000000	3.889240
2347.000000	3.873480
2348.000000	3.858140
2349.000000	3.845220
2350.000000	3.833780
2351.000000	3.821860
2352.000000	3.809680
2353.000000	3.800880
2354.000000	3.794040
2355.000000	3.788900
2356.000000	3.786950
2357.000000	3.790800
2358.000000	3.797320
2359.000000	3.804850
2360.000000	3.814970
2361.000000	3.827970
2362.000000	3.842240
2363.000000	3.855670
2364.000000	3.870530
2365.000000	3.885860
2366.000000	3.901460
2367.000000	3.915810
2368.000000	3.930230
2369.000000	3.943300
2370.000000	3.953490
2371.000000	3.963950
2372.000000	3.974110
2373.000000	3.983990
2374.000000	3.993290
2375.000000	4.000510
2376.000000	4.004960
2377.000000	4.009200
2378.000000	4.009540
2379.000000	4.009200
2380.000000	4.011180
2381.000000	4.012810
2382.000000	4.013390
2383.000000	4.012980
2384.000000	4.009540
2385.000000	4.006020
2386.000000	4.004980
2387.000000	4.001800
2388.000000	3.997000
2389.000000	3.991960
2390.000000	3.984930
2391.000000	3.975000
2392.000000	3.962850
2393.000000	3.952610
2394.000000	3.944100
2395.000000	3.933650
2396.000000	3.918700
2397.000000	3.903260
2398.000000	3.890650
2399.000000	3.879230
2400.000000	3.864370
2401.000000	3.849210
2402.000000	3.836630
2403.000000	3.819680
2404.000000	3.801730
2405.000000	3.784610
2406.000000	3.770000
2407.000000	3.754350
2408.000000	3.737000
2409.000000	3.720020
2410.000000	3.705150
2411.000000	3.690220
2412.000000	3.674040
2413.000000	3.659040
2414.000000	3.641530
2415.000000	3.623240
2416.000000	3.605470
2417.000000	3.588290
2418.000000	3.569700
2419.000000	3.549230
2420.000000	3.530180
2421.000000	3.511610
2422.000000	3.490580
2423.000000	3.467260
2424.000000	3.443570
2425.000000	3.419300
2426.000000	3.394240
2427.000000	3.369650
2428.000000	3.344990
2429.000000	3.319730
2430.000000	3.293140
2431.000000	3.265270
2432.000000	3.239830
2433.000000	3.216330
2434.000000	3.196300
2435.000000	3.178020
2436.000000	3.157560
2437.000000	3.135120
2438.000000	3.113290
2439.000000	3.091830
2440.000000	3.070450
2441.000000	3.049500
2442.000000	3.027810
2443.000000	3.006960
2444.000000	2.982030
2445.000000	2.955840
2446.000000	2.933080
2447.000000	2.910030
2448.000000	2.885690
2449.000000	2.863130
2450.000000	2.839950
2451.000000	2.814070
2452.000000	2.787560
2453.000000	2.763320
2454.000000	2.743210
2455.000000	2.720250
2456.000000	2.696290
2457.000000	2.672590
2458.000000	2.654320
2459.000000	2.633440
2460.000000	2.614380
2461.000000	2.598510
2462.000000	2.582930
2463.000000	2.567340
2464.000000	2.546940
2465.000000	2.529680
2466.000000	2.514320
2467.000000	2.503380
2468.000000	2.491220
2469.000000	2.477340
2470.000000	2.466150
2471.000000	2.456840
2472.000000	2.447090
2473.000000	2.439230
2474.000000	2.438270
2475.000000	2.435500
2476.000000	2.430320
2477.000000	2.427230
2478.000000	2.422650
2479.000000	2.422030
2480.000000	2.421550
2481.000000	2.421060
2482.000000	2.419550
2483.000000	2.410670
2484.000000	2.407930
2485.000000	2.410960
2486.000000	2.411800
2487.000000	2.407800
2488.000000	2.405310
2489.000000	2.404010
2490.000000	2.404380
2491.000000	2.398510
2492.000000	2.407210
2493.000000	2.418760
2494.000000	2.425790
2495.000000	2.426840
2496.000000	2.427760
2497.000000	2.434930
2498.000000	2.447470
2499.000000	2.445870
2500.000000	2.443530
