PE UV       SUBTECH     SPECTRUM    ASCII       PEDS        4.00        
   -1
CICIMAUCR0018-1.Sample.ASC
24/03/08
12:50:34.00
24/03/08
12:50:34.00
Vinicio Soto Monge
c. cupreomarginata
250,000000
1
Lambda 1050
1050L1511233
PerkinElmer UV WinLab 6.3.2.0749 / 2.02.05 Lambda 900 UV/VIS/NIR, Aug  7 2015 09:38:08

0
0
3350/servo 860,8/2
0
0
UV/VIS
1
1
1
DoubleDePol,CommonBeamDepol,RBeamAtt,SBeamAtt,60mm sphere, WB InGaAs Detector
0
0
0
0
Program
Program
3350/servo 860,8/2
3350/0,2 860,8/0,2
3350/0,2 860,8/0,2
0
15.00
 
 
 
0
 
860,8
319,2
860,8
Front
100
on
S:100 R:100
0
0
0
0
 
0
 
 
 
0
 
 
0
0
0
0
0
 
 
 
 
0
0


0
0
#HDR
-1
-1
#GR
nm
%R
1.0
0.0
2500,000000
-1,000000
2251
8
27,295000
2,488900
#DATA

250.000000	nan
251.000000	nan
252.000000	nan
253.000000	nan
254.000000	nan
255.000000	nan
256.000000	nan
257.000000	nan
258.000000	nan
259.000000	2.789339
260.000000	2.784871
261.000000	2.780523
262.000000	2.774850
263.000000	2.773936
264.000000	2.769006
265.000000	2.763634
266.000000	2.754548
267.000000	2.745501
268.000000	2.732940
269.000000	2.729144
270.000000	2.713812
271.000000	2.700970
272.000000	2.689212
273.000000	2.676300
274.000000	2.669081
275.000000	2.660988
276.000000	2.657474
277.000000	2.653417
278.000000	2.647292
279.000000	2.642001
280.000000	2.637101
281.000000	2.630163
282.000000	2.625424
283.000000	2.626418
284.000000	2.625885
285.000000	2.617531
286.000000	2.615323
287.000000	2.609599
288.000000	2.608023
289.000000	2.606838
290.000000	2.605693
291.000000	2.605673
292.000000	2.604358
293.000000	2.602320
294.000000	2.594799
295.000000	2.596838
296.000000	2.590251
297.000000	2.593112
298.000000	2.588795
299.000000	2.581636
300.000000	2.573222
301.000000	2.571676
302.000000	2.569296
303.000000	2.561183
304.000000	2.559667
305.000000	2.558010
306.000000	2.558863
307.000000	2.558261
308.000000	2.558924
309.000000	2.564064
310.000000	2.573131
311.000000	2.575752
312.000000	2.575973
313.000000	2.577670
314.000000	2.580521
315.000000	2.583744
316.000000	2.583072
317.000000	2.625343
318.000000	2.667052
319.000000	2.741715
320.000000	2.795614
321.000000	2.843739
322.000000	2.872566
323.000000	2.913854
324.000000	2.937650
325.000000	2.966347
326.000000	3.012524
327.000000	3.019854
328.000000	3.027445
329.000000	2.987342
330.000000	2.961005
331.000000	2.940291
332.000000	2.931897
333.000000	2.921827
334.000000	2.931526
335.000000	2.929919
336.000000	2.916886
337.000000	2.885389
338.000000	2.852947
339.000000	2.830636
340.000000	2.814370
341.000000	2.800584
342.000000	2.797381
343.000000	2.776225
344.000000	2.758674
345.000000	2.739978
346.000000	2.706733
347.000000	2.690076
348.000000	2.681361
349.000000	2.669633
350.000000	2.669020
351.000000	2.664181
352.000000	2.663257
353.000000	2.667856
354.000000	2.664060
355.000000	2.668579
356.000000	2.683208
357.000000	2.702918
358.000000	2.716182
359.000000	2.728140
360.000000	2.737328
361.000000	2.746204
362.000000	2.756927
363.000000	2.764006
364.000000	2.769137
365.000000	2.773565
366.000000	2.772470
367.000000	2.764910
368.000000	2.767691
369.000000	2.774890
370.000000	2.773334
371.000000	2.771687
372.000000	2.767631
373.000000	2.770332
374.000000	2.760793
375.000000	2.755421
376.000000	2.768143
377.000000	2.745481
378.000000	2.721012
379.000000	2.697566
380.000000	2.678629
381.000000	2.664633
382.000000	2.648427
383.000000	2.635836
384.000000	2.641077
385.000000	2.645083
386.000000	2.641429
387.000000	2.672515
388.000000	2.704766
389.000000	2.740601
390.000000	2.780172
391.000000	2.823196
392.000000	2.868460
393.000000	2.918543
394.000000	2.972030
395.000000	3.029644
396.000000	3.091053
397.000000	3.156639
398.000000	3.226794
399.000000	3.301728
400.000000	3.380146
401.000000	3.460602
402.000000	3.545597
403.000000	3.632821
404.000000	3.722033
405.000000	3.813203
406.000000	3.906642
407.000000	4.002732
408.000000	4.099073
409.000000	4.194962
410.000000	4.291906
411.000000	4.388769
412.000000	4.485431
413.000000	4.582244
414.000000	4.679720
415.000000	4.775679
416.000000	4.869600
417.000000	4.959887
418.000000	5.048335
419.000000	5.135971
420.000000	5.221086
421.000000	5.304816
422.000000	5.386397
423.000000	5.465408
424.000000	5.541677
425.000000	5.617153
426.000000	5.690712
427.000000	5.762533
428.000000	5.832457
429.000000	5.900222
430.000000	5.965758
431.000000	6.028613
432.000000	6.088436
433.000000	6.145889
434.000000	6.200932
435.000000	6.252461
436.000000	6.301882
437.000000	6.350128
438.000000	6.396415
439.000000	6.439370
440.000000	6.478790
441.000000	6.514685
442.000000	6.547780
443.000000	6.576536
444.000000	6.600273
445.000000	6.618798
446.000000	6.631188
447.000000	6.638297
448.000000	6.639401
449.000000	6.635054
450.000000	6.625756
451.000000	6.611187
452.000000	6.591607
453.000000	6.569528
454.000000	6.545008
455.000000	6.519274
456.000000	6.494112
457.000000	6.468398
458.000000	6.444199
459.000000	6.423636
460.000000	6.407521
461.000000	6.397088
462.000000	6.392620
463.000000	6.392670
464.000000	6.399749
465.000000	6.414790
466.000000	6.437010
467.000000	6.468277
468.000000	6.507988
469.000000	6.554246
470.000000	6.607994
471.000000	6.669925
472.000000	6.740030
473.000000	6.818779
474.000000	6.904517
475.000000	6.996952
476.000000	7.095151
477.000000	7.197898
478.000000	7.304882
479.000000	7.415923
480.000000	7.529513
481.000000	7.644972
482.000000	7.761756
483.000000	7.880106
484.000000	7.999671
485.000000	8.118664
486.000000	8.237828
487.000000	8.359341
488.000000	8.482792
489.000000	8.608211
490.000000	8.734503
491.000000	8.862312
492.000000	8.990783
493.000000	9.119535
494.000000	9.249262
495.000000	9.380765
496.000000	9.513845
497.000000	9.647357
498.000000	9.781240
499.000000	9.914120
500.000000	10.048535
501.000000	10.184035
502.000000	10.320669
503.000000	10.458408
504.000000	10.597342
505.000000	10.737631
506.000000	10.878623
507.000000	11.019706
508.000000	11.160839
509.000000	11.303618
510.000000	11.447984
511.000000	11.594980
512.000000	11.744447
513.000000	11.896132
514.000000	12.050107
515.000000	12.203851
516.000000	12.359492
517.000000	12.518146
518.000000	12.679551
519.000000	12.844450
520.000000	13.014430
521.000000	13.188245
522.000000	13.368878
523.000000	13.558026
524.000000	13.756411
525.000000	13.966192
526.000000	14.189137
527.000000	14.424693
528.000000	14.675952
529.000000	14.943086
530.000000	15.226496
531.000000	15.526835
532.000000	15.844233
533.000000	16.178068
534.000000	16.526341
535.000000	16.890589
536.000000	17.268452
537.000000	17.658224
538.000000	18.057886
539.000000	18.466032
540.000000	18.880022
541.000000	19.299966
542.000000	19.721306
543.000000	20.142334
544.000000	20.562057
545.000000	20.978648
546.000000	21.388310
547.000000	21.788896
548.000000	22.179802
549.000000	22.561400
550.000000	22.930508
551.000000	23.286623
552.000000	23.628590
553.000000	23.957857
554.000000	24.273427
555.000000	24.570191
556.000000	24.851995
557.000000	25.120324
558.000000	25.372447
559.000000	25.603615
560.000000	25.747107
561.000000	25.858830
562.000000	25.948986
563.000000	26.016580
564.000000	26.060991
565.000000	26.087016
566.000000	26.094527
567.000000	26.083482
568.000000	26.057215
569.000000	26.022595
570.000000	26.044534
571.000000	26.069515
572.000000	26.093814
573.000000	26.114277
574.000000	26.137210
575.000000	26.160856
576.000000	26.185134
577.000000	26.213881
578.000000	26.241965
579.000000	26.265922
580.000000	26.291074
581.000000	26.313385
582.000000	26.330023
583.000000	26.339029
584.000000	26.339511
585.000000	26.333035
586.000000	26.316950
587.000000	26.288424
588.000000	26.255741
589.000000	26.218078
590.000000	26.174391
591.000000	26.126527
592.000000	26.073863
593.000000	26.025537
594.000000	25.976387
595.000000	25.931515
596.000000	25.894274
597.000000	25.861531
598.000000	25.835154
599.000000	25.814772
600.000000	25.799068
601.000000	25.791748
602.000000	25.787963
603.000000	25.781577
604.000000	25.778153
605.000000	25.768655
606.000000	25.746083
607.000000	25.716724
608.000000	25.671279
609.000000	25.609710
610.000000	25.531241
611.000000	25.430663
612.000000	25.310034
613.000000	25.169543
614.000000	25.006261
615.000000	24.824945
616.000000	24.631440
617.000000	24.421548
618.000000	24.201134
619.000000	23.967938
620.000000	23.728516
621.000000	23.476704
622.000000	23.217834
623.000000	22.955821
624.000000	22.688165
625.000000	22.412094
626.000000	22.128935
627.000000	21.840113
628.000000	21.544353
629.000000	21.241835
630.000000	20.930080
631.000000	20.613797
632.000000	20.293367
633.000000	19.971822
634.000000	19.652145
635.000000	19.340269
636.000000	19.038535
637.000000	18.750757
638.000000	18.482007
639.000000	18.240467
640.000000	18.027312
641.000000	17.853175
642.000000	17.712826
643.000000	17.608121
644.000000	17.536872
645.000000	17.500163
646.000000	17.494058
647.000000	17.517854
648.000000	17.566562
649.000000	17.635160
650.000000	17.721440
651.000000	17.818213
652.000000	17.928762
653.000000	18.044220
654.000000	18.167742
655.000000	18.292859
656.000000	18.420387
657.000000	18.547342
658.000000	18.671566
659.000000	18.792848
660.000000	18.913006
661.000000	19.027611
662.000000	19.136382
663.000000	19.241127
664.000000	19.340440
665.000000	19.433287
666.000000	19.519386
667.000000	19.600706
668.000000	19.676142
669.000000	19.746699
670.000000	19.807887
671.000000	19.861073
672.000000	19.906156
673.000000	19.944983
674.000000	19.977836
675.000000	20.004565
676.000000	20.024867
677.000000	20.039286
678.000000	20.050150
679.000000	20.055984
680.000000	20.058183
681.000000	20.061426
682.000000	20.063504
683.000000	20.063564
684.000000	20.060723
685.000000	20.060683
686.000000	20.060944
687.000000	20.063233
688.000000	20.065191
689.000000	20.067832
690.000000	20.073947
691.000000	20.079951
692.000000	20.087180
693.000000	20.095183
694.000000	20.106198
695.000000	20.115766
696.000000	20.124823
697.000000	20.129351
698.000000	20.133357
699.000000	20.138609
700.000000	20.142625
701.000000	20.145898
702.000000	20.150346
703.000000	20.156863
704.000000	20.161532
705.000000	20.169594
706.000000	20.182637
707.000000	20.202388
708.000000	20.226716
709.000000	20.255574
710.000000	20.287634
711.000000	20.327656
712.000000	20.375028
713.000000	20.423154
714.000000	20.476791
715.000000	20.533853
716.000000	20.595754
717.000000	20.659503
718.000000	20.724044
719.000000	20.787894
720.000000	20.855929
721.000000	20.924237
722.000000	20.990526
723.000000	21.058803
724.000000	21.124941
725.000000	21.190829
726.000000	21.255822
727.000000	21.320776
728.000000	21.386302
729.000000	21.452370
730.000000	21.515857
731.000000	21.578231
732.000000	21.638375
733.000000	21.694412
734.000000	21.749164
735.000000	21.801758
736.000000	21.850807
737.000000	21.893992
738.000000	21.932538
739.000000	21.967561
740.000000	22.001026
741.000000	22.029582
742.000000	22.051813
743.000000	22.072898
744.000000	22.090540
745.000000	22.102428
746.000000	22.111374
747.000000	22.115872
748.000000	22.118372
749.000000	22.122830
750.000000	22.124096
751.000000	22.122168
752.000000	22.120662
753.000000	22.117810
754.000000	22.118543
755.000000	22.123845
756.000000	22.127901
757.000000	22.138062
758.000000	22.146497
759.000000	22.150935
760.000000	22.156487
761.000000	22.163034
762.000000	22.173797
763.000000	22.185997
764.000000	22.200275
765.000000	22.214432
766.000000	22.230347
767.000000	22.245820
768.000000	22.268060
769.000000	22.292358
770.000000	22.318002
771.000000	22.345615
772.000000	22.376048
773.000000	22.410287
774.000000	22.441735
775.000000	22.480241
776.000000	22.522653
777.000000	22.562565
778.000000	22.602045
779.000000	22.647741
780.000000	22.694249
781.000000	22.743901
782.000000	22.791564
783.000000	22.841346
784.000000	22.894833
785.000000	22.947497
786.000000	22.998654
787.000000	23.052392
788.000000	23.105578
789.000000	23.156806
790.000000	23.211297
791.000000	23.264935
792.000000	23.317779
793.000000	23.367230
794.000000	23.415185
795.000000	23.459615
796.000000	23.503483
797.000000	23.553887
798.000000	23.601872
799.000000	23.646112
800.000000	23.690964
801.000000	23.738145
802.000000	23.780959
803.000000	23.817236
804.000000	23.854618
805.000000	23.890473
806.000000	23.923929
807.000000	23.952053
808.000000	23.989093
809.000000	24.030983
810.000000	24.064118
811.000000	24.086941
812.000000	24.115878
813.000000	24.156101
814.000000	24.197710
815.000000	24.229499
816.000000	24.267503
817.000000	24.306160
818.000000	24.336794
819.000000	24.361786
820.000000	24.388313
821.000000	24.424561
822.000000	24.456882
823.000000	24.495177
824.000000	24.531615
825.000000	24.568806
826.000000	24.607784
827.000000	24.648820
828.000000	24.698552
829.000000	24.740603
830.000000	24.786338
831.000000	24.819403
832.000000	24.857949
833.000000	24.895622
834.000000	24.914559
835.000000	24.944179
836.000000	24.972936
837.000000	24.995587
838.000000	25.024053
839.000000	25.051253
840.000000	25.080944
841.000000	25.118446
842.000000	25.150175
843.000000	25.165286
844.000000	25.186824
845.000000	25.197758
846.000000	25.209415
847.000000	25.212779
848.000000	25.217629
849.000000	25.215611
850.000000	25.189926
851.000000	25.155688
852.000000	25.132001
853.000000	25.116900
854.000000	25.088876
855.000000	25.092983
856.000000	25.059467
857.000000	25.025740
858.000000	25.020790
859.000000	25.032328
860.000000	25.067664
861.000000	25.118967
862.000000	25.165984
863.000000	25.219822
864.000000	25.304794
865.000000	25.373114
866.000000	25.477191
867.000000	25.596140
868.000000	25.673460
869.000000	25.756300
870.000000	25.839350
871.000000	25.923100
872.000000	26.007460
873.000000	26.091470
874.000000	26.173310
875.000000	26.250160
876.000000	26.330290
877.000000	26.407790
878.000000	26.490060
879.000000	26.571920
880.000000	26.648620
881.000000	26.720340
882.000000	26.792530
883.000000	26.861560
884.000000	26.924290
885.000000	26.984500
886.000000	27.037250
887.000000	27.084800
888.000000	27.123640
889.000000	27.155160
890.000000	27.184530
891.000000	27.214080
892.000000	27.235370
893.000000	27.247760
894.000000	27.254080
895.000000	27.253110
896.000000	27.249120
897.000000	27.245480
898.000000	27.235310
899.000000	27.222560
900.000000	27.206430
901.000000	27.182050
902.000000	27.157650
903.000000	27.130180
904.000000	27.105800
905.000000	27.079440
906.000000	27.051170
907.000000	27.022390
908.000000	26.998510
909.000000	26.978460
910.000000	26.955340
911.000000	26.936450
912.000000	26.916840
913.000000	26.902920
914.000000	26.887330
915.000000	26.876470
916.000000	26.868590
917.000000	26.860090
918.000000	26.850590
919.000000	26.840520
920.000000	26.835380
921.000000	26.829360
922.000000	26.824060
923.000000	26.813210
924.000000	26.804120
925.000000	26.794720
926.000000	26.783300
927.000000	26.770960
928.000000	26.759480
929.000000	26.746330
930.000000	26.735180
931.000000	26.719110
932.000000	26.701160
933.000000	26.687180
934.000000	26.668780
935.000000	26.649910
936.000000	26.629090
937.000000	26.609660
938.000000	26.589090
939.000000	26.562220
940.000000	26.532300
941.000000	26.504260
942.000000	26.475750
943.000000	26.442450
944.000000	26.411980
945.000000	26.380870
946.000000	26.349860
947.000000	26.316860
948.000000	26.283020
949.000000	26.253320
950.000000	26.223450
951.000000	26.195550
952.000000	26.166630
953.000000	26.140190
954.000000	26.111970
955.000000	26.082000
956.000000	26.053060
957.000000	26.026010
958.000000	25.996840
959.000000	25.967360
960.000000	25.939250
961.000000	25.910270
962.000000	25.881830
963.000000	25.854620
964.000000	25.827080
965.000000	25.801630
966.000000	25.778560
967.000000	25.755020
968.000000	25.732600
969.000000	25.713540
970.000000	25.693630
971.000000	25.673460
972.000000	25.654750
973.000000	25.636850
974.000000	25.623430
975.000000	25.608940
976.000000	25.594120
977.000000	25.577880
978.000000	25.563030
979.000000	25.547690
980.000000	25.533520
981.000000	25.519260
982.000000	25.505710
983.000000	25.491870
984.000000	25.475880
985.000000	25.458750
986.000000	25.439540
987.000000	25.421050
988.000000	25.404390
989.000000	25.385840
990.000000	25.364700
991.000000	25.344640
992.000000	25.322830
993.000000	25.297780
994.000000	25.272060
995.000000	25.247750
996.000000	25.223140
997.000000	25.198950
998.000000	25.170990
999.000000	25.141010
1000.000000	25.112220
1001.000000	25.081970
1002.000000	25.052460
1003.000000	25.022960
1004.000000	24.992700
1005.000000	24.964680
1006.000000	24.935030
1007.000000	24.904680
1008.000000	24.878310
1009.000000	24.852000
1010.000000	24.826120
1011.000000	24.801520
1012.000000	24.777370
1013.000000	24.755070
1014.000000	24.733980
1015.000000	24.714550
1016.000000	24.700870
1017.000000	24.689530
1018.000000	24.677700
1019.000000	24.672760
1020.000000	24.671450
1021.000000	24.671690
1022.000000	24.673730
1023.000000	24.677300
1024.000000	24.685290
1025.000000	24.695430
1026.000000	24.705960
1027.000000	24.717420
1028.000000	24.730210
1029.000000	24.742150
1030.000000	24.755170
1031.000000	24.769950
1032.000000	24.785080
1033.000000	24.801420
1034.000000	24.819190
1035.000000	24.835920
1036.000000	24.850340
1037.000000	24.865310
1038.000000	24.880670
1039.000000	24.896620
1040.000000	24.909930
1041.000000	24.921970
1042.000000	24.933210
1043.000000	24.943130
1044.000000	24.950100
1045.000000	24.955670
1046.000000	24.963180
1047.000000	24.970340
1048.000000	24.976560
1049.000000	24.980850
1050.000000	24.985510
1051.000000	24.990010
1052.000000	24.995510
1053.000000	25.002630
1054.000000	25.010720
1055.000000	25.018710
1056.000000	25.026780
1057.000000	25.035120
1058.000000	25.044620
1059.000000	25.055700
1060.000000	25.066320
1061.000000	25.077920
1062.000000	25.090610
1063.000000	25.103510
1064.000000	25.114010
1065.000000	25.123800
1066.000000	25.132010
1067.000000	25.140580
1068.000000	25.149350
1069.000000	25.157170
1070.000000	25.166120
1071.000000	25.176460
1072.000000	25.186470
1073.000000	25.196380
1074.000000	25.206970
1075.000000	25.219680
1076.000000	25.231210
1077.000000	25.243310
1078.000000	25.256030
1079.000000	25.266700
1080.000000	25.278160
1081.000000	25.289290
1082.000000	25.299720
1083.000000	25.310900
1084.000000	25.322990
1085.000000	25.333400
1086.000000	25.346670
1087.000000	25.359950
1088.000000	25.372060
1089.000000	25.386220
1090.000000	25.398410
1091.000000	25.408960
1092.000000	25.419960
1093.000000	25.430410
1094.000000	25.442480
1095.000000	25.456290
1096.000000	25.468100
1097.000000	25.478660
1098.000000	25.488790
1099.000000	25.498860
1100.000000	25.510610
1101.000000	25.522160
1102.000000	25.532800
1103.000000	25.542770
1104.000000	25.549320
1105.000000	25.554230
1106.000000	25.560330
1107.000000	25.566190
1108.000000	25.570330
1109.000000	25.572910
1110.000000	25.576050
1111.000000	25.578650
1112.000000	25.580840
1113.000000	25.583320
1114.000000	25.586420
1115.000000	25.589830
1116.000000	25.591000
1117.000000	25.593420
1118.000000	25.595580
1119.000000	25.598830
1120.000000	25.597850
1121.000000	25.595870
1122.000000	25.591390
1123.000000	25.583980
1124.000000	25.574240
1125.000000	25.560480
1126.000000	25.546230
1127.000000	25.526500
1128.000000	25.502610
1129.000000	25.472100
1130.000000	25.434360
1131.000000	25.388340
1132.000000	25.331350
1133.000000	25.264880
1134.000000	25.193860
1135.000000	25.110590
1136.000000	25.013800
1137.000000	24.904750
1138.000000	24.785170
1139.000000	24.656270
1140.000000	24.520910
1141.000000	24.380370
1142.000000	24.239340
1143.000000	24.093710
1144.000000	23.943570
1145.000000	23.799550
1146.000000	23.664040
1147.000000	23.538870
1148.000000	23.428140
1149.000000	23.331960
1150.000000	23.255000
1151.000000	23.190700
1152.000000	23.138680
1153.000000	23.106580
1154.000000	23.083110
1155.000000	23.062720
1156.000000	23.042700
1157.000000	23.017890
1158.000000	22.979630
1159.000000	22.928870
1160.000000	22.862230
1161.000000	22.780920
1162.000000	22.682790
1163.000000	22.564950
1164.000000	22.432150
1165.000000	22.289730
1166.000000	22.135640
1167.000000	21.975850
1168.000000	21.814220
1169.000000	21.652180
1170.000000	21.485440
1171.000000	21.317290
1172.000000	21.151160
1173.000000	20.985400
1174.000000	20.825220
1175.000000	20.667430
1176.000000	20.514160
1177.000000	20.364380
1178.000000	20.214810
1179.000000	20.061840
1180.000000	19.904130
1181.000000	19.743660
1182.000000	19.578320
1183.000000	19.407800
1184.000000	19.234010
1185.000000	19.062920
1186.000000	18.901410
1187.000000	18.751990
1188.000000	18.622710
1189.000000	18.522120
1190.000000	18.457070
1191.000000	18.430960
1192.000000	18.444560
1193.000000	18.497250
1194.000000	18.582790
1195.000000	18.691380
1196.000000	18.813120
1197.000000	18.944030
1198.000000	19.077050
1199.000000	19.202990
1200.000000	19.317990
1201.000000	19.414520
1202.000000	19.492530
1203.000000	19.553400
1204.000000	19.596750
1205.000000	19.629640
1206.000000	19.655690
1207.000000	19.674620
1208.000000	19.690290
1209.000000	19.704640
1210.000000	19.720910
1211.000000	19.741460
1212.000000	19.766340
1213.000000	19.795300
1214.000000	19.827660
1215.000000	19.865200
1216.000000	19.906910
1217.000000	19.953300
1218.000000	20.002600
1219.000000	20.056560
1220.000000	20.112500
1221.000000	20.170850
1222.000000	20.232850
1223.000000	20.297970
1224.000000	20.365820
1225.000000	20.432960
1226.000000	20.503130
1227.000000	20.574380
1228.000000	20.647300
1229.000000	20.720080
1230.000000	20.792140
1231.000000	20.866480
1232.000000	20.940150
1233.000000	21.012100
1234.000000	21.084170
1235.000000	21.157220
1236.000000	21.226310
1237.000000	21.293680
1238.000000	21.361370
1239.000000	21.427290
1240.000000	21.492090
1241.000000	21.554300
1242.000000	21.614350
1243.000000	21.672880
1244.000000	21.731470
1245.000000	21.788360
1246.000000	21.844110
1247.000000	21.898360
1248.000000	21.950020
1249.000000	21.999990
1250.000000	22.048370
1251.000000	22.094580
1252.000000	22.139300
1253.000000	22.182900
1254.000000	22.223460
1255.000000	22.261330
1256.000000	22.298260
1257.000000	22.334570
1258.000000	22.367840
1259.000000	22.400480
1260.000000	22.433600
1261.000000	22.465270
1262.000000	22.494150
1263.000000	22.521000
1264.000000	22.548940
1265.000000	22.577110
1266.000000	22.602870
1267.000000	22.627390
1268.000000	22.652450
1269.000000	22.675530
1270.000000	22.696070
1271.000000	22.716050
1272.000000	22.736400
1273.000000	22.756060
1274.000000	22.773430
1275.000000	22.790110
1276.000000	22.807150
1277.000000	22.822370
1278.000000	22.838120
1279.000000	22.854330
1280.000000	22.870820
1281.000000	22.887080
1282.000000	22.903910
1283.000000	22.921450
1284.000000	22.938810
1285.000000	22.956400
1286.000000	22.975120
1287.000000	22.996440
1288.000000	23.017630
1289.000000	23.039060
1290.000000	23.061840
1291.000000	23.082850
1292.000000	23.101840
1293.000000	23.119740
1294.000000	23.138090
1295.000000	23.155980
1296.000000	23.172860
1297.000000	23.187500
1298.000000	23.199730
1299.000000	23.210700
1300.000000	23.220390
1301.000000	23.230240
1302.000000	23.240020
1303.000000	23.249890
1304.000000	23.258600
1305.000000	23.264720
1306.000000	23.269350
1307.000000	23.272790
1308.000000	23.274660
1309.000000	23.273840
1310.000000	23.269980
1311.000000	23.264570
1312.000000	23.259290
1313.000000	23.250510
1314.000000	23.238290
1315.000000	23.225660
1316.000000	23.209750
1317.000000	23.189840
1318.000000	23.168950
1319.000000	23.148220
1320.000000	23.125420
1321.000000	23.098580
1322.000000	23.067620
1323.000000	23.034770
1324.000000	23.000920
1325.000000	22.962880
1326.000000	22.923920
1327.000000	22.885870
1328.000000	22.843730
1329.000000	22.797940
1330.000000	22.750530
1331.000000	22.701380
1332.000000	22.650000
1333.000000	22.595450
1334.000000	22.536240
1335.000000	22.474780
1336.000000	22.409060
1337.000000	22.339660
1338.000000	22.266800
1339.000000	22.188890
1340.000000	22.106870
1341.000000	22.021140
1342.000000	21.931370
1343.000000	21.837940
1344.000000	21.741850
1345.000000	21.638350
1346.000000	21.527950
1347.000000	21.412160
1348.000000	21.292860
1349.000000	21.167590
1350.000000	21.031890
1351.000000	20.884160
1352.000000	20.725060
1353.000000	20.551300
1354.000000	20.368760
1355.000000	20.180480
1356.000000	19.990220
1357.000000	19.800120
1358.000000	19.616480
1359.000000	19.446520
1360.000000	19.293150
1361.000000	19.160040
1362.000000	19.046820
1363.000000	18.952510
1364.000000	18.869290
1365.000000	18.800900
1366.000000	18.738090
1367.000000	18.675460
1368.000000	18.609780
1369.000000	18.532070
1370.000000	18.437970
1371.000000	18.326500
1372.000000	18.194410
1373.000000	18.046050
1374.000000	17.880340
1375.000000	17.695180
1376.000000	17.500710
1377.000000	17.299010
1378.000000	17.091890
1379.000000	16.886370
1380.000000	16.684890
1381.000000	16.492880
1382.000000	16.314740
1383.000000	16.146800
1384.000000	15.995650
1385.000000	15.858830
1386.000000	15.731930
1387.000000	15.618030
1388.000000	15.517090
1389.000000	15.424990
1390.000000	15.349270
1391.000000	15.282340
1392.000000	15.227130
1393.000000	15.186530
1394.000000	15.159340
1395.000000	15.145260
1396.000000	15.146570
1397.000000	15.150090
1398.000000	15.152270
1399.000000	15.155160
1400.000000	15.155350
1401.000000	15.152610
1402.000000	15.134910
1403.000000	15.103720
1404.000000	15.059990
1405.000000	15.005550
1406.000000	14.935260
1407.000000	14.857830
1408.000000	14.776980
1409.000000	14.690760
1410.000000	14.597490
1411.000000	14.502660
1412.000000	14.408320
1413.000000	14.321620
1414.000000	14.239090
1415.000000	14.159440
1416.000000	14.086980
1417.000000	14.015890
1418.000000	13.948220
1419.000000	13.883210
1420.000000	13.818350
1421.000000	13.752600
1422.000000	13.688520
1423.000000	13.623920
1424.000000	13.558240
1425.000000	13.490070
1426.000000	13.417460
1427.000000	13.349520
1428.000000	13.278810
1429.000000	13.205900
1430.000000	13.136840
1431.000000	13.069300
1432.000000	13.007360
1433.000000	12.946080
1434.000000	12.886580
1435.000000	12.828530
1436.000000	12.773900
1437.000000	12.723220
1438.000000	12.672980
1439.000000	12.629210
1440.000000	12.586580
1441.000000	12.545290
1442.000000	12.501240
1443.000000	12.456630
1444.000000	12.412400
1445.000000	12.371610
1446.000000	12.333320
1447.000000	12.290010
1448.000000	12.248580
1449.000000	12.205270
1450.000000	12.161800
1451.000000	12.120350
1452.000000	12.082250
1453.000000	12.044670
1454.000000	12.006710
1455.000000	11.970150
1456.000000	11.931650
1457.000000	11.896310
1458.000000	11.861530
1459.000000	11.828080
1460.000000	11.798800
1461.000000	11.767710
1462.000000	11.736210
1463.000000	11.708250
1464.000000	11.680750
1465.000000	11.654400
1466.000000	11.630710
1467.000000	11.609370
1468.000000	11.591070
1469.000000	11.573130
1470.000000	11.556010
1471.000000	11.541740
1472.000000	11.528970
1473.000000	11.515490
1474.000000	11.502660
1475.000000	11.490400
1476.000000	11.477540
1477.000000	11.464290
1478.000000	11.452430
1479.000000	11.441860
1480.000000	11.429840
1481.000000	11.419590
1482.000000	11.409650
1483.000000	11.399280
1484.000000	11.388170
1485.000000	11.378200
1486.000000	11.372530
1487.000000	11.366640
1488.000000	11.361100
1489.000000	11.354440
1490.000000	11.345840
1491.000000	11.337580
1492.000000	11.330130
1493.000000	11.325060
1494.000000	11.322020
1495.000000	11.318060
1496.000000	11.313110
1497.000000	11.309470
1498.000000	11.304180
1499.000000	11.302210
1500.000000	11.303710
1501.000000	11.304100
1502.000000	11.306810
1503.000000	11.308560
1504.000000	11.313380
1505.000000	11.317340
1506.000000	11.321420
1507.000000	11.327970
1508.000000	11.336390
1509.000000	11.344440
1510.000000	11.350990
1511.000000	11.359020
1512.000000	11.367910
1513.000000	11.377500
1514.000000	11.386460
1515.000000	11.397480
1516.000000	11.408170
1517.000000	11.417300
1518.000000	11.425890
1519.000000	11.434670
1520.000000	11.444960
1521.000000	11.454380
1522.000000	11.463310
1523.000000	11.472090
1524.000000	11.479590
1525.000000	11.485540
1526.000000	11.490580
1527.000000	11.497780
1528.000000	11.504800
1529.000000	11.510310
1530.000000	11.515430
1531.000000	11.518920
1532.000000	11.521010
1533.000000	11.524580
1534.000000	11.527760
1535.000000	11.529200
1536.000000	11.530290
1537.000000	11.529220
1538.000000	11.527410
1539.000000	11.525410
1540.000000	11.521320
1541.000000	11.517770
1542.000000	11.514390
1543.000000	11.507840
1544.000000	11.501590
1545.000000	11.498500
1546.000000	11.495050
1547.000000	11.488370
1548.000000	11.483170
1549.000000	11.477340
1550.000000	11.470870
1551.000000	11.465030
1552.000000	11.459660
1553.000000	11.455810
1554.000000	11.451130
1555.000000	11.444600
1556.000000	11.438860
1557.000000	11.434920
1558.000000	11.428450
1559.000000	11.423290
1560.000000	11.419870
1561.000000	11.414560
1562.000000	11.407190
1563.000000	11.398280
1564.000000	11.387890
1565.000000	11.376430
1566.000000	11.364900
1567.000000	11.352680
1568.000000	11.340790
1569.000000	11.327870
1570.000000	11.313200
1571.000000	11.298080
1572.000000	11.283080
1573.000000	11.269910
1574.000000	11.259420
1575.000000	11.249240
1576.000000	11.238450
1577.000000	11.228540
1578.000000	11.221330
1579.000000	11.215540
1580.000000	11.211750
1581.000000	11.210780
1582.000000	11.211480
1583.000000	11.211470
1584.000000	11.211480
1585.000000	11.215180
1586.000000	11.220570
1587.000000	11.227400
1588.000000	11.233260
1589.000000	11.239050
1590.000000	11.246290
1591.000000	11.254050
1592.000000	11.263720
1593.000000	11.275370
1594.000000	11.289070
1595.000000	11.302360
1596.000000	11.317870
1597.000000	11.333990
1598.000000	11.350290
1599.000000	11.369280
1600.000000	11.389840
1601.000000	11.411490
1602.000000	11.433470
1603.000000	11.456580
1604.000000	11.479670
1605.000000	11.504880
1606.000000	11.530100
1607.000000	11.555580
1608.000000	11.583530
1609.000000	11.610200
1610.000000	11.635920
1611.000000	11.663250
1612.000000	11.690180
1613.000000	11.716130
1614.000000	11.741850
1615.000000	11.765910
1616.000000	11.791380
1617.000000	11.817900
1618.000000	11.843490
1619.000000	11.870380
1620.000000	11.900370
1621.000000	11.927540
1622.000000	11.955460
1623.000000	11.984870
1624.000000	12.015510
1625.000000	12.047820
1626.000000	12.079790
1627.000000	12.111480
1628.000000	12.143510
1629.000000	12.177270
1630.000000	12.209580
1631.000000	12.242720
1632.000000	12.274410
1633.000000	12.307980
1634.000000	12.341820
1635.000000	12.374930
1636.000000	12.406350
1637.000000	12.438660
1638.000000	12.471050
1639.000000	12.501280
1640.000000	12.530890
1641.000000	12.561400
1642.000000	12.590600
1643.000000	12.617260
1644.000000	12.642530
1645.000000	12.666970
1646.000000	12.693510
1647.000000	12.717950
1648.000000	12.740980
1649.000000	12.763460
1650.000000	12.784600
1651.000000	12.803020
1652.000000	12.824530
1653.000000	12.843390
1654.000000	12.861070
1655.000000	12.879700
1656.000000	12.892010
1657.000000	12.902970
1658.000000	12.913170
1659.000000	12.920040
1660.000000	12.925060
1661.000000	12.929270
1662.000000	12.927590
1663.000000	12.922420
1664.000000	12.914130
1665.000000	12.901390
1666.000000	12.886600
1667.000000	12.868530
1668.000000	12.841540
1669.000000	12.808950
1670.000000	12.769890
1671.000000	12.724220
1672.000000	12.672590
1673.000000	12.619930
1674.000000	12.556530
1675.000000	12.481300
1676.000000	12.393870
1677.000000	12.293610
1678.000000	12.182770
1679.000000	12.060660
1680.000000	11.925480
1681.000000	11.779170
1682.000000	11.625660
1683.000000	11.465370
1684.000000	11.310230
1685.000000	11.162780
1686.000000	11.032260
1687.000000	10.915680
1688.000000	10.817730
1689.000000	10.735540
1690.000000	10.669830
1691.000000	10.617040
1692.000000	10.575020
1693.000000	10.539080
1694.000000	10.506190
1695.000000	10.475240
1696.000000	10.445690
1697.000000	10.418680
1698.000000	10.395800
1699.000000	10.380490
1700.000000	10.373870
1701.000000	10.377120
1702.000000	10.390690
1703.000000	10.414110
1704.000000	10.444370
1705.000000	10.478300
1706.000000	10.511840
1707.000000	10.547390
1708.000000	10.575100
1709.000000	10.601390
1710.000000	10.621330
1711.000000	10.633780
1712.000000	10.638870
1713.000000	10.638330
1714.000000	10.635140
1715.000000	10.625150
1716.000000	10.613790
1717.000000	10.596750
1718.000000	10.581840
1719.000000	10.561750
1720.000000	10.538110
1721.000000	10.519000
1722.000000	10.502210
1723.000000	10.484530
1724.000000	10.465480
1725.000000	10.450630
1726.000000	10.432780
1727.000000	10.416370
1728.000000	10.396560
1729.000000	10.374550
1730.000000	10.352690
1731.000000	10.322800
1732.000000	10.292290
1733.000000	10.261370
1734.000000	10.232190
1735.000000	10.205640
1736.000000	10.183580
1737.000000	10.168470
1738.000000	10.164700
1739.000000	10.172260
1740.000000	10.190820
1741.000000	10.224540
1742.000000	10.266040
1743.000000	10.317030
1744.000000	10.375560
1745.000000	10.440240
1746.000000	10.506440
1747.000000	10.570580
1748.000000	10.632830
1749.000000	10.691230
1750.000000	10.745100
1751.000000	10.790820
1752.000000	10.831900
1753.000000	10.866750
1754.000000	10.891830
1755.000000	10.910600
1756.000000	10.925000
1757.000000	10.934670
1758.000000	10.938880
1759.000000	10.936090
1760.000000	10.929190
1761.000000	10.918870
1762.000000	10.902780
1763.000000	10.886010
1764.000000	10.872130
1765.000000	10.858510
1766.000000	10.847930
1767.000000	10.842170
1768.000000	10.841420
1769.000000	10.849660
1770.000000	10.864540
1771.000000	10.886780
1772.000000	10.916640
1773.000000	10.949960
1774.000000	10.986100
1775.000000	11.028330
1776.000000	11.075620
1777.000000	11.122950
1778.000000	11.171540
1779.000000	11.216300
1780.000000	11.260140
1781.000000	11.302990
1782.000000	11.345620
1783.000000	11.386060
1784.000000	11.427430
1785.000000	11.463790
1786.000000	11.495940
1787.000000	11.528260
1788.000000	11.558460
1789.000000	11.587650
1790.000000	11.614890
1791.000000	11.641950
1792.000000	11.668000
1793.000000	11.693420
1794.000000	11.716220
1795.000000	11.739130
1796.000000	11.760140
1797.000000	11.780190
1798.000000	11.799110
1799.000000	11.819090
1800.000000	11.838330
1801.000000	11.856110
1802.000000	11.872690
1803.000000	11.891280
1804.000000	11.909910
1805.000000	11.927830
1806.000000	11.947620
1807.000000	11.968350
1808.000000	11.988470
1809.000000	12.006900
1810.000000	12.024780
1811.000000	12.041090
1812.000000	12.057680
1813.000000	12.073050
1814.000000	12.086190
1815.000000	12.098970
1816.000000	12.108900
1817.000000	12.115120
1818.000000	12.119720
1819.000000	12.122830
1820.000000	12.126700
1821.000000	12.134090
1822.000000	12.142390
1823.000000	12.150170
1824.000000	12.157640
1825.000000	12.164690
1826.000000	12.173550
1827.000000	12.186720
1828.000000	12.203660
1829.000000	12.225040
1830.000000	12.250140
1831.000000	12.276600
1832.000000	12.303120
1833.000000	12.329610
1834.000000	12.357600
1835.000000	12.387030
1836.000000	12.418230
1837.000000	12.450250
1838.000000	12.482570
1839.000000	12.512960
1840.000000	12.540750
1841.000000	12.568080
1842.000000	12.597360
1843.000000	12.626150
1844.000000	12.651850
1845.000000	12.674210
1846.000000	12.692740
1847.000000	12.712410
1848.000000	12.738080
1849.000000	12.770230
1850.000000	12.802860
1851.000000	12.829410
1852.000000	12.850900
1853.000000	12.874090
1854.000000	12.902850
1855.000000	12.937030
1856.000000	12.972650
1857.000000	13.004220
1858.000000	13.027060
1859.000000	13.042750
1860.000000	13.058150
1861.000000	13.077930
1862.000000	13.098190
1863.000000	13.112570
1864.000000	13.121430
1865.000000	13.122450
1866.000000	13.118550
1867.000000	13.109820
1868.000000	13.096230
1869.000000	13.076750
1870.000000	13.051940
1871.000000	13.022360
1872.000000	12.986500
1873.000000	12.945820
1874.000000	12.898920
1875.000000	12.848400
1876.000000	12.790220
1877.000000	12.722500
1878.000000	12.647020
1879.000000	12.561080
1880.000000	12.461800
1881.000000	12.348080
1882.000000	12.223690
1883.000000	12.091470
1884.000000	11.954550
1885.000000	11.809360
1886.000000	11.663610
1887.000000	11.519340
1888.000000	11.372280
1889.000000	11.228230
1890.000000	11.090540
1891.000000	10.959420
1892.000000	10.835880
1893.000000	10.719860
1894.000000	10.605680
1895.000000	10.495560
1896.000000	10.386030
1897.000000	10.277690
1898.000000	10.173550
1899.000000	10.069120
1900.000000	9.964710
1901.000000	9.859730
1902.000000	9.752080
1903.000000	9.642920
1904.000000	9.536030
1905.000000	9.431220
1906.000000	9.329360
1907.000000	9.226580
1908.000000	9.125060
1909.000000	9.026570
1910.000000	8.927580
1911.000000	8.828490
1912.000000	8.733720
1913.000000	8.640890
1914.000000	8.550040
1915.000000	8.462020
1916.000000	8.374270
1917.000000	8.290940
1918.000000	8.205780
1919.000000	8.122020
1920.000000	8.042280
1921.000000	7.968520
1922.000000	7.895840
1923.000000	7.827160
1924.000000	7.760000
1925.000000	7.692270
1926.000000	7.628390
1927.000000	7.567200
1928.000000	7.515550
1929.000000	7.468010
1930.000000	7.422730
1931.000000	7.378730
1932.000000	7.339350
1933.000000	7.300040
1934.000000	7.266010
1935.000000	7.236310
1936.000000	7.211330
1937.000000	7.188460
1938.000000	7.167400
1939.000000	7.150020
1940.000000	7.137190
1941.000000	7.128740
1942.000000	7.121920
1943.000000	7.118150
1944.000000	7.116550
1945.000000	7.119010
1946.000000	7.125380
1947.000000	7.133780
1948.000000	7.141430
1949.000000	7.152110
1950.000000	7.163580
1951.000000	7.174860
1952.000000	7.190250
1953.000000	7.209660
1954.000000	7.230040
1955.000000	7.249550
1956.000000	7.269050
1957.000000	7.288510
1958.000000	7.312630
1959.000000	7.336000
1960.000000	7.359110
1961.000000	7.383810
1962.000000	7.405420
1963.000000	7.426830
1964.000000	7.446750
1965.000000	7.471290
1966.000000	7.492830
1967.000000	7.515470
1968.000000	7.537820
1969.000000	7.559430
1970.000000	7.582070
1971.000000	7.604860
1972.000000	7.629890
1973.000000	7.654510
1974.000000	7.681440
1975.000000	7.705280
1976.000000	7.729530
1977.000000	7.756350
1978.000000	7.780830
1979.000000	7.807150
1980.000000	7.831410
1981.000000	7.855580
1982.000000	7.879600
1983.000000	7.903030
1984.000000	7.926780
1985.000000	7.952670
1986.000000	7.980110
1987.000000	8.003500
1988.000000	8.027900
1989.000000	8.051160
1990.000000	8.077410
1991.000000	8.100950
1992.000000	8.123800
1993.000000	8.145550
1994.000000	8.164110
1995.000000	8.181690
1996.000000	8.198430
1997.000000	8.215260
1998.000000	8.229100
1999.000000	8.243020
2000.000000	8.253490
2001.000000	8.263820
2002.000000	8.270270
2003.000000	8.278570
2004.000000	8.286140
2005.000000	8.291620
2006.000000	8.293180
2007.000000	8.294110
2008.000000	8.294840
2009.000000	8.294450
2010.000000	8.293180
2011.000000	8.288510
2012.000000	8.283410
2013.000000	8.273230
2014.000000	8.261960
2015.000000	8.248170
2016.000000	8.233160
2017.000000	8.217110
2018.000000	8.199620
2019.000000	8.178600
2020.000000	8.157530
2021.000000	8.136650
2022.000000	8.114700
2023.000000	8.092790
2024.000000	8.067460
2025.000000	8.040270
2026.000000	8.013000
2027.000000	7.983750
2028.000000	7.955900
2029.000000	7.927210
2030.000000	7.896090
2031.000000	7.862390
2032.000000	7.828360
2033.000000	7.793990
2034.000000	7.759020
2035.000000	7.723970
2036.000000	7.686710
2037.000000	7.646960
2038.000000	7.603750
2039.000000	7.560700
2040.000000	7.513430
2041.000000	7.466000
2042.000000	7.417130
2043.000000	7.366500
2044.000000	7.316280
2045.000000	7.263560
2046.000000	7.210830
2047.000000	7.161990
2048.000000	7.111580
2049.000000	7.061080
2050.000000	7.012940
2051.000000	6.968820
2052.000000	6.926050
2053.000000	6.884940
2054.000000	6.846570
2055.000000	6.812680
2056.000000	6.783830
2057.000000	6.756390
2058.000000	6.733190
2059.000000	6.715330
2060.000000	6.703390
2061.000000	6.693290
2062.000000	6.687310
2063.000000	6.684220
2064.000000	6.683470
2065.000000	6.686540
2066.000000	6.693260
2067.000000	6.703020
2068.000000	6.714340
2069.000000	6.725670
2070.000000	6.736820
2071.000000	6.749090
2072.000000	6.763150
2073.000000	6.778770
2074.000000	6.793700
2075.000000	6.808380
2076.000000	6.821650
2077.000000	6.833780
2078.000000	6.846160
2079.000000	6.859190
2080.000000	6.872960
2081.000000	6.885670
2082.000000	6.897440
2083.000000	6.908470
2084.000000	6.920680
2085.000000	6.932230
2086.000000	6.941600
2087.000000	6.950320
2088.000000	6.959270
2089.000000	6.967250
2090.000000	6.975040
2091.000000	6.982840
2092.000000	6.988640
2093.000000	6.994220
2094.000000	6.998640
2095.000000	7.001910
2096.000000	7.006700
2097.000000	7.013070
2098.000000	7.019110
2099.000000	7.024270
2100.000000	7.030600
2101.000000	7.037380
2102.000000	7.043480
2103.000000	7.050550
2104.000000	7.059920
2105.000000	7.069390
2106.000000	7.078380
2107.000000	7.087540
2108.000000	7.098590
2109.000000	7.110130
2110.000000	7.118490
2111.000000	7.127360
2112.000000	7.139770
2113.000000	7.151490
2114.000000	7.162300
2115.000000	7.172220
2116.000000	7.180470
2117.000000	7.188700
2118.000000	7.194690
2119.000000	7.199840
2120.000000	7.206740
2121.000000	7.213560
2122.000000	7.218970
2123.000000	7.223410
2124.000000	7.225860
2125.000000	7.229940
2126.000000	7.234770
2127.000000	7.236070
2128.000000	7.237270
2129.000000	7.239210
2130.000000	7.239780
2131.000000	7.238820
2132.000000	7.236230
2133.000000	7.233080
2134.000000	7.229710
2135.000000	7.225160
2136.000000	7.219510
2137.000000	7.213080
2138.000000	7.204340
2139.000000	7.194330
2140.000000	7.183770
2141.000000	7.172270
2142.000000	7.159530
2143.000000	7.145430
2144.000000	7.131400
2145.000000	7.116820
2146.000000	7.098970
2147.000000	7.081430
2148.000000	7.064790
2149.000000	7.046600
2150.000000	7.026360
2151.000000	7.004730
2152.000000	6.984630
2153.000000	6.965000
2154.000000	6.944830
2155.000000	6.922790
2156.000000	6.903250
2157.000000	6.882650
2158.000000	6.863770
2159.000000	6.844310
2160.000000	6.824820
2161.000000	6.807950
2162.000000	6.789680
2163.000000	6.770260
2164.000000	6.749720
2165.000000	6.731110
2166.000000	6.714750
2167.000000	6.699820
2168.000000	6.683020
2169.000000	6.666310
2170.000000	6.651740
2171.000000	6.637840
2172.000000	6.625100
2173.000000	6.610580
2174.000000	6.598590
2175.000000	6.586370
2176.000000	6.573280
2177.000000	6.560250
2178.000000	6.547680
2179.000000	6.535750
2180.000000	6.522590
2181.000000	6.508040
2182.000000	6.492580
2183.000000	6.477110
2184.000000	6.460690
2185.000000	6.442040
2186.000000	6.420580
2187.000000	6.394950
2188.000000	6.366760
2189.000000	6.338010
2190.000000	6.305450
2191.000000	6.268600
2192.000000	6.226920
2193.000000	6.182220
2194.000000	6.130540
2195.000000	6.074860
2196.000000	6.016100
2197.000000	5.954420
2198.000000	5.888590
2199.000000	5.815370
2200.000000	5.741310
2201.000000	5.665050
2202.000000	5.587360
2203.000000	5.509270
2204.000000	5.434510
2205.000000	5.364240
2206.000000	5.293540
2207.000000	5.231110
2208.000000	5.172020
2209.000000	5.122420
2210.000000	5.076920
2211.000000	5.038870
2212.000000	5.011490
2213.000000	4.992570
2214.000000	4.977740
2215.000000	4.970050
2216.000000	4.971820
2217.000000	4.977350
2218.000000	4.990170
2219.000000	5.007890
2220.000000	5.029640
2221.000000	5.054200
2222.000000	5.079660
2223.000000	5.106330
2224.000000	5.137140
2225.000000	5.167860
2226.000000	5.197170
2227.000000	5.224780
2228.000000	5.252510
2229.000000	5.275530
2230.000000	5.299200
2231.000000	5.319210
2232.000000	5.335520
2233.000000	5.349690
2234.000000	5.357540
2235.000000	5.363030
2236.000000	5.365330
2237.000000	5.363790
2238.000000	5.357730
2239.000000	5.349510
2240.000000	5.339430
2241.000000	5.324420
2242.000000	5.308480
2243.000000	5.290710
2244.000000	5.273010
2245.000000	5.248200
2246.000000	5.221870
2247.000000	5.193210
2248.000000	5.162600
2249.000000	5.129100
2250.000000	5.090640
2251.000000	5.050430
2252.000000	5.003720
2253.000000	4.956250
2254.000000	4.905180
2255.000000	4.853150
2256.000000	4.797580
2257.000000	4.739530
2258.000000	4.678250
2259.000000	4.616040
2260.000000	4.554650
2261.000000	4.495340
2262.000000	4.437970
2263.000000	4.377540
2264.000000	4.319420
2265.000000	4.265180
2266.000000	4.216530
2267.000000	4.174000
2268.000000	4.136450
2269.000000	4.103050
2270.000000	4.074620
2271.000000	4.050170
2272.000000	4.033320
2273.000000	4.024130
2274.000000	4.020330
2275.000000	4.020840
2276.000000	4.024440
2277.000000	4.033000
2278.000000	4.045580
2279.000000	4.063020
2280.000000	4.080870
2281.000000	4.103030
2282.000000	4.123690
2283.000000	4.146390
2284.000000	4.169770
2285.000000	4.195250
2286.000000	4.218350
2287.000000	4.237860
2288.000000	4.257190
2289.000000	4.273940
2290.000000	4.289200
2291.000000	4.303530
2292.000000	4.316480
2293.000000	4.322580
2294.000000	4.325880
2295.000000	4.321250
2296.000000	4.313310
2297.000000	4.302090
2298.000000	4.285720
2299.000000	4.266400
2300.000000	4.243170
2301.000000	4.216970
2302.000000	4.189920
2303.000000	4.165250
2304.000000	4.139320
2305.000000	4.117190
2306.000000	4.099720
2307.000000	4.084840
2308.000000	4.076940
2309.000000	4.072270
2310.000000	4.074760
2311.000000	4.081690
2312.000000	4.094260
2313.000000	4.111090
2314.000000	4.133810
2315.000000	4.161330
2316.000000	4.192620
2317.000000	4.227490
2318.000000	4.261640
2319.000000	4.300890
2320.000000	4.341680
2321.000000	4.381670
2322.000000	4.422350
2323.000000	4.462440
2324.000000	4.501110
2325.000000	4.537140
2326.000000	4.570690
2327.000000	4.603750
2328.000000	4.635960
2329.000000	4.662070
2330.000000	4.685620
2331.000000	4.708340
2332.000000	4.727450
2333.000000	4.744100
2334.000000	4.759130
2335.000000	4.772660
2336.000000	4.783500
2337.000000	4.791040
2338.000000	4.796550
2339.000000	4.801570
2340.000000	4.802370
2341.000000	4.799280
2342.000000	4.793640
2343.000000	4.786710
2344.000000	4.776270
2345.000000	4.761860
2346.000000	4.746390
2347.000000	4.729260
2348.000000	4.711310
2349.000000	4.692970
2350.000000	4.674480
2351.000000	4.657780
2352.000000	4.645350
2353.000000	4.634150
2354.000000	4.626400
2355.000000	4.623910
2356.000000	4.623490
2357.000000	4.625780
2358.000000	4.629210
2359.000000	4.635650
2360.000000	4.647730
2361.000000	4.662020
2362.000000	4.674150
2363.000000	4.688460
2364.000000	4.703730
2365.000000	4.718460
2366.000000	4.733440
2367.000000	4.749090
2368.000000	4.765060
2369.000000	4.779150
2370.000000	4.790910
2371.000000	4.803190
2372.000000	4.815720
2373.000000	4.826390
2374.000000	4.835250
2375.000000	4.842590
2376.000000	4.849680
2377.000000	4.855220
2378.000000	4.858620
2379.000000	4.863520
2380.000000	4.867980
2381.000000	4.869490
2382.000000	4.868670
2383.000000	4.865290
2384.000000	4.861220
2385.000000	4.857800
2386.000000	4.854190
2387.000000	4.849710
2388.000000	4.845290
2389.000000	4.837140
2390.000000	4.826420
2391.000000	4.814950
2392.000000	4.803730
2393.000000	4.793900
2394.000000	4.784030
2395.000000	4.771870
2396.000000	4.755900
2397.000000	4.738480
2398.000000	4.721800
2399.000000	4.705690
2400.000000	4.689650
2401.000000	4.673340
2402.000000	4.655050
2403.000000	4.634850
2404.000000	4.614460
2405.000000	4.596870
2406.000000	4.580090
2407.000000	4.562990
2408.000000	4.545030
2409.000000	4.525670
2410.000000	4.505360
2411.000000	4.486080
2412.000000	4.467130
2413.000000	4.448280
2414.000000	4.427690
2415.000000	4.406190
2416.000000	4.384250
2417.000000	4.363260
2418.000000	4.343270
2419.000000	4.323890
2420.000000	4.304900
2421.000000	4.283190
2422.000000	4.259700
2423.000000	4.234300
2424.000000	4.207370
2425.000000	4.177680
2426.000000	4.147390
2427.000000	4.116240
2428.000000	4.085980
2429.000000	4.054730
2430.000000	4.022970
2431.000000	3.991320
2432.000000	3.960840
2433.000000	3.931970
2434.000000	3.904860
2435.000000	3.878790
2436.000000	3.851830
2437.000000	3.826790
2438.000000	3.798280
2439.000000	3.771130
2440.000000	3.745590
2441.000000	3.718820
2442.000000	3.691370
2443.000000	3.663800
2444.000000	3.636190
2445.000000	3.605700
2446.000000	3.576230
2447.000000	3.542910
2448.000000	3.509850
2449.000000	3.477380
2450.000000	3.443610
2451.000000	3.410990
2452.000000	3.380460
2453.000000	3.349290
2454.000000	3.319830
2455.000000	3.290810
2456.000000	3.263860
2457.000000	3.239520
2458.000000	3.216440
2459.000000	3.188850
2460.000000	3.160910
2461.000000	3.135810
2462.000000	3.116170
2463.000000	3.099570
2464.000000	3.079460
2465.000000	3.061730
2466.000000	3.045220
2467.000000	3.030230
2468.000000	3.018890
2469.000000	3.011000
2470.000000	3.005060
2471.000000	3.000750
2472.000000	2.989580
2473.000000	2.983140
2474.000000	2.975750
2475.000000	2.972100
2476.000000	2.971850
2477.000000	2.969220
2478.000000	2.965750
2479.000000	2.962730
2480.000000	2.960610
2481.000000	2.956360
2482.000000	2.956090
2483.000000	2.959030
2484.000000	2.959090
2485.000000	2.956540
2486.000000	2.951720
2487.000000	2.945890
2488.000000	2.943800
2489.000000	2.940060
2490.000000	2.936080
2491.000000	2.943340
2492.000000	2.952000
2493.000000	2.957150
2494.000000	2.966880
2495.000000	2.978010
2496.000000	2.999310
2497.000000	3.019490
2498.000000	3.024630
2499.000000	3.032820
2500.000000	3.049500
