PE UV       SUBTECH     SPECTRUM    ASCII       PEDS        4.00        
   -1
CICIMAUCR0100-1.ASC
24/04/03
15:40:25.00
24/04/03
15:40:25.00
Vinicio Soto Monge
C. cupreomarginata
250,000000
1
Lambda 1050
1050L1511233
PerkinElmer UV WinLab 6.3.2.0749 / 2.02.05 Lambda 900 UV/VIS/NIR, Aug  7 2015 09:38:08

0
0
3350/servo 860,8/2
0
0
UV/VIS
1
1
1
DoubleDePol,CommonBeamDepol,RBeamAtt,SBeamAtt,60mm sphere, WB InGaAs Detector
0
0
0
0
Program
Program
3350/servo 860,8/2
3350/0,2 860,8/0,2
3350/0,2 860,8/0,2
0
15.00
 
 
 
0
 
860,8
319,2
860,8
Front
100
on
S:100 R:100
0
0
0
0
 
0
 
 
 
0
 
 
0
0
0
0
0
 
 
 
 
0
0


0
0
#HDR
-1
-1
#GR
nm
%R
1.0
0.0
2500,000000
-1,000000
2251
8
57,680700
4,945700
#DATA
2482.000000	5.414213
2481.000000	5.457904
2480.000000	5.479750
2479.000000	5.451371
2478.000000	5.463111
2477.000000	5.424421
2476.000000	5.458313
2475.000000	5.499453
2474.000000	5.453617
2473.000000	5.494655
2472.000000	5.526505
2471.000000	5.493123
2470.000000	5.473932
2469.000000	5.499861
2468.000000	5.505169
2467.000000	5.491286
2466.000000	5.536203
2465.000000	5.559171
2464.000000	5.563765
2463.000000	5.567236
2462.000000	5.597147
2461.000000	5.637572
2460.000000	5.668299
2459.000000	5.691370
2458.000000	5.671872
2457.000000	5.709439
2456.000000	5.745883
2455.000000	5.767626
2454.000000	5.794372
2453.000000	5.831735
2452.000000	5.861135
2451.000000	5.905337
2450.000000	5.930450
2449.000000	5.963831
2448.000000	6.000275
2447.000000	6.056319
2446.000000	6.070917
2445.000000	6.127471
2444.000000	6.167386
2443.000000	6.202401
2442.000000	6.240478
2441.000000	6.265897
2440.000000	6.293664
2439.000000	6.353178
2438.000000	6.384926
2437.000000	6.436683
2436.000000	6.467512
2435.000000	6.492421
2434.000000	6.527537
2433.000000	6.566737
2432.000000	6.592360
2431.000000	6.635746
2430.000000	6.666882
2429.000000	6.690667
2428.000000	6.706286
2427.000000	6.744261
2426.000000	6.789280
2425.000000	6.795099
2424.000000	6.812555
2423.000000	6.844507
2422.000000	6.866047
2421.000000	6.886157
2420.000000	6.878705
2419.000000	6.883401
2418.000000	6.906574
2417.000000	6.910351
2416.000000	6.918722
2415.000000	6.933728
2414.000000	6.940976
2413.000000	6.951389
2412.000000	6.976706
2411.000000	6.985791
2410.000000	6.987833
2409.000000	7.010802
2408.000000	7.016620
2407.000000	7.027645
2406.000000	7.015599
2405.000000	7.041120
2404.000000	7.055106
2403.000000	7.066845
2402.000000	7.088589
2401.000000	7.098696
2400.000000	7.112987
2399.000000	7.111048
2398.000000	7.121052
2397.000000	7.142694
2396.000000	7.152800
2395.000000	7.170154
2394.000000	7.192204
2393.000000	7.209661
2392.000000	7.211906
2391.000000	7.206598
2390.000000	7.224973
2389.000000	7.240286
2388.000000	7.246921
2387.000000	7.264071
2386.000000	7.256619
2385.000000	7.254782
2384.000000	7.258150
2383.000000	7.244982
2382.000000	7.245594
2381.000000	7.243961
2380.000000	7.236100
2379.000000	7.235488
2378.000000	7.226402
2377.000000	7.204965
2376.000000	7.192204
2375.000000	7.180465
2374.000000	7.176483
2373.000000	7.178117
2372.000000	7.161783
2371.000000	7.134629
2370.000000	7.102881
2369.000000	7.078993
2368.000000	7.063681
2367.000000	7.041018
2366.000000	7.015906
2365.000000	6.994774
2364.000000	6.965681
2363.000000	6.929237
2362.000000	6.884116
2361.000000	6.845324
2360.000000	6.817455
2359.000000	6.786728
2358.000000	6.752836
2357.000000	6.724661
2356.000000	6.688421
2355.000000	6.676784
2354.000000	6.654529
2353.000000	6.620740
2352.000000	6.611348
2351.000000	6.624925
2350.000000	6.635746
2349.000000	6.626456
2348.000000	6.636767
2347.000000	6.657796
2346.000000	6.661777
2345.000000	6.673517
2344.000000	6.695057
2343.000000	6.718230
2342.000000	6.733134
2341.000000	6.753959
2340.000000	6.749161
2339.000000	6.741913
2338.000000	6.756817
2337.000000	6.757532
2336.000000	6.755592
2335.000000	6.746711
2334.000000	6.734053
2333.000000	6.717515
2332.000000	6.699753
2331.000000	6.676988
2330.000000	6.649936
2329.000000	6.617575
2328.000000	6.588379
2327.000000	6.545096
2326.000000	6.501608
2325.000000	6.458733
2324.000000	6.424331
2323.000000	6.385335
2322.000000	6.339499
2321.000000	6.278453
2320.000000	6.226697
2319.000000	6.176574
2318.000000	6.134821
2317.000000	6.076327
2316.000000	6.012831
2315.000000	5.955665
2314.000000	5.894006
2313.000000	5.842556
2312.000000	5.817341
2311.000000	5.768953
2310.000000	5.717299
2309.000000	5.684122
2308.000000	5.653701
2307.000000	5.622565
2306.000000	5.617155
2305.000000	5.597147
2304.000000	5.607253
2303.000000	5.606947
2302.000000	5.607457
2301.000000	5.636449
2300.000000	5.665236
2299.000000	5.682386
2298.000000	5.709337
2297.000000	5.745985
2296.000000	5.751803
2295.000000	5.773649
2294.000000	5.799579
2293.000000	5.808154
2292.000000	5.811727
2291.000000	5.839595
2290.000000	5.816320
2289.000000	5.809889
2288.000000	5.810808
2287.000000	5.795189
2286.000000	5.755989
2285.000000	5.729651
2284.000000	5.701782
2283.000000	5.657682
2282.000000	5.623280
2281.000000	5.599495
2280.000000	5.560294
2279.000000	5.558763
2278.000000	5.511090
2277.000000	5.470971
2276.000000	5.418500
2275.000000	5.407271
2274.000000	5.373073
2273.000000	5.346633
2272.000000	5.323766
2271.000000	5.323358
2270.000000	5.291712
2269.000000	5.289977
2268.000000	5.308862
2267.000000	5.303962
2266.000000	5.318764
2265.000000	5.320398
2264.000000	5.354494
2263.000000	5.396450
2262.000000	5.452494
2261.000000	5.486896
2260.000000	5.544267
2259.000000	5.635836
2258.000000	5.679222
2257.000000	5.780591
2256.000000	5.822854
2255.000000	5.913402
2254.000000	5.978225
2253.000000	6.066323
2252.000000	6.142274
2251.000000	6.196480
2250.000000	6.272634
2249.000000	6.356956
2248.000000	6.427393
2247.000000	6.469145
2246.000000	6.527435
2245.000000	6.592054
2244.000000	6.632173
2243.000000	6.675457
2242.000000	6.712411
2241.000000	6.764678
2240.000000	6.794180
2239.000000	6.830726
2238.000000	6.879828
2237.000000	6.902287
2236.000000	6.926582
2235.000000	6.952205
2234.000000	6.960883
2233.000000	6.985383
2232.000000	7.008556
2231.000000	7.010495
2230.000000	7.009679
2229.000000	6.998858
2228.000000	6.992324
2227.000000	6.944549
2226.000000	6.945366
2225.000000	6.936995
2224.000000	6.910555
2223.000000	6.908105
2222.000000	6.860126
2221.000000	6.795711
2220.000000	6.757634
2219.000000	6.745996
2218.000000	6.687094
2217.000000	6.659838
2216.000000	6.626559
2215.000000	6.628294
2214.000000	6.594096
2213.000000	6.584296
2212.000000	6.566227
2211.000000	6.573679
2210.000000	6.581540
2209.000000	6.600936
2208.000000	6.634113
2207.000000	6.677396
2206.000000	6.708838
2205.000000	6.781113
2204.000000	6.850734
2203.000000	6.930360
2202.000000	7.028768
2201.000000	7.124217
2200.000000	7.242532
2199.000000	7.354619
2198.000000	7.466401
2197.000000	7.585533
2196.000000	7.699458
2195.000000	7.811240
2194.000000	7.931903
2193.000000	8.030924
2192.000000	8.120757
2191.000000	8.221922
2190.000000	8.295933
2189.000000	8.369331
2188.000000	8.435277
2187.000000	8.496425
2186.000000	8.541036
2185.000000	8.610453
2184.000000	8.644855
2183.000000	8.691507
2182.000000	8.718457
2181.000000	8.760006
2180.000000	8.787262
2179.000000	8.824012
2178.000000	8.850656
2177.000000	8.892714
2176.000000	8.919052
2175.000000	8.951310
2174.000000	8.974994
2173.000000	8.991225
2172.000000	9.025729
2171.000000	9.036959
2170.000000	9.066971
2169.000000	9.106886
2168.000000	9.119034
2167.000000	9.154151
2166.000000	9.172934
2165.000000	9.205295
2164.000000	9.216932
2163.000000	9.242045
2162.000000	9.251436
2161.000000	9.297476
2160.000000	9.328816
2159.000000	9.340760
2158.000000	9.368220
2157.000000	9.396395
2156.000000	9.425489
2155.000000	9.452133
2154.000000	9.470610
2153.000000	9.498581
2152.000000	9.525837
2151.000000	9.559729
2150.000000	9.591886
2149.000000	9.614344
2148.000000	9.639048
2147.000000	9.672634
2146.000000	9.698257
2145.000000	9.707240
2144.000000	9.743378
2143.000000	9.765428
2142.000000	9.778801
2141.000000	9.812386
2140.000000	9.825555
2139.000000	9.850566
2138.000000	9.876903
2137.000000	9.870268
2136.000000	9.884866
2135.000000	9.886295
2134.000000	9.907018
2133.000000	9.913245
2132.000000	9.913755
2131.000000	9.916308
2130.000000	9.937643
2129.000000	9.928149
2128.000000	9.930701
2127.000000	9.929680
2126.000000	9.921003
2125.000000	9.925291
2124.000000	9.925087
2123.000000	9.912122
2122.000000	9.902628
2121.000000	9.894564
2120.000000	9.891399
2119.000000	9.882824
2118.000000	9.863122
2117.000000	9.854343
2116.000000	9.832905
2115.000000	9.811876
2114.000000	9.807895
2113.000000	9.790234
2112.000000	9.756853
2111.000000	9.747359
2110.000000	9.734496
2109.000000	9.718571
2108.000000	9.712242
2107.000000	9.700400
2106.000000	9.678146
2105.000000	9.653238
2104.000000	9.636292
2103.000000	9.623838
2102.000000	9.604340
2101.000000	9.583208
2100.000000	9.569733
2099.000000	9.547683
2098.000000	9.544723
2097.000000	9.533187
2096.000000	9.509504
2095.000000	9.505421
2094.000000	9.488066
2093.000000	9.470304
2092.000000	9.461933
2091.000000	9.450193
2090.000000	9.447743
2089.000000	9.442537
2088.000000	9.421100
2087.000000	9.410177
2086.000000	9.402827
2085.000000	9.384962
2084.000000	9.371589
2083.000000	9.367506
2082.000000	9.351274
2081.000000	9.334430
2080.000000	9.325753
2079.000000	9.296149
2078.000000	9.270526
2077.000000	9.274303
2076.000000	9.272976
2075.000000	9.243576
2074.000000	9.215809
2073.000000	9.209480
2072.000000	9.190492
2071.000000	9.184265
2070.000000	9.172628
2069.000000	9.152926
2068.000000	9.135061
2067.000000	9.116788
2066.000000	9.115767
2065.000000	9.092288
2064.000000	9.086775
2063.000000	9.087184
2062.000000	9.076771
2061.000000	9.069421
2060.000000	9.068094
2059.000000	9.063602
2058.000000	9.048494
2057.000000	9.059825
2056.000000	9.068400
2055.000000	9.080140
2054.000000	9.112807
2053.000000	9.139757
2052.000000	9.160582
2051.000000	9.195392
2050.000000	9.236022
2049.000000	9.276141
2048.000000	9.310645
2047.000000	9.371283
2046.000000	9.432533
2045.000000	9.486841
2044.000000	9.550746
2043.000000	9.617509
2042.000000	9.696113
2041.000000	9.755526
2040.000000	9.826678
2039.000000	9.877005
2038.000000	9.948566
2037.000000	10.009816
2036.000000	10.045750
2035.000000	10.112308
2034.000000	10.180602
2033.000000	10.226846
2032.000000	10.261044
2031.000000	10.304532
2030.000000	10.371499
2029.000000	10.412128
2028.000000	10.451226
2027.000000	10.493285
2026.000000	10.516866
2025.000000	10.553310
2024.000000	10.609047
2023.000000	10.650493
2022.000000	10.675198
2021.000000	10.706742
2020.000000	10.749923
2019.000000	10.769013
2018.000000	10.795452
2017.000000	10.839246
2016.000000	10.862113
2015.000000	10.882121
2014.000000	10.919178
2013.000000	10.932142
2012.000000	10.925201
2011.000000	10.936532
2010.000000	10.952967
2009.000000	10.965115
2008.000000	10.968995
2007.000000	10.972976
2006.000000	10.989411
2005.000000	10.988799
2004.000000	10.975426
2003.000000	10.995843
2002.000000	10.967974
2001.000000	10.954601
2000.000000	10.940513
1999.000000	10.919280
1998.000000	10.900905
1997.000000	10.907030
1996.000000	10.872015
1995.000000	10.854967
1994.000000	10.827507
1993.000000	10.804231
1992.000000	10.802700
1991.000000	10.744717
1990.000000	10.712050
1989.000000	10.693164
1988.000000	10.654168
1987.000000	10.618235
1986.000000	10.576483
1985.000000	10.552391
1984.000000	10.502880
1983.000000	10.471745
1982.000000	10.430605
1981.000000	10.394161
1980.000000	10.354042
1979.000000	10.326378
1978.000000	10.285748
1977.000000	10.224294
1976.000000	10.189790
1975.000000	10.183767
1974.000000	10.144975
1973.000000	10.088114
1972.000000	10.058306
1971.000000	10.030641
1970.000000	10.026047
1969.000000	9.953772
1968.000000	9.913041
1967.000000	9.932130
1966.000000	9.892522
1965.000000	9.847401
1964.000000	9.813305
1963.000000	9.795951
1962.000000	9.748686
1961.000000	9.728269
1960.000000	9.702034
1959.000000	9.674573
1958.000000	9.634148
1957.000000	9.626594
1956.000000	9.588517
1955.000000	9.578410
1954.000000	9.551869
1953.000000	9.510219
1952.000000	9.499296
1951.000000	9.479696
1950.000000	9.434268
1949.000000	9.432431
1948.000000	9.414464
1947.000000	9.400683
1946.000000	9.376897
1945.000000	9.368016
1944.000000	9.380470
1943.000000	9.389454
1942.000000	9.387208
1941.000000	9.404664
1940.000000	9.409564
1939.000000	9.410789
1938.000000	9.421406
1937.000000	9.419977
1936.000000	9.417833
1935.000000	9.449377
1934.000000	9.483881
1933.000000	9.527164
1932.000000	9.570958
1931.000000	9.625369
1930.000000	9.688559
1929.000000	9.728576
1928.000000	9.770838
1927.000000	9.821982
1926.000000	9.865878
1925.000000	9.968779
1924.000000	10.050445
1923.000000	10.105264
1922.000000	10.193056
1921.000000	10.293609
1920.000000	10.356186
1919.000000	10.427441
1918.000000	10.525033
1917.000000	10.651616
1916.000000	10.759315
1915.000000	10.858642
1914.000000	10.988084
1913.000000	11.109155
1912.000000	11.214097
1911.000000	11.308423
1910.000000	11.436232
1909.000000	11.570982
1908.000000	11.706855
1907.000000	11.852121
1906.000000	11.979521
1905.000000	12.116721
1904.000000	12.251982
1903.000000	12.383772
1902.000000	12.532304
1901.000000	12.694515
1900.000000	12.827122
1899.000000	12.944110
1898.000000	13.076104
1897.000000	13.248115
1896.000000	13.405528
1895.000000	13.547322
1894.000000	13.709533
1893.000000	13.872255
1892.000000	14.019255
1891.000000	14.170339
1890.000000	14.319177
1889.000000	14.470363
1888.000000	14.666772
1887.000000	14.837456
1886.000000	15.069594
1885.000000	15.301630
1884.000000	15.572254
1883.000000	15.842470
1882.000000	16.138410
1881.000000	16.472428
1880.000000	16.818900
1879.000000	17.145262
1878.000000	17.454882
1877.000000	17.739797
1876.000000	18.006134
1875.000000	18.259710
1874.000000	18.493889
1873.000000	18.677538
1872.000000	18.849855
1871.000000	19.006145
1870.000000	19.103023
1869.000000	19.203677
1868.000000	19.289326
1867.000000	19.343226
1866.000000	19.412439
1865.000000	19.476241
1864.000000	19.531264
1863.000000	19.598945
1862.000000	19.646721
1861.000000	19.672854
1860.000000	19.653662
1859.000000	19.629264
1858.000000	19.604866
1857.000000	19.581285
1856.000000	19.564747
1855.000000	19.533918
1854.000000	19.476037
1853.000000	19.386101
1852.000000	19.333426
1851.000000	19.333017
1850.000000	19.331486
1849.000000	19.300555
1848.000000	19.191734
1847.000000	19.036260
1846.000000	18.928460
1845.000000	18.887830
1844.000000	18.906001
1843.000000	18.938362
1842.000000	18.917435
1841.000000	18.859757
1840.000000	18.788809
1839.000000	18.732459
1838.000000	18.713982
1837.000000	18.662838
1836.000000	18.568002
1835.000000	18.473575
1834.000000	18.410895
1833.000000	18.377922
1832.000000	18.341070
1831.000000	18.290130
1830.000000	18.211832
1829.000000	18.124142
1828.000000	18.036555
1827.000000	17.967444
1826.000000	17.881387
1825.000000	17.816054
1824.000000	17.818198
1823.000000	17.849741
1822.000000	17.848823
1821.000000	17.795943
1820.000000	17.709989
1819.000000	17.633018
1818.000000	17.622503
1817.000000	17.648228
1816.000000	17.650372
1815.000000	17.626689
1814.000000	17.609334
1813.000000	17.605557
1812.000000	17.607088
1811.000000	17.559722
1810.000000	17.485609
1809.000000	17.470194
1808.000000	17.461823
1807.000000	17.423134
1806.000000	17.356575
1805.000000	17.300225
1804.000000	17.276644
1803.000000	17.233973
1802.000000	17.184768
1801.000000	17.150979
1800.000000	17.093914
1799.000000	17.035930
1798.000000	16.999588
1797.000000	16.961409
1796.000000	16.923740
1795.000000	16.866267
1794.000000	16.818084
1793.000000	16.772350
1792.000000	16.728760
1791.000000	16.669960
1790.000000	16.611670
1789.000000	16.563079
1788.000000	16.511424
1787.000000	16.438026
1786.000000	16.377388
1785.000000	16.305113
1784.000000	16.231511
1783.000000	16.158317
1782.000000	16.070014
1781.000000	16.011214
1780.000000	15.939551
1779.000000	15.855537
1778.000000	15.778668
1777.000000	15.705269
1776.000000	15.616865
1775.000000	15.508758
1774.000000	15.391975
1773.000000	15.294485
1772.000000	15.175557
1771.000000	15.061530
1770.000000	14.959446
1769.000000	14.851850
1768.000000	14.765997
1767.000000	14.680757
1766.000000	14.599295
1765.000000	14.552642
1764.000000	14.504357
1763.000000	14.494863
1762.000000	14.479244
1761.000000	14.508032
1760.000000	14.553357
1759.000000	14.588984
1758.000000	14.644007
1757.000000	14.665037
1756.000000	14.712710
1755.000000	14.725878
1754.000000	14.721489
1753.000000	14.706278
1752.000000	14.698214
1751.000000	14.669732
1750.000000	14.622876
1749.000000	14.583472
1748.000000	14.531103
1747.000000	14.445046
1746.000000	14.348781
1745.000000	14.253231
1744.000000	14.126239
1743.000000	13.986588
1742.000000	13.830298
1741.000000	13.662677
1740.000000	13.487705
1739.000000	13.338765
1738.000000	13.204321
1737.000000	13.068550
1736.000000	12.965751
1735.000000	12.923693
1734.000000	12.889699
1733.000000	12.885514
1732.000000	12.927266
1731.000000	12.964322
1730.000000	13.038741
1729.000000	13.120715
1728.000000	13.186150
1727.000000	13.289663
1726.000000	13.360917
1725.000000	13.419003
1724.000000	13.454528
1723.000000	13.474537
1722.000000	13.497301
1721.000000	13.497607
1720.000000	13.482397
1719.000000	13.490768
1718.000000	13.526701
1717.000000	13.526497
1716.000000	13.567943
1715.000000	13.601120
1714.000000	13.650529
1713.000000	13.669006
1712.000000	13.702489
1711.000000	13.741690
1710.000000	13.739444
1709.000000	13.750775
1708.000000	13.735156
1707.000000	13.714331
1706.000000	13.729848
1705.000000	13.695854
1704.000000	13.632868
1703.000000	13.601427
1702.000000	13.560593
1701.000000	13.431253
1700.000000	13.362245
1699.000000	13.266898
1698.000000	13.169102
1697.000000	13.099073
1696.000000	13.076410
1695.000000	13.056708
1694.000000	13.089069
1693.000000	13.183904
1692.000000	13.307732
1691.000000	13.415736
1690.000000	13.531908
1689.000000	13.640729
1688.000000	13.686871
1687.000000	13.710554
1686.000000	13.697998
1685.000000	13.721273
1684.000000	13.768333
1683.000000	13.907065
1682.000000	14.126341
1681.000000	14.429325
1680.000000	14.807341
1679.000000	15.231907
1678.000000	15.634117
1677.000000	16.028058
1676.000000	16.369120
1675.000000	16.673227
1674.000000	16.945892
1673.000000	17.184258
1672.000000	17.388017
1671.000000	17.570032
1670.000000	17.731937
1669.000000	17.876283
1668.000000	17.985921
1667.000000	18.055746
1666.000000	18.148540
1665.000000	18.210301
1664.000000	18.289314
1663.000000	18.352197
1662.000000	18.390989
1661.000000	18.426310
1660.000000	18.452137
1659.000000	18.492052
1658.000000	18.519717
1657.000000	18.543706
1656.000000	18.543911
1655.000000	18.553404
1654.000000	18.534417
1653.000000	18.536356
1652.000000	18.522677
1651.000000	18.499606
1650.000000	18.487050
1649.000000	18.467041
1648.000000	18.439989
1647.000000	18.408241
1646.000000	18.381393
1645.000000	18.343826
1644.000000	18.296868
1643.000000	18.275022
1642.000000	18.226124
1641.000000	18.183147
1640.000000	18.141905
1639.000000	18.080655
1638.000000	18.049315
1637.000000	17.992557
1636.000000	17.942638
1635.000000	17.898231
1634.000000	17.841473
1633.000000	17.782979
1632.000000	17.714991
1631.000000	17.662214
1630.000000	17.589734
1629.000000	17.540224
1628.000000	17.480811
1627.000000	17.411700
1626.000000	17.334729
1625.000000	17.288894
1624.000000	17.215904
1623.000000	17.162514
1622.000000	17.106266
1621.000000	17.053897
1620.000000	16.989993
1619.000000	16.927109
1618.000000	16.857284
1617.000000	16.811652
1616.000000	16.757956
1615.000000	16.679352
1614.000000	16.630556
1613.000000	16.577268
1612.000000	16.508668
1611.000000	16.455993
1610.000000	16.409851
1609.000000	16.350745
1608.000000	16.297253
1607.000000	16.241821
1606.000000	16.183736
1605.000000	16.143515
1604.000000	16.094106
1603.000000	16.026935
1602.000000	15.991512
1601.000000	15.940879
1600.000000	15.885753
1599.000000	15.834405
1598.000000	15.793061
1597.000000	15.758353
1596.000000	15.706903
1595.000000	15.656167
1594.000000	15.617375
1593.000000	15.574806
1592.000000	15.531012
1591.000000	15.501919
1590.000000	15.468946
1589.000000	15.432502
1588.000000	15.413106
1587.000000	15.387074
1586.000000	15.346241
1585.000000	15.307449
1584.000000	15.283460
1583.000000	15.268147
1582.000000	15.253243
1581.000000	15.245484
1580.000000	15.226293
1579.000000	15.207101
1578.000000	15.195259
1577.000000	15.178926
1576.000000	15.177497
1575.000000	15.163409
1574.000000	15.160653
1573.000000	15.171270
1572.000000	15.165349
1571.000000	15.172801
1570.000000	15.187399
1569.000000	15.176374
1568.000000	15.183213
1567.000000	15.203936
1566.000000	15.206591
1565.000000	15.210266
1564.000000	15.234766
1563.000000	15.245178
1562.000000	15.255080
1561.000000	15.277232
1560.000000	15.282745
1559.000000	15.298364
1558.000000	15.309695
1557.000000	15.309287
1556.000000	15.316535
1555.000000	15.318576
1554.000000	15.319699
1553.000000	15.301018
1552.000000	15.312145
1551.000000	15.329295
1550.000000	15.320720
1549.000000	15.306428
1548.000000	15.297241
1547.000000	15.296424
1546.000000	15.294587
1545.000000	15.300099
1544.000000	15.309797
1543.000000	15.309185
1542.000000	15.304795
1541.000000	15.300814
1540.000000	15.312349
1539.000000	15.322762
1538.000000	15.331643
1537.000000	15.330418
1536.000000	15.325212
1535.000000	15.335522
1534.000000	15.344301
1533.000000	15.346037
1532.000000	15.328989
1531.000000	15.326641
1530.000000	15.343995
1529.000000	15.340831
1528.000000	15.314901
1527.000000	15.316841
1526.000000	15.321026
1525.000000	15.376458
1524.000000	15.485177
1523.000000	15.516210
1522.000000	15.519885
1521.000000	15.527337
1520.000000	15.531931
1519.000000	15.515292
1518.000000	15.518865
1517.000000	15.509065
1516.000000	15.513352
1515.000000	15.518967
1514.000000	15.524683
1513.000000	15.507635
1512.000000	15.514577
1511.000000	15.516415
1510.000000	15.511923
1509.000000	15.507942
1508.000000	15.500694
1507.000000	15.507533
1506.000000	15.517435
1505.000000	15.508758
1504.000000	15.513250
1503.000000	15.498244
1502.000000	15.506717
1501.000000	15.516517
1500.000000	15.523969
1499.000000	15.552246
1498.000000	15.564598
1497.000000	15.565517
1496.000000	15.563067
1495.000000	15.586036
1494.000000	15.615027
1493.000000	15.644325
1492.000000	15.659944
1491.000000	15.692815
1490.000000	15.719663
1489.000000	15.741305
1488.000000	15.753045
1487.000000	15.777851
1486.000000	15.792755
1485.000000	15.823074
1484.000000	15.842062
1483.000000	15.889224
1482.000000	15.915153
1481.000000	15.953026
1480.000000	15.986714
1479.000000	16.010704
1478.000000	16.046943
1477.000000	16.076344
1476.000000	16.124221
1475.000000	16.145046
1474.000000	16.180367
1473.000000	16.235798
1472.000000	16.273876
1471.000000	16.319915
1470.000000	16.335942
1469.000000	16.352174
1468.000000	16.390965
1467.000000	16.434249
1466.000000	16.458749
1465.000000	16.498868
1464.000000	16.563793
1463.000000	16.600952
1462.000000	16.661691
1461.000000	16.724269
1460.000000	16.785927
1459.000000	16.830027
1458.000000	16.889542
1457.000000	16.945484
1456.000000	17.030928
1455.000000	17.104633
1454.000000	17.170783
1453.000000	17.254185
1452.000000	17.325644
1451.000000	17.401900
1450.000000	17.448144
1449.000000	17.524401
1448.000000	17.599534
1447.000000	17.724689
1446.000000	17.799210
1445.000000	17.873119
1444.000000	17.947844
1443.000000	18.026652
1442.000000	18.125265
1441.000000	18.208157
1440.000000	18.283903
1439.000000	18.365672
1438.000000	18.483375
1437.000000	18.492869
1436.000000	18.587092
1435.000000	18.683561
1434.000000	18.746649
1433.000000	18.843016
1432.000000	18.894772
1431.000000	18.985320
1430.000000	19.050348
1429.000000	19.164784
1428.000000	19.298003
1427.000000	19.379159
1426.000000	19.479610
1425.000000	19.647537
1424.000000	19.762790
1423.000000	19.878144
1422.000000	20.007791
1421.000000	20.163162
1420.000000	20.327619
1419.000000	20.427457
1418.000000	20.548222
1417.000000	20.646732
1416.000000	20.773418
1415.000000	20.935527
1414.000000	21.020257
1413.000000	21.083651
1412.000000	21.172668
1411.000000	21.354785
1410.000000	21.496273
1409.000000	21.671244
1408.000000	21.824472
1407.000000	22.065185
1406.000000	22.284869
1405.000000	22.501083
1404.000000	22.681158
1403.000000	22.903394
1402.000000	23.173814
1401.000000	23.427492
1400.000000	23.535803
1399.000000	23.603995
1398.000000	23.705772
1397.000000	23.857264
1396.000000	23.919740
1395.000000	23.859612
1394.000000	23.817043
1393.000000	23.818677
1392.000000	23.837869
1391.000000	23.820310
1390.000000	23.861450
1389.000000	23.936686
1388.000000	24.040607
1387.000000	24.118395
1386.000000	24.293468
1385.000000	24.523769
1384.000000	24.816749
1383.000000	25.100644
1382.000000	25.355241
1381.000000	25.579620
1380.000000	25.717944
1379.000000	26.006330
1378.000000	26.244798
1377.000000	26.540126
1376.000000	26.889865
1375.000000	27.312695
1374.000000	27.807597
1373.000000	28.318934
1372.000000	28.858140
1371.000000	29.341711
1370.000000	29.779956
1369.000000	30.165934
1368.000000	30.540888
1367.000000	30.833358
1366.000000	31.082850
1365.000000	31.334486
1364.000000	31.545595
1363.000000	31.752519
1362.000000	31.924020
1361.000000	32.042233
1360.000000	32.093887
1359.000000	32.183925
1358.000000	32.314286
1357.000000	32.507020
1356.000000	32.798571
1355.000000	33.246616
1354.000000	33.810935
1353.000000	34.400978
1352.000000	35.000720
1351.000000	35.605668
1350.000000	36.170395
1349.000000	36.681528
1348.000000	37.153563
1347.000000	37.562612
1346.000000	37.963699
1345.000000	38.342430
1344.000000	38.704520
1343.000000	39.036292
1342.000000	39.362348
1341.000000	39.682686
1340.000000	39.985058
1339.000000	40.264563
1338.000000	40.539679
1337.000000	40.825411
1336.000000	41.064389
1335.000000	41.286115
1334.000000	41.516314
1333.000000	41.746716
1332.000000	41.953742
1331.000000	42.149335
1330.000000	42.338496
1329.000000	42.510711
1328.000000	42.665470
1327.000000	42.823189
1326.000000	42.971006
1325.000000	43.099019
1324.000000	43.237751
1323.000000	43.351472
1322.000000	43.467439
1321.000000	43.571054
1320.000000	43.668646
1319.000000	43.785021
1318.000000	43.882409
1317.000000	43.956318
1316.000000	44.033391
1315.000000	44.105054
1314.000000	44.169264
1313.000000	44.237252
1312.000000	44.305036
1311.000000	44.361692
1310.000000	44.414163
1309.000000	44.458774
1308.000000	44.492972
1307.000000	44.522066
1306.000000	44.539726
1305.000000	44.541666
1304.000000	44.536562
1303.000000	44.526762
1302.000000	44.518084
1301.000000	44.508591
1300.000000	44.495320
1299.000000	44.473372
1298.000000	44.449382
1297.000000	44.433253
1296.000000	44.409774
1295.000000	44.372819
1294.000000	44.337396
1293.000000	44.299115
1292.000000	44.262263
1291.000000	44.196419
1290.000000	44.126696
1289.000000	44.074531
1288.000000	44.000112
1287.000000	43.926714
1286.000000	43.841167
1285.000000	43.750415
1284.000000	43.667115
1283.000000	43.578098
1282.000000	43.477137
1281.000000	43.371480
1280.000000	43.271643
1279.000000	43.173234
1278.000000	43.090546
1277.000000	43.009288
1276.000000	42.927314
1275.000000	42.841768
1274.000000	42.767145
1273.000000	42.703343
1272.000000	42.633620
1271.000000	42.558078
1270.000000	42.487946
1269.000000	42.422102
1268.000000	42.369427
1267.000000	42.300623
1266.000000	42.230287
1265.000000	42.159441
1264.000000	42.080938
1263.000000	42.012747
1262.000000	41.959867
1261.000000	41.891165
1260.000000	41.841144
1259.000000	41.772442
1258.000000	41.699656
1257.000000	41.647083
1256.000000	41.589508
1255.000000	41.508964
1254.000000	41.431686
1253.000000	41.348284
1252.000000	41.277336
1251.000000	41.183112
1250.000000	41.089706
1249.000000	40.992012
1248.000000	40.906363
1247.000000	40.797746
1246.000000	40.687292
1245.000000	40.560504
1244.000000	40.430449
1243.000000	40.306009
1242.000000	40.179630
1241.000000	40.025585
1240.000000	39.860006
1239.000000	39.723214
1238.000000	39.584584
1237.000000	39.429519
1236.000000	39.264449
1235.000000	39.096624
1234.000000	38.935025
1233.000000	38.766587
1232.000000	38.595087
1231.000000	38.420932
1230.000000	38.251473
1229.000000	38.059964
1228.000000	37.863963
1227.000000	37.687869
1226.000000	37.503506
1225.000000	37.317713
1224.000000	37.160403
1223.000000	36.964708
1222.000000	36.787389
1221.000000	36.630486
1220.000000	36.479300
1219.000000	36.328318
1218.000000	36.192649
1217.000000	36.062288
1216.000000	35.921821
1215.000000	35.815552
1214.000000	35.674677
1213.000000	35.571164
1212.000000	35.476124
1211.000000	35.372407
1210.000000	35.274611
1209.000000	35.201212
1208.000000	35.125875
1207.000000	35.054722
1206.000000	35.018687
1205.000000	34.988776
1204.000000	34.969482
1203.000000	34.959580
1202.000000	34.951720
1201.000000	34.916807
1200.000000	34.862397
1199.000000	34.782057
1198.000000	34.664967
1197.000000	34.497754
1196.000000	34.300120
1195.000000	34.016837
1194.000000	33.693334
1193.000000	33.268768
1192.000000	32.765496
1191.000000	32.265592
1190.000000	31.777121
1189.000000	31.368684
1188.000000	31.069988
1187.000000	30.862043
1186.000000	30.821107
1185.000000	30.892464
1184.000000	31.107861
1183.000000	31.426974
1182.000000	31.900030
1181.000000	32.391971
1180.000000	32.927298
1179.000000	33.404335
1178.000000	33.834414
1177.000000	34.214982
1176.000000	34.556146
1175.000000	34.845247
1174.000000	35.195189
1173.000000	35.499807
1172.000000	35.854344
1171.000000	36.217558
1170.000000	36.574238
1169.000000	36.980837
1168.000000	37.350789
1167.000000	37.760144
1166.000000	38.143673
1165.000000	38.554968
1164.000000	38.976063
1163.000000	39.390523
1162.000000	39.829483
1161.000000	40.237920
1160.000000	40.597152
1159.000000	41.014572
1158.000000	41.387892
1157.000000	41.735079
1156.000000	42.016115
1155.000000	42.220793
1154.000000	42.378206
1153.000000	42.461711
1152.000000	42.475594
1151.000000	42.459056
1150.000000	42.443744
1149.000000	42.416283
1148.000000	42.409852
1147.000000	42.453238
1146.000000	42.591969
1145.000000	42.830029
1144.000000	43.150163
1143.000000	43.508375
1142.000000	43.925182
1141.000000	44.354648
1140.000000	44.751141
1139.000000	45.202760
1138.000000	45.659278
1137.000000	46.139888
1136.000000	46.605696
1135.000000	47.053639
1134.000000	47.456461
1133.000000	47.856119
1132.000000	48.179928
1131.000000	48.485873
1130.000000	48.765685
1129.000000	49.012523
1128.000000	49.209136
1127.000000	49.370633
1126.000000	49.493337
1125.000000	49.619921
1124.000000	49.703732
1123.000000	49.779478
1122.000000	49.875641
1121.000000	49.924947
1120.000000	49.995487
1119.000000	50.046325
1118.000000	50.066945
1117.000000	50.078787
1116.000000	50.090629
1115.000000	50.082768
1114.000000	50.082871
1113.000000	50.085933
1112.000000	50.080523
1111.000000	50.060106
1110.000000	50.066945
1109.000000	50.072866
1108.000000	50.062556
1107.000000	50.048570
1106.000000	50.045508
1105.000000	50.027235
1104.000000	50.008758
1103.000000	50.004368
1102.000000	49.997018
1101.000000	49.975887
1100.000000	49.941995
1099.000000	49.933114
1098.000000	49.912289
1097.000000	49.879009
1096.000000	49.846853
1095.000000	49.812961
1094.000000	49.788053
1093.000000	49.736092
1092.000000	49.694136
1091.000000	49.653404
1090.000000	49.611448
1089.000000	49.585723
1088.000000	49.539887
1087.000000	49.491806
1086.000000	49.433618
1085.000000	49.392376
1084.000000	49.345520
1083.000000	49.303870
1082.000000	49.263853
1081.000000	49.209953
1080.000000	49.171467
1079.000000	49.134003
1078.000000	49.098477
1077.000000	49.037942
1076.000000	49.007419
1075.000000	48.969137
1074.000000	48.927283
1073.000000	48.899210
1072.000000	48.849393
1071.000000	48.807233
1070.000000	48.760172
1069.000000	48.723728
1068.000000	48.681057
1067.000000	48.633793
1066.000000	48.582138
1065.000000	48.548553
1064.000000	48.501696
1063.000000	48.453717
1062.000000	48.402675
1061.000000	48.359289
1060.000000	48.301102
1059.000000	48.252000
1058.000000	48.195037
1057.000000	48.137257
1056.000000	48.083766
1055.000000	48.021597
1054.000000	47.970861
1053.000000	47.915736
1052.000000	47.861121
1051.000000	47.833354
1050.000000	47.802117
1049.000000	47.776290
1048.000000	47.759446
1047.000000	47.744848
1046.000000	47.716060
1045.000000	47.708506
1044.000000	47.704627
1043.000000	47.690437
1042.000000	47.687273
1041.000000	47.681352
1040.000000	47.682577
1039.000000	47.697787
1038.000000	47.712691
1037.000000	47.702177
1036.000000	47.700135
1035.000000	47.728719
1034.000000	47.741071
1033.000000	47.742602
1032.000000	47.752198
1031.000000	47.766796
1030.000000	47.787723
1029.000000	47.813754
1028.000000	47.821513
1027.000000	47.829883
1026.000000	47.844890
1025.000000	47.865000
1024.000000	47.883988
1023.000000	47.891848
1022.000000	47.915634
1021.000000	47.946361
1020.000000	47.974740
1019.000000	48.008122
1018.000000	48.038236
1017.000000	48.080805
1016.000000	48.126539
1015.000000	48.174620
1014.000000	48.224641
1013.000000	48.290281
1012.000000	48.368987
1011.000000	48.457800
1010.000000	48.526707
1009.000000	48.600820
1008.000000	48.698412
1007.000000	48.780487
1006.000000	48.861541
1005.000000	48.948517
1004.000000	49.020792
1003.000000	49.073467
1002.000000	49.141353
1001.000000	49.205563
1000.000000	49.267732
999.000000	49.319897
998.000000	49.359914
997.000000	49.418306
996.000000	49.471083
995.000000	49.524983
994.000000	49.578577
993.000000	49.608488
992.000000	49.665552
991.000000	49.729967
990.000000	49.774680
989.000000	49.818372
988.000000	49.862370
987.000000	49.925866
986.000000	50.002531
985.000000	50.082258
984.000000	50.145550
983.000000	50.224767
982.000000	50.301738
981.000000	50.379424
980.000000	50.463745
979.000000	50.550108
978.000000	50.655050
977.000000	50.762646
976.000000	50.842986
975.000000	50.944151
974.000000	51.053788
973.000000	51.157301
972.000000	51.255608
971.000000	51.349933
970.000000	51.457427
969.000000	51.562880
968.000000	51.675989
967.000000	51.777460
966.000000	51.861985
965.000000	51.980504
964.000000	52.096778
963.000000	52.223361
962.000000	52.351374
961.000000	52.470710
960.000000	52.608013
959.000000	52.735209
958.000000	52.882312
957.000000	52.977964
956.000000	53.065858
955.000000	53.173965
954.000000	53.253590
953.000000	53.300855
952.000000	53.396711
951.000000	53.433768
950.000000	53.513903
949.000000	53.542487
948.000000	53.578420
947.000000	53.623541
946.000000	53.670193
945.000000	53.688466
944.000000	53.710925
943.000000	53.797696
942.000000	53.846084
941.000000	53.873442
940.000000	53.914990
939.000000	53.980222
938.000000	54.035245
937.000000	54.077405
936.000000	54.146720
935.000000	54.180612
934.000000	54.204193
933.000000	54.237268
932.000000	54.300050
931.000000	54.304337
930.000000	54.341904
929.000000	54.394273
928.000000	54.395600
927.000000	54.438373
926.000000	54.469202
925.000000	54.534026
924.000000	54.547705
923.000000	54.576492
922.000000	54.619980
921.000000	54.646930
920.000000	54.667755
919.000000	54.712978
918.000000	54.705628
917.000000	54.716041
916.000000	54.710018
915.000000	54.701443
914.000000	54.695420
913.000000	54.690928
912.000000	54.674493
911.000000	54.686232
910.000000	54.724003
909.000000	54.723493
908.000000	54.760549
907.000000	54.806283
906.000000	54.874781
905.000000	54.936644
904.000000	55.038115
903.000000	55.104163
902.000000	55.201143
901.000000	55.270355
900.000000	55.341712
899.000000	55.431852
898.000000	55.514029
897.000000	55.593961
896.000000	55.649290
895.000000	55.715134
894.000000	55.780672
893.000000	55.838655
892.000000	55.875814
891.000000	55.903989
890.000000	55.949620
889.000000	55.983206
888.000000	56.006889
887.000000	56.045885
886.000000	56.059054
885.000000	56.052214
884.000000	56.039658
883.000000	56.040985
882.000000	56.069160
881.000000	56.060789
880.000000	56.013831
879.000000	55.981266
878.000000	55.965239
877.000000	55.915014
876.000000	55.905418
875.000000	55.875609
874.000000	55.838247
873.000000	55.817116
872.000000	55.809868
871.000000	55.798638
870.000000	55.779549
869.000000	55.770872
868.000000	55.760561
867.000000	55.755967
866.000000	55.716053
865.000000	55.720340
864.000000	55.674403
863.000000	55.607129
862.000000	55.557108
861.000000	55.474318
860.000000	55.363762
859.000000	55.300776
858.000000	55.553433
857.000000	55.890400
856.000000	55.165300
855.000000	55.604600
854.000000	55.735800
853.000000	55.521000
852.000000	55.440400
851.000000	55.741300
850.000000	55.872600
849.000000	55.563900
848.000000	55.411800
847.000000	55.753400
846.000000	55.514000
845.000000	55.453100
844.000000	55.479800
843.000000	55.484400
842.000000	55.465800
841.000000	55.384000
840.000000	55.346300
839.000000	55.268800
838.000000	55.148300
837.000000	55.226100
836.000000	55.289900
835.000000	54.948600
834.000000	55.032200
833.000000	55.002700
832.000000	54.969800
831.000000	54.883200
830.000000	54.784900
829.000000	54.929800
828.000000	54.726900
827.000000	54.672900
826.000000	54.489500
825.000000	54.472700
824.000000	54.470000
823.000000	54.429000
822.000000	54.292000
821.000000	54.155700
820.000000	54.206300
819.000000	54.153900
818.000000	53.972300
817.000000	53.816700
816.000000	53.809000
815.000000	53.742100
814.000000	53.675300
813.000000	53.505900
812.000000	53.366400
811.000000	53.296900
810.000000	53.158600
809.000000	53.028400
808.000000	52.767600
807.000000	52.517200
806.000000	52.366000
805.000000	52.131700
804.000000	52.044800
803.000000	51.936900
802.000000	51.762600
801.000000	51.587300
800.000000	51.479000
799.000000	51.414300
798.000000	51.250500
797.000000	51.054900
796.000000	50.836700
795.000000	50.638800
794.000000	50.573500
793.000000	50.405600
792.000000	50.161400
791.000000	50.040700
790.000000	49.845900
789.000000	49.652900
788.000000	49.529100
787.000000	49.338600
786.000000	49.204300
785.000000	49.084100
784.000000	48.983300
783.000000	48.885100
782.000000	48.704900
781.000000	48.582600
780.000000	48.500100
779.000000	48.411000
778.000000	48.330700
777.000000	48.240600
776.000000	48.026800
775.000000	47.862600
774.000000	47.814000
773.000000	47.680700
772.000000	47.573300
771.000000	47.505000
770.000000	47.443600
769.000000	47.361000
768.000000	47.281100
767.000000	47.225000
766.000000	47.203800
765.000000	47.204000
764.000000	47.112200
763.000000	47.085500
762.000000	47.035300
761.000000	47.075300
760.000000	47.109700
759.000000	47.011300
758.000000	47.029400
757.000000	47.050900
756.000000	47.055400
755.000000	47.018000
754.000000	47.030400
753.000000	47.133900
752.000000	47.155500
751.000000	47.185000
750.000000	47.241300
749.000000	47.301500
748.000000	47.355600
747.000000	47.411600
746.000000	47.483000
745.000000	47.520400
744.000000	47.545300
743.000000	47.582300
742.000000	47.601400
741.000000	47.635800
740.000000	47.646800
739.000000	47.617500
738.000000	47.685700
737.000000	47.754800
736.000000	47.746000
735.000000	47.760000
734.000000	47.826800
733.000000	47.859200
732.000000	47.848700
731.000000	47.858200
730.000000	47.813600
729.000000	47.783300
728.000000	47.800100
727.000000	47.763200
726.000000	47.728800
725.000000	47.709000
724.000000	47.727300
723.000000	47.658700
722.000000	47.561900
721.000000	47.439500
720.000000	47.337600
719.000000	47.329000
718.000000	47.263700
717.000000	47.187400
716.000000	47.089600
715.000000	46.977100
714.000000	46.853300
713.000000	46.752900
712.000000	46.632000
711.000000	46.494300
710.000000	46.376400
709.000000	46.217300
708.000000	46.110000
707.000000	45.947400
706.000000	45.848800
705.000000	45.718400
704.000000	45.579900
703.000000	45.505700
702.000000	45.425500
701.000000	45.313100
700.000000	45.238300
699.000000	45.262600
698.000000	45.223200
697.000000	45.180900
696.000000	45.167900
695.000000	45.167500
694.000000	45.215200
693.000000	45.256600
692.000000	45.264400
691.000000	45.271700
690.000000	45.317800
689.000000	45.384400
688.000000	45.453900
687.000000	45.492700
686.000000	45.577800
685.000000	45.622900
684.000000	45.687400
683.000000	45.761100
682.000000	45.839200
681.000000	45.921300
680.000000	46.051900
679.000000	46.100400
678.000000	46.145600
677.000000	46.229500
676.000000	46.272500
675.000000	46.269300
674.000000	46.289300
673.000000	46.269200
672.000000	46.221100
671.000000	46.151000
670.000000	46.049100
669.000000	45.979400
668.000000	45.856700
667.000000	45.679300
666.000000	45.546000
665.000000	45.395100
664.000000	45.194200
663.000000	44.984500
662.000000	44.791000
661.000000	44.543500
660.000000	44.289800
659.000000	44.041400
658.000000	43.744700
657.000000	43.433200
656.000000	43.121600
655.000000	42.766700
654.000000	42.374900
653.000000	41.991800
652.000000	41.618800
651.000000	41.241600
650.000000	40.858200
649.000000	40.551400
648.000000	40.224400
647.000000	39.952800
646.000000	39.795600
645.000000	39.656800
644.000000	39.589800
643.000000	39.619700
642.000000	39.707400
641.000000	39.907500
640.000000	40.155800
639.000000	40.473900
638.000000	40.871600
637.000000	41.228400
636.000000	41.667100
635.000000	42.176200
634.000000	42.640300
633.000000	43.180700
632.000000	43.731900
631.000000	44.289300
630.000000	44.832500
629.000000	45.404700
628.000000	45.992600
627.000000	46.511700
626.000000	47.048700
625.000000	47.534100
624.000000	48.018100
623.000000	48.534400
622.000000	48.946500
621.000000	49.404700
620.000000	49.799200
619.000000	50.167600
618.000000	50.563500
617.000000	50.833800
616.000000	51.166900
615.000000	51.546700
614.000000	51.857600
613.000000	52.181700
612.000000	52.448200
611.000000	52.760800
610.000000	53.081000
609.000000	53.357800
608.000000	53.622800
607.000000	53.848800
606.000000	54.067500
605.000000	54.318100
604.000000	54.522900
603.000000	54.650300
602.000000	54.810400
601.000000	54.924700
600.000000	55.057900
599.000000	55.191600
598.000000	55.239800
597.000000	55.368400
596.000000	55.498000
595.000000	55.625700
594.000000	55.766900
593.000000	55.947500
592.000000	56.132500
591.000000	56.301000
590.000000	56.524500
589.000000	56.732600
588.000000	56.932400
587.000000	57.061500
586.000000	57.252100
585.000000	57.394100
584.000000	57.517700
583.000000	57.581100
582.000000	57.650000
581.000000	57.660700
580.000000	57.680700
579.000000	57.646700
578.000000	57.582900
577.000000	57.542700
576.000000	57.501100
575.000000	57.410700
574.000000	57.339200
573.000000	57.306000
572.000000	57.258700
571.000000	57.189800
570.000000	57.132900
569.000000	57.094900
568.000000	57.009200
567.000000	56.946300
566.000000	56.874900
565.000000	56.776700
564.000000	56.638800
563.000000	56.500500
562.000000	56.299900
561.000000	56.092300
560.000000	55.818200
559.000000	55.367700
558.000000	55.053600
557.000000	54.688400
556.000000	54.327900
555.000000	53.888900
554.000000	53.409300
553.000000	52.905400
552.000000	52.351000
551.000000	51.790500
550.000000	51.157700
549.000000	50.480300
548.000000	49.766400
547.000000	49.012500
546.000000	48.211700
545.000000	47.344200
544.000000	46.443700
543.000000	45.492600
542.000000	44.564900
541.000000	43.559900
540.000000	42.535700
539.000000	41.548400
538.000000	40.541300
537.000000	39.546500
536.000000	38.590000
535.000000	37.671300
534.000000	36.791600
533.000000	35.944900
532.000000	35.169500
531.000000	34.453600
530.000000	33.775800
529.000000	33.151600
528.000000	32.591700
527.000000	32.055700
526.000000	31.575900
525.000000	31.141300
524.000000	30.726800
523.000000	30.360500
522.000000	30.004800
521.000000	29.652200
520.000000	29.331600
519.000000	29.008500
518.000000	28.674100
517.000000	28.329900
516.000000	27.989500
515.000000	27.668300
514.000000	27.318100
513.000000	26.951600
512.000000	26.593600
511.000000	26.233200
510.000000	25.863600
509.000000	25.475500
508.000000	25.104400
507.000000	24.747200
506.000000	24.402100
505.000000	24.069700
504.000000	23.727800
503.000000	23.398000
502.000000	23.075100
501.000000	22.765100
500.000000	22.461900
499.000000	22.199200
498.000000	21.960500
497.000000	21.727900
496.000000	21.494100
495.000000	21.287100
494.000000	21.078500
493.000000	20.867200
492.000000	20.670500
491.000000	20.482300
490.000000	20.312800
489.000000	20.119500
488.000000	19.908700
487.000000	19.703400
486.000000	19.489300
485.000000	19.265500
484.000000	19.046500
483.000000	18.810300
482.000000	18.549000
481.000000	18.287000
480.000000	18.017200
479.000000	17.751000
478.000000	17.482300
477.000000	17.206900
476.000000	16.954700
475.000000	16.714900
474.000000	16.465400
473.000000	16.229500
472.000000	16.023200
471.000000	15.830300
470.000000	15.649600
469.000000	15.492500
468.000000	15.353700
467.000000	15.236500
466.000000	15.150400
465.000000	15.076000
464.000000	15.010700
463.000000	14.982700
462.000000	14.968700
461.000000	14.957700
460.000000	14.964400
459.000000	14.991700
458.000000	15.019800
457.000000	15.026900
456.000000	15.050600
455.000000	15.090000
454.000000	15.108000
453.000000	15.131000
452.000000	15.127200
451.000000	15.112400
450.000000	15.106900
449.000000	15.064400
448.000000	15.015800
447.000000	14.956000
446.000000	14.877600
445.000000	14.801600
444.000000	14.722200
443.000000	14.615300
442.000000	14.497800
441.000000	14.382000
440.000000	14.244900
439.000000	14.111800
438.000000	13.966500
437.000000	13.816100
436.000000	13.679500
435.000000	13.518500
434.000000	13.357900
433.000000	13.208700
432.000000	13.022400
431.000000	12.832600
430.000000	12.662700
429.000000	12.489400
428.000000	12.301000
427.000000	12.099300
426.000000	11.894800
425.000000	11.690000
424.000000	11.485600
423.000000	11.274700
422.000000	11.055300
421.000000	10.834700
420.000000	10.615200
419.000000	10.383800
418.000000	10.152200
417.000000	9.929400
416.000000	9.690800
415.000000	9.456300
414.000000	9.245400
413.000000	9.011000
412.000000	8.775600
411.000000	8.553300
410.000000	8.331500
409.000000	8.125500
408.000000	7.935700
407.000000	7.742400
406.000000	7.542400
405.000000	7.358000
404.000000	7.192600
403.000000	7.017600
402.000000	6.849800
401.000000	6.703700
400.000000	6.580600
399.000000	6.472800
398.000000	6.373300
397.000000	6.264200
396.000000	6.156100
395.000000	6.069400
394.000000	5.980400
393.000000	5.918000
392.000000	5.854100
391.000000	5.797800
390.000000	5.753800
389.000000	5.695800
388.000000	5.660700
387.000000	5.614100
386.000000	5.593300
385.000000	5.557300
384.000000	5.526400
383.000000	5.499300
382.000000	5.477200
381.000000	5.451000
380.000000	5.420500
379.000000	5.404200
378.000000	5.397300
377.000000	5.380800
376.000000	5.474400
375.000000	5.314300
374.000000	5.150200
373.000000	5.090700
372.000000	5.150100
371.000000	5.221600
370.000000	5.160700
369.000000	5.234000
368.000000	5.254100
367.000000	5.218000
366.000000	5.205200
365.000000	5.154400
364.000000	5.187800
363.000000	5.087000
362.000000	5.215100
361.000000	5.199500
360.000000	5.200100
359.000000	5.170900
358.000000	5.205600
357.000000	5.200800
356.000000	5.200700
355.000000	5.208100
354.000000	5.247100
353.000000	5.208500
352.000000	5.093300
351.000000	5.222000
350.000000	5.117800
349.000000	4.979400
348.000000	5.115700
347.000000	5.157100
346.000000	5.278200
345.000000	5.056500
344.000000	5.050400
343.000000	5.044900
342.000000	5.010000
341.000000	5.054400
340.000000	5.205900
339.000000	5.169300
338.000000	5.163100
337.000000	5.161100
336.000000	5.074200
335.000000	5.194700
334.000000	5.148600
333.000000	5.226800
332.000000	5.204400
331.000000	5.336200
330.000000	5.413800
329.000000	5.261300
328.000000	5.129500
327.000000	5.280500
326.000000	5.077700
325.000000	5.503600
324.000000	5.155300
323.000000	5.373900
322.000000	5.497700
321.000000	5.787200
320.000000	5.729500
319.000000	5.704200
318.000000	5.417300
317.000000	5.704900
316.000000	5.090600
315.000000	5.011800
314.000000	4.995800
313.000000	4.986700
312.000000	4.945700
311.000000	5.041400
310.000000	4.987400
309.000000	5.005200
308.000000	5.101600
307.000000	5.029900
306.000000	5.082600
305.000000	4.998800
304.000000	4.983000
303.000000	5.057800
302.000000	4.985500
301.000000	5.085400
300.000000	5.023700
299.000000	5.045500
298.000000	5.071100
297.000000	5.048600
296.000000	5.119000
295.000000	5.087100
294.000000	5.048700
293.000000	5.050400
292.000000	5.099400
291.000000	5.132500
290.000000	5.094000
289.000000	5.126900
288.000000	5.068300
287.000000	5.105600
286.000000	5.135600
285.000000	5.050700
284.000000	5.118300
283.000000	5.194400
282.000000	5.163800
281.000000	5.115300
280.000000	5.106100
279.000000	5.155800
278.000000	5.209100
277.000000	5.143300
276.000000	5.186200
275.000000	5.205100
274.000000	5.200300
273.000000	5.215300
272.000000	5.214800
271.000000	5.248700
270.000000	5.229000
269.000000	5.214700
268.000000	5.272000
267.000000	5.312100
266.000000	5.271400
265.000000	5.356800
264.000000	5.364000
263.000000	5.434300
262.000000	5.407100
261.000000	5.361100
260.000000	5.423000
259.000000	5.485400
258.000000	5.473600
257.000000	5.493400
256.000000	5.508000
255.000000	5.445500
254.000000	5.558800
253.000000	5.509500
252.000000	5.555500
251.000000	5.478000
250.000000	5.520700
