PE UV       SUBTECH     SPECTRUM    ASCII       PEDS        4.00        
   -1
CICIMAUCR0214-1.Sample.ASC
24/06/13
12:34:20.00
24/06/13
12:34:20.00
Vinicio Soto Monge
C. cupreomarginata. Sex M. Ventral 
250,000000
1
Lambda 1050
1050L1511233
PerkinElmer UV WinLab 6.3.2.0749 / 2.02.05 Lambda 900 UV/VIS/NIR, Aug  7 2015 09:38:08

0
0
3350/servo 860,8/2
0
0
UV/VIS
1
1
1
DoubleDePol,CommonBeamDepol,RBeamAtt,SBeamAtt,60mm sphere, WB InGaAs Detector
0
0
0
0
Program
Program
3350/servo 860,8/2
3350/0,2 860,8/0,2
3350/0,2 860,8/0,2
0
15.00
 
 
 
0
 
860,8
319,2
860,8
Front
100
on
S:100 R:100
0
0
0
0
 
0
 
 
 
0
 
 
0
0
0
0
0
 
 
 
 
0
0


0
0
#HDR
-1
-1
#GR
nm
%R
1.0
0.0
2500,000000
-1,000000
2251
8
60,507500
3,964200
#DATA
2482.000000	6.627349
2481.000000	6.663787
2480.000000	6.691704
2479.000000	6.644615
2478.000000	6.627349
2477.000000	6.653023
2476.000000	6.631721
2475.000000	6.638224
2474.000000	6.618940
2473.000000	6.570954
2472.000000	6.684528
2471.000000	6.658966
2470.000000	6.632058
2469.000000	6.608065
2468.000000	6.610083
2467.000000	6.603916
2466.000000	6.634860
2465.000000	6.638000
2464.000000	6.646745
2463.000000	6.680604
2462.000000	6.648539
2461.000000	6.671074
2460.000000	6.705943
2459.000000	6.715248
2458.000000	6.710539
2457.000000	6.750229
2456.000000	6.787900
2455.000000	6.821311
2454.000000	6.860552
2453.000000	6.852367
2452.000000	6.866606
2451.000000	6.913471
2450.000000	6.956748
2449.000000	6.980517
2448.000000	7.022561
2447.000000	7.038033
2446.000000	7.075144
2445.000000	7.117973
2444.000000	7.160914
2443.000000	7.180310
2442.000000	7.207218
2441.000000	7.237041
2440.000000	7.285588
2439.000000	7.338619
2438.000000	7.362388
2437.000000	7.401853
2436.000000	7.437955
2435.000000	7.467105
2434.000000	7.478765
2433.000000	7.496928
2432.000000	7.523164
2431.000000	7.546035
2430.000000	7.601982
2429.000000	7.636738
2428.000000	7.651650
2427.000000	7.678221
2426.000000	7.694254
2425.000000	7.702327
2424.000000	7.731701
2423.000000	7.758385
2422.000000	7.777333
2421.000000	7.803792
2420.000000	7.818928
2419.000000	7.842697
2418.000000	7.874202
2417.000000	7.893150
2416.000000	7.909967
2415.000000	7.924094
2414.000000	7.945172
2413.000000	7.964120
2412.000000	7.967595
2411.000000	7.988337
2410.000000	8.029148
2409.000000	8.029820
2408.000000	8.056280
2407.000000	8.065586
2406.000000	8.071079
2405.000000	8.085318
2404.000000	8.112787
2403.000000	8.134538
2402.000000	8.157858
2401.000000	8.166715
2400.000000	8.198781
2399.000000	8.243067
2398.000000	8.254166
2397.000000	8.269975
2396.000000	8.291501
2395.000000	8.309104
2394.000000	8.330406
2393.000000	8.352829
2392.000000	8.362696
2391.000000	8.361687
2390.000000	8.370208
2389.000000	8.393528
2388.000000	8.403394
2387.000000	8.428172
2386.000000	8.428396
2385.000000	8.422678
2384.000000	8.434451
2383.000000	8.449138
2382.000000	8.455753
2381.000000	8.458332
2380.000000	8.452614
2379.000000	8.449362
2378.000000	8.436805
2377.000000	8.439608
2376.000000	8.448689
2375.000000	8.430751
2374.000000	8.438711
2373.000000	8.442859
2372.000000	8.428060
2371.000000	8.413709
2370.000000	8.393192
2369.000000	8.378728
2368.000000	8.371217
2367.000000	8.363705
2366.000000	8.350587
2365.000000	8.310673
2364.000000	8.278272
2363.000000	8.260894
2362.000000	8.237125
2361.000000	8.225577
2360.000000	8.211001
2359.000000	8.168397
2358.000000	8.140256
2357.000000	8.121532
2356.000000	8.105611
2355.000000	8.098660
2354.000000	8.089354
2353.000000	8.067604
2352.000000	8.060765
2351.000000	8.072873
2350.000000	8.070743
2349.000000	8.082403
2348.000000	8.099893
2347.000000	8.118505
2346.000000	8.143171
2345.000000	8.149561
2344.000000	8.179609
2343.000000	8.222774
2342.000000	8.240712
2341.000000	8.257866
2340.000000	8.265154
2339.000000	8.272778
2338.000000	8.285335
2337.000000	8.297107
2336.000000	8.313701
2335.000000	8.321325
2334.000000	8.323118
2333.000000	8.328949
2332.000000	8.325137
2331.000000	8.304059
2330.000000	8.288923
2329.000000	8.267284
2328.000000	8.244524
2327.000000	8.200350
2326.000000	8.173891
2325.000000	8.160212
2324.000000	8.139919
2323.000000	8.104939
2322.000000	8.063680
2321.000000	8.012891
2320.000000	7.978359
2319.000000	7.942593
2318.000000	7.893374
2317.000000	7.836306
2316.000000	7.792357
2315.000000	7.746276
2314.000000	7.685957
2313.000000	7.634944
2312.000000	7.590546
2311.000000	7.558817
2310.000000	7.517109
2309.000000	7.471366
2308.000000	7.457351
2307.000000	7.447036
2306.000000	7.431788
2305.000000	7.422258
2304.000000	7.442888
2303.000000	7.433806
2302.000000	7.454996
2301.000000	7.479326
2300.000000	7.503319
2299.000000	7.543345
2298.000000	7.567450
2297.000000	7.619136
2296.000000	7.662301
2295.000000	7.701317
2294.000000	7.729010
2293.000000	7.767018
2292.000000	7.797178
2291.000000	7.830701
2290.000000	7.853348
2289.000000	7.889562
2288.000000	7.889450
2287.000000	7.903913
2286.000000	7.887320
2285.000000	7.882723
2284.000000	7.890571
2283.000000	7.874650
2282.000000	7.856600
2281.000000	7.816686
2280.000000	7.822180
2279.000000	7.775763
2278.000000	7.753116
2277.000000	7.740334
2276.000000	7.726320
2275.000000	7.708157
2274.000000	7.683379
2273.000000	7.669140
2272.000000	7.666561
2271.000000	7.651201
2270.000000	7.670934
2269.000000	7.680352
2268.000000	7.701317
2267.000000	7.743361
2266.000000	7.765000
2265.000000	7.829355
2264.000000	7.879471
2263.000000	7.941808
2262.000000	8.053701
2261.000000	8.138125
2260.000000	8.243627
2259.000000	8.377047
2258.000000	8.477391
2257.000000	8.613838
2256.000000	8.750172
2255.000000	8.898391
2254.000000	9.047731
2253.000000	9.182159
2252.000000	9.340132
2251.000000	9.474448
2250.000000	9.621994
2249.000000	9.740726
2248.000000	9.869100
2247.000000	9.979984
2246.000000	10.073601
2245.000000	10.225856
2244.000000	10.342570
2243.000000	10.391789
2242.000000	10.507831
2241.000000	10.561310
2240.000000	10.675782
2239.000000	10.734755
2238.000000	10.808080
2237.000000	10.853263
2236.000000	10.926475
2235.000000	10.982982
2234.000000	11.037808
2233.000000	11.056531
2232.000000	11.109450
2231.000000	11.118868
2230.000000	11.173357
2229.000000	11.175824
2228.000000	11.178627
2227.000000	11.215737
2226.000000	11.233228
2225.000000	11.222240
2224.000000	11.227398
2223.000000	11.226613
2222.000000	11.200602
2221.000000	11.184120
2220.000000	11.174590
2219.000000	11.168536
2218.000000	11.156203
2217.000000	11.124810
2216.000000	11.076488
2215.000000	11.074918
2214.000000	11.044310
2213.000000	11.032987
2212.000000	10.999576
2211.000000	10.994194
2210.000000	10.967398
2209.000000	10.954393
2208.000000	10.936790
2207.000000	10.907191
2206.000000	10.908088
2205.000000	10.934884
2204.000000	10.911228
2203.000000	10.862569
2202.000000	10.849900
2201.000000	10.849451
2200.000000	10.861448
2199.000000	10.829270
2198.000000	10.824337
2197.000000	10.815480
2196.000000	10.830952
2195.000000	10.815816
2194.000000	10.818507
2193.000000	10.805389
2192.000000	10.812789
2191.000000	10.796195
2190.000000	10.773436
2189.000000	10.772315
2188.000000	10.772090
2187.000000	10.763682
2186.000000	10.728589
2185.000000	10.724889
2184.000000	10.719620
2183.000000	10.721974
2182.000000	10.704596
2181.000000	10.684975
2180.000000	10.678136
2179.000000	10.670288
2178.000000	10.656834
2177.000000	10.665019
2176.000000	10.664458
2175.000000	10.660982
2174.000000	10.645847
2173.000000	10.653134
2172.000000	10.670288
2171.000000	10.647192
2170.000000	10.651116
2169.000000	10.672755
2168.000000	10.673876
2167.000000	10.677015
2166.000000	10.679930
2165.000000	10.686209
2164.000000	10.708632
2163.000000	10.721077
2162.000000	10.717377
2161.000000	10.720292
2160.000000	10.751237
2159.000000	10.771081
2158.000000	10.798550
2157.000000	10.837455
2156.000000	10.856739
2155.000000	10.885216
2154.000000	10.909097
2153.000000	10.926251
2152.000000	10.949011
2151.000000	10.969080
2150.000000	11.014712
2149.000000	11.039714
2148.000000	11.063707
2147.000000	11.095660
2146.000000	11.125259
2145.000000	11.148243
2144.000000	11.168312
2143.000000	11.194435
2142.000000	11.208450
2141.000000	11.223361
2140.000000	11.244103
2139.000000	11.277065
2138.000000	11.305879
2137.000000	11.338169
2136.000000	11.341196
2135.000000	11.361377
2134.000000	11.375953
2133.000000	11.390640
2132.000000	11.401852
2131.000000	11.411382
2130.000000	11.421808
2129.000000	11.427638
2128.000000	11.448380
2127.000000	11.436720
2126.000000	11.429320
2125.000000	11.424499
2124.000000	11.441765
2123.000000	11.432908
2122.000000	11.418893
2121.000000	11.415418
2120.000000	11.403421
2119.000000	11.389407
2118.000000	11.365750
2117.000000	11.366423
2116.000000	11.357453
2115.000000	11.332115
2114.000000	11.318549
2113.000000	11.287492
2112.000000	11.267984
2111.000000	11.255539
2110.000000	11.242982
2109.000000	11.235246
2108.000000	11.218092
2107.000000	11.207889
2106.000000	11.178402
2105.000000	11.149140
2104.000000	11.129631
2103.000000	11.103957
2102.000000	11.085569
2101.000000	11.070882
2100.000000	11.046441
2099.000000	11.028614
2098.000000	11.006639
2097.000000	10.986010
2096.000000	10.959662
2095.000000	10.937351
2094.000000	10.917506
2093.000000	10.900352
2092.000000	10.887795
2091.000000	10.871202
2090.000000	10.861335
2089.000000	10.838015
2088.000000	10.824337
2087.000000	10.791599
2086.000000	10.778593
2085.000000	10.766821
2084.000000	10.741370
2083.000000	10.726459
2082.000000	10.708184
2081.000000	10.679257
2080.000000	10.652798
2079.000000	10.626002
2078.000000	10.590909
2077.000000	10.570504
2076.000000	10.540232
2075.000000	10.503570
2074.000000	10.482941
2073.000000	10.455136
2072.000000	10.408158
2071.000000	10.379905
2070.000000	10.337637
2069.000000	10.295929
2068.000000	10.280121
2067.000000	10.240207
2066.000000	10.196706
2065.000000	10.169013
2064.000000	10.142890
2063.000000	10.122484
2062.000000	10.091989
2061.000000	10.062278
2060.000000	10.053757
2059.000000	10.033912
2058.000000	10.016758
2057.000000	10.005658
2056.000000	9.997025
2055.000000	10.005210
2054.000000	10.024830
2053.000000	10.032118
2052.000000	10.040527
2051.000000	10.074050
2050.000000	10.097146
2049.000000	10.129660
2048.000000	10.174731
2047.000000	10.215317
2046.000000	10.256464
2045.000000	10.319362
2044.000000	10.388538
2043.000000	10.427555
2042.000000	10.483837
2041.000000	10.532272
2040.000000	10.570168
2039.000000	10.625217
2038.000000	10.673539
2037.000000	10.725786
2036.000000	10.776239
2035.000000	10.817386
2034.000000	10.828709
2033.000000	10.876695
2032.000000	10.927260
2031.000000	10.956747
2030.000000	10.958989
2029.000000	10.988588
2028.000000	11.013590
2027.000000	11.016393
2026.000000	11.016842
2025.000000	11.037359
2024.000000	11.075591
2023.000000	11.068752
2022.000000	11.065837
2021.000000	11.079403
2020.000000	11.077721
2019.000000	11.092409
2018.000000	11.088709
2017.000000	11.070097
2016.000000	11.073237
2015.000000	11.074470
2014.000000	11.077497
2013.000000	11.069873
2012.000000	11.045432
2011.000000	11.022223
2010.000000	11.003948
2009.000000	10.995203
2008.000000	10.966725
2007.000000	10.946544
2006.000000	10.914591
2005.000000	10.914591
2004.000000	10.878265
2003.000000	10.816377
2002.000000	10.786105
2001.000000	10.753591
2000.000000	10.734643
1999.000000	10.687218
1998.000000	10.644277
1997.000000	10.595618
1996.000000	10.557610
1995.000000	10.508840
1994.000000	10.466571
1993.000000	10.394368
1992.000000	10.380241
1991.000000	10.336067
1990.000000	10.268909
1989.000000	10.225184
1988.000000	10.174395
1987.000000	10.111161
1986.000000	10.073489
1985.000000	10.000501
1984.000000	9.949712
1983.000000	9.904193
1982.000000	9.873472
1981.000000	9.796672
1980.000000	9.764158
1979.000000	9.703503
1978.000000	9.637578
1977.000000	9.598674
1976.000000	9.566384
1975.000000	9.497208
1974.000000	9.439131
1973.000000	9.391930
1972.000000	9.361770
1971.000000	9.304479
1970.000000	9.279140
1969.000000	9.207610
1968.000000	9.165790
1967.000000	9.137761
1966.000000	9.079123
1965.000000	9.040892
1964.000000	8.995036
1963.000000	8.957589
1962.000000	8.926308
1961.000000	8.893906
1960.000000	8.843790
1959.000000	8.805109
1958.000000	8.748266
1957.000000	8.719676
1956.000000	8.697701
1955.000000	8.661712
1954.000000	8.637495
1953.000000	8.602738
1952.000000	8.543204
1951.000000	8.544437
1950.000000	8.498245
1949.000000	8.485352
1948.000000	8.431087
1947.000000	8.414157
1946.000000	8.389828
1945.000000	8.380634
1944.000000	8.323791
1943.000000	8.325361
1942.000000	8.318522
1941.000000	8.312243
1940.000000	8.316504
1939.000000	8.299238
1938.000000	8.281523
1937.000000	8.295986
1936.000000	8.320091
1935.000000	8.268742
1934.000000	8.301816
1933.000000	8.275132
1932.000000	8.302489
1931.000000	8.351596
1930.000000	8.362023
1929.000000	8.405412
1928.000000	8.421109
1927.000000	8.466068
1926.000000	8.497797
1925.000000	8.542419
1924.000000	8.574933
1923.000000	8.631664
1922.000000	8.707007
1921.000000	8.758693
1920.000000	8.844014
1919.000000	8.891103
1918.000000	9.000529
1917.000000	9.056476
1916.000000	9.133612
1915.000000	9.206600
1914.000000	9.321184
1913.000000	9.440028
1912.000000	9.555845
1911.000000	9.658320
1910.000000	9.765392
1909.000000	9.878406
1908.000000	9.996465
1907.000000	10.149392
1906.000000	10.304674
1905.000000	10.451211
1904.000000	10.622638
1903.000000	10.783190
1902.000000	10.990046
1901.000000	11.146897
1900.000000	11.364965
1899.000000	11.583817
1898.000000	11.808948
1897.000000	12.046300
1896.000000	12.266049
1895.000000	12.507550
1894.000000	12.748825
1893.000000	13.024409
1892.000000	13.321071
1891.000000	13.687133
1890.000000	14.001284
1889.000000	14.353108
1888.000000	14.721300
1887.000000	15.117409
1886.000000	15.540090
1885.000000	15.987774
1884.000000	16.500485
1883.000000	17.070936
1882.000000	17.646769
1881.000000	18.185155
1880.000000	18.757961
1879.000000	19.309689
1878.000000	19.840899
1877.000000	20.408996
1876.000000	20.951194
1875.000000	21.444621
1874.000000	21.954865
1873.000000	22.451207
1872.000000	22.909205
1871.000000	23.347583
1870.000000	23.795378
1869.000000	24.177921
1868.000000	24.537929
1867.000000	24.829097
1866.000000	25.095375
1865.000000	25.326224
1864.000000	25.558082
1863.000000	25.758883
1862.000000	25.953070
1861.000000	26.142772
1860.000000	26.331913
1859.000000	26.484392
1858.000000	26.614224
1857.000000	26.729480
1856.000000	26.832404
1855.000000	26.900347
1854.000000	26.951920
1853.000000	27.008652
1852.000000	27.030290
1851.000000	27.053274
1850.000000	27.097673
1849.000000	27.120320
1848.000000	27.104848
1847.000000	27.081079
1846.000000	27.036008
1845.000000	26.979165
1844.000000	26.978604
1843.000000	26.984210
1842.000000	26.998337
1841.000000	26.993067
1840.000000	26.952481
1839.000000	26.915034
1838.000000	26.900122
1837.000000	26.862675
1836.000000	26.807514
1835.000000	26.753698
1834.000000	26.671179
1833.000000	26.620166
1832.000000	26.575432
1831.000000	26.517355
1830.000000	26.471948
1829.000000	26.397502
1828.000000	26.300184
1827.000000	26.222599
1826.000000	26.124609
1825.000000	26.064402
1824.000000	26.009465
1823.000000	25.970897
1822.000000	25.955424
1821.000000	25.939840
1820.000000	25.878400
1819.000000	25.807991
1818.000000	25.758883
1817.000000	25.724800
1816.000000	25.713140
1815.000000	25.707758
1814.000000	25.690380
1813.000000	25.665714
1812.000000	25.652933
1811.000000	25.627594
1810.000000	25.568509
1809.000000	25.511105
1808.000000	25.477694
1807.000000	25.439462
1806.000000	25.388449
1805.000000	25.327906
1804.000000	25.269493
1803.000000	25.211752
1802.000000	25.162869
1801.000000	25.119032
1800.000000	25.048510
1799.000000	24.967337
1798.000000	24.908924
1797.000000	24.851520
1796.000000	24.794004
1795.000000	24.740188
1794.000000	24.693435
1793.000000	24.628520
1792.000000	24.560016
1791.000000	24.509451
1790.000000	24.446554
1789.000000	24.373902
1788.000000	24.308650
1787.000000	24.258533
1786.000000	24.182182
1785.000000	24.081052
1784.000000	24.001561
1783.000000	23.931600
1782.000000	23.854127
1781.000000	23.773403
1780.000000	23.692343
1779.000000	23.610385
1778.000000	23.507350
1777.000000	23.422589
1776.000000	23.341977
1775.000000	23.248023
1774.000000	23.119761
1773.000000	22.997890
1772.000000	22.890930
1771.000000	22.771862
1770.000000	22.643488
1769.000000	22.523298
1768.000000	22.395597
1767.000000	22.278771
1766.000000	22.172260
1765.000000	22.080548
1764.000000	22.015969
1763.000000	21.973925
1762.000000	21.945560
1761.000000	21.955538
1760.000000	21.997918
1759.000000	22.043550
1758.000000	22.112838
1757.000000	22.202980
1756.000000	22.262290
1755.000000	22.325636
1754.000000	22.377883
1753.000000	22.413760
1752.000000	22.434502
1751.000000	22.421048
1750.000000	22.409163
1749.000000	22.379340
1748.000000	22.326869
1747.000000	22.279668
1746.000000	22.219237
1745.000000	22.126516
1744.000000	22.013951
1743.000000	21.885465
1742.000000	21.710114
1741.000000	21.518169
1740.000000	21.301896
1739.000000	21.090779
1738.000000	20.869236
1737.000000	20.664062
1736.000000	20.496559
1735.000000	20.354171
1734.000000	20.258535
1733.000000	20.203485
1732.000000	20.188238
1731.000000	20.222994
1730.000000	20.288582
1729.000000	20.396887
1728.000000	20.502277
1727.000000	20.626279
1726.000000	20.743889
1725.000000	20.815084
1724.000000	20.904777
1723.000000	20.968796
1722.000000	21.024406
1721.000000	21.080240
1720.000000	21.110848
1719.000000	21.146053
1718.000000	21.212090
1717.000000	21.246174
1716.000000	21.323310
1715.000000	21.404259
1714.000000	21.489916
1713.000000	21.558532
1712.000000	21.638135
1711.000000	21.707535
1710.000000	21.750588
1709.000000	21.777272
1708.000000	21.758997
1707.000000	21.748906
1706.000000	21.720765
1705.000000	21.680627
1704.000000	21.612124
1703.000000	21.557523
1702.000000	21.453702
1701.000000	21.340464
1700.000000	21.209175
1699.000000	21.042233
1698.000000	20.872488
1697.000000	20.737275
1696.000000	20.611703
1695.000000	20.556542
1694.000000	20.529522
1693.000000	20.559681
1692.000000	20.685589
1691.000000	20.846140
1690.000000	21.009382
1689.000000	21.201663
1688.000000	21.339903
1687.000000	21.433297
1686.000000	21.494289
1685.000000	21.573443
1684.000000	21.650804
1683.000000	21.812365
1682.000000	22.040523
1681.000000	22.346041
1680.000000	22.798322
1679.000000	23.317311
1678.000000	23.882381
1677.000000	24.448460
1676.000000	24.975746
1675.000000	25.485094
1674.000000	25.904860
1673.000000	26.305902
1672.000000	26.680597
1671.000000	26.963581
1670.000000	27.193084
1669.000000	27.423933
1668.000000	27.619914
1667.000000	27.801431
1666.000000	27.940456
1665.000000	28.068606
1664.000000	28.171417
1663.000000	28.288804
1662.000000	28.387242
1661.000000	28.468079
1660.000000	28.525034
1659.000000	28.566966
1658.000000	28.625491
1657.000000	28.649260
1656.000000	28.672468
1655.000000	28.681774
1654.000000	28.681886
1653.000000	28.689734
1652.000000	28.660920
1651.000000	28.645672
1650.000000	28.603068
1649.000000	28.561024
1648.000000	28.507095
1647.000000	28.451149
1646.000000	28.397445
1645.000000	28.358204
1644.000000	28.269295
1643.000000	28.196195
1642.000000	28.140585
1641.000000	28.072194
1640.000000	27.993039
1639.000000	27.924423
1638.000000	27.867804
1637.000000	27.782147
1636.000000	27.715325
1635.000000	27.631013
1634.000000	27.531005
1633.000000	27.444226
1632.000000	27.363726
1631.000000	27.273024
1630.000000	27.166961
1629.000000	27.057871
1628.000000	26.987798
1627.000000	26.885884
1626.000000	26.794620
1625.000000	26.702012
1624.000000	26.604806
1623.000000	26.517579
1622.000000	26.400977
1621.000000	26.322608
1620.000000	26.224057
1619.000000	26.120349
1618.000000	26.034691
1617.000000	25.939728
1616.000000	25.871225
1615.000000	25.791173
1614.000000	25.697331
1613.000000	25.606741
1612.000000	25.521532
1611.000000	25.431277
1610.000000	25.340463
1609.000000	25.265568
1608.000000	25.184059
1607.000000	25.084499
1606.000000	25.002766
1605.000000	24.925181
1604.000000	24.830779
1603.000000	24.749942
1602.000000	24.656549
1601.000000	24.568537
1600.000000	24.488373
1599.000000	24.410116
1598.000000	24.299905
1597.000000	24.221759
1596.000000	24.152022
1595.000000	24.077016
1594.000000	23.990798
1593.000000	23.916016
1592.000000	23.837086
1591.000000	23.744701
1590.000000	23.682028
1589.000000	23.627315
1588.000000	23.562960
1587.000000	23.495801
1586.000000	23.428531
1585.000000	23.371464
1584.000000	23.307669
1583.000000	23.250153
1582.000000	23.200597
1581.000000	23.144763
1580.000000	23.095880
1579.000000	23.052939
1578.000000	23.027937
1577.000000	22.978718
1576.000000	22.945643
1575.000000	22.913578
1574.000000	22.887006
1573.000000	22.858865
1572.000000	22.851241
1571.000000	22.837002
1570.000000	22.816933
1569.000000	22.797200
1568.000000	22.800340
1567.000000	22.809757
1566.000000	22.803703
1565.000000	22.781056
1564.000000	22.775898
1563.000000	22.785540
1562.000000	22.775225
1561.000000	22.770292
1560.000000	22.743384
1559.000000	22.732397
1558.000000	22.725445
1557.000000	22.697304
1556.000000	22.658063
1555.000000	22.634070
1554.000000	22.606153
1553.000000	22.579805
1552.000000	22.540228
1551.000000	22.501099
1550.000000	22.460401
1549.000000	22.423851
1548.000000	22.380461
1547.000000	22.320142
1546.000000	22.269353
1545.000000	22.237849
1544.000000	22.212622
1543.000000	22.178314
1542.000000	22.138289
1541.000000	22.112614
1540.000000	22.097590
1539.000000	22.064179
1538.000000	22.039289
1537.000000	22.011148
1536.000000	21.970674
1535.000000	21.929527
1534.000000	21.889949
1533.000000	21.847345
1532.000000	21.806759
1531.000000	21.781196
1530.000000	21.747449
1529.000000	21.695202
1528.000000	21.637462
1527.000000	21.587346
1526.000000	21.542723
1525.000000	21.482180
1524.000000	21.427579
1523.000000	21.372754
1522.000000	21.323646
1521.000000	21.270391
1520.000000	21.213323
1519.000000	21.153229
1518.000000	21.085398
1517.000000	21.005571
1516.000000	20.938076
1515.000000	20.889305
1514.000000	20.832798
1513.000000	20.753644
1512.000000	20.680880
1511.000000	20.638612
1510.000000	20.584235
1509.000000	20.509789
1508.000000	20.451152
1507.000000	20.394421
1506.000000	20.322442
1505.000000	20.257077
1504.000000	20.184762
1503.000000	20.121528
1502.000000	20.065581
1501.000000	19.995284
1500.000000	19.928911
1499.000000	19.874534
1498.000000	19.811636
1497.000000	19.741900
1496.000000	19.686290
1495.000000	19.642228
1494.000000	19.603211
1493.000000	19.541995
1492.000000	19.496588
1491.000000	19.454432
1490.000000	19.422927
1489.000000	19.389067
1488.000000	19.350163
1487.000000	19.323591
1486.000000	19.273026
1485.000000	19.227507
1484.000000	19.186808
1483.000000	19.152501
1482.000000	19.144877
1481.000000	19.125592
1480.000000	19.104402
1479.000000	19.068749
1478.000000	19.037917
1477.000000	19.025920
1476.000000	19.030181
1475.000000	19.011345
1474.000000	18.993407
1473.000000	18.984437
1472.000000	18.986231
1471.000000	19.002488
1470.000000	18.983540
1469.000000	18.975580
1468.000000	18.969413
1467.000000	18.956184
1466.000000	18.969526
1465.000000	18.991613
1464.000000	19.011457
1463.000000	19.024687
1462.000000	19.031078
1461.000000	19.060004
1460.000000	19.103730
1459.000000	19.144204
1458.000000	19.177166
1457.000000	19.223471
1456.000000	19.275829
1455.000000	19.357226
1454.000000	19.428308
1453.000000	19.492103
1452.000000	19.563073
1451.000000	19.637967
1450.000000	19.722616
1449.000000	19.806928
1448.000000	19.875431
1447.000000	19.970058
1446.000000	20.073093
1445.000000	20.172093
1444.000000	20.246314
1443.000000	20.351480
1442.000000	20.469091
1441.000000	20.574481
1440.000000	20.693661
1439.000000	20.791539
1438.000000	20.923725
1437.000000	21.040103
1436.000000	21.162646
1435.000000	21.283733
1434.000000	21.425673
1433.000000	21.573443
1432.000000	21.735340
1431.000000	21.846000
1430.000000	22.000609
1429.000000	22.178314
1428.000000	22.383601
1427.000000	22.542583
1426.000000	22.728248
1425.000000	22.945195
1424.000000	23.163262
1423.000000	23.425056
1422.000000	23.663080
1421.000000	23.881260
1420.000000	24.185882
1419.000000	24.450478
1418.000000	24.725837
1417.000000	24.988303
1416.000000	25.272632
1415.000000	25.608534
1414.000000	25.958339
1413.000000	26.283815
1412.000000	26.575207
1411.000000	26.964702
1410.000000	27.346572
1409.000000	27.829236
1408.000000	28.276471
1407.000000	28.734245
1406.000000	29.213208
1405.000000	29.690939
1404.000000	30.173379
1403.000000	30.690799
1402.000000	31.185122
1401.000000	31.715548
1400.000000	32.284766
1399.000000	32.766757
1398.000000	33.162530
1397.000000	33.564245
1396.000000	34.043097
1395.000000	34.528452
1394.000000	34.954833
1393.000000	35.360136
1392.000000	35.774520
1391.000000	36.222652
1390.000000	36.660805
1389.000000	37.126876
1388.000000	37.715938
1387.000000	38.285044
1386.000000	38.863568
1385.000000	39.496917
1384.000000	40.208636
1383.000000	40.882235
1382.000000	41.541483
1381.000000	42.125949
1380.000000	42.601101
1379.000000	42.934425
1378.000000	43.269991
1377.000000	43.516200
1376.000000	43.789429
1375.000000	44.041580
1374.000000	44.303598
1373.000000	44.656318
1372.000000	45.044915
1371.000000	45.456273
1370.000000	45.860679
1369.000000	46.194339
1368.000000	46.574640
1367.000000	46.905161
1366.000000	47.202159
1365.000000	47.436371
1364.000000	47.700519
1363.000000	47.877327
1362.000000	48.150332
1361.000000	48.316602
1360.000000	48.487468
1359.000000	48.546890
1358.000000	48.693988
1357.000000	48.834694
1356.000000	49.017669
1355.000000	49.317807
1354.000000	49.677926
1353.000000	50.112156
1352.000000	50.494811
1351.000000	51.078044
1350.000000	51.581449
1349.000000	52.049313
1348.000000	52.481861
1347.000000	52.909699
1346.000000	53.315675
1345.000000	53.633078
1344.000000	54.027394
1343.000000	54.404443
1342.000000	54.742252
1341.000000	55.070082
1340.000000	55.415963
1339.000000	55.715091
1338.000000	56.049873
1337.000000	56.375573
1336.000000	56.681540
1335.000000	56.971026
1334.000000	57.262979
1333.000000	57.559080
1332.000000	57.830179
1331.000000	58.102959
1330.000000	58.362286
1329.000000	58.604347
1328.000000	58.848874
1327.000000	59.069856
1326.000000	59.286691
1325.000000	59.510252
1324.000000	59.716435
1323.000000	59.913088
1322.000000	60.113890
1321.000000	60.282626
1320.000000	60.452147
1319.000000	60.634898
1318.000000	60.795113
1317.000000	60.946359
1316.000000	61.113525
1315.000000	61.253784
1314.000000	61.393930
1313.000000	61.528022
1312.000000	61.640699
1311.000000	61.781518
1310.000000	61.893523
1309.000000	62.004407
1308.000000	62.097576
1307.000000	62.179982
1306.000000	62.264294
1305.000000	62.326407
1304.000000	62.397265
1303.000000	62.470814
1302.000000	62.516670
1301.000000	62.542008
1300.000000	62.590667
1299.000000	62.622732
1298.000000	62.659058
1297.000000	62.679800
1296.000000	62.709062
1295.000000	62.713996
1294.000000	62.730813
1293.000000	62.734737
1292.000000	62.742698
1291.000000	62.748416
1290.000000	62.740567
1289.000000	62.730925
1288.000000	62.706708
1287.000000	62.678230
1286.000000	62.635065
1285.000000	62.600085
1284.000000	62.555462
1283.000000	62.504000
1282.000000	62.447830
1281.000000	62.394574
1280.000000	62.328089
1279.000000	62.279206
1278.000000	62.225838
1277.000000	62.165743
1276.000000	62.134799
1275.000000	62.088943
1274.000000	62.052617
1273.000000	62.008667
1272.000000	61.981087
1271.000000	61.950815
1270.000000	61.915722
1269.000000	61.887133
1268.000000	61.859664
1267.000000	61.821656
1266.000000	61.795757
1265.000000	61.769298
1264.000000	61.723554
1263.000000	61.673774
1262.000000	61.623770
1261.000000	61.575447
1260.000000	61.531834
1259.000000	61.475551
1258.000000	61.428686
1257.000000	61.375543
1256.000000	61.316121
1255.000000	61.240442
1254.000000	61.169808
1253.000000	61.100071
1252.000000	61.012396
1251.000000	60.937389
1250.000000	60.868437
1249.000000	60.756657
1248.000000	60.657321
1247.000000	60.559219
1246.000000	60.421315
1245.000000	60.304937
1244.000000	60.207956
1243.000000	60.064446
1242.000000	59.920152
1241.000000	59.797272
1240.000000	59.669570
1239.000000	59.539402
1238.000000	59.396117
1237.000000	59.255522
1236.000000	59.109209
1235.000000	58.960206
1234.000000	58.806381
1233.000000	58.632264
1232.000000	58.472161
1231.000000	58.307012
1230.000000	58.129867
1229.000000	57.958104
1228.000000	57.777932
1227.000000	57.601572
1226.000000	57.415009
1225.000000	57.215329
1224.000000	57.027533
1223.000000	56.842204
1222.000000	56.639496
1221.000000	56.433313
1220.000000	56.239911
1219.000000	56.051666
1218.000000	55.862413
1217.000000	55.673272
1216.000000	55.496127
1215.000000	55.319318
1214.000000	55.153049
1213.000000	55.001130
1212.000000	54.827124
1211.000000	54.675879
1210.000000	54.526763
1209.000000	54.364866
1208.000000	54.218665
1207.000000	54.088385
1206.000000	53.969317
1205.000000	53.861349
1204.000000	53.765376
1203.000000	53.691828
1202.000000	53.632518
1201.000000	53.569508
1200.000000	53.491138
1199.000000	53.412208
1198.000000	53.315675
1197.000000	53.188310
1196.000000	53.035270
1195.000000	52.824490
1194.000000	52.571442
1193.000000	52.264242
1192.000000	51.894143
1191.000000	51.488280
1190.000000	51.049118
1189.000000	50.638881
1188.000000	50.272707
1187.000000	49.986585
1186.000000	49.816727
1185.000000	49.768965
1184.000000	49.832087
1183.000000	50.024704
1182.000000	50.355225
1181.000000	50.780822
1180.000000	51.250031
1179.000000	51.739646
1178.000000	52.237109
1177.000000	52.668536
1176.000000	53.036055
1175.000000	53.386757
1174.000000	53.694294
1173.000000	54.005867
1172.000000	54.312844
1171.000000	54.638880
1170.000000	54.963122
1169.000000	55.279629
1168.000000	55.608356
1167.000000	55.958273
1166.000000	56.286215
1165.000000	56.631984
1164.000000	56.971250
1163.000000	57.355475
1162.000000	57.726695
1161.000000	58.099372
1160.000000	58.464537
1159.000000	58.802009
1158.000000	59.138696
1157.000000	59.479196
1156.000000	59.774848
1155.000000	60.049423
1154.000000	60.272087
1153.000000	60.483988
1152.000000	60.645661
1151.000000	60.761478
1150.000000	60.845005
1149.000000	60.934250
1148.000000	61.020244
1147.000000	61.125634
1146.000000	61.264659
1145.000000	61.448531
1144.000000	61.655723
1143.000000	61.922786
1142.000000	62.238507
1141.000000	62.563198
1140.000000	62.921076
1139.000000	63.289156
1138.000000	63.668223
1137.000000	64.053794
1136.000000	64.451361
1135.000000	64.867651
1134.000000	65.297284
1133.000000	65.657291
1132.000000	65.996445
1131.000000	66.344905
1130.000000	66.630355
1129.000000	66.893269
1128.000000	67.075347
1127.000000	67.262583
1126.000000	67.420219
1125.000000	67.508231
1124.000000	67.593552
1123.000000	67.675846
1122.000000	67.741883
1121.000000	67.794802
1120.000000	67.802202
1119.000000	67.839201
1118.000000	67.833370
1117.000000	67.825859
1116.000000	67.831240
1115.000000	67.812292
1114.000000	67.784824
1113.000000	67.764531
1112.000000	67.764418
1111.000000	67.743116
1110.000000	67.710602
1109.000000	67.688964
1108.000000	67.654095
1107.000000	67.634811
1106.000000	67.617209
1105.000000	67.599046
1104.000000	67.546687
1103.000000	67.538839
1102.000000	67.503298
1101.000000	67.488611
1100.000000	67.425937
1099.000000	67.408559
1098.000000	67.363488
1097.000000	67.317408
1096.000000	67.302833
1095.000000	67.246214
1094.000000	67.196994
1093.000000	67.139590
1092.000000	67.106180
1091.000000	67.040255
1090.000000	66.980384
1089.000000	66.914011
1088.000000	66.865801
1087.000000	66.810303
1086.000000	66.737202
1085.000000	66.630916
1084.000000	66.597168
1083.000000	66.510838
1082.000000	66.436392
1081.000000	66.359256
1080.000000	66.280998
1079.000000	66.216643
1078.000000	66.140628
1077.000000	66.055083
1076.000000	65.972564
1075.000000	65.893298
1074.000000	65.839706
1073.000000	65.751021
1072.000000	65.672427
1071.000000	65.604709
1070.000000	65.493937
1069.000000	65.462544
1068.000000	65.357715
1067.000000	65.273739
1066.000000	65.180346
1065.000000	65.097715
1064.000000	65.022149
1063.000000	64.913843
1062.000000	64.830204
1061.000000	64.757552
1060.000000	64.679407
1059.000000	64.571438
1058.000000	64.471206
1057.000000	64.401357
1056.000000	64.306169
1055.000000	64.195398
1054.000000	64.081823
1053.000000	64.012198
1052.000000	63.912414
1051.000000	63.822945
1050.000000	63.730336
1049.000000	63.646585
1048.000000	63.556443
1047.000000	63.471346
1046.000000	63.365956
1045.000000	63.288707
1044.000000	63.204956
1043.000000	63.126250
1042.000000	63.053037
1041.000000	62.981283
1040.000000	62.860308
1039.000000	62.779808
1038.000000	62.666122
1037.000000	62.588761
1036.000000	62.513643
1035.000000	62.415652
1034.000000	62.307796
1033.000000	62.215075
1032.000000	62.107218
1031.000000	61.996783
1030.000000	61.897223
1029.000000	61.812126
1028.000000	61.685771
1027.000000	61.574102
1026.000000	61.493490
1025.000000	61.361864
1024.000000	61.267238
1023.000000	61.155009
1022.000000	61.041658
1021.000000	60.917321
1020.000000	60.806549
1019.000000	60.693535
1018.000000	60.600254
1017.000000	60.497667
1016.000000	60.373889
1015.000000	60.302919
1014.000000	60.214123
1013.000000	60.114114
1012.000000	60.041911
1011.000000	59.959056
1010.000000	59.865327
1009.000000	59.823283
1008.000000	59.756125
1007.000000	59.703205
1006.000000	59.638850
1005.000000	59.567095
1004.000000	59.506440
1003.000000	59.462266
1002.000000	59.397350
1001.000000	59.340171
1000.000000	59.280300
999.000000	59.203164
998.000000	59.164595
997.000000	59.106855
996.000000	59.039361
995.000000	58.972315
994.000000	58.925001
993.000000	58.885536
992.000000	58.827796
991.000000	58.780482
990.000000	58.748529
989.000000	58.694489
988.000000	58.633049
987.000000	58.587417
986.000000	58.550979
985.000000	58.507029
984.000000	58.474627
983.000000	58.421932
982.000000	58.368004
981.000000	58.313067
980.000000	58.278871
979.000000	58.237388
978.000000	58.220234
977.000000	58.180432
976.000000	58.133343
975.000000	58.084348
974.000000	58.049704
973.000000	58.031653
972.000000	57.991851
971.000000	57.946444
970.000000	57.913818
969.000000	57.886798
968.000000	57.842399
967.000000	57.776138
966.000000	57.738691
965.000000	57.719855
964.000000	57.708307
963.000000	57.678821
962.000000	57.639355
961.000000	57.616484
960.000000	57.617717
959.000000	57.605496
958.000000	57.562107
957.000000	57.519839
956.000000	57.497079
955.000000	57.476113
954.000000	57.446290
953.000000	57.407497
952.000000	57.380477
951.000000	57.345273
950.000000	57.304350
949.000000	57.284841
948.000000	57.249637
947.000000	57.204117
946.000000	57.170706
945.000000	57.148844
944.000000	57.099400
943.000000	57.030560
942.000000	56.999728
941.000000	56.937951
940.000000	56.866981
939.000000	56.811259
938.000000	56.750043
937.000000	56.709233
936.000000	56.661135
935.000000	56.587249
934.000000	56.517064
933.000000	56.457194
932.000000	56.433425
931.000000	56.383084
930.000000	56.293727
929.000000	56.202912
928.000000	56.158065
927.000000	56.100998
926.000000	56.027673
925.000000	55.961188
924.000000	55.877661
923.000000	55.824181
922.000000	55.758144
921.000000	55.667217
920.000000	55.592996
919.000000	55.517765
918.000000	55.432108
917.000000	55.341966
916.000000	55.247675
915.000000	55.162242
914.000000	55.077145
913.000000	54.982519
912.000000	54.890471
911.000000	54.803580
910.000000	54.715232
909.000000	54.646392
908.000000	54.571834
907.000000	54.493913
906.000000	54.414758
905.000000	54.370248
904.000000	54.327419
903.000000	54.273042
902.000000	54.227074
901.000000	54.147247
900.000000	54.104642
899.000000	54.083116
898.000000	54.047126
897.000000	54.009231
896.000000	53.955303
895.000000	53.877381
894.000000	53.832871
893.000000	53.780288
892.000000	53.714812
891.000000	53.607740
890.000000	53.513786
889.000000	53.419832
888.000000	53.368258
887.000000	53.297624
886.000000	53.213761
885.000000	53.095701
884.000000	52.984257
883.000000	52.874607
882.000000	52.754081
881.000000	52.591848
880.000000	52.435669
879.000000	52.299334
878.000000	52.143043
877.000000	51.950763
876.000000	51.774739
875.000000	51.544002
874.000000	51.298578
873.000000	51.035663
872.000000	50.801339
871.000000	50.690904
870.000000	50.666126
869.000000	50.700209
868.000000	50.756380
867.000000	50.771067
866.000000	50.767592
865.000000	50.773198
864.000000	50.778691
863.000000	50.807505
862.000000	50.825108
861.000000	50.852913
860.000000	50.865582
859.000000	50.876682
858.000000	50.870067
857.000000	50.139200
856.000000	51.554500
855.000000	50.916500
854.000000	51.102200
853.000000	51.208500
852.000000	51.041500
851.000000	51.435900
850.000000	51.295000
849.000000	51.563800
848.000000	51.301100
847.000000	51.711100
846.000000	51.608100
845.000000	51.572100
844.000000	51.621500
843.000000	51.741300
842.000000	51.657600
841.000000	51.474900
840.000000	51.773500
839.000000	51.700500
838.000000	51.712000
837.000000	51.624100
836.000000	51.854800
835.000000	51.864300
834.000000	51.847700
833.000000	51.728100
832.000000	51.848000
831.000000	51.868500
830.000000	51.760400
829.000000	51.763300
828.000000	51.659800
827.000000	51.697200
826.000000	51.768000
825.000000	51.571000
824.000000	51.600400
823.000000	51.437000
822.000000	51.431600
821.000000	51.599700
820.000000	51.475300
819.000000	51.318700
818.000000	51.566000
817.000000	51.364200
816.000000	51.153900
815.000000	51.329900
814.000000	51.363300
813.000000	51.238700
812.000000	51.204600
811.000000	51.175000
810.000000	51.171800
809.000000	51.182100
808.000000	51.028300
807.000000	51.088400
806.000000	50.998300
805.000000	50.910900
804.000000	50.877800
803.000000	51.005500
802.000000	50.633300
801.000000	50.628200
800.000000	50.568400
799.000000	50.425200
798.000000	50.570600
797.000000	50.321200
796.000000	50.254200
795.000000	50.004900
794.000000	50.021100
793.000000	49.982000
792.000000	50.004900
791.000000	49.807500
790.000000	49.801800
789.000000	49.675800
788.000000	49.477700
787.000000	49.534000
786.000000	49.425800
785.000000	49.335400
784.000000	49.145800
783.000000	49.125100
782.000000	48.980300
781.000000	48.774400
780.000000	48.665000
779.000000	48.624300
778.000000	48.413600
777.000000	48.238500
776.000000	48.146300
775.000000	48.006500
774.000000	47.827100
773.000000	47.845200
772.000000	47.543300
771.000000	47.512300
770.000000	47.347000
769.000000	47.176100
768.000000	47.056000
767.000000	46.916700
766.000000	46.762700
765.000000	46.658700
764.000000	46.463800
763.000000	46.197100
762.000000	45.996100
761.000000	45.819600
760.000000	45.702700
759.000000	45.539000
758.000000	45.355700
757.000000	45.154500
756.000000	44.920600
755.000000	44.745100
754.000000	44.575300
753.000000	44.389300
752.000000	44.147800
751.000000	43.998300
750.000000	43.769600
749.000000	43.581600
748.000000	43.354100
747.000000	43.159500
746.000000	42.930600
745.000000	42.723200
744.000000	42.518600
743.000000	42.313100
742.000000	42.101600
741.000000	41.857200
740.000000	41.625600
739.000000	41.372400
738.000000	41.171400
737.000000	41.028900
736.000000	40.773800
735.000000	40.546200
734.000000	40.262700
733.000000	40.064000
732.000000	39.801400
731.000000	39.627000
730.000000	39.365800
729.000000	39.150100
728.000000	38.918400
727.000000	38.629900
726.000000	38.348700
725.000000	38.113800
724.000000	37.967300
723.000000	37.685900
722.000000	37.399400
721.000000	37.110800
720.000000	36.920300
719.000000	36.663200
718.000000	36.396000
717.000000	36.185700
716.000000	35.926000
715.000000	35.668800
714.000000	35.379300
713.000000	35.091800
712.000000	34.856400
711.000000	34.615900
710.000000	34.340600
709.000000	34.088200
708.000000	33.849700
707.000000	33.583200
706.000000	33.330300
705.000000	33.067800
704.000000	32.786900
703.000000	32.521500
702.000000	32.264400
701.000000	32.027000
700.000000	31.703500
699.000000	31.454000
698.000000	31.205400
697.000000	30.920600
696.000000	30.662200
695.000000	30.424200
694.000000	30.197100
693.000000	29.932700
692.000000	29.688000
691.000000	29.469000
690.000000	29.213100
689.000000	28.970000
688.000000	28.747000
687.000000	28.491900
686.000000	28.277700
685.000000	28.083700
684.000000	27.812500
683.000000	27.614100
682.000000	27.422200
681.000000	27.182200
680.000000	26.979300
679.000000	26.774200
678.000000	26.551900
677.000000	26.375800
676.000000	26.203500
675.000000	25.988100
674.000000	25.798100
673.000000	25.613700
672.000000	25.417600
671.000000	25.224900
670.000000	25.044800
669.000000	24.870800
668.000000	24.701600
667.000000	24.528300
666.000000	24.348600
665.000000	24.196100
664.000000	24.040800
663.000000	23.884500
662.000000	23.739800
661.000000	23.596500
660.000000	23.452300
659.000000	23.339700
658.000000	23.215900
657.000000	23.097100
656.000000	23.006000
655.000000	22.906300
654.000000	22.821000
653.000000	22.744900
652.000000	22.675000
651.000000	22.633300
650.000000	22.609900
649.000000	22.568900
648.000000	22.542300
647.000000	22.548800
646.000000	22.548800
645.000000	22.550000
644.000000	22.568900
643.000000	22.592800
642.000000	22.600300
641.000000	22.627700
640.000000	22.654400
639.000000	22.675300
638.000000	22.706700
637.000000	22.746900
636.000000	22.795800
635.000000	22.818300
634.000000	22.833900
633.000000	22.866700
632.000000	22.910100
631.000000	22.945400
630.000000	22.980300
629.000000	23.030900
628.000000	23.075200
627.000000	23.120200
626.000000	23.145800
625.000000	23.193400
624.000000	23.271000
623.000000	23.329700
622.000000	23.389500
621.000000	23.471800
620.000000	23.548200
619.000000	23.637100
618.000000	23.718900
617.000000	23.828400
616.000000	23.952700
615.000000	24.036100
614.000000	24.146200
613.000000	24.262500
612.000000	24.384900
611.000000	24.488400
610.000000	24.587800
609.000000	24.715100
608.000000	24.820800
607.000000	24.935700
606.000000	25.039200
605.000000	25.124200
604.000000	25.229100
603.000000	25.315800
602.000000	25.391600
601.000000	25.480400
600.000000	25.573800
599.000000	25.636800
598.000000	25.694600
597.000000	25.777800
596.000000	25.859700
595.000000	25.950000
594.000000	26.030500
593.000000	26.092600
592.000000	26.164300
591.000000	26.248500
590.000000	26.321500
589.000000	26.382800
588.000000	26.458900
587.000000	26.538800
586.000000	26.596600
585.000000	26.678700
584.000000	26.738300
583.000000	26.826100
582.000000	26.904600
581.000000	26.976100
580.000000	27.018400
579.000000	27.077500
578.000000	27.143000
577.000000	27.188300
576.000000	27.229700
575.000000	27.290400
574.000000	27.343100
573.000000	27.361800
572.000000	27.385800
571.000000	27.422300
570.000000	27.443600
569.000000	27.466700
568.000000	27.484500
567.000000	27.497200
566.000000	27.469600
565.000000	27.484800
564.000000	27.483400
563.000000	27.488300
562.000000	27.470100
561.000000	27.448900
560.000000	27.404600
559.000000	27.400600
558.000000	27.380800
557.000000	27.344800
556.000000	27.299900
555.000000	27.246200
554.000000	27.219200
553.000000	27.150900
552.000000	27.084700
551.000000	26.990500
550.000000	26.915900
549.000000	26.832400
548.000000	26.748900
547.000000	26.652900
546.000000	26.542400
545.000000	26.438100
544.000000	26.334700
543.000000	26.186900
542.000000	26.058900
541.000000	25.907600
540.000000	25.755200
539.000000	25.581200
538.000000	25.414100
537.000000	25.261400
536.000000	25.063000
535.000000	24.864900
534.000000	24.664100
533.000000	24.430200
532.000000	24.217600
531.000000	23.986300
530.000000	23.736700
529.000000	23.481600
528.000000	23.234200
527.000000	22.961700
526.000000	22.692600
525.000000	22.416700
524.000000	22.114500
523.000000	21.796000
522.000000	21.515800
521.000000	21.212300
520.000000	20.888400
519.000000	20.584100
518.000000	20.238500
517.000000	19.936900
516.000000	19.613700
515.000000	19.279000
514.000000	18.967200
513.000000	18.628200
512.000000	18.300600
511.000000	17.985800
510.000000	17.659100
509.000000	17.337900
508.000000	17.034600
507.000000	16.749700
506.000000	16.433300
505.000000	16.140000
504.000000	15.833600
503.000000	15.541600
502.000000	15.249400
501.000000	14.969900
500.000000	14.714100
499.000000	14.457400
498.000000	14.174100
497.000000	13.908000
496.000000	13.714700
495.000000	13.459400
494.000000	13.249300
493.000000	13.021100
492.000000	12.808800
491.000000	12.593700
490.000000	12.416900
489.000000	12.222300
488.000000	12.045300
487.000000	11.875500
486.000000	11.711300
485.000000	11.541100
484.000000	11.387400
483.000000	11.248500
482.000000	11.109500
481.000000	10.977900
480.000000	10.814100
479.000000	10.675600
478.000000	10.566400
477.000000	10.439000
476.000000	10.351000
475.000000	10.231800
474.000000	10.111900
473.000000	10.019300
472.000000	9.925200
471.000000	9.849900
470.000000	9.757200
469.000000	9.696100
468.000000	9.625400
467.000000	9.542800
466.000000	9.470700
465.000000	9.416800
464.000000	9.359400
463.000000	9.292800
462.000000	9.249000
461.000000	9.176800
460.000000	9.142800
459.000000	9.095400
458.000000	9.024800
457.000000	9.001600
456.000000	8.940500
455.000000	8.894800
454.000000	8.828600
453.000000	8.782200
452.000000	8.736700
451.000000	8.711400
450.000000	8.645100
449.000000	8.597500
448.000000	8.546100
447.000000	8.495300
446.000000	8.441900
445.000000	8.391300
444.000000	8.330500
443.000000	8.285600
442.000000	8.211200
441.000000	8.127700
440.000000	8.084900
439.000000	8.019300
438.000000	7.947000
437.000000	7.874500
436.000000	7.809900
435.000000	7.754800
434.000000	7.666800
433.000000	7.597900
432.000000	7.543100
431.000000	7.482500
430.000000	7.418500
429.000000	7.356300
428.000000	7.286100
427.000000	7.214800
426.000000	7.161800
425.000000	7.104200
424.000000	7.034500
423.000000	6.984100
422.000000	6.927400
421.000000	6.869600
420.000000	6.808000
419.000000	6.734800
418.000000	6.676300
417.000000	6.603000
416.000000	6.547900
415.000000	6.493800
414.000000	6.420400
413.000000	6.370700
412.000000	6.309700
411.000000	6.236000
410.000000	6.176400
409.000000	6.133000
408.000000	6.071000
407.000000	6.001500
406.000000	5.938800
405.000000	5.877000
404.000000	5.814900
403.000000	5.752700
402.000000	5.699100
401.000000	5.636100
400.000000	5.580100
399.000000	5.527700
398.000000	5.468400
397.000000	5.408600
396.000000	5.361500
395.000000	5.315700
394.000000	5.253800
393.000000	5.194400
392.000000	5.146900
391.000000	5.083400
390.000000	5.032200
389.000000	4.983400
388.000000	4.944500
387.000000	4.914800
386.000000	4.861500
385.000000	4.814800
384.000000	4.774700
383.000000	4.734700
382.000000	4.708100
381.000000	4.668100
380.000000	4.632200
379.000000	4.608700
378.000000	4.561400
377.000000	4.527000
376.000000	4.490100
375.000000	4.416900
374.000000	4.417500
373.000000	4.373900
372.000000	4.350600
371.000000	4.348900
370.000000	4.360600
369.000000	4.285500
368.000000	4.202900
367.000000	4.228500
366.000000	4.265100
365.000000	4.206100
364.000000	4.277700
363.000000	4.292500
362.000000	4.183800
361.000000	4.109100
360.000000	4.147300
359.000000	4.181100
358.000000	4.126700
357.000000	4.133800
356.000000	4.184400
355.000000	4.142300
354.000000	4.128900
353.000000	4.123400
352.000000	4.148800
351.000000	4.165700
350.000000	4.120700
349.000000	4.125500
348.000000	4.108100
347.000000	4.121500
346.000000	4.071700
345.000000	4.073900
344.000000	4.042000
343.000000	4.026200
342.000000	4.058000
341.000000	4.011600
340.000000	4.008400
339.000000	4.044800
338.000000	4.018600
337.000000	4.018800
336.000000	4.097400
335.000000	4.100500
334.000000	4.043600
333.000000	3.998900
332.000000	4.102300
331.000000	4.135900
330.000000	4.095900
329.000000	4.092800
328.000000	3.983600
327.000000	3.964200
326.000000	4.140700
325.000000	4.167500
324.000000	4.039900
323.000000	4.075700
322.000000	4.221800
321.000000	4.260500
320.000000	4.041400
319.000000	3.979300
318.000000	4.097700
317.000000	4.014100
316.000000	4.015700
315.000000	4.092600
314.000000	4.076000
313.000000	4.062900
312.000000	4.061900
311.000000	4.068000
310.000000	4.071400
309.000000	4.070300
308.000000	4.089200
307.000000	4.112600
306.000000	4.096400
305.000000	4.057700
304.000000	4.051000
303.000000	4.054000
302.000000	4.055700
301.000000	4.079000
300.000000	4.088300
299.000000	4.081600
298.000000	4.063900
297.000000	4.074000
296.000000	4.104600
295.000000	4.098200
294.000000	4.085200
293.000000	4.086700
292.000000	4.104400
291.000000	4.108500
290.000000	4.102400
289.000000	4.111000
288.000000	4.112400
287.000000	4.129600
286.000000	4.102400
285.000000	4.122200
284.000000	4.137900
283.000000	4.124900
282.000000	4.153200
281.000000	4.144500
280.000000	4.145600
279.000000	4.156700
278.000000	4.179900
277.000000	4.225100
276.000000	4.224300
275.000000	4.218700
274.000000	4.227200
273.000000	4.244300
272.000000	4.252600
271.000000	4.260900
270.000000	4.267400
269.000000	4.294500
268.000000	4.321900
267.000000	4.314600
266.000000	4.348200
265.000000	4.366300
264.000000	4.382000
263.000000	4.400300
262.000000	4.435100
261.000000	4.434500
260.000000	4.450600
259.000000	4.466100
258.000000	4.487700
257.000000	4.512800
256.000000	4.552900
255.000000	4.553200
254.000000	4.519600
253.000000	4.539000
252.000000	4.604000
251.000000	4.570000
250.000000	4.586200
