PE UV       SUBTECH     SPECTRUM    ASCII       PEDS        4.00        
   -1
CICIMAUCR0001-2.Sample.ASC
24/04/11
16:12:16.00
24/04/11
16:12:16.00
Vinicio Soto Monge
C. kalinini
250,000000
1
Lambda 1050
1050L1511233
PerkinElmer UV WinLab 6.3.2.0749 / 2.02.05 Lambda 900 UV/VIS/NIR, Aug  7 2015 09:38:08

0
0
3350/2 860,8/2
0
0
UV/VIS
1
1
1
DoubleDePol,CommonBeamDepol,RBeamAtt,SBeamAtt,60mm sphere, WB InGaAs Detector
0
0
0
0
Program
Program
3350/2 860,8/2
3350/0,2 860,8/0,2
3350/0,2 860,8/0,2
0
15.00
 
 
 
0
 
860,8
319,2
860,8
Front
100
on
S:100 R:100
0
0
0
0
 
0
 
 
 
0
 
 
0
0
0
0
0
 
 
 
 
0
0


0
0
#HDR
-1
-1
#GR
nm
%R
1.0
0.0
2400,000000
-1,000000
2151
8
66,817200
3,930300
#DATA
2382.000000	19.051783
2381.000000	18.284897
2380.000000	17.314697
2379.000000	18.103346
2378.000000	18.121677
2377.000000	18.222256
2376.000000	19.151382
2375.000000	18.671036
2374.000000	17.692111
2373.000000	17.779946
2372.000000	17.695738
2371.000000	18.548303
2370.000000	17.757987
2369.000000	17.991984
2368.000000	18.126285
2367.000000	18.333324
2366.000000	18.784947
2365.000000	18.915032
2364.000000	18.145303
2363.000000	17.989043
2362.000000	17.110207
2361.000000	17.843861
2360.000000	17.516834
2359.000000	18.653979
2358.000000	18.259899
2357.000000	18.204022
2356.000000	18.121285
2355.000000	17.916207
2354.000000	18.178731
2353.000000	17.987181
2352.000000	17.422725
2351.000000	18.155498
2350.000000	18.089132
2349.000000	18.141283
2348.000000	17.916501
2347.000000	17.258036
2346.000000	17.765143
2345.000000	17.939930
2344.000000	17.901405
2343.000000	18.233921
2342.000000	18.275780
2341.000000	17.933852
2340.000000	17.641038
2339.000000	17.769947
2338.000000	17.737009
2337.000000	17.558889
2336.000000	17.465074
2335.000000	17.617216
2334.000000	17.631725
2333.000000	17.562320
2332.000000	17.200688
2331.000000	17.185199
2330.000000	17.478308
2329.000000	17.932774
2328.000000	17.408217
2327.000000	17.542420
2326.000000	17.537812
2325.000000	17.171671
2324.000000	17.198531
2323.000000	17.709266
2322.000000	17.524872
2321.000000	17.344596
2320.000000	17.419098
2319.000000	17.700150
2318.000000	17.861016
2317.000000	17.565457
2316.000000	17.192061
2315.000000	17.302443
2314.000000	17.336655
2313.000000	17.091091
2312.000000	16.960907
2311.000000	16.929146
2310.000000	16.698384
2309.000000	17.165397
2308.000000	17.100600
2307.000000	16.886111
2306.000000	16.814255
2305.000000	16.586630
2304.000000	16.568788
2303.000000	17.057565
2302.000000	17.135694
2301.000000	16.829352
2300.000000	16.722401
2299.000000	16.799747
2298.000000	16.873857
2297.000000	17.059035
2296.000000	17.143635
2295.000000	16.858074
2294.000000	16.836508
2293.000000	17.042958
2292.000000	17.079425
2291.000000	16.786905
2290.000000	16.630939
2289.000000	16.819352
2288.000000	16.841801
2287.000000	16.928852
2286.000000	16.982866
2285.000000	16.823078
2284.000000	16.564867
2283.000000	16.800629
2282.000000	16.824744
2281.000000	16.937184
2280.000000	17.186180
2279.000000	17.028842
2278.000000	17.161084
2277.000000	17.200100
2276.000000	17.068936
2275.000000	17.003060
2274.000000	16.728577
2273.000000	17.035508
2272.000000	17.274799
2271.000000	16.968456
2270.000000	16.996884
2269.000000	17.079131
2268.000000	17.247840
2267.000000	17.387141
2266.000000	17.380377
2265.000000	17.541145
2264.000000	17.526441
2263.000000	17.304306
2262.000000	17.166476
2261.000000	17.299404
2260.000000	17.727108
2259.000000	17.869251
2258.000000	17.963359
2257.000000	18.011590
2256.000000	18.257841
2255.000000	18.456351
2254.000000	18.385279
2253.000000	18.432138
2252.000000	18.822688
2251.000000	18.835236
2250.000000	18.969733
2249.000000	18.958459
2248.000000	19.037079
2247.000000	19.288427
2246.000000	19.119816
2245.000000	19.201769
2244.000000	19.433805
2243.000000	19.271468
2242.000000	19.262155
2241.000000	19.151284
2240.000000	19.337638
2239.000000	19.612023
2238.000000	19.870724
2237.000000	19.724071
2236.000000	19.404200
2235.000000	19.538795
2234.000000	19.694760
2233.000000	19.747893
2232.000000	19.687016
2231.000000	19.920229
2230.000000	20.064921
2229.000000	19.874547
2228.000000	19.843275
2227.000000	19.693780
2226.000000	19.677801
2225.000000	19.384692
2224.000000	19.200298
2223.000000	19.216571
2222.000000	19.232354
2221.000000	19.346363
2220.000000	19.180693
2219.000000	18.994142
2218.000000	19.140010
2217.000000	19.069723
2216.000000	18.772987
2215.000000	18.916306
2214.000000	18.627413
2213.000000	18.844647
2212.000000	18.782692
2211.000000	18.432432
2210.000000	18.334794
2209.000000	18.530461
2208.000000	18.353616
2207.000000	18.122756
2206.000000	18.053155
2205.000000	18.485662
2204.000000	18.528011
2203.000000	18.478015
2202.000000	18.324795
2201.000000	18.005512
2200.000000	18.178535
2199.000000	18.111090
2198.000000	18.138833
2197.000000	18.168928
2196.000000	18.043842
2195.000000	18.460272
2194.000000	18.297543
2193.000000	18.178437
2192.000000	17.987671
2191.000000	18.033157
2190.000000	18.219119
2189.000000	17.908561
2188.000000	17.807590
2187.000000	17.994141
2186.000000	17.972868
2185.000000	17.696719
2184.000000	17.879544
2183.000000	17.946204
2182.000000	18.008061
2181.000000	17.970123
2180.000000	17.541734
2179.000000	17.862487
2178.000000	17.865134
2177.000000	17.915521
2176.000000	17.636626
2175.000000	17.976593
2174.000000	17.756419
2173.000000	17.639175
2172.000000	17.713482
2171.000000	18.082760
2170.000000	18.077074
2169.000000	17.964242
2168.000000	17.949439
2167.000000	17.623588
2166.000000	17.726618
2165.000000	17.764555
2164.000000	18.121579
2163.000000	18.238137
2162.000000	18.152263
2161.000000	17.911208
2160.000000	18.198435
2159.000000	18.430373
2158.000000	18.278917
2157.000000	18.545852
2156.000000	18.396259
2155.000000	19.026100
2154.000000	18.659076
2153.000000	19.032668
2152.000000	18.552126
2151.000000	18.664762
2150.000000	18.739657
2149.000000	19.712994
2148.000000	19.356656
2147.000000	19.644079
2146.000000	19.331952
2145.000000	19.533109
2144.000000	19.590653
2143.000000	19.558793
2142.000000	19.999535
2141.000000	19.676723
2140.000000	20.128836
2139.000000	19.419885
2138.000000	20.042374
2137.000000	20.190007
2136.000000	20.163637
2135.000000	20.250589
2134.000000	20.149716
2133.000000	20.247256
2132.000000	20.008161
2131.000000	20.313132
2130.000000	20.037178
2129.000000	20.553305
2128.000000	20.449785
2127.000000	20.484194
2126.000000	20.501349
2125.000000	20.731915
2124.000000	20.751129
2123.000000	20.449197
2122.000000	20.491350
2121.000000	20.595360
2120.000000	20.523798
2119.000000	20.712113
2118.000000	20.774950
2117.000000	20.584478
2116.000000	20.934640
2115.000000	20.724563
2114.000000	20.603398
2113.000000	20.538404
2112.000000	20.706819
2111.000000	20.895723
2110.000000	20.662804
2109.000000	20.905330
2108.000000	20.690350
2107.000000	20.336463
2106.000000	20.787792
2105.000000	21.019338
2104.000000	20.900820
2103.000000	20.813378
2102.000000	20.688782
2101.000000	20.833866
2100.000000	20.789851
2099.000000	20.913172
2098.000000	20.725053
2097.000000	20.744757
2096.000000	20.390772
2095.000000	20.726523
2094.000000	20.532326
2093.000000	20.640453
2092.000000	20.838081
2091.000000	20.806123
2090.000000	20.662412
2089.000000	20.637512
2088.000000	20.746423
2087.000000	20.914642
2086.000000	20.704957
2085.000000	20.853276
2084.000000	20.708584
2083.000000	20.590164
2082.000000	20.475665
2081.000000	20.520269
2080.000000	20.614867
2079.000000	20.527523
2078.000000	20.555461
2077.000000	20.506152
2076.000000	20.453609
2075.000000	20.447531
2074.000000	20.364107
2073.000000	20.413907
2072.000000	20.327150
2071.000000	20.195104
2070.000000	20.142266
2069.000000	19.987869
2068.000000	19.685840
2067.000000	19.768871
2066.000000	19.788281
2065.000000	19.614964
2064.000000	19.411651
2063.000000	19.425571
2062.000000	19.310190
2061.000000	19.320581
2060.000000	19.334403
2059.000000	19.187163
2058.000000	19.051980
2057.000000	18.982967
2056.000000	18.958067
2055.000000	18.837785
2054.000000	19.055901
2053.000000	18.993260
2052.000000	18.768085
2051.000000	18.851019
2050.000000	19.122169
2049.000000	19.119718
2048.000000	19.090505
2047.000000	19.215983
2046.000000	19.270978
2045.000000	19.318130
2044.000000	19.511445
2043.000000	19.782497
2042.000000	19.815729
2041.000000	19.855823
2040.000000	20.053549
2039.000000	19.987673
2038.000000	20.095114
2037.000000	20.160598
2036.000000	20.320288
2035.000000	20.379106
2034.000000	20.464686
2033.000000	20.527229
2032.000000	20.666529
2031.000000	20.833964
2030.000000	20.763481
2029.000000	20.819554
2028.000000	20.946894
2027.000000	20.990027
2026.000000	20.973068
2025.000000	20.871607
2024.000000	20.929151
2023.000000	21.051002
2022.000000	21.134425
2021.000000	21.121191
2020.000000	21.085312
2019.000000	21.091978
2018.000000	21.201771
2017.000000	21.206281
2016.000000	21.189812
2015.000000	21.180009
2014.000000	21.167853
2013.000000	21.282744
2012.000000	21.255492
2011.000000	21.111094
2010.000000	21.047571
2009.000000	21.111486
2008.000000	21.129229
2007.000000	21.119917
2006.000000	21.079626
2005.000000	20.976205
2004.000000	20.909153
2003.000000	20.959148
2002.000000	20.945130
2001.000000	20.802790
2000.000000	20.702996
1999.000000	20.704761
1998.000000	20.668882
1997.000000	20.593791
1996.000000	20.434101
1995.000000	20.393712
1994.000000	20.458314
1993.000000	20.357932
1992.000000	20.236571
1991.000000	20.165401
1990.000000	20.090997
1989.000000	19.998653
1988.000000	19.827003
1987.000000	19.764264
1986.000000	19.746814
1985.000000	19.594476
1984.000000	19.494682
1983.000000	19.456058
1982.000000	19.385281
1981.000000	19.259116
1980.000000	19.197260
1979.000000	19.145402
1978.000000	19.084918
1977.000000	18.981202
1976.000000	18.888662
1975.000000	18.831903
1974.000000	18.715640
1973.000000	18.631334
1972.000000	18.585358
1971.000000	18.528109
1970.000000	18.441254
1969.000000	18.364399
1968.000000	18.227550
1967.000000	18.144812
1966.000000	18.098640
1965.000000	18.011394
1964.000000	17.933362
1963.000000	17.864938
1962.000000	17.789259
1961.000000	17.819354
1960.000000	17.697013
1959.000000	17.526049
1958.000000	17.471250
1957.000000	17.419490
1956.000000	17.429097
1955.000000	17.382435
1954.000000	17.284504
1953.000000	17.184121
1952.000000	17.117461
1951.000000	17.010903
1950.000000	16.988650
1949.000000	16.866505
1948.000000	16.789944
1947.000000	16.807981
1946.000000	16.757594
1945.000000	16.669955
1944.000000	16.568396
1943.000000	16.541242
1942.000000	16.565652
1941.000000	16.578493
1940.000000	16.527910
1939.000000	16.527812
1938.000000	16.555358
1937.000000	16.523205
1936.000000	16.491639
1935.000000	16.483895
1934.000000	16.489286
1933.000000	16.565848
1932.000000	16.558593
1931.000000	16.608589
1930.000000	16.663779
1929.000000	16.777984
1928.000000	16.872779
1927.000000	16.994139
1926.000000	17.040998
1925.000000	17.085895
1924.000000	17.183435
1923.000000	17.392924
1922.000000	17.339302
1921.000000	17.546831
1920.000000	17.827392
1919.000000	17.906502
1918.000000	17.941597
1917.000000	18.145989
1916.000000	18.421942
1915.000000	18.599866
1914.000000	18.924933
1913.000000	19.177163
1912.000000	19.294897
1911.000000	19.642805
1910.000000	19.853373
1909.000000	20.128248
1908.000000	20.348227
1907.000000	20.690350
1906.000000	21.226671
1905.000000	21.653885
1904.000000	21.828672
1903.000000	22.203047
1902.000000	22.607028
1901.000000	23.019733
1900.000000	23.424399
1899.000000	24.197462
1898.000000	24.463613
1897.000000	24.845831
1896.000000	25.246772
1895.000000	25.709178
1894.000000	26.168644
1893.000000	26.767017
1892.000000	27.102475
1891.000000	27.620758
1890.000000	28.160706
1889.000000	28.569392
1888.000000	28.880930
1887.000000	29.340886
1886.000000	29.772412
1885.000000	30.213350
1884.000000	30.639289
1883.000000	30.921419
1882.000000	31.248152
1881.000000	31.595079
1880.000000	31.940928
1879.000000	32.130812
1878.000000	32.423136
1877.000000	32.796630
1876.000000	33.113952
1875.000000	33.110325
1874.000000	33.465388
1873.000000	33.807414
1872.000000	33.865644
1871.000000	34.048959
1870.000000	34.340794
1869.000000	34.476173
1868.000000	34.510091
1867.000000	34.580869
1866.000000	34.477251
1865.000000	34.514601
1864.000000	34.738108
1863.000000	34.852705
1862.000000	34.743990
1861.000000	35.028963
1860.000000	35.238942
1859.000000	35.276782
1858.000000	35.131796
1857.000000	35.161303
1856.000000	35.322267
1855.000000	35.263940
1854.000000	35.337560
1853.000000	35.445491
1852.000000	35.339227
1851.000000	35.277076
1850.000000	35.439315
1849.000000	35.460587
1848.000000	35.663901
1847.000000	35.740168
1846.000000	35.455588
1845.000000	35.254823
1844.000000	35.309131
1843.000000	35.399809
1842.000000	35.563127
1841.000000	35.556461
1840.000000	35.418239
1839.000000	35.382948
1838.000000	35.340109
1837.000000	35.482840
1836.000000	35.462058
1835.000000	35.251000
1834.000000	35.190417
1833.000000	35.123267
1832.000000	35.152186
1831.000000	35.168067
1830.000000	35.110131
1829.000000	35.037099
1828.000000	35.014552
1827.000000	34.967498
1826.000000	35.007004
1825.000000	34.934266
1824.000000	34.865155
1823.000000	34.973870
1822.000000	35.025531
1821.000000	35.122875
1820.000000	35.172380
1819.000000	34.987300
1818.000000	34.878193
1817.000000	34.927404
1816.000000	34.973968
1815.000000	35.025630
1814.000000	34.892897
1813.000000	34.853587
1812.000000	34.887310
1811.000000	34.874076
1810.000000	34.862998
1809.000000	34.787221
1808.000000	34.766243
1807.000000	34.804278
1806.000000	34.725757
1805.000000	34.705660
1804.000000	34.675957
1803.000000	34.706543
1802.000000	34.653803
1801.000000	34.648901
1800.000000	34.631550
1799.000000	34.627335
1798.000000	34.591358
1797.000000	34.577732
1796.000000	34.572438
1795.000000	34.541265
1794.000000	34.508523
1793.000000	34.516267
1792.000000	34.492642
1791.000000	34.468821
1790.000000	34.478232
1789.000000	34.508523
1788.000000	34.518816
1787.000000	34.524011
1786.000000	34.554597
1785.000000	34.563910
1784.000000	34.542931
1783.000000	34.533912
1782.000000	34.528521
1781.000000	34.499896
1780.000000	34.537147
1779.000000	34.567243
1778.000000	34.506562
1777.000000	34.479506
1776.000000	34.477839
1775.000000	34.432942
1774.000000	34.389221
1773.000000	34.355792
1772.000000	34.347068
1771.000000	34.310503
1770.000000	34.278937
1769.000000	34.301974
1768.000000	34.275506
1767.000000	34.230804
1766.000000	34.210218
1765.000000	34.180711
1764.000000	34.166791
1763.000000	34.150126
1762.000000	34.133559
1761.000000	34.111208
1760.000000	34.109052
1759.000000	34.120423
1758.000000	34.133461
1757.000000	34.154733
1756.000000	34.156596
1755.000000	34.149048
1754.000000	34.136402
1753.000000	34.159537
1752.000000	34.160909
1751.000000	34.143166
1750.000000	34.117776
1749.000000	34.099347
1748.000000	34.063076
1747.000000	34.027393
1746.000000	33.996808
1745.000000	33.957596
1744.000000	33.927599
1743.000000	33.895543
1742.000000	33.808100
1741.000000	33.737421
1740.000000	33.711933
1739.000000	33.649194
1738.000000	33.606355
1737.000000	33.567143
1736.000000	33.506169
1735.000000	33.474211
1734.000000	33.452939
1733.000000	33.422647
1732.000000	33.393042
1731.000000	33.358634
1730.000000	33.300600
1729.000000	33.274230
1728.000000	33.268055
1727.000000	33.250017
1726.000000	33.213256
1725.000000	33.189435
1724.000000	33.191983
1723.000000	33.198257
1722.000000	33.241685
1721.000000	33.335205
1720.000000	33.456076
1719.000000	33.584200
1718.000000	33.716737
1717.000000	33.860448
1716.000000	34.037392
1715.000000	34.193945
1714.000000	34.354910
1713.000000	34.532638
1712.000000	34.643412
1711.000000	34.733109
1710.000000	34.848980
1709.000000	34.916817
1708.000000	34.998475
1707.000000	35.069547
1706.000000	35.141109
1705.000000	35.186202
1704.000000	35.205808
1703.000000	35.215219
1702.000000	35.241491
1701.000000	35.247863
1700.000000	35.292957
1699.000000	35.294819
1698.000000	35.245314
1697.000000	35.258254
1696.000000	35.249627
1695.000000	35.188359
1694.000000	35.153656
1693.000000	35.131502
1692.000000	35.076997
1691.000000	35.040432
1690.000000	34.995142
1689.000000	34.968184
1688.000000	34.961518
1687.000000	35.028865
1686.000000	35.088565
1685.000000	35.191790
1684.000000	35.334815
1683.000000	35.488134
1682.000000	35.639100
1681.000000	35.812906
1680.000000	35.980635
1679.000000	36.124053
1678.000000	36.290605
1677.000000	36.452354
1676.000000	36.583028
1675.000000	36.671353
1674.000000	36.806634
1673.000000	36.920740
1672.000000	37.022201
1671.000000	37.153659
1670.000000	37.298351
1669.000000	37.451669
1668.000000	37.576069
1667.000000	37.688705
1666.000000	37.814869
1665.000000	37.904959
1664.000000	37.992205
1663.000000	38.041220
1662.000000	38.156209
1661.000000	38.226202
1660.000000	38.282667
1659.000000	38.375992
1658.000000	38.456670
1657.000000	38.488432
1656.000000	38.542250
1655.000000	38.596951
1654.000000	38.664787
1653.000000	38.674688
1652.000000	38.685667
1651.000000	38.671159
1650.000000	38.702136
1649.000000	38.720664
1648.000000	38.722429
1647.000000	38.681550
1646.000000	38.665277
1645.000000	38.662630
1644.000000	38.677923
1643.000000	38.655670
1642.000000	38.648122
1641.000000	38.632535
1640.000000	38.637143
1639.000000	38.662728
1638.000000	38.632045
1637.000000	38.645279
1636.000000	38.613125
1635.000000	38.642730
1634.000000	38.609204
1633.000000	38.588422
1632.000000	38.558425
1631.000000	38.529016
1630.000000	38.456180
1629.000000	38.451670
1628.000000	38.416380
1627.000000	38.361483
1626.000000	38.373051
1625.000000	38.352758
1624.000000	38.307861
1623.000000	38.289039
1622.000000	38.271688
1621.000000	38.201303
1620.000000	38.206596
1619.000000	38.159444
1618.000000	38.132094
1617.000000	38.138073
1616.000000	38.099450
1615.000000	38.034554
1614.000000	38.037299
1613.000000	38.018085
1612.000000	37.950935
1611.000000	37.973481
1610.000000	37.919761
1609.000000	37.887902
1608.000000	37.824672
1607.000000	37.774089
1606.000000	37.741151
1605.000000	37.685666
1604.000000	37.659590
1603.000000	37.552346
1602.000000	37.522741
1601.000000	37.463041
1600.000000	37.415398
1599.000000	37.371873
1598.000000	37.281980
1597.000000	37.251885
1596.000000	37.206007
1595.000000	37.185224
1594.000000	37.149248
1593.000000	37.103566
1592.000000	37.090822
1591.000000	37.069843
1590.000000	37.032102
1589.000000	36.986420
1588.000000	36.968089
1587.000000	36.926622
1586.000000	36.914172
1585.000000	36.856825
1584.000000	36.841238
1583.000000	36.770461
1582.000000	36.754678
1581.000000	36.764579
1580.000000	36.716446
1579.000000	36.710270
1578.000000	36.710270
1577.000000	36.671647
1576.000000	36.660569
1575.000000	36.688214
1574.000000	36.692233
1573.000000	36.670666
1572.000000	36.662628
1571.000000	36.682136
1570.000000	36.676744
1569.000000	36.673803
1568.000000	36.691841
1567.000000	36.711349
1566.000000	36.725465
1565.000000	36.760168
1564.000000	36.794772
1563.000000	36.779675
1562.000000	36.772421
1561.000000	36.758795
1560.000000	36.763697
1559.000000	36.750659
1558.000000	36.728112
1557.000000	36.682136
1556.000000	36.677136
1555.000000	36.631847
1554.000000	36.592341
1553.000000	36.555579
1552.000000	36.505878
1551.000000	36.436571
1550.000000	36.397360
1549.000000	36.347266
1548.000000	36.283155
1547.000000	36.228846
1546.000000	36.153854
1545.000000	36.099643
1544.000000	36.061902
1543.000000	36.027003
1542.000000	36.023964
1541.000000	35.970734
1540.000000	35.927601
1539.000000	35.909564
1538.000000	35.882409
1537.000000	35.873293
1536.000000	35.888291
1535.000000	35.834767
1534.000000	35.799476
1533.000000	35.766734
1532.000000	35.738894
1531.000000	35.700956
1530.000000	35.678017
1529.000000	35.599398
1528.000000	35.572635
1527.000000	35.548226
1526.000000	35.493427
1525.000000	35.452549
1524.000000	35.409906
1523.000000	35.362656
1522.000000	35.314425
1521.000000	35.267469
1520.000000	35.220415
1519.000000	35.181889
1518.000000	35.136207
1517.000000	35.084447
1516.000000	35.035531
1515.000000	35.014650
1514.000000	34.960930
1513.000000	34.893583
1512.000000	34.835354
1511.000000	34.787515
1510.000000	34.743990
1509.000000	34.695171
1508.000000	34.672134
1507.000000	34.595965
1506.000000	34.519600
1505.000000	34.473820
1504.000000	34.438431
1503.000000	34.403533
1502.000000	34.352655
1501.000000	34.303052
1500.000000	34.282760
1499.000000	34.259429
1498.000000	34.233255
1497.000000	34.230412
1496.000000	34.208846
1495.000000	34.177378
1494.000000	34.162870
1493.000000	34.168850
1492.000000	34.157576
1491.000000	34.170614
1490.000000	34.192769
1489.000000	34.199729
1488.000000	34.211395
1487.000000	34.226001
1486.000000	34.234530
1485.000000	34.223354
1484.000000	34.235314
1483.000000	34.255508
1482.000000	34.276094
1481.000000	34.283152
1480.000000	34.281878
1479.000000	34.305895
1478.000000	34.350891
1477.000000	34.375594
1476.000000	34.396671
1475.000000	34.427844
1474.000000	34.475487
1473.000000	34.520776
1472.000000	34.547048
1471.000000	34.604788
1470.000000	34.670076
1469.000000	34.701543
1468.000000	34.735560
1467.000000	34.781634
1466.000000	34.846235
1465.000000	34.913582
1464.000000	34.993574
1463.000000	35.060136
1462.000000	35.111994
1461.000000	35.188947
1460.000000	35.270508
1459.000000	35.329228
1458.000000	35.403828
1457.000000	35.487153
1456.000000	35.574988
1455.000000	35.653902
1454.000000	35.717033
1453.000000	35.781341
1452.000000	35.859568
1451.000000	35.946227
1450.000000	36.001908
1449.000000	36.043864
1448.000000	36.099741
1447.000000	36.205123
1446.000000	36.318936
1445.000000	36.402947
1444.000000	36.454609
1443.000000	36.539012
1442.000000	36.631258
1441.000000	36.691645
1440.000000	36.764579
1439.000000	36.868981
1438.000000	36.989165
1437.000000	37.060727
1436.000000	37.136798
1435.000000	37.249924
1434.000000	37.364815
1433.000000	37.466276
1432.000000	37.595087
1431.000000	37.734975
1430.000000	37.859767
1429.000000	37.983579
1428.000000	38.125918
1427.000000	38.273354
1426.000000	38.424908
1425.000000	38.596264
1424.000000	38.803695
1423.000000	39.001225
1422.000000	39.153465
1421.000000	39.332370
1420.000000	39.561759
1419.000000	39.824283
1418.000000	40.033968
1417.000000	40.197972
1416.000000	40.428832
1415.000000	40.721549
1414.000000	41.069652
1413.000000	41.272966
1412.000000	41.473535
1411.000000	41.761448
1410.000000	42.088083
1409.000000	42.418051
1408.000000	42.703514
1407.000000	43.028090
1406.000000	43.312082
1405.000000	43.616955
1404.000000	43.953197
1403.000000	44.171999
1402.000000	44.475499
1401.000000	44.866736
1400.000000	45.189842
1399.000000	45.339239
1398.000000	45.540592
1397.000000	45.834877
1396.000000	46.195823
1395.000000	46.518733
1394.000000	46.627546
1393.000000	46.755769
1392.000000	47.060641
1391.000000	47.272189
1390.000000	47.429625
1389.000000	47.682836
1388.000000	47.982513
1387.000000	48.161319
1386.000000	48.301011
1385.000000	48.572456
1384.000000	48.743910
1383.000000	48.915168
1382.000000	49.114756
1381.000000	49.169653
1380.000000	49.278270
1379.000000	49.284544
1378.000000	49.356791
1377.000000	49.468839
1376.000000	49.561478
1375.000000	49.621178
1374.000000	49.721854
1373.000000	49.798513
1372.000000	49.962321
1371.000000	50.058096
1370.000000	50.088975
1369.000000	50.095347
1368.000000	50.282976
1367.000000	50.374242
1366.000000	50.320718
1365.000000	50.450705
1364.000000	50.541481
1363.000000	50.496877
1362.000000	50.726953
1361.000000	50.838315
1360.000000	50.700681
1359.000000	50.703034
1358.000000	50.781261
1357.000000	50.846647
1356.000000	50.868116
1355.000000	50.952127
1354.000000	51.075253
1353.000000	51.118386
1352.000000	51.215043
1351.000000	51.309446
1350.000000	51.453941
1349.000000	51.566676
1348.000000	51.717347
1347.000000	51.830572
1346.000000	51.865274
1345.000000	51.979675
1344.000000	52.085939
1343.000000	52.196909
1342.000000	52.282195
1341.000000	52.403359
1340.000000	52.485606
1339.000000	52.580793
1338.000000	52.682352
1337.000000	52.737053
1336.000000	52.795184
1335.000000	52.882921
1334.000000	52.953698
1333.000000	52.989675
1332.000000	53.043788
1331.000000	53.098978
1330.000000	53.158580
1329.000000	53.226711
1328.000000	53.270040
1327.000000	53.307586
1326.000000	53.346699
1325.000000	53.402380
1324.000000	53.416987
1323.000000	53.418653
1322.000000	53.498253
1321.000000	53.521486
1320.000000	53.558248
1319.000000	53.589127
1318.000000	53.593440
1317.000000	53.622261
1316.000000	53.637946
1315.000000	53.660100
1314.000000	53.687157
1313.000000	53.699018
1312.000000	53.730094
1311.000000	53.732544
1310.000000	53.763816
1309.000000	53.776952
1308.000000	53.814889
1307.000000	53.806655
1306.000000	53.803028
1305.000000	53.806655
1304.000000	53.796264
1303.000000	53.820183
1302.000000	53.823908
1301.000000	53.815281
1300.000000	53.832731
1299.000000	53.833123
1298.000000	53.810870
1297.000000	53.830868
1296.000000	53.833515
1295.000000	53.826261
1294.000000	53.818615
1293.000000	53.818516
1292.000000	53.815281
1291.000000	53.803616
1290.000000	53.779991
1289.000000	53.761659
1288.000000	53.735583
1287.000000	53.732152
1286.000000	53.728427
1285.000000	53.695293
1284.000000	53.678530
1283.000000	53.642259
1282.000000	53.621771
1281.000000	53.610105
1280.000000	53.608341
1279.000000	53.595597
1278.000000	53.583343
1277.000000	53.565796
1276.000000	53.545210
1275.000000	53.523055
1274.000000	53.528937
1273.000000	53.536191
1272.000000	53.525212
1271.000000	53.553836
1270.000000	53.544523
1269.000000	53.530701
1268.000000	53.523153
1267.000000	53.510115
1266.000000	53.507958
1265.000000	53.482863
1264.000000	53.475412
1263.000000	53.480314
1262.000000	53.496783
1261.000000	53.493940
1260.000000	53.472668
1259.000000	53.474138
1258.000000	53.479824
1257.000000	53.448552
1256.000000	53.461100
1255.000000	53.454630
1254.000000	53.445709
1253.000000	53.447278
1252.000000	53.427574
1251.000000	53.383559
1250.000000	53.364541
1249.000000	53.327584
1248.000000	53.299253
1247.000000	53.271707
1246.000000	53.229652
1245.000000	53.197890
1244.000000	53.154953
1243.000000	53.117212
1242.000000	53.072706
1241.000000	53.040356
1240.000000	53.010850
1239.000000	52.972030
1238.000000	52.921544
1237.000000	52.887038
1236.000000	52.869785
1235.000000	52.846552
1234.000000	52.831063
1233.000000	52.798811
1232.000000	52.745875
1231.000000	52.716074
1230.000000	52.695194
1229.000000	52.660785
1228.000000	52.605595
1227.000000	52.567363
1226.000000	52.543934
1225.000000	52.507859
1224.000000	52.464726
1223.000000	52.457472
1222.000000	52.457962
1221.000000	52.412672
1220.000000	52.359442
1219.000000	52.327484
1218.000000	52.305624
1217.000000	52.286704
1216.000000	52.269451
1215.000000	52.276019
1214.000000	52.254942
1213.000000	52.214162
1212.000000	52.177009
1211.000000	52.129072
1210.000000	52.084371
1209.000000	52.039375
1208.000000	51.995164
1207.000000	51.962912
1206.000000	51.922916
1205.000000	51.879979
1204.000000	51.839002
1203.000000	51.787242
1202.000000	51.746756
1201.000000	51.730679
1200.000000	51.692840
1199.000000	51.641668
1198.000000	51.606182
1197.000000	51.550501
1196.000000	51.474724
1195.000000	51.408162
1194.000000	51.326601
1193.000000	51.264254
1192.000000	51.233963
1191.000000	51.187497
1190.000000	51.141815
1189.000000	51.117405
1188.000000	51.081232
1187.000000	51.053784
1186.000000	51.045844
1185.000000	51.039962
1184.000000	51.014768
1183.000000	51.007416
1182.000000	51.017023
1181.000000	51.028688
1180.000000	51.047118
1179.000000	51.060940
1178.000000	51.081232
1177.000000	51.113386
1176.000000	51.140344
1175.000000	51.154167
1174.000000	51.182301
1173.000000	51.199848
1172.000000	51.223474
1171.000000	51.255823
1170.000000	51.302682
1169.000000	51.371106
1168.000000	51.414435
1167.000000	51.443060
1166.000000	51.495212
1165.000000	51.543639
1164.000000	51.604809
1163.000000	51.685488
1162.000000	51.752834
1161.000000	51.782929
1160.000000	51.841159
1159.000000	51.923308
1158.000000	51.968597
1157.000000	52.006241
1156.000000	52.057020
1155.000000	52.107800
1154.000000	52.155638
1153.000000	52.197497
1152.000000	52.244257
1151.000000	52.275234
1150.000000	52.310427
1149.000000	52.316603
1148.000000	52.347090
1147.000000	52.387380
1146.000000	52.412182
1145.000000	52.421789
1144.000000	52.419436
1143.000000	52.447865
1142.000000	52.457570
1141.000000	52.503154
1140.000000	52.553737
1139.000000	52.597752
1138.000000	52.632749
1137.000000	52.697743
1136.000000	52.748718
1135.000000	52.845277
1134.000000	52.893998
1133.000000	52.876451
1132.000000	52.869295
1131.000000	52.862923
1130.000000	52.897429
1129.000000	52.920662
1128.000000	52.953208
1127.000000	52.940464
1126.000000	52.944581
1125.000000	52.935269
1124.000000	52.942915
1123.000000	52.968109
1122.000000	52.940562
1121.000000	52.895272
1120.000000	52.856649
1119.000000	52.838415
1118.000000	52.789008
1117.000000	52.785087
1116.000000	52.793518
1115.000000	52.733131
1114.000000	52.718035
1113.000000	52.677941
1112.000000	52.667353
1111.000000	52.655198
1110.000000	52.600105
1109.000000	52.549228
1108.000000	52.522956
1107.000000	52.507369
1106.000000	52.479332
1105.000000	52.440022
1104.000000	52.408359
1103.000000	52.390615
1102.000000	52.361305
1101.000000	52.280136
1100.000000	52.257393
1099.000000	52.244845
1098.000000	52.193968
1097.000000	52.152697
1096.000000	52.136718
1095.000000	52.073489
1094.000000	52.080842
1093.000000	52.036826
1092.000000	51.968499
1091.000000	51.939483
1090.000000	51.906251
1089.000000	51.873019
1088.000000	51.871940
1087.000000	51.786164
1086.000000	51.782439
1085.000000	51.780282
1084.000000	51.702349
1083.000000	51.675195
1082.000000	51.660784
1081.000000	51.679312
1080.000000	51.610495
1079.000000	51.568832
1078.000000	51.561382
1077.000000	51.488252
1076.000000	51.496290
1075.000000	51.426297
1074.000000	51.400809
1073.000000	51.364440
1072.000000	51.362088
1071.000000	51.291996
1070.000000	51.264842
1069.000000	51.197496
1068.000000	51.191026
1067.000000	51.125248
1066.000000	51.070547
1065.000000	51.055745
1064.000000	50.968694
1063.000000	50.983693
1062.000000	50.925953
1061.000000	50.895368
1060.000000	50.845667
1059.000000	50.797240
1058.000000	50.770478
1057.000000	50.722444
1056.000000	50.593927
1055.000000	50.571772
1054.000000	50.575497
1053.000000	50.474820
1052.000000	50.470605
1051.000000	50.419042
1050.000000	50.376497
1049.000000	50.358067
1048.000000	50.267488
1047.000000	50.257293
1046.000000	50.151616
1045.000000	50.194946
1044.000000	50.184456
1043.000000	50.081917
1042.000000	50.113091
1041.000000	50.060253
1040.000000	50.081917
1039.000000	50.013199
1038.000000	50.029766
1037.000000	50.025354
1036.000000	49.958596
1035.000000	49.898308
1034.000000	49.884878
1033.000000	49.862919
1032.000000	49.827040
1031.000000	49.813708
1030.000000	49.829099
1029.000000	49.749695
1028.000000	49.682642
1027.000000	49.646665
1026.000000	49.614119
1025.000000	49.608140
1024.000000	49.544420
1023.000000	49.540107
1022.000000	49.521579
1021.000000	49.488445
1020.000000	49.482760
1019.000000	49.464918
1018.000000	49.435999
1017.000000	49.429530
1016.000000	49.376397
1015.000000	49.361987
1014.000000	49.348459
1013.000000	49.337970
1012.000000	49.288759
1011.000000	49.288857
1010.000000	49.253468
1009.000000	49.234254
1008.000000	49.280034
1007.000000	49.243665
1006.000000	49.186612
1005.000000	49.144067
1004.000000	49.126324
1003.000000	49.147988
1002.000000	49.170829
1001.000000	49.115638
1000.000000	49.088582
999.000000	49.089955
998.000000	49.079661
997.000000	48.963202
996.000000	48.986337
995.000000	48.969966
994.000000	49.001140
993.000000	48.978201
992.000000	48.995650
991.000000	48.988984
990.000000	48.962908
989.000000	48.952027
988.000000	48.903502
987.000000	48.894777
986.000000	48.912815
985.000000	48.958595
984.000000	48.940851
983.000000	48.883994
982.000000	48.967809
981.000000	48.976338
980.000000	48.970848
979.000000	48.953399
978.000000	48.992905
977.000000	48.982710
976.000000	48.955654
975.000000	48.929774
974.000000	48.921539
973.000000	49.001532
972.000000	48.911246
971.000000	48.899189
970.000000	48.873701
969.000000	48.957320
968.000000	48.940949
967.000000	48.946145
966.000000	48.960947
965.000000	49.005061
964.000000	48.982808
963.000000	48.943596
962.000000	48.969378
961.000000	48.989964
960.000000	49.015550
959.000000	49.054370
958.000000	49.034372
957.000000	49.004179
956.000000	49.009472
955.000000	49.010060
954.000000	49.059957
953.000000	49.151909
952.000000	49.126618
951.000000	49.160732
950.000000	49.175240
949.000000	49.127696
948.000000	49.086622
947.000000	49.092895
946.000000	49.216805
945.000000	49.301699
944.000000	49.334147
943.000000	49.284838
942.000000	49.323559
941.000000	49.231215
940.000000	49.288857
939.000000	49.289249
938.000000	49.214354
937.000000	49.214060
936.000000	49.182299
935.000000	49.287190
934.000000	49.381103
933.000000	49.480211
932.000000	49.441293
931.000000	49.398846
930.000000	49.515404
929.000000	49.520305
928.000000	49.454037
927.000000	49.447175
926.000000	49.457076
925.000000	49.539029
924.000000	49.530010
923.000000	49.667742
922.000000	49.600689
921.000000	49.512169
920.000000	49.685975
919.000000	49.652939
918.000000	49.676368
917.000000	49.705287
916.000000	49.632549
915.000000	49.722050
914.000000	49.865762
913.000000	49.870271
912.000000	49.812042
911.000000	50.085937
910.000000	49.962615
909.000000	49.837137
908.000000	49.942225
907.000000	50.062998
906.000000	50.365419
905.000000	50.346009
904.000000	50.321306
903.000000	50.329737
902.000000	50.359538
901.000000	50.434824
900.000000	50.355812
899.000000	50.423551
898.000000	50.483545
897.000000	50.369831
896.000000	50.561087
895.000000	50.963989
894.000000	50.854294
893.000000	50.787241
892.000000	50.713719
891.000000	50.815180
890.000000	50.840765
889.000000	51.248765
888.000000	51.175439
887.000000	51.079468
886.000000	51.593732
885.000000	51.792046
884.000000	51.542364
883.000000	51.614318
882.000000	51.828807
881.000000	51.821553
880.000000	51.750285
879.000000	51.720190
878.000000	51.755775
877.000000	51.908603
876.000000	52.374539
875.000000	52.379832
874.000000	52.846650
873.000000	52.424534
872.000000	52.638435
871.000000	53.307684
870.000000	52.767932
869.000000	52.891645
868.000000	52.474529
867.000000	53.373462
866.000000	53.168285
865.000000	52.866746
864.000000	53.365913
863.000000	53.551483
862.000000	53.661571
861.000000	54.121624
860.000000	53.830672
859.000000	53.797146
858.000000	50.585300
857.000000	50.653700
856.000000	50.519800
855.000000	50.582400
854.000000	50.691200
853.000000	50.743500
852.000000	50.814100
851.000000	50.868400
850.000000	50.972300
849.000000	50.993500
848.000000	51.223200
847.000000	51.250400
846.000000	51.351400
845.000000	51.580900
844.000000	51.628400
843.000000	52.167500
842.000000	51.830200
841.000000	51.754300
840.000000	51.905400
839.000000	51.979300
838.000000	52.224300
837.000000	52.261400
836.000000	52.337400
835.000000	52.641400
834.000000	52.902000
833.000000	52.807400
832.000000	52.969300
831.000000	53.066300
830.000000	53.208900
829.000000	53.353900
828.000000	53.540300
827.000000	53.726900
826.000000	53.894100
825.000000	53.935500
824.000000	54.137500
823.000000	54.292900
822.000000	54.513900
821.000000	54.654700
820.000000	54.863000
819.000000	55.262800
818.000000	55.327600
817.000000	55.567700
816.000000	55.754200
815.000000	55.928600
814.000000	56.169600
813.000000	56.459000
812.000000	56.551700
811.000000	56.764300
810.000000	57.196300
809.000000	57.437600
808.000000	57.673300
807.000000	58.067400
806.000000	58.164900
805.000000	58.409800
804.000000	58.718200
803.000000	58.842800
802.000000	59.232900
801.000000	59.484400
800.000000	59.759100
799.000000	60.033500
798.000000	60.241500
797.000000	60.453700
796.000000	60.691500
795.000000	60.925400
794.000000	61.162100
793.000000	61.252300
792.000000	61.533400
791.000000	61.823300
790.000000	61.968100
789.000000	62.078400
788.000000	62.399700
787.000000	62.549200
786.000000	62.813300
785.000000	62.916200
784.000000	63.033700
783.000000	63.336300
782.000000	63.523200
781.000000	63.672300
780.000000	63.941500
779.000000	64.156000
778.000000	64.208100
777.000000	64.390400
776.000000	64.550500
775.000000	64.728000
774.000000	65.054900
773.000000	65.233500
772.000000	65.343900
771.000000	65.333500
770.000000	65.477800
769.000000	65.609300
768.000000	65.701900
767.000000	65.807900
766.000000	65.901300
765.000000	65.972700
764.000000	66.057500
763.000000	66.120300
762.000000	66.136700
761.000000	66.252400
760.000000	66.314900
759.000000	66.427600
758.000000	66.428400
757.000000	66.514600
756.000000	66.437500
755.000000	66.605800
754.000000	66.605600
753.000000	66.639100
752.000000	66.712800
751.000000	66.817200
750.000000	66.670200
749.000000	66.670900
748.000000	66.688200
747.000000	66.682800
746.000000	66.680000
745.000000	66.685700
744.000000	66.643400
743.000000	66.613700
742.000000	66.516700
741.000000	66.482200
740.000000	66.434900
739.000000	66.374100
738.000000	66.206100
737.000000	66.102400
736.000000	66.105600
735.000000	66.055000
734.000000	65.906400
733.000000	65.826400
732.000000	65.638400
731.000000	65.602700
730.000000	65.492800
729.000000	65.405500
728.000000	65.252600
727.000000	65.147300
726.000000	65.008300
725.000000	64.837000
724.000000	64.718500
723.000000	64.629700
722.000000	64.449200
721.000000	64.236300
720.000000	64.061800
719.000000	63.855900
718.000000	63.704100
717.000000	63.469400
716.000000	63.245200
715.000000	62.957400
714.000000	62.703800
713.000000	62.450800
712.000000	62.072900
711.000000	61.744700
710.000000	61.481000
709.000000	61.156700
708.000000	60.822300
707.000000	60.498700
706.000000	60.161300
705.000000	59.843000
704.000000	59.550000
703.000000	59.260800
702.000000	58.923500
701.000000	58.658200
700.000000	58.371200
699.000000	58.011000
698.000000	57.698300
697.000000	57.378100
696.000000	57.006700
695.000000	56.732800
694.000000	56.496300
693.000000	56.241000
692.000000	55.917300
691.000000	55.621000
690.000000	55.316000
689.000000	54.980300
688.000000	54.692700
687.000000	54.418900
686.000000	54.127300
685.000000	53.861600
684.000000	53.526300
683.000000	53.193100
682.000000	52.859000
681.000000	52.555400
680.000000	52.227600
679.000000	51.968200
678.000000	51.686200
677.000000	51.347700
676.000000	51.029900
675.000000	50.744600
674.000000	50.453800
673.000000	50.184900
672.000000	49.940300
671.000000	49.699300
670.000000	49.427200
669.000000	49.118800
668.000000	48.840600
667.000000	48.566900
666.000000	48.330700
665.000000	48.070700
664.000000	47.770200
663.000000	47.428600
662.000000	47.116800
661.000000	46.800200
660.000000	46.457700
659.000000	46.093100
658.000000	45.749700
657.000000	45.426800
656.000000	45.086400
655.000000	44.753900
654.000000	44.458700
653.000000	44.188300
652.000000	43.936300
651.000000	43.699000
650.000000	43.479700
649.000000	43.277500
648.000000	43.096600
647.000000	42.960300
646.000000	42.813900
645.000000	42.684800
644.000000	42.596100
643.000000	42.505300
642.000000	42.456300
641.000000	42.451700
640.000000	42.390500
639.000000	42.304500
638.000000	42.223700
637.000000	42.125200
636.000000	42.035000
635.000000	41.933100
634.000000	41.802900
633.000000	41.647700
632.000000	41.477900
631.000000	41.297600
630.000000	41.116200
629.000000	40.942600
628.000000	40.735400
627.000000	40.497800
626.000000	40.273900
625.000000	40.062300
624.000000	39.849300
623.000000	39.663600
622.000000	39.474700
621.000000	39.294400
620.000000	39.126300
619.000000	38.966200
618.000000	38.852800
617.000000	38.741000
616.000000	38.631200
615.000000	38.531100
614.000000	38.427900
613.000000	38.346700
612.000000	38.274100
611.000000	38.249200
610.000000	38.267600
609.000000	38.314500
608.000000	38.339900
607.000000	38.393000
606.000000	38.465900
605.000000	38.531100
604.000000	38.638900
603.000000	38.776100
602.000000	38.937800
601.000000	39.105400
600.000000	39.293300
599.000000	39.512400
598.000000	39.755800
597.000000	40.033100
596.000000	40.290500
595.000000	40.577200
594.000000	40.850000
593.000000	41.123300
592.000000	41.413400
591.000000	41.715000
590.000000	42.020400
589.000000	42.345500
588.000000	42.618200
587.000000	42.910200
586.000000	43.190300
585.000000	43.463400
584.000000	43.702300
583.000000	43.920400
582.000000	44.159000
581.000000	44.429400
580.000000	44.604500
579.000000	44.790800
578.000000	44.977200
577.000000	45.179600
576.000000	45.346400
575.000000	45.473900
574.000000	45.589400
573.000000	45.713400
572.000000	45.848000
571.000000	45.993400
570.000000	46.082600
569.000000	46.148800
568.000000	46.245900
567.000000	46.348000
566.000000	46.363500
565.000000	46.400000
564.000000	46.449300
563.000000	46.485000
562.000000	46.545200
561.000000	46.565300
560.000000	46.572400
559.000000	46.664700
558.000000	46.694500
557.000000	46.718200
556.000000	46.765300
555.000000	46.728600
554.000000	46.715300
553.000000	46.732500
552.000000	46.719500
551.000000	46.687500
550.000000	46.650000
549.000000	46.587600
548.000000	46.514700
547.000000	46.369400
546.000000	46.304900
545.000000	46.170000
544.000000	45.968100
543.000000	45.792300
542.000000	45.574700
541.000000	45.356300
540.000000	45.142300
539.000000	44.900000
538.000000	44.656100
537.000000	44.423100
536.000000	44.142700
535.000000	43.848600
534.000000	43.510300
533.000000	43.173500
532.000000	42.832000
531.000000	42.470000
530.000000	42.073300
529.000000	41.659200
528.000000	41.249800
527.000000	40.787500
526.000000	40.358100
525.000000	39.858600
524.000000	39.366900
523.000000	38.849100
522.000000	38.291800
521.000000	37.774900
520.000000	37.254400
519.000000	36.750700
518.000000	36.243700
517.000000	35.696100
516.000000	35.210000
515.000000	34.721200
514.000000	34.229300
513.000000	33.738400
512.000000	33.254800
511.000000	32.809700
510.000000	32.372600
509.000000	31.964800
508.000000	31.523500
507.000000	31.122400
506.000000	30.718900
505.000000	30.332700
504.000000	29.957100
503.000000	29.515800
502.000000	29.148500
501.000000	28.792100
500.000000	28.406900
499.000000	28.094600
498.000000	27.740100
497.000000	27.408500
496.000000	27.102000
495.000000	26.786400
494.000000	26.520000
493.000000	26.207000
492.000000	25.890700
491.000000	25.627200
490.000000	25.356700
489.000000	25.114300
488.000000	24.857400
487.000000	24.623600
486.000000	24.382100
485.000000	24.157400
484.000000	23.868300
483.000000	23.621800
482.000000	23.333700
481.000000	22.969100
480.000000	22.580900
479.000000	22.278800
478.000000	22.025400
477.000000	21.794400
476.000000	21.552000
475.000000	21.333000
474.000000	21.102200
473.000000	20.897900
472.000000	20.673200
471.000000	20.444100
470.000000	20.227600
469.000000	20.027700
468.000000	19.810200
467.000000	19.619200
466.000000	19.410500
465.000000	19.226500
464.000000	19.051100
463.000000	18.853200
462.000000	18.668800
461.000000	18.461800
460.000000	18.285000
459.000000	18.093100
458.000000	17.947100
457.000000	17.758800
456.000000	17.578600
455.000000	17.365400
454.000000	17.160800
453.000000	16.979700
452.000000	16.793300
451.000000	16.588500
450.000000	16.374900
449.000000	16.142300
448.000000	15.904000
447.000000	15.667200
446.000000	15.443100
445.000000	15.231300
444.000000	15.031000
443.000000	14.753000
442.000000	14.496000
441.000000	14.195800
440.000000	13.927900
439.000000	13.651900
438.000000	13.375700
437.000000	13.123300
436.000000	12.836800
435.000000	12.559800
434.000000	12.286900
433.000000	12.021300
432.000000	11.727100
431.000000	11.464300
430.000000	11.225000
429.000000	10.960400
428.000000	10.675700
427.000000	10.414700
426.000000	10.185400
425.000000	9.930900
424.000000	9.702500
423.000000	9.488300
422.000000	9.266200
421.000000	9.060200
420.000000	8.843100
419.000000	8.637200
418.000000	8.437900
417.000000	8.239800
416.000000	8.055400
415.000000	7.886900
414.000000	7.703800
413.000000	7.544500
412.000000	7.402600
411.000000	7.243400
410.000000	7.100000
409.000000	6.953600
408.000000	6.837300
407.000000	6.693400
406.000000	6.574700
405.000000	6.456700
404.000000	6.343200
403.000000	6.255600
402.000000	6.156700
401.000000	6.066400
400.000000	5.979000
399.000000	5.884400
398.000000	5.808100
397.000000	5.739300
396.000000	5.675900
395.000000	5.610900
394.000000	5.553200
393.000000	5.495800
392.000000	5.441100
391.000000	5.394000
390.000000	5.343200
389.000000	5.302100
388.000000	5.251000
387.000000	5.218300
386.000000	5.189500
385.000000	5.133800
384.000000	5.088000
383.000000	5.049300
382.000000	5.019100
381.000000	4.995500
380.000000	4.959400
379.000000	4.929900
378.000000	4.917800
377.000000	4.900500
376.000000	4.847500
375.000000	4.710100
374.000000	4.434300
373.000000	4.315700
372.000000	4.462900
371.000000	4.589500
370.000000	4.436200
369.000000	4.487600
368.000000	4.552600
367.000000	4.487300
366.000000	4.419100
365.000000	4.375900
364.000000	4.436100
363.000000	4.479800
362.000000	4.393000
361.000000	4.414700
360.000000	4.348600
359.000000	4.334700
358.000000	4.309900
357.000000	4.312500
356.000000	4.283600
355.000000	4.250400
354.000000	4.245700
353.000000	4.232800
352.000000	4.315300
351.000000	4.263400
350.000000	4.243400
349.000000	4.186600
348.000000	4.095300
347.000000	4.064800
346.000000	4.062400
345.000000	4.231700
344.000000	4.240900
343.000000	4.270000
342.000000	4.354300
341.000000	4.143700
340.000000	4.070000
339.000000	4.189100
338.000000	4.231600
337.000000	4.208300
336.000000	4.213100
335.000000	4.177700
334.000000	4.110500
333.000000	4.216000
332.000000	4.255600
331.000000	4.127700
330.000000	4.266900
329.000000	4.317000
328.000000	4.294100
327.000000	4.396900
326.000000	4.464900
325.000000	4.512100
324.000000	4.325500
323.000000	4.315600
322.000000	4.425600
321.000000	4.618500
320.000000	4.440700
319.000000	4.312600
318.000000	4.618100
317.000000	4.520400
316.000000	4.164000
315.000000	3.992100
314.000000	3.976600
313.000000	3.970400
312.000000	3.985500
311.000000	4.029100
310.000000	4.034900
309.000000	4.028700
308.000000	4.011500
307.000000	3.964500
306.000000	4.001700
305.000000	4.021900
304.000000	3.993500
303.000000	4.022900
302.000000	4.030900
301.000000	4.035000
300.000000	4.036200
299.000000	4.001500
298.000000	4.067100
297.000000	4.096100
296.000000	4.081600
295.000000	3.984000
294.000000	3.930300
293.000000	3.964000
292.000000	3.996400
291.000000	3.995800
290.000000	4.021600
289.000000	4.005800
288.000000	3.977100
287.000000	3.970600
286.000000	3.980000
285.000000	4.013400
284.000000	3.966000
283.000000	3.948900
282.000000	3.989100
281.000000	4.077800
280.000000	4.048100
279.000000	4.019900
278.000000	3.985700
277.000000	3.986900
276.000000	4.000800
275.000000	4.017100
274.000000	4.032500
273.000000	3.992900
272.000000	4.038000
271.000000	4.042000
270.000000	4.043400
269.000000	4.087900
268.000000	4.144600
267.000000	4.107200
266.000000	4.089600
265.000000	4.122600
264.000000	4.126000
263.000000	4.143100
262.000000	4.169300
261.000000	4.152100
260.000000	4.149500
259.000000	4.202000
258.000000	4.223400
257.000000	4.243200
256.000000	4.263400
255.000000	4.249200
254.000000	4.267600
253.000000	4.274100
252.000000	4.307900
251.000000	4.300600
250.000000	4.298500
