PE UV       SUBTECH     SPECTRUM    ASCII       PEDS        4.00        
   -1
CICIMAUCR0214-3.Sample.ASC
24/06/13
14:41:56.00
24/06/13
14:41:56.00
Vinicio Soto Monge
C. cupreomarginata. Sex M. Ventral 
250,000000
1
Lambda 1050
1050L1511233
PerkinElmer UV WinLab 6.3.2.0749 / 2.02.05 Lambda 900 UV/VIS/NIR, Aug  7 2015 09:38:08

0
0
3350/servo 860,8/2
0
0
UV/VIS
1
1
1
DoubleDePol,CommonBeamDepol,RBeamAtt,SBeamAtt,60mm sphere, WB InGaAs Detector
0
0
0
0
Program
Program
3350/servo 860,8/2
3350/0,2 860,8/0,2
3350/0,2 860,8/0,2
0
15.00
 
 
 
0
 
860,8
319,2
860,8
Front
100
on
S:100 R:100
0
0
0
0
 
0
 
 
 
0
 
 
0
0
0
0
0
 
 
 
 
0
0


0
0
#HDR
-1
-1
#GR
nm
%R
1.0
0.0
2500,000000
-1,000000
2251
8
61,184700
4,155300
#DATA
2482.000000	6.800497
2481.000000	6.821805
2480.000000	6.886288
2479.000000	6.865429
2478.000000	6.850626
2477.000000	6.903671
2476.000000	6.860607
2475.000000	6.785357
2474.000000	6.831337
2473.000000	6.771676
2472.000000	6.819898
2471.000000	6.826290
2470.000000	6.842776
2469.000000	6.819337
2468.000000	6.803861
2467.000000	6.800946
2466.000000	6.861168
2465.000000	6.819674
2464.000000	6.831337
2463.000000	6.849953
2462.000000	6.861280
2461.000000	6.864756
2460.000000	6.882700
2459.000000	6.919595
2458.000000	6.954585
2457.000000	6.977687
2456.000000	6.972416
2455.000000	6.999667
2454.000000	7.041273
2453.000000	7.081085
2452.000000	7.100149
2451.000000	7.125270
2450.000000	7.138279
2449.000000	7.151176
2448.000000	7.229229
2447.000000	7.262536
2446.000000	7.306497
2445.000000	7.337449
2444.000000	7.381410
2443.000000	7.427614
2442.000000	7.469332
2441.000000	7.506564
2440.000000	7.511162
2439.000000	7.590113
2438.000000	7.592692
2437.000000	7.621513
2436.000000	7.670297
2435.000000	7.693847
2434.000000	7.709884
2433.000000	7.759789
2432.000000	7.786928
2431.000000	7.849841
2430.000000	7.871934
2429.000000	7.891335
2428.000000	7.914774
2427.000000	7.937988
2426.000000	7.962323
2425.000000	7.984977
2424.000000	8.016041
2423.000000	8.052152
2422.000000	8.064039
2421.000000	8.069086
2420.000000	8.122130
2419.000000	8.147700
2418.000000	8.149045
2417.000000	8.189193
2416.000000	8.200969
2415.000000	8.220818
2414.000000	8.247173
2413.000000	8.264667
2412.000000	8.271172
2411.000000	8.289900
2410.000000	8.309525
2409.000000	8.327020
2408.000000	8.334534
2407.000000	8.358084
2406.000000	8.386233
2405.000000	8.396550
2404.000000	8.424699
2403.000000	8.458791
2402.000000	8.464623
2401.000000	8.480323
2400.000000	8.493556
2399.000000	8.529330
2398.000000	8.566451
2397.000000	8.604692
2396.000000	8.625327
2395.000000	8.638224
2394.000000	8.647868
2393.000000	8.679269
2392.000000	8.697324
2391.000000	8.715380
2390.000000	8.739603
2389.000000	8.747678
2388.000000	8.749920
2387.000000	8.764836
2386.000000	8.775377
2385.000000	8.773583
2384.000000	8.785134
2383.000000	8.801059
2382.000000	8.814516
2381.000000	8.809245
2380.000000	8.810255
2379.000000	8.816759
2378.000000	8.811600
2377.000000	8.802965
2376.000000	8.799152
2375.000000	8.805432
2374.000000	8.806330
2373.000000	8.790741
2372.000000	8.780873
2371.000000	8.777508
2370.000000	8.769546
2369.000000	8.749584
2368.000000	8.747229
2367.000000	8.743304
2366.000000	8.711342
2365.000000	8.675007
2364.000000	8.660765
2363.000000	8.644279
2362.000000	8.610524
2361.000000	8.591908
2360.000000	8.571049
2359.000000	8.538863
2358.000000	8.524620
2357.000000	8.512284
2356.000000	8.489295
2355.000000	8.465183
2354.000000	8.454417
2353.000000	8.455875
2352.000000	8.450492
2351.000000	8.449146
2350.000000	8.451053
2349.000000	8.462380
2348.000000	8.484360
2347.000000	8.503201
2346.000000	8.519237
2345.000000	8.547386
2344.000000	8.557703
2343.000000	8.583048
2342.000000	8.618037
2341.000000	8.636205
2340.000000	8.651681
2339.000000	8.680727
2338.000000	8.692614
2337.000000	8.698334
2336.000000	8.705399
2335.000000	8.713025
2334.000000	8.712800
2333.000000	8.717735
2332.000000	8.705959
2331.000000	8.688465
2330.000000	8.675119
2329.000000	8.673101
2328.000000	8.643831
2327.000000	8.621065
2326.000000	8.585740
2325.000000	8.555348
2324.000000	8.525069
2323.000000	8.495126
2322.000000	8.451726
2321.000000	8.411914
2320.000000	8.373673
2319.000000	8.318721
2318.000000	8.265452
2317.000000	8.222388
2316.000000	8.167886
2315.000000	8.112037
2314.000000	8.053946
2313.000000	8.011107
2312.000000	7.968379
2311.000000	7.917465
2310.000000	7.883037
2309.000000	7.838627
2308.000000	7.825057
2307.000000	7.807226
2306.000000	7.770891
2305.000000	7.774816
2304.000000	7.775489
2303.000000	7.793881
2302.000000	7.794105
2301.000000	7.814964
2300.000000	7.841879
2299.000000	7.888307
2298.000000	7.929016
2297.000000	7.971856
2296.000000	8.024115
2295.000000	8.077497
2294.000000	8.124261
2293.000000	8.134915
2292.000000	8.182016
2291.000000	8.210501
2290.000000	8.212744
2289.000000	8.247060
2288.000000	8.265004
2287.000000	8.282274
2286.000000	8.279470
2285.000000	8.259957
2284.000000	8.242575
2283.000000	8.248070
2282.000000	8.240780
2281.000000	8.204557
2280.000000	8.183025
2279.000000	8.177418
2278.000000	8.151961
2277.000000	8.136037
2276.000000	8.115177
2275.000000	8.083552
2274.000000	8.068189
2273.000000	8.064151
2272.000000	8.062581
2271.000000	8.048563
2270.000000	8.025910
2269.000000	8.049685
2268.000000	8.069646
2267.000000	8.103851
2266.000000	8.156447
2265.000000	8.197492
2264.000000	8.274536
2263.000000	8.351692
2262.000000	8.432549
2261.000000	8.555348
2260.000000	8.653139
2259.000000	8.762593
2258.000000	8.897840
2257.000000	9.042508
2256.000000	9.216221
2255.000000	9.367393
2254.000000	9.511500
2253.000000	9.664690
2252.000000	9.802405
2251.000000	10.010771
2250.000000	10.136823
2249.000000	10.287434
2248.000000	10.420550
2247.000000	10.549518
2246.000000	10.659644
2245.000000	10.764164
2244.000000	10.864758
2243.000000	10.976792
2242.000000	11.099367
2241.000000	11.152523
2240.000000	11.250202
2239.000000	11.315471
2238.000000	11.394870
2237.000000	11.495913
2236.000000	11.551088
2235.000000	11.586975
2234.000000	11.624992
2233.000000	11.685663
2232.000000	11.734109
2231.000000	11.730184
2230.000000	11.780986
2229.000000	11.803079
2228.000000	11.820686
2227.000000	11.829209
2226.000000	11.812163
2225.000000	11.820237
2224.000000	11.852086
2223.000000	11.806331
2222.000000	11.811153
2221.000000	11.776837
2220.000000	11.803640
2219.000000	11.755529
2218.000000	11.732091
2217.000000	11.712017
2216.000000	11.685999
2215.000000	11.666374
2214.000000	11.651122
2213.000000	11.598750
2212.000000	11.608731
2211.000000	11.566676
2210.000000	11.545930
2209.000000	11.534042
2208.000000	11.522491
2207.000000	11.487277
2206.000000	11.455204
2205.000000	11.478418
2204.000000	11.444101
2203.000000	11.444326
2202.000000	11.429523
2201.000000	11.412028
2200.000000	11.409561
2199.000000	11.414047
2198.000000	11.398683
2197.000000	11.406196
2196.000000	11.382758
2195.000000	11.381412
2194.000000	11.355282
2193.000000	11.353376
2192.000000	11.355507
2191.000000	11.327246
2190.000000	11.334311
2189.000000	11.330498
2188.000000	11.334311
2187.000000	11.309415
2186.000000	11.312443
2185.000000	11.301565
2184.000000	11.274874
2183.000000	11.261192
2182.000000	11.254127
2181.000000	11.242576
2180.000000	11.236520
2179.000000	11.226988
2178.000000	11.218129
2177.000000	11.197269
2176.000000	11.204335
2175.000000	11.193344
2174.000000	11.201307
2173.000000	11.198279
2172.000000	11.200410
2171.000000	11.178878
2170.000000	11.193120
2169.000000	11.205680
2168.000000	11.192223
2167.000000	11.201980
2166.000000	11.221717
2165.000000	11.231250
2164.000000	11.233605
2163.000000	11.246389
2162.000000	11.268033
2161.000000	11.298537
2160.000000	11.315583
2159.000000	11.330050
2158.000000	11.340031
2157.000000	11.369076
2156.000000	11.393636
2155.000000	11.422009
2154.000000	11.440961
2153.000000	11.475054
2152.000000	11.489408
2151.000000	11.541556
2150.000000	11.588433
2149.000000	11.607497
2148.000000	11.650113
2147.000000	11.682747
2146.000000	11.693513
2145.000000	11.727605
2144.000000	11.758109
2143.000000	11.777622
2142.000000	11.801285
2141.000000	11.860946
2140.000000	11.871936
2139.000000	11.892234
2138.000000	11.930027
2137.000000	11.946961
2136.000000	11.972082
2135.000000	11.977241
2134.000000	12.003931
2133.000000	12.013912
2132.000000	12.034771
2131.000000	12.068639
2130.000000	12.087367
2129.000000	12.079966
2128.000000	12.082994
2127.000000	12.092638
2126.000000	12.109012
2125.000000	12.108451
2124.000000	12.105759
2123.000000	12.095891
2122.000000	12.079181
2121.000000	12.074359
2120.000000	12.072676
2119.000000	12.056079
2118.000000	12.063929
2117.000000	12.050808
2116.000000	12.039706
2115.000000	12.023781
2114.000000	12.022211
2113.000000	12.004716
2112.000000	11.970512
2111.000000	11.936420
2110.000000	11.938663
2109.000000	11.938438
2108.000000	11.931037
2107.000000	11.881469
2106.000000	11.863301
2105.000000	11.855563
2104.000000	11.834704
2103.000000	11.808910
2102.000000	11.792874
2101.000000	11.773024
2100.000000	11.747343
2099.000000	11.721773
2098.000000	11.698447
2097.000000	11.677588
2096.000000	11.659421
2095.000000	11.630487
2094.000000	11.605815
2093.000000	11.600320
2092.000000	11.580246
2091.000000	11.562527
2090.000000	11.562527
2089.000000	11.542229
2088.000000	11.525519
2087.000000	11.512286
2086.000000	11.494567
2085.000000	11.485932
2084.000000	11.468437
2083.000000	11.431541
2082.000000	11.396552
2081.000000	11.382758
2080.000000	11.363918
2079.000000	11.324218
2078.000000	11.291696
2077.000000	11.275323
2076.000000	11.250090
2075.000000	11.217904
2074.000000	11.182466
2073.000000	11.152636
2072.000000	11.107665
2071.000000	11.071106
2070.000000	11.047780
2069.000000	11.004155
2068.000000	10.955148
2067.000000	10.919373
2066.000000	10.889879
2065.000000	10.840311
2064.000000	10.806443
2063.000000	10.779079
2062.000000	10.746557
2061.000000	10.731978
2060.000000	10.708764
2059.000000	10.677139
2058.000000	10.656504
2057.000000	10.653252
2056.000000	10.656616
2055.000000	10.666934
2054.000000	10.656504
2053.000000	10.661102
2052.000000	10.680503
2051.000000	10.710895
2050.000000	10.748351
2049.000000	10.789957
2048.000000	10.839189
2047.000000	10.900421
2046.000000	10.947858
2045.000000	10.996866
2044.000000	11.062022
2043.000000	11.107329
2042.000000	11.172149
2041.000000	11.238539
2040.000000	11.304593
2039.000000	11.368628
2038.000000	11.419429
2037.000000	11.479764
2036.000000	11.516884
2035.000000	11.572957
2034.000000	11.617254
2033.000000	11.652804
2032.000000	11.689924
2031.000000	11.743754
2030.000000	11.782108
2029.000000	11.808238
2028.000000	11.812051
2027.000000	11.828872
2026.000000	11.853208
2025.000000	11.885730
2024.000000	11.903113
2023.000000	11.930813
2022.000000	11.943709
2021.000000	11.945055
2020.000000	11.948868
2019.000000	11.946737
2018.000000	11.965802
2017.000000	11.951223
2016.000000	11.954139
2015.000000	11.958400
2014.000000	11.950550
2013.000000	11.947074
2012.000000	11.927448
2011.000000	11.923635
2010.000000	11.897505
2009.000000	11.890889
2008.000000	11.886067
2007.000000	11.860497
2006.000000	11.850292
2005.000000	11.809359
2004.000000	11.752613
2003.000000	11.726708
2002.000000	11.684093
2001.000000	11.645402
2000.000000	11.623983
1999.000000	11.588657
1998.000000	11.534491
1997.000000	11.481334
1996.000000	11.450494
1995.000000	11.392515
1994.000000	11.336778
1993.000000	11.286313
1992.000000	11.241903
1991.000000	11.190989
1990.000000	11.132674
1989.000000	11.072452
1988.000000	11.014024
1987.000000	10.981838
1986.000000	10.897617
1985.000000	10.856460
1984.000000	10.795453
1983.000000	10.706970
1982.000000	10.661663
1981.000000	10.600320
1980.000000	10.547387
1979.000000	10.488511
1978.000000	10.437709
1977.000000	10.376029
1976.000000	10.333750
1975.000000	10.270500
1974.000000	10.186279
1973.000000	10.157233
1972.000000	10.096787
1971.000000	10.042733
1970.000000	10.001800
1969.000000	9.945951
1968.000000	9.898962
1967.000000	9.857693
1966.000000	9.819451
1965.000000	9.755640
1964.000000	9.707081
1963.000000	9.676914
1962.000000	9.600319
1961.000000	9.569703
1960.000000	9.521032
1959.000000	9.486155
1958.000000	9.454979
1957.000000	9.389261
1956.000000	9.356515
1955.000000	9.320404
1954.000000	9.278798
1953.000000	9.245379
1952.000000	9.202315
1951.000000	9.167550
1950.000000	9.117982
1949.000000	9.065498
1948.000000	9.075030
1947.000000	9.017948
1946.000000	8.992267
1945.000000	8.971071
1944.000000	8.938100
1943.000000	8.947521
1942.000000	8.921503
1941.000000	8.903672
1940.000000	8.869019
1939.000000	8.890775
1938.000000	8.865879
1937.000000	8.864757
1936.000000	8.853431
1935.000000	8.863860
1934.000000	8.875748
1933.000000	8.900195
1932.000000	8.891448
1931.000000	8.915447
1930.000000	8.933951
1929.000000	8.972529
1928.000000	8.995743
1927.000000	9.052264
1926.000000	9.100038
1925.000000	9.132336
1924.000000	9.197493
1923.000000	9.268256
1922.000000	9.329488
1921.000000	9.384215
1920.000000	9.461371
1919.000000	9.526976
1918.000000	9.615234
1917.000000	9.695082
1916.000000	9.802405
1915.000000	9.920718
1914.000000	10.010435
1913.000000	10.145570
1912.000000	10.249641
1911.000000	10.387131
1910.000000	10.515313
1909.000000	10.643271
1908.000000	10.785247
1907.000000	10.927560
1906.000000	11.101609
1905.000000	11.291135
1904.000000	11.476287
1903.000000	11.677140
1902.000000	11.863189
1901.000000	12.084003
1900.000000	12.312443
1899.000000	12.541781
1898.000000	12.799042
1897.000000	13.065388
1896.000000	13.348667
1895.000000	13.614451
1894.000000	13.894703
1893.000000	14.196262
1892.000000	14.504774
1891.000000	14.867564
1890.000000	15.246391
1889.000000	15.629368
1888.000000	16.031858
1887.000000	16.438048
1886.000000	16.885621
1885.000000	17.358650
1884.000000	17.875752
1883.000000	18.434124
1882.000000	18.994739
1881.000000	19.574082
1880.000000	20.168677
1879.000000	20.751272
1878.000000	21.260076
1877.000000	21.819906
1876.000000	22.404856
1875.000000	22.892464
1874.000000	23.402726
1873.000000	23.875307
1872.000000	24.367289
1871.000000	24.801403
1870.000000	25.224192
1869.000000	25.632289
1868.000000	26.030181
1867.000000	26.360785
1866.000000	26.645186
1865.000000	26.888990
1864.000000	27.144569
1863.000000	27.341497
1862.000000	27.522724
1861.000000	27.712362
1860.000000	27.906597
1859.000000	28.070105
1858.000000	28.205353
1857.000000	28.315143
1856.000000	28.409121
1855.000000	28.506912
1854.000000	28.563209
1853.000000	28.615468
1852.000000	28.642047
1851.000000	28.694980
1850.000000	28.715726
1849.000000	28.722119
1848.000000	28.726941
1847.000000	28.739165
1846.000000	28.701933
1845.000000	28.653261
1844.000000	28.627804
1843.000000	28.613562
1842.000000	28.633524
1841.000000	28.637561
1840.000000	28.613338
1839.000000	28.573526
1838.000000	28.520930
1837.000000	28.494127
1836.000000	28.458577
1835.000000	28.420335
1834.000000	28.376935
1833.000000	28.311442
1832.000000	28.249314
1831.000000	28.189877
1830.000000	28.131673
1829.000000	28.073133
1828.000000	27.999117
1827.000000	27.911420
1826.000000	27.835385
1825.000000	27.778079
1824.000000	27.717184
1823.000000	27.675914
1822.000000	27.645523
1821.000000	27.619842
1820.000000	27.595282
1819.000000	27.543358
1818.000000	27.489304
1817.000000	27.431101
1816.000000	27.414391
1815.000000	27.435699
1814.000000	27.422578
1813.000000	27.390280
1812.000000	27.374916
1811.000000	27.349683
1810.000000	27.307180
1809.000000	27.257724
1808.000000	27.215445
1807.000000	27.168344
1806.000000	27.128420
1805.000000	27.079749
1804.000000	27.009546
1803.000000	26.945063
1802.000000	26.897065
1801.000000	26.846263
1800.000000	26.779536
1799.000000	26.715053
1798.000000	26.653821
1797.000000	26.596291
1796.000000	26.549526
1795.000000	26.497827
1794.000000	26.425157
1793.000000	26.365047
1792.000000	26.305273
1791.000000	26.235519
1790.000000	26.187408
1789.000000	26.136607
1788.000000	26.084795
1787.000000	26.009097
1786.000000	25.928128
1785.000000	25.864878
1784.000000	25.788507
1783.000000	25.708435
1782.000000	25.626794
1781.000000	25.551768
1780.000000	25.468332
1779.000000	25.380186
1778.000000	25.294170
1777.000000	25.197837
1776.000000	25.114065
1775.000000	25.016610
1774.000000	24.901661
1773.000000	24.785030
1772.000000	24.657857
1771.000000	24.540778
1770.000000	24.418090
1769.000000	24.307627
1768.000000	24.179333
1767.000000	24.054739
1766.000000	23.950220
1765.000000	23.857251
1764.000000	23.770675
1763.000000	23.716397
1762.000000	23.696996
1761.000000	23.717967
1760.000000	23.743199
1759.000000	23.783348
1758.000000	23.852990
1757.000000	23.919604
1756.000000	24.004386
1755.000000	24.047226
1754.000000	24.085579
1753.000000	24.127858
1752.000000	24.164754
1751.000000	24.164642
1750.000000	24.167670
1749.000000	24.142437
1748.000000	24.097579
1747.000000	24.042964
1746.000000	23.969733
1745.000000	23.886073
1744.000000	23.766414
1743.000000	23.641708
1742.000000	23.470238
1741.000000	23.278133
1740.000000	23.092083
1739.000000	22.869923
1738.000000	22.651128
1737.000000	22.439285
1736.000000	22.248974
1735.000000	22.092531
1734.000000	21.984311
1733.000000	21.913211
1732.000000	21.885175
1731.000000	21.906034
1730.000000	21.962555
1729.000000	22.052608
1728.000000	22.149277
1727.000000	22.242918
1726.000000	22.353942
1725.000000	22.454088
1724.000000	22.540104
1723.000000	22.612213
1722.000000	22.682304
1721.000000	22.738825
1720.000000	22.781216
1719.000000	22.825626
1718.000000	22.865998
1717.000000	22.932837
1716.000000	23.021095
1715.000000	23.113167
1714.000000	23.203444
1713.000000	23.294169
1712.000000	23.377718
1711.000000	23.442874
1710.000000	23.510273
1709.000000	23.576551
1708.000000	23.584962
1707.000000	23.584738
1706.000000	23.564215
1705.000000	23.522722
1704.000000	23.458462
1703.000000	23.394764
1702.000000	23.302019
1701.000000	23.199406
1700.000000	23.058776
1699.000000	22.918146
1698.000000	22.771347
1697.000000	22.615578
1696.000000	22.474723
1695.000000	22.381306
1694.000000	22.363138
1693.000000	22.403062
1692.000000	22.476517
1691.000000	22.626007
1690.000000	22.782786
1689.000000	22.929360
1688.000000	23.068084
1687.000000	23.161950
1686.000000	23.271628
1685.000000	23.339812
1684.000000	23.401156
1683.000000	23.541562
1682.000000	23.782899
1681.000000	24.091299
1680.000000	24.489751
1679.000000	25.011340
1678.000000	25.540217
1677.000000	26.100720
1676.000000	26.655728
1675.000000	27.152083
1674.000000	27.611767
1673.000000	28.032537
1672.000000	28.371777
1671.000000	28.686905
1670.000000	28.937326
1669.000000	29.190774
1668.000000	29.404636
1667.000000	29.595619
1666.000000	29.740287
1665.000000	29.897739
1664.000000	30.005399
1663.000000	30.129431
1662.000000	30.210849
1661.000000	30.308864
1660.000000	30.380525
1659.000000	30.458802
1658.000000	30.508034
1657.000000	30.553565
1656.000000	30.574088
1655.000000	30.609974
1654.000000	30.604255
1653.000000	30.608853
1652.000000	30.608516
1651.000000	30.577677
1650.000000	30.558388
1649.000000	30.508259
1648.000000	30.490988
1647.000000	30.428972
1646.000000	30.378170
1645.000000	30.316602
1644.000000	30.267819
1643.000000	30.202774
1642.000000	30.135263
1641.000000	30.069321
1640.000000	29.992165
1639.000000	29.931943
1638.000000	29.855797
1637.000000	29.803537
1636.000000	29.714045
1635.000000	29.646533
1634.000000	29.566461
1633.000000	29.474390
1632.000000	29.396113
1631.000000	29.294509
1630.000000	29.209391
1629.000000	29.110254
1628.000000	29.017958
1627.000000	28.916130
1626.000000	28.818452
1625.000000	28.721558
1624.000000	28.606497
1623.000000	28.526313
1622.000000	28.438391
1621.000000	28.328601
1620.000000	28.250435
1619.000000	28.153205
1618.000000	28.080311
1617.000000	27.990482
1616.000000	27.894037
1615.000000	27.802975
1614.000000	27.732323
1613.000000	27.635654
1612.000000	27.535733
1611.000000	27.465417
1610.000000	27.376038
1609.000000	27.277574
1608.000000	27.204567
1607.000000	27.117991
1606.000000	27.031303
1605.000000	26.932615
1604.000000	26.842562
1603.000000	26.745893
1602.000000	26.656064
1601.000000	26.574759
1600.000000	26.495920
1599.000000	26.380747
1598.000000	26.288676
1597.000000	26.202772
1596.000000	26.135373
1595.000000	26.050030
1594.000000	25.964688
1593.000000	25.893363
1592.000000	25.803871
1591.000000	25.737257
1590.000000	25.658867
1589.000000	25.598757
1588.000000	25.523956
1587.000000	25.458688
1586.000000	25.405643
1585.000000	25.330954
1584.000000	25.263891
1583.000000	25.196492
1582.000000	25.153091
1581.000000	25.084234
1580.000000	25.039825
1579.000000	24.978593
1578.000000	24.945959
1577.000000	24.901325
1576.000000	24.864653
1575.000000	24.844692
1574.000000	24.832468
1573.000000	24.795123
1572.000000	24.780881
1571.000000	24.756657
1570.000000	24.737368
1569.000000	24.733780
1568.000000	24.737032
1567.000000	24.722005
1566.000000	24.704061
1565.000000	24.702491
1564.000000	24.711463
1563.000000	24.709669
1562.000000	24.706865
1561.000000	24.711239
1560.000000	24.695426
1559.000000	24.670081
1558.000000	24.647316
1557.000000	24.634531
1556.000000	24.622756
1555.000000	24.587542
1554.000000	24.559057
1553.000000	24.528442
1552.000000	24.473490
1551.000000	24.422128
1550.000000	24.383438
1549.000000	24.328711
1548.000000	24.277012
1547.000000	24.233387
1546.000000	24.200865
1545.000000	24.149054
1544.000000	24.110924
1543.000000	24.068982
1542.000000	24.043076
1541.000000	24.009545
1540.000000	23.962219
1539.000000	23.936762
1538.000000	23.911305
1537.000000	23.870709
1536.000000	23.840430
1535.000000	23.810711
1534.000000	23.761591
1533.000000	23.720098
1532.000000	23.676922
1531.000000	23.641708
1530.000000	23.597186
1529.000000	23.553225
1528.000000	23.499732
1527.000000	23.430987
1526.000000	23.386016
1525.000000	23.352485
1524.000000	23.279366
1523.000000	23.211967
1522.000000	23.158698
1521.000000	23.091635
1520.000000	23.037917
1519.000000	22.980611
1518.000000	22.911978
1517.000000	22.850186
1516.000000	22.796019
1515.000000	22.711910
1514.000000	22.645296
1513.000000	22.604475
1512.000000	22.535057
1511.000000	22.450499
1510.000000	22.378166
1509.000000	22.309981
1508.000000	22.240788
1507.000000	22.166772
1506.000000	22.085690
1505.000000	22.017170
1504.000000	21.962218
1503.000000	21.889997
1502.000000	21.824952
1501.000000	21.760132
1500.000000	21.681182
1499.000000	21.603914
1498.000000	21.548850
1497.000000	21.499955
1496.000000	21.442200
1495.000000	21.385342
1494.000000	21.345194
1493.000000	21.293047
1492.000000	21.227778
1491.000000	21.192116
1490.000000	21.166323
1489.000000	21.129651
1488.000000	21.093652
1487.000000	21.047224
1486.000000	21.004497
1485.000000	20.960984
1484.000000	20.938219
1483.000000	20.907042
1482.000000	20.890333
1481.000000	20.862408
1480.000000	20.840877
1479.000000	20.816541
1478.000000	20.788280
1477.000000	20.777066
1476.000000	20.767421
1475.000000	20.749927
1474.000000	20.732544
1473.000000	20.733666
1472.000000	20.740394
1471.000000	20.750263
1470.000000	20.740394
1469.000000	20.713704
1468.000000	20.726488
1467.000000	20.735572
1466.000000	20.744207
1465.000000	20.756768
1464.000000	20.765627
1463.000000	20.785477
1462.000000	20.800841
1461.000000	20.835830
1460.000000	20.879342
1459.000000	20.925434
1458.000000	20.977021
1457.000000	21.031187
1456.000000	21.084120
1455.000000	21.146921
1454.000000	21.216115
1453.000000	21.283851
1452.000000	21.355063
1451.000000	21.443882
1450.000000	21.538197
1449.000000	21.609633
1448.000000	21.677593
1447.000000	21.776281
1446.000000	21.878334
1445.000000	21.977919
1444.000000	22.075373
1443.000000	22.169127
1442.000000	22.272076
1441.000000	22.397343
1440.000000	22.519020
1439.000000	22.635091
1438.000000	22.747012
1437.000000	22.868914
1436.000000	22.993059
1435.000000	23.121578
1434.000000	23.265684
1433.000000	23.408333
1432.000000	23.558272
1431.000000	23.702939
1430.000000	23.850523
1429.000000	23.996985
1428.000000	24.187183
1427.000000	24.393419
1426.000000	24.572515
1425.000000	24.796693
1424.000000	25.053843
1423.000000	25.274657
1422.000000	25.527657
1421.000000	25.764957
1420.000000	26.035564
1419.000000	26.325235
1418.000000	26.613112
1417.000000	26.897177
1416.000000	27.151971
1415.000000	27.490089
1414.000000	27.844245
1413.000000	28.204568
1412.000000	28.535621
1411.000000	28.836619
1410.000000	29.233838
1409.000000	29.714045
1408.000000	30.150290
1407.000000	30.615582
1406.000000	31.093657
1405.000000	31.576780
1404.000000	32.075939
1403.000000	32.566912
1402.000000	33.071454
1401.000000	33.582388
1400.000000	34.179899
1399.000000	34.702496
1398.000000	35.122705
1397.000000	35.502654
1396.000000	35.931386
1395.000000	36.468450
1394.000000	36.932283
1393.000000	37.315708
1392.000000	37.701937
1391.000000	38.181920
1390.000000	38.664593
1389.000000	39.097811
1388.000000	39.640258
1387.000000	40.261207
1386.000000	40.840663
1385.000000	41.416417
1384.000000	42.060356
1383.000000	42.722350
1382.000000	43.437053
1381.000000	44.034227
1380.000000	44.573534
1379.000000	44.931503
1378.000000	45.261883
1377.000000	45.544938
1376.000000	45.776630
1375.000000	46.041406
1374.000000	46.321993
1373.000000	46.622992
1372.000000	46.962119
1371.000000	47.349133
1370.000000	47.771248
1369.000000	48.118450
1368.000000	48.455223
1367.000000	48.814425
1366.000000	49.115759
1365.000000	49.340723
1364.000000	49.617274
1363.000000	49.823061
1362.000000	50.032212
1361.000000	50.252690
1360.000000	50.410142
1359.000000	50.476195
1358.000000	50.622321
1357.000000	50.775511
1356.000000	50.923319
1355.000000	51.195384
1354.000000	51.545165
1353.000000	51.949001
1352.000000	52.322669
1351.000000	52.842463
1350.000000	53.370780
1349.000000	53.816334
1348.000000	54.259196
1347.000000	54.679741
1346.000000	55.069110
1345.000000	55.440536
1344.000000	55.806466
1343.000000	56.170714
1342.000000	56.508160
1341.000000	56.848745
1340.000000	57.177444
1339.000000	57.503114
1338.000000	57.834616
1337.000000	58.143688
1336.000000	58.433696
1335.000000	58.715966
1334.000000	59.028628
1333.000000	59.308094
1332.000000	59.580495
1331.000000	59.856934
1330.000000	60.099616
1329.000000	60.351831
1328.000000	60.589692
1327.000000	60.819478
1326.000000	61.052516
1325.000000	61.282077
1324.000000	61.468127
1323.000000	61.659110
1322.000000	61.843926
1321.000000	62.038386
1320.000000	62.222304
1319.000000	62.376392
1318.000000	62.538779
1317.000000	62.686138
1316.000000	62.838095
1315.000000	62.993528
1314.000000	63.148962
1313.000000	63.255612
1312.000000	63.378299
1311.000000	63.498968
1310.000000	63.618066
1309.000000	63.734697
1308.000000	63.812526
1307.000000	63.898766
1306.000000	63.972894
1305.000000	64.054760
1304.000000	64.148289
1303.000000	64.196624
1302.000000	64.242155
1301.000000	64.271425
1300.000000	64.309667
1299.000000	64.337254
1298.000000	64.369328
1297.000000	64.409588
1296.000000	64.425289
1295.000000	64.421700
1294.000000	64.443680
1293.000000	64.460951
1292.000000	64.457699
1291.000000	64.439195
1290.000000	64.443344
1289.000000	64.423943
1288.000000	64.408018
1287.000000	64.381440
1286.000000	64.344432
1285.000000	64.307424
1284.000000	64.239127
1283.000000	64.196176
1282.000000	64.162308
1281.000000	64.101413
1280.000000	64.051396
1279.000000	63.999472
1278.000000	63.937793
1277.000000	63.881720
1276.000000	63.835852
1275.000000	63.789536
1274.000000	63.749164
1273.000000	63.703296
1272.000000	63.666064
1271.000000	63.648121
1270.000000	63.621430
1269.000000	63.569843
1268.000000	63.540910
1267.000000	63.507827
1266.000000	63.465997
1265.000000	63.432353
1264.000000	63.388056
1263.000000	63.343646
1262.000000	63.292508
1261.000000	63.234977
1260.000000	63.194044
1259.000000	63.157821
1258.000000	63.110384
1257.000000	63.040181
1256.000000	62.973118
1255.000000	62.910989
1254.000000	62.840786
1253.000000	62.772602
1252.000000	62.695446
1251.000000	62.599001
1250.000000	62.515340
1249.000000	62.417213
1248.000000	62.322899
1247.000000	62.221856
1246.000000	62.111168
1245.000000	62.001490
1244.000000	61.870504
1243.000000	61.738173
1242.000000	61.607523
1241.000000	61.484724
1240.000000	61.354972
1239.000000	61.209856
1238.000000	61.068552
1237.000000	60.927361
1236.000000	60.779890
1235.000000	60.640494
1234.000000	60.484163
1233.000000	60.327271
1232.000000	60.168474
1231.000000	60.005414
1230.000000	59.832486
1229.000000	59.648119
1228.000000	59.484611
1227.000000	59.303272
1226.000000	59.111055
1225.000000	58.927473
1224.000000	58.741087
1223.000000	58.549430
1222.000000	58.365736
1221.000000	58.174080
1220.000000	57.968405
1219.000000	57.780562
1218.000000	57.598886
1217.000000	57.413398
1216.000000	57.242151
1215.000000	57.084699
1214.000000	56.897753
1213.000000	56.739292
1212.000000	56.587559
1211.000000	56.414855
1210.000000	56.268954
1209.000000	56.112062
1208.000000	55.968180
1207.000000	55.833493
1206.000000	55.701274
1205.000000	55.574774
1204.000000	55.487973
1203.000000	55.408574
1202.000000	55.324353
1201.000000	55.247533
1200.000000	55.172060
1199.000000	55.088511
1198.000000	54.986347
1197.000000	54.873192
1196.000000	54.736935
1195.000000	54.552120
1194.000000	54.300690
1193.000000	54.010233
1192.000000	53.693310
1191.000000	53.305512
1190.000000	52.888779
1189.000000	52.476757
1188.000000	52.111612
1187.000000	51.816894
1186.000000	51.606621
1185.000000	51.513765
1184.000000	51.557053
1183.000000	51.712486
1182.000000	51.967168
1181.000000	52.353397
1180.000000	52.771251
1179.000000	53.228580
1178.000000	53.676489
1177.000000	54.101744
1176.000000	54.476646
1175.000000	54.817119
1174.000000	55.133145
1173.000000	55.419228
1172.000000	55.710357
1171.000000	55.997001
1170.000000	56.310784
1169.000000	56.602811
1168.000000	56.913453
1167.000000	57.245740
1166.000000	57.569504
1165.000000	57.905267
1164.000000	58.224882
1163.000000	58.573317
1162.000000	58.939921
1161.000000	59.284095
1160.000000	59.618625
1159.000000	59.950911
1158.000000	60.268507
1157.000000	60.585094
1156.000000	60.884634
1155.000000	61.145484
1154.000000	61.384690
1153.000000	61.595748
1152.000000	61.756452
1151.000000	61.889905
1150.000000	61.982425
1149.000000	62.063282
1148.000000	62.139205
1147.000000	62.239575
1146.000000	62.350711
1145.000000	62.512761
1144.000000	62.711707
1143.000000	62.938128
1142.000000	63.226566
1141.000000	63.550554
1140.000000	63.879925
1139.000000	64.202231
1138.000000	64.566031
1137.000000	64.929046
1136.000000	65.305854
1135.000000	65.710251
1134.000000	66.131581
1133.000000	66.507604
1132.000000	66.819593
1131.000000	67.121937
1130.000000	67.405440
1129.000000	67.683337
1128.000000	67.878470
1127.000000	68.074612
1126.000000	68.202570
1125.000000	68.321668
1124.000000	68.402077
1123.000000	68.486186
1122.000000	68.521175
1121.000000	68.580163
1120.000000	68.601247
1119.000000	68.615826
1118.000000	68.598667
1117.000000	68.592948
1116.000000	68.605620
1115.000000	68.572762
1114.000000	68.542034
1113.000000	68.519268
1112.000000	68.492354
1111.000000	68.465327
1110.000000	68.430449
1109.000000	68.408581
1108.000000	68.374264
1107.000000	68.324248
1106.000000	68.308547
1105.000000	68.278941
1104.000000	68.245073
1103.000000	68.199542
1102.000000	68.163880
1101.000000	68.112405
1100.000000	68.087060
1099.000000	68.030202
1098.000000	68.009792
1097.000000	67.965046
1096.000000	67.897534
1095.000000	67.831817
1094.000000	67.780342
1093.000000	67.740082
1092.000000	67.660235
1091.000000	67.592275
1090.000000	67.508614
1089.000000	67.470933
1088.000000	67.381441
1087.000000	67.331200
1086.000000	67.246867
1085.000000	67.181262
1084.000000	67.105788
1083.000000	67.011474
1082.000000	66.955064
1081.000000	66.844826
1080.000000	66.769800
1079.000000	66.683560
1078.000000	66.610217
1077.000000	66.523305
1076.000000	66.444803
1075.000000	66.376394
1074.000000	66.296435
1073.000000	66.174308
1072.000000	66.105227
1071.000000	66.007772
1070.000000	65.924673
1069.000000	65.836526
1068.000000	65.772940
1067.000000	65.655524
1066.000000	65.582293
1065.000000	65.471493
1064.000000	65.395795
1063.000000	65.291724
1062.000000	65.192812
1061.000000	65.095918
1060.000000	65.000931
1059.000000	64.925345
1058.000000	64.815442
1057.000000	64.702736
1056.000000	64.587787
1055.000000	64.502557
1054.000000	64.411383
1053.000000	64.286789
1052.000000	64.162308
1051.000000	64.088179
1050.000000	63.990725
1049.000000	63.890916
1048.000000	63.784378
1047.000000	63.685914
1046.000000	63.587899
1045.000000	63.484501
1044.000000	63.412952
1043.000000	63.342525
1042.000000	63.228473
1041.000000	63.129897
1040.000000	63.038162
1039.000000	62.947436
1038.000000	62.835291
1037.000000	62.751855
1036.000000	62.664157
1035.000000	62.563339
1034.000000	62.461174
1033.000000	62.345328
1032.000000	62.226117
1031.000000	62.108589
1030.000000	62.015284
1029.000000	61.901456
1028.000000	61.804563
1027.000000	61.691184
1026.000000	61.551451
1025.000000	61.446819
1024.000000	61.339496
1023.000000	61.205594
1022.000000	61.099953
1021.000000	60.972107
1020.000000	60.832823
1019.000000	60.736266
1018.000000	60.609878
1017.000000	60.487751
1016.000000	60.389849
1015.000000	60.286899
1014.000000	60.198865
1013.000000	60.097822
1012.000000	60.007433
1011.000000	59.913118
1010.000000	59.827439
1009.000000	59.762395
1008.000000	59.692865
1007.000000	59.616606
1006.000000	59.537544
1005.000000	59.470481
1004.000000	59.412277
1003.000000	59.362821
1002.000000	59.289926
1001.000000	59.202004
1000.000000	59.120923
999.000000	59.080215
998.000000	59.014497
997.000000	58.960668
996.000000	58.877904
995.000000	58.792786
994.000000	58.742433
993.000000	58.687706
992.000000	58.621316
991.000000	58.561206
990.000000	58.490442
989.000000	58.430668
988.000000	58.373923
987.000000	58.331756
986.000000	58.275796
985.000000	58.206378
984.000000	58.163314
983.000000	58.137184
982.000000	58.073149
981.000000	58.011693
980.000000	57.960779
979.000000	57.936892
978.000000	57.894726
977.000000	57.821158
976.000000	57.775403
975.000000	57.729760
974.000000	57.692864
973.000000	57.638361
972.000000	57.573765
971.000000	57.543374
970.000000	57.517132
969.000000	57.469695
968.000000	57.414519
967.000000	57.364726
966.000000	57.325251
965.000000	57.277365
964.000000	57.245852
963.000000	57.218265
962.000000	57.180696
961.000000	57.139426
960.000000	57.114194
959.000000	57.098269
958.000000	57.084587
957.000000	57.054644
956.000000	57.015057
955.000000	56.978946
954.000000	56.950349
953.000000	56.909977
952.000000	56.855026
951.000000	56.832596
950.000000	56.803775
949.000000	56.759926
948.000000	56.733460
947.000000	56.690733
946.000000	56.640491
945.000000	56.604156
944.000000	56.583746
943.000000	56.539112
942.000000	56.467675
941.000000	56.436835
940.000000	56.381660
939.000000	56.299457
938.000000	56.242936
937.000000	56.184733
936.000000	56.147837
935.000000	56.103427
934.000000	56.034794
933.000000	55.965264
932.000000	55.897304
931.000000	55.865791
930.000000	55.810167
929.000000	55.738618
928.000000	55.670097
927.000000	55.619856
926.000000	55.558961
925.000000	55.478217
924.000000	55.389510
923.000000	55.294074
922.000000	55.265365
921.000000	55.213217
920.000000	55.122716
919.000000	55.050606
918.000000	54.979282
917.000000	54.894948
916.000000	54.800970
915.000000	54.719777
914.000000	54.635107
913.000000	54.545167
912.000000	54.460385
911.000000	54.372911
910.000000	54.294298
909.000000	54.213104
908.000000	54.147948
907.000000	54.085259
906.000000	54.021448
905.000000	53.964478
904.000000	53.905602
903.000000	53.866126
902.000000	53.803886
901.000000	53.753308
900.000000	53.707441
899.000000	53.677161
898.000000	53.634883
897.000000	53.588230
896.000000	53.533727
895.000000	53.471375
894.000000	53.411377
893.000000	53.355416
892.000000	53.266036
891.000000	53.194488
890.000000	53.162638
889.000000	53.078866
888.000000	53.006868
887.000000	52.896966
886.000000	52.796708
885.000000	52.668414
884.000000	52.568156
883.000000	52.437730
882.000000	52.346893
881.000000	52.213440
880.000000	52.108135
879.000000	51.970084
878.000000	51.820594
877.000000	51.644190
876.000000	51.438403
875.000000	51.257288
874.000000	51.107910
873.000000	50.901339
872.000000	50.661572
871.000000	50.454439
870.000000	50.361022
869.000000	50.349583
868.000000	50.359452
867.000000	50.390853
866.000000	50.393432
865.000000	50.400721
864.000000	50.403974
863.000000	50.440645
862.000000	50.423487
861.000000	50.426515
860.000000	50.455673
859.000000	50.454776
858.000000	50.441767
857.000000	49.851400
856.000000	50.664400
855.000000	50.809500
854.000000	50.912000
853.000000	51.122600
852.000000	51.089900
851.000000	50.860600
850.000000	50.781200
849.000000	50.814000
848.000000	50.790300
847.000000	50.922600
846.000000	50.927500
845.000000	50.952400
844.000000	50.838400
843.000000	50.957400
842.000000	50.842200
841.000000	50.802900
840.000000	50.968200
839.000000	50.906000
838.000000	50.811500
837.000000	50.669300
836.000000	51.035100
835.000000	50.553900
834.000000	50.698300
833.000000	50.597500
832.000000	50.779300
831.000000	50.535700
830.000000	50.741900
829.000000	50.877600
828.000000	50.706300
827.000000	50.714400
826.000000	50.577700
825.000000	50.605300
824.000000	50.498600
823.000000	50.509700
822.000000	50.666800
821.000000	50.436200
820.000000	50.421000
819.000000	50.375600
818.000000	50.343200
817.000000	50.331800
816.000000	50.169700
815.000000	50.223400
814.000000	50.143400
813.000000	50.205400
812.000000	50.131900
811.000000	50.117900
810.000000	50.092200
809.000000	49.827900
808.000000	49.899800
807.000000	49.817000
806.000000	49.749300
805.000000	49.688500
804.000000	49.673000
803.000000	49.576000
802.000000	49.508000
801.000000	49.403400
800.000000	49.571700
799.000000	49.292300
798.000000	49.341300
797.000000	49.109800
796.000000	49.301300
795.000000	49.005000
794.000000	48.993100
793.000000	48.992700
792.000000	48.901200
791.000000	48.872300
790.000000	48.846000
789.000000	48.731900
788.000000	48.541900
787.000000	48.530200
786.000000	48.482300
785.000000	48.124700
784.000000	48.174600
783.000000	48.142000
782.000000	48.020600
781.000000	47.786100
780.000000	47.725000
779.000000	47.762600
778.000000	47.563800
777.000000	47.537200
776.000000	47.409700
775.000000	47.250500
774.000000	47.157200
773.000000	46.976600
772.000000	46.967900
771.000000	46.852400
770.000000	46.721500
769.000000	46.485300
768.000000	46.383600
767.000000	46.138900
766.000000	46.066400
765.000000	45.922100
764.000000	45.805800
763.000000	45.727600
762.000000	45.495100
761.000000	45.387700
760.000000	45.197200
759.000000	45.110000
758.000000	45.009100
757.000000	44.682500
756.000000	44.676000
755.000000	44.421300
754.000000	44.337400
753.000000	44.198700
752.000000	43.992100
751.000000	43.748900
750.000000	43.605800
749.000000	43.376600
748.000000	43.311700
747.000000	43.008200
746.000000	42.837300
745.000000	42.757300
744.000000	42.533600
743.000000	42.291100
742.000000	42.088000
741.000000	41.909700
740.000000	41.684900
739.000000	41.472100
738.000000	41.270400
737.000000	41.035900
736.000000	40.910300
735.000000	40.676800
734.000000	40.418400
733.000000	40.306100
732.000000	40.129300
731.000000	39.881400
730.000000	39.616500
729.000000	39.389300
728.000000	39.187200
727.000000	38.966900
726.000000	38.703500
725.000000	38.469200
724.000000	38.189100
723.000000	37.994300
722.000000	37.774000
721.000000	37.503400
720.000000	37.278400
719.000000	36.999900
718.000000	36.761300
717.000000	36.566800
716.000000	36.350300
715.000000	36.094600
714.000000	35.817900
713.000000	35.589400
712.000000	35.300400
711.000000	35.080100
710.000000	34.799600
709.000000	34.564200
708.000000	34.351500
707.000000	34.085100
706.000000	33.762800
705.000000	33.510400
704.000000	33.262800
703.000000	32.976500
702.000000	32.717100
701.000000	32.468300
700.000000	32.205300
699.000000	31.939300
698.000000	31.665000
697.000000	31.383900
696.000000	31.101100
695.000000	30.872300
694.000000	30.607100
693.000000	30.367500
692.000000	30.091400
691.000000	29.818800
690.000000	29.577400
689.000000	29.329200
688.000000	29.108200
687.000000	28.872000
686.000000	28.642800
685.000000	28.450500
684.000000	28.209500
683.000000	27.954900
682.000000	27.743900
681.000000	27.539100
680.000000	27.314100
679.000000	27.096700
678.000000	26.926000
677.000000	26.732600
676.000000	26.521900
675.000000	26.331400
674.000000	26.138100
673.000000	25.953100
672.000000	25.745800
671.000000	25.548000
670.000000	25.362500
669.000000	25.170000
668.000000	24.990500
667.000000	24.793600
666.000000	24.615200
665.000000	24.455700
664.000000	24.302600
663.000000	24.107100
662.000000	23.960900
661.000000	23.847000
660.000000	23.708400
659.000000	23.606100
658.000000	23.494700
657.000000	23.358700
656.000000	23.259600
655.000000	23.160100
654.000000	23.066800
653.000000	23.008900
652.000000	22.983900
651.000000	22.928700
650.000000	22.878800
649.000000	22.854000
648.000000	22.824900
647.000000	22.811400
646.000000	22.806500
645.000000	22.803700
644.000000	22.801500
643.000000	22.793900
642.000000	22.794600
641.000000	22.813600
640.000000	22.819800
639.000000	22.815400
638.000000	22.814200
637.000000	22.823600
636.000000	22.820700
635.000000	22.820600
634.000000	22.832200
633.000000	22.842900
632.000000	22.852900
631.000000	22.845000
630.000000	22.863800
629.000000	22.889900
628.000000	22.926600
627.000000	22.967100
626.000000	22.993000
625.000000	23.063800
624.000000	23.143500
623.000000	23.216000
622.000000	23.304200
621.000000	23.405100
620.000000	23.498700
619.000000	23.596100
618.000000	23.699700
617.000000	23.811100
616.000000	23.926700
615.000000	24.057200
614.000000	24.192000
613.000000	24.314800
612.000000	24.434700
611.000000	24.556700
610.000000	24.675100
609.000000	24.772400
608.000000	24.869100
607.000000	24.959900
606.000000	25.045300
605.000000	25.127400
604.000000	25.208200
603.000000	25.262700
602.000000	25.336900
601.000000	25.415400
600.000000	25.464900
599.000000	25.542100
598.000000	25.588400
597.000000	25.636000
596.000000	25.706400
595.000000	25.774300
594.000000	25.840200
593.000000	25.910600
592.000000	25.966700
591.000000	26.035500
590.000000	26.108100
589.000000	26.195800
588.000000	26.283300
587.000000	26.360200
586.000000	26.424800
585.000000	26.497000
584.000000	26.574300
583.000000	26.640500
582.000000	26.706200
581.000000	26.790900
580.000000	26.835500
579.000000	26.913500
578.000000	26.973100
577.000000	27.034200
576.000000	27.087000
575.000000	27.133800
574.000000	27.169100
573.000000	27.232200
572.000000	27.259000
571.000000	27.276600
570.000000	27.310800
569.000000	27.338700
568.000000	27.361700
567.000000	27.391100
566.000000	27.409900
565.000000	27.391500
564.000000	27.390100
563.000000	27.394000
562.000000	27.387400
561.000000	27.356800
560.000000	27.356400
559.000000	27.385400
558.000000	27.380600
557.000000	27.349500
556.000000	27.341500
555.000000	27.296800
554.000000	27.254300
553.000000	27.200900
552.000000	27.152000
551.000000	27.098200
550.000000	27.024200
549.000000	26.925300
548.000000	26.855900
547.000000	26.773800
546.000000	26.676300
545.000000	26.568600
544.000000	26.464900
543.000000	26.328600
542.000000	26.200900
541.000000	26.046700
540.000000	25.884200
539.000000	25.725700
538.000000	25.571500
537.000000	25.374000
536.000000	25.217600
535.000000	25.007200
534.000000	24.807100
533.000000	24.588700
532.000000	24.347100
531.000000	24.109100
530.000000	23.860800
529.000000	23.612200
528.000000	23.351200
527.000000	23.098500
526.000000	22.831900
525.000000	22.530700
524.000000	22.224600
523.000000	21.934500
522.000000	21.617900
521.000000	21.290100
520.000000	20.967100
519.000000	20.642800
518.000000	20.316400
517.000000	19.965200
516.000000	19.648500
515.000000	19.292600
514.000000	18.943400
513.000000	18.619100
512.000000	18.276000
511.000000	17.942900
510.000000	17.593800
509.000000	17.291600
508.000000	16.973700
507.000000	16.628500
506.000000	16.284100
505.000000	16.015300
504.000000	15.684100
503.000000	15.410500
502.000000	15.117400
501.000000	14.830800
500.000000	14.546700
499.000000	14.249300
498.000000	13.984600
497.000000	13.737300
496.000000	13.504500
495.000000	13.267100
494.000000	13.019300
493.000000	12.804500
492.000000	12.580000
491.000000	12.375900
490.000000	12.182200
489.000000	11.981000
488.000000	11.808300
487.000000	11.616700
486.000000	11.441900
485.000000	11.291500
484.000000	11.120800
483.000000	10.979700
482.000000	10.813700
481.000000	10.666300
480.000000	10.518900
479.000000	10.384300
478.000000	10.243900
477.000000	10.124200
476.000000	10.013500
475.000000	9.882300
474.000000	9.777100
473.000000	9.669300
472.000000	9.570000
471.000000	9.478100
470.000000	9.383900
469.000000	9.284600
468.000000	9.216500
467.000000	9.150300
466.000000	9.048100
465.000000	8.987500
464.000000	8.925300
463.000000	8.855100
462.000000	8.797500
461.000000	8.706600
460.000000	8.639300
459.000000	8.591300
458.000000	8.537600
457.000000	8.469900
456.000000	8.403600
455.000000	8.363100
454.000000	8.313500
453.000000	8.268500
452.000000	8.221400
451.000000	8.147300
450.000000	8.098500
449.000000	8.037400
448.000000	7.974200
447.000000	7.898100
446.000000	7.857800
445.000000	7.822500
444.000000	7.732600
443.000000	7.678000
442.000000	7.615800
441.000000	7.538100
440.000000	7.484500
439.000000	7.427200
438.000000	7.364000
437.000000	7.323500
436.000000	7.263700
435.000000	7.178300
434.000000	7.131100
433.000000	7.052100
432.000000	7.002100
431.000000	6.948700
430.000000	6.877700
429.000000	6.818200
428.000000	6.775900
427.000000	6.719100
426.000000	6.655900
425.000000	6.619800
424.000000	6.555900
423.000000	6.520900
422.000000	6.459900
421.000000	6.399400
420.000000	6.354800
419.000000	6.304900
418.000000	6.248500
417.000000	6.200700
416.000000	6.166200
415.000000	6.119200
414.000000	6.060700
413.000000	6.003600
412.000000	5.951500
411.000000	5.917300
410.000000	5.870000
409.000000	5.829500
408.000000	5.793500
407.000000	5.718100
406.000000	5.677600
405.000000	5.626700
404.000000	5.584000
403.000000	5.533800
402.000000	5.495400
401.000000	5.466600
400.000000	5.421100
399.000000	5.373500
398.000000	5.316700
397.000000	5.283000
396.000000	5.246500
395.000000	5.206200
394.000000	5.169700
393.000000	5.132900
392.000000	5.081700
391.000000	5.038700
390.000000	5.009100
389.000000	4.983400
388.000000	4.950700
387.000000	4.908800
386.000000	4.874500
385.000000	4.850200
384.000000	4.828000
383.000000	4.789500
382.000000	4.748800
381.000000	4.717800
380.000000	4.701700
379.000000	4.678400
378.000000	4.662300
377.000000	4.647200
376.000000	4.564400
375.000000	4.459400
374.000000	4.440600
373.000000	4.464700
372.000000	4.459900
371.000000	4.419100
370.000000	4.480500
369.000000	4.489400
368.000000	4.440600
367.000000	4.425000
366.000000	4.357800
365.000000	4.338400
364.000000	4.366800
363.000000	4.361800
362.000000	4.410200
361.000000	4.393500
360.000000	4.332400
359.000000	4.299800
358.000000	4.334900
357.000000	4.316400
356.000000	4.307900
355.000000	4.339600
354.000000	4.288000
353.000000	4.212200
352.000000	4.288900
351.000000	4.306000
350.000000	4.309100
349.000000	4.363500
348.000000	4.257300
347.000000	4.284200
346.000000	4.317700
345.000000	4.294300
344.000000	4.349700
343.000000	4.356300
342.000000	4.308900
341.000000	4.322000
340.000000	4.340600
339.000000	4.330000
338.000000	4.304900
337.000000	4.250000
336.000000	4.231900
335.000000	4.235000
334.000000	4.228600
333.000000	4.261700
332.000000	4.341300
331.000000	4.419700
330.000000	4.349600
329.000000	4.155300
328.000000	4.199400
327.000000	4.259700
326.000000	4.204100
325.000000	4.229100
324.000000	4.226000
323.000000	4.343900
322.000000	4.336900
321.000000	4.273900
320.000000	4.198300
319.000000	4.206500
318.000000	4.269400
317.000000	4.383500
316.000000	4.395900
315.000000	4.338000
314.000000	4.335200
313.000000	4.321700
312.000000	4.293300
311.000000	4.293300
310.000000	4.315800
309.000000	4.325400
308.000000	4.325900
307.000000	4.329300
306.000000	4.298000
305.000000	4.290500
304.000000	4.292200
303.000000	4.280900
302.000000	4.295700
301.000000	4.332000
300.000000	4.316500
299.000000	4.301300
298.000000	4.324900
297.000000	4.320800
296.000000	4.314800
295.000000	4.303900
294.000000	4.289400
293.000000	4.308200
292.000000	4.330700
291.000000	4.336400
290.000000	4.343700
289.000000	4.332600
288.000000	4.320800
287.000000	4.368200
286.000000	4.392300
285.000000	4.361000
284.000000	4.349800
283.000000	4.365000
282.000000	4.376700
281.000000	4.387300
280.000000	4.377600
279.000000	4.378300
278.000000	4.374400
277.000000	4.393200
276.000000	4.435200
275.000000	4.439900
274.000000	4.445600
273.000000	4.468900
272.000000	4.480700
271.000000	4.496000
270.000000	4.489100
269.000000	4.481600
268.000000	4.513000
267.000000	4.546600
266.000000	4.567100
265.000000	4.596700
264.000000	4.626000
263.000000	4.640100
262.000000	4.662200
261.000000	4.706500
260.000000	4.702100
259.000000	4.708300
258.000000	4.706800
257.000000	4.752600
256.000000	4.771200
255.000000	4.770600
254.000000	4.798100
253.000000	4.821600
252.000000	4.794800
251.000000	4.797300
250.000000	4.804000
