PE UV       SUBTECH     SPECTRUM    ASCII       PEDS        4.00        
   -1
CICIMAUCR0175-3.ASC
24/03/01
12:49:06.00
24/03/01
12:49:06.00
Vinicio Soto Monge
C.aurora. USA: AZ: Cochise Co, Chiricahua Mtns., Pine Canyon, 31°56.895'N 10920.495'W, 1798 m, 22.VII.2009 MV light, N.P. Lord, colr
250,000000
1
Lambda 1050
1050L1511233
PerkinElmer UV WinLab 6.3.2.0749 / 2.02.05 Lambda 900 UV/VIS/NIR, Aug  7 2015 09:38:08

0
0
3350/servo 860,8/2
0
0
UV/VIS
1
1
1
DoubleDePol,CommonBeamDepol,RBeamAtt,SBeamAtt,60mm sphere, WB InGaAs Detector
0
0
0
0
Program
Program
3350/servo 860,8/2
3350/0,2 860,8/0,2
3350/0,2 860,8/0,2
0
15.00
 
 
 
0
 
860,8
319,2
860,8
Front
100
on
S:100 R:100
0
0
0
0
 
0
 
 
 
0
 
 
0
0
0
0
0
 
 
 
 
0
0


0
0
#HDR
-1
-1
#GR
nm
%R
1.0
0.0
2500,000000
-1,000000
2251
8
20,716100
1,862600
#DATA
250.000000	nan
251.000000	nan
252.000000	nan
253.000000	nan
254.000000	nan
255.000000	nan
256.000000	nan
257.000000	nan
258.000000	nan
259.000000	nan
260.000000	nan
261.000000	nan
262.000000	nan
263.000000	nan
264.000000	nan
265.000000	nan
266.000000	nan
267.000000	nan
268.000000	nan
269.000000	nan
270.000000	nan
271.000000	nan
272.000000	nan
273.000000	nan
274.000000	nan
275.000000	nan
276.000000	nan
277.000000	nan
278.000000	nan
279.000000	nan
280.000000	nan
281.000000	nan
282.000000	nan
283.000000	nan
284.000000	2.032569
285.000000	2.028763
286.000000	2.025715
287.000000	2.022754
288.000000	2.019744
289.000000	2.016400
290.000000	2.013225
291.000000	2.010341
292.000000	2.006921
293.000000	2.003716
294.000000	2.000891
295.000000	1.997737
296.000000	1.994900
297.000000	1.991339
298.000000	1.988497
299.000000	1.986493
300.000000	1.984027
301.000000	1.981860
302.000000	1.980030
303.000000	1.979244
304.000000	1.977755
305.000000	1.977332
306.000000	1.976503
307.000000	1.975415
308.000000	1.974697
309.000000	1.974502
310.000000	1.974482
311.000000	1.974504
312.000000	1.974719
313.000000	1.974939
314.000000	1.975115
315.000000	1.975527
316.000000	1.976521
317.000000	1.982171
318.000000	1.988848
319.000000	1.993481
320.000000	1.997875
321.000000	2.001140
322.000000	2.004217
323.000000	2.008494
324.000000	2.014426
325.000000	2.018603
326.000000	2.023634
327.000000	2.027363
328.000000	2.032753
329.000000	2.036886
330.000000	2.041012
331.000000	2.045255
332.000000	2.050122
333.000000	2.055307
334.000000	2.059136
335.000000	2.064806
336.000000	2.069963
337.000000	2.074504
338.000000	2.079532
339.000000	2.085273
340.000000	2.090086
341.000000	2.096211
342.000000	2.100954
343.000000	2.106438
344.000000	2.110176
345.000000	2.115096
346.000000	2.121988
347.000000	2.128582
348.000000	2.136132
349.000000	2.142429
350.000000	2.149077
351.000000	2.157816
352.000000	2.161628
353.000000	2.165065
354.000000	2.171264
355.000000	2.176901
356.000000	2.183952
357.000000	2.193223
358.000000	2.202298
359.000000	2.210130
360.000000	2.221053
361.000000	2.232512
362.000000	2.244984
363.000000	2.257191
364.000000	2.273414
365.000000	2.290296
366.000000	2.307420
367.000000	2.325104
368.000000	2.343133
369.000000	2.364797
370.000000	2.385534
371.000000	2.407370
372.000000	2.431586
373.000000	2.456343
374.000000	2.482839
375.000000	2.509488
376.000000	2.535005
377.000000	2.558675
378.000000	2.583096
379.000000	2.610851
380.000000	2.638910
381.000000	2.666550
382.000000	2.696150
383.000000	2.726338
384.000000	2.759544
385.000000	2.794187
386.000000	2.827646
387.000000	2.862734
388.000000	2.899447
389.000000	2.936795
390.000000	2.976323
391.000000	3.016376
392.000000	3.056441
393.000000	3.097064
394.000000	3.138736
395.000000	3.180231
396.000000	3.222068
397.000000	3.265481
398.000000	3.308747
399.000000	3.350346
400.000000	3.392074
401.000000	3.434495
402.000000	3.477342
403.000000	3.520245
404.000000	3.561599
405.000000	3.602934
406.000000	3.644528
407.000000	3.684880
408.000000	3.724046
409.000000	3.762127
410.000000	3.800511
411.000000	3.840340
412.000000	3.883667
413.000000	3.925555
414.000000	3.966048
415.000000	4.005184
416.000000	4.042809
417.000000	4.078804
418.000000	4.113361
419.000000	4.146333
420.000000	4.177413
421.000000	4.206812
422.000000	4.234612
423.000000	4.260516
424.000000	4.284887
425.000000	4.307532
426.000000	4.328454
427.000000	4.347533
428.000000	4.365009
429.000000	4.381187
430.000000	4.395886
431.000000	4.408748
432.000000	4.420379
433.000000	4.430564
434.000000	4.439286
435.000000	4.446852
436.000000	4.453027
437.000000	4.458133
438.000000	4.462121
439.000000	4.465143
440.000000	4.467339
441.000000	4.468619
442.000000	4.469108
443.000000	4.468938
444.000000	4.468124
445.000000	4.466948
446.000000	4.465467
447.000000	4.463687
448.000000	4.461692
449.000000	4.459741
450.000000	4.458112
451.000000	4.456538
452.000000	4.455359
453.000000	4.454712
454.000000	4.454418
455.000000	4.454852
456.000000	4.456029
457.000000	4.457941
458.000000	4.460591
459.000000	4.463851
460.000000	4.468071
461.000000	4.473457
462.000000	4.480048
463.000000	4.487797
464.000000	4.496488
465.000000	4.506350
466.000000	4.517618
467.000000	4.530035
468.000000	4.543698
469.000000	4.558524
470.000000	4.574480
471.000000	4.591745
472.000000	4.610084
473.000000	4.629704
474.000000	4.650485
475.000000	4.672154
476.000000	4.694793
477.000000	4.718487
478.000000	4.743411
479.000000	4.769538
480.000000	4.796256
481.000000	4.823342
482.000000	4.850883
483.000000	4.879281
484.000000	4.908775
485.000000	4.939258
486.000000	4.971038
487.000000	5.004033
488.000000	5.038221
489.000000	5.073607
490.000000	5.110094
491.000000	5.147676
492.000000	5.186447
493.000000	5.226663
494.000000	5.268486
495.000000	5.311363
496.000000	5.355296
497.000000	5.400420
498.000000	5.446712
499.000000	5.494359
500.000000	5.543352
501.000000	5.593657
502.000000	5.645198
503.000000	5.698047
504.000000	5.752425
505.000000	5.808256
506.000000	5.865492
507.000000	5.924121
508.000000	5.983946
509.000000	6.044918
510.000000	6.107157
511.000000	6.170570
512.000000	6.235130
513.000000	6.300763
514.000000	6.367443
515.000000	6.435356
516.000000	6.504707
517.000000	6.575346
518.000000	6.646812
519.000000	6.718550
520.000000	6.790661
521.000000	6.862838
522.000000	6.935041
523.000000	7.007418
524.000000	7.080048
525.000000	7.152636
526.000000	7.225075
527.000000	7.297213
528.000000	7.368928
529.000000	7.440141
530.000000	7.511166
531.000000	7.581751
532.000000	7.651739
533.000000	7.721132
534.000000	7.789511
535.000000	7.856610
536.000000	7.922473
537.000000	7.987048
538.000000	8.050080
539.000000	8.111429
540.000000	8.171239
541.000000	8.229088
542.000000	8.285148
543.000000	8.339370
544.000000	8.391852
545.000000	8.442341
546.000000	8.491222
547.000000	8.538309
548.000000	8.583539
549.000000	8.626799
550.000000	8.668266
551.000000	8.707782
552.000000	8.745559
553.000000	8.781563
554.000000	8.815985
555.000000	8.848561
556.000000	8.879359
557.000000	8.908297
558.000000	8.935210
559.000000	8.960007
560.000000	8.975677
561.000000	8.988430
562.000000	8.999166
563.000000	9.007742
564.000000	9.014263
565.000000	9.018382
566.000000	9.020300
567.000000	9.020028
568.000000	9.017544
569.000000	9.012809
570.000000	9.005991
571.000000	8.997201
572.000000	8.986512
573.000000	8.973749
574.000000	8.958946
575.000000	8.942054
576.000000	8.923056
577.000000	8.902047
578.000000	8.879192
579.000000	8.854500
580.000000	8.828068
581.000000	8.799621
582.000000	8.769080
583.000000	8.736786
584.000000	8.702692
585.000000	8.666452
586.000000	8.628303
587.000000	8.588238
588.000000	8.546802
589.000000	8.503598
590.000000	8.458723
591.000000	8.412370
592.000000	8.364618
593.000000	8.315329
594.000000	8.264326
595.000000	8.219229
596.000000	8.174003
597.000000	8.127575
598.000000	8.080322
599.000000	8.032101
600.000000	7.983143
601.000000	7.933515
602.000000	7.883053
603.000000	7.832094
604.000000	7.780985
605.000000	7.729795
606.000000	7.678421
607.000000	7.627244
608.000000	7.576734
609.000000	7.526752
610.000000	7.477537
611.000000	7.429487
612.000000	7.382407
613.000000	7.336511
614.000000	7.291690
615.000000	7.248002
616.000000	7.205479
617.000000	7.164481
618.000000	7.124648
619.000000	7.086386
620.000000	7.049830
621.000000	7.015000
622.000000	6.981917
623.000000	6.950125
624.000000	6.920008
625.000000	6.891500
626.000000	6.864578
627.000000	6.839013
628.000000	6.815224
629.000000	6.793150
630.000000	6.772648
631.000000	6.753671
632.000000	6.736244
633.000000	6.720198
634.000000	6.705659
635.000000	6.692815
636.000000	6.681375
637.000000	6.671708
638.000000	6.663704
639.000000	6.656990
640.000000	6.651644
641.000000	6.648057
642.000000	6.645666
643.000000	6.644636
644.000000	6.644939
645.000000	6.646656
646.000000	6.649652
647.000000	6.653854
648.000000	6.659229
649.000000	6.665973
650.000000	6.674153
651.000000	6.683801
652.000000	6.695022
653.000000	6.707750
654.000000	6.721485
655.000000	6.736381
656.000000	6.752517
657.000000	6.770035
658.000000	6.788733
659.000000	6.808451
660.000000	6.829397
661.000000	6.851353
662.000000	6.874829
663.000000	6.899248
664.000000	6.924880
665.000000	6.951570
666.000000	6.979082
667.000000	7.007609
668.000000	7.037133
669.000000	7.067375
670.000000	7.098125
671.000000	7.129580
672.000000	7.161464
673.000000	7.193819
674.000000	7.226734
675.000000	7.259788
676.000000	7.292968
677.000000	7.326231
678.000000	7.359156
679.000000	7.391782
680.000000	7.423839
681.000000	7.455508
682.000000	7.487060
683.000000	7.518300
684.000000	7.548891
685.000000	7.578917
686.000000	7.608208
687.000000	7.636448
688.000000	7.663901
689.000000	7.690566
690.000000	7.716413
691.000000	7.741443
692.000000	7.765358
693.000000	7.788129
694.000000	7.810108
695.000000	7.831142
696.000000	7.851332
697.000000	7.870177
698.000000	7.887700
699.000000	7.904291
700.000000	7.919816
701.000000	7.934061
702.000000	7.947244
703.000000	7.959414
704.000000	7.970512
705.000000	7.980600
706.000000	7.989682
707.000000	7.997687
708.000000	8.004426
709.000000	8.010006
710.000000	8.015156
711.000000	8.019192
712.000000	8.022376
713.000000	8.024856
714.000000	8.026731
715.000000	8.027809
716.000000	8.027789
717.000000	8.026593
718.000000	8.024231
719.000000	8.020762
720.000000	8.016148
721.000000	8.010448
722.000000	8.003972
723.000000	7.996890
724.000000	7.989054
725.000000	7.980406
726.000000	7.970771
727.000000	7.960166
728.000000	7.949317
729.000000	7.937553
730.000000	7.924581
731.000000	7.910821
732.000000	7.896374
733.000000	7.881279
734.000000	7.865368
735.000000	7.848756
736.000000	7.831658
737.000000	7.813805
738.000000	7.794974
739.000000	7.775682
740.000000	7.755974
741.000000	7.735619
742.000000	7.715007
743.000000	7.694283
744.000000	7.673157
745.000000	7.651285
746.000000	7.629432
747.000000	7.607531
748.000000	7.585283
749.000000	7.562691
750.000000	7.539866
751.000000	7.517281
752.000000	7.494730
753.000000	7.472078
754.000000	7.450112
755.000000	7.428435
756.000000	7.407047
757.000000	7.385836
758.000000	7.364452
759.000000	7.343526
760.000000	7.323008
761.000000	7.303116
762.000000	7.283928
763.000000	7.265000
764.000000	7.246587
765.000000	7.229044
766.000000	7.211987
767.000000	7.195626
768.000000	7.180618
769.000000	7.166388
770.000000	7.152851
771.000000	7.140218
772.000000	7.128614
773.000000	7.117944
774.000000	7.108767
775.000000	7.100888
776.000000	7.094319
777.000000	7.088620
778.000000	7.083838
779.000000	7.080374
780.000000	7.078190
781.000000	7.076672
782.000000	7.075858
783.000000	7.076180
784.000000	7.078117
785.000000	7.081605
786.000000	7.085770
787.000000	7.090970
788.000000	7.097766
789.000000	7.105435
790.000000	7.114114
791.000000	7.124119
792.000000	7.135654
793.000000	7.148398
794.000000	7.161625
795.000000	7.176065
796.000000	7.191167
797.000000	7.207317
798.000000	7.224604
799.000000	7.242959
800.000000	7.262103
801.000000	7.282428
802.000000	7.304085
803.000000	7.326456
804.000000	7.349568
805.000000	7.373926
806.000000	7.399224
807.000000	7.424928
808.000000	7.452701
809.000000	7.481119
810.000000	7.509552
811.000000	7.538615
812.000000	7.568465
813.000000	7.598112
814.000000	7.629357
815.000000	7.661142
816.000000	7.693003
817.000000	7.726246
818.000000	7.760424
819.000000	7.794595
820.000000	7.829292
821.000000	7.864503
822.000000	7.900232
823.000000	7.936587
824.000000	7.972728
825.000000	8.009392
826.000000	8.046100
827.000000	8.082171
828.000000	8.119264
829.000000	8.157066
830.000000	8.194425
831.000000	8.232700
832.000000	8.270452
833.000000	8.307843
834.000000	8.347002
835.000000	8.385881
836.000000	8.424682
837.000000	8.462053
838.000000	8.499869
839.000000	8.538283
840.000000	8.576290
841.000000	8.613999
842.000000	8.652306
843.000000	8.691225
844.000000	8.728054
845.000000	8.764887
846.000000	8.804306
847.000000	8.840616
848.000000	8.878525
849.000000	8.915810
850.000000	8.952062
851.000000	8.988828
852.000000	9.025650
853.000000	9.061877
854.000000	9.095733
855.000000	9.128650
856.000000	9.167219
857.000000	9.203227
858.000000	9.254058
859.000000	9.293793
860.000000	9.333176
861.000000	9.372600
862.000000	9.413104
863.000000	9.453921
864.000000	9.495645
865.000000	9.538405
866.000000	9.581249
867.000000	9.625400
868.000000	9.670129
869.000000	9.713850
870.000000	9.758333
871.000000	9.803099
872.000000	9.849162
873.000000	9.895230
874.000000	9.941275
875.000000	9.987476
876.000000	10.034324
877.000000	10.081363
878.000000	10.127101
879.000000	10.174606
880.000000	10.222898
881.000000	10.269120
882.000000	10.318662
883.000000	10.367804
884.000000	10.416755
885.000000	10.467048
886.000000	10.517872
887.000000	10.568614
888.000000	10.619812
889.000000	10.673610
890.000000	10.728611
891.000000	10.778476
892.000000	10.831165
893.000000	10.869218
894.000000	10.918849
895.000000	10.968962
896.000000	11.019923
897.000000	11.070751
898.000000	11.120895
899.000000	11.170724
900.000000	11.220729
901.000000	11.270603
902.000000	11.320404
903.000000	11.370540
904.000000	11.420610
905.000000	11.471094
906.000000	11.521675
907.000000	11.572971
908.000000	11.624028
909.000000	11.675290
910.000000	11.726763
911.000000	11.778260
912.000000	11.830135
913.000000	11.882105
914.000000	11.934437
915.000000	11.986559
916.000000	12.038550
917.000000	12.090724
918.000000	12.142931
919.000000	12.195126
920.000000	12.247485
921.000000	12.299496
922.000000	12.351464
923.000000	12.403535
924.000000	12.455389
925.000000	12.507240
926.000000	12.558390
927.000000	12.609550
928.000000	12.660293
929.000000	12.711192
930.000000	12.761991
931.000000	12.811808
932.000000	12.861803
933.000000	12.911292
934.000000	12.960853
935.000000	13.010065
936.000000	13.058891
937.000000	13.106970
938.000000	13.154836
939.000000	13.201871
940.000000	13.248646
941.000000	13.294972
942.000000	13.340703
943.000000	13.386180
944.000000	13.430949
945.000000	13.475703
946.000000	13.520410
947.000000	13.564336
948.000000	13.608056
949.000000	13.651566
950.000000	13.695033
951.000000	13.737871
952.000000	13.780421
953.000000	13.822703
954.000000	13.865017
955.000000	13.906781
956.000000	13.948477
957.000000	13.989730
958.000000	14.030750
959.000000	14.071975
960.000000	14.112597
961.000000	14.153430
962.000000	14.193625
963.000000	14.233724
964.000000	14.273710
965.000000	14.313419
966.000000	14.353188
967.000000	14.392203
968.000000	14.431497
969.000000	14.470541
970.000000	14.509297
971.000000	14.547654
972.000000	14.585966
973.000000	14.624152
974.000000	14.662121
975.000000	14.699806
976.000000	14.738005
977.000000	14.775580
978.000000	14.812916
979.000000	14.850609
980.000000	14.888105
981.000000	14.925032
982.000000	14.962023
983.000000	14.998792
984.000000	15.035213
985.000000	15.071120
986.000000	15.107380
987.000000	15.143440
988.000000	15.179196
989.000000	15.214369
990.000000	15.249360
991.000000	15.284430
992.000000	15.319320
993.000000	15.353911
994.000000	15.388035
995.000000	15.422150
996.000000	15.456696
997.000000	15.491503
998.000000	15.525730
999.000000	15.559323
1000.000000	15.592880
1001.000000	15.626797
1002.000000	15.660807
1003.000000	15.694177
1004.000000	15.727068
1005.000000	15.759830
1006.000000	15.792747
1007.000000	15.825297
1008.000000	15.857182
1009.000000	15.889396
1010.000000	15.921387
1011.000000	15.952741
1012.000000	15.984260
1013.000000	16.015642
1014.000000	16.046670
1015.000000	16.077504
1016.000000	16.108257
1017.000000	16.138979
1018.000000	16.169470
1019.000000	16.200017
1020.000000	16.230873
1021.000000	16.261276
1022.000000	16.291709
1023.000000	16.322296
1024.000000	16.352865
1025.000000	16.383198
1026.000000	16.413178
1027.000000	16.442967
1028.000000	16.472709
1029.000000	16.502687
1030.000000	16.532459
1031.000000	16.561821
1032.000000	16.591041
1033.000000	16.620416
1034.000000	16.650115
1035.000000	16.679654
1036.000000	16.708859
1037.000000	16.738200
1038.000000	16.768070
1039.000000	16.797892
1040.000000	16.827193
1041.000000	16.856050
1042.000000	16.885180
1043.000000	16.914546
1044.000000	16.943712
1045.000000	16.972790
1046.000000	17.002057
1047.000000	17.031372
1048.000000	17.060646
1049.000000	17.089789
1050.000000	17.118753
1051.000000	17.147650
1052.000000	17.176131
1053.000000	17.204635
1054.000000	17.233193
1055.000000	17.261623
1056.000000	17.290093
1057.000000	17.318271
1058.000000	17.346087
1059.000000	17.373992
1060.000000	17.402044
1061.000000	17.430014
1062.000000	17.458086
1063.000000	17.485995
1064.000000	17.513868
1065.000000	17.541526
1066.000000	17.568925
1067.000000	17.596394
1068.000000	17.624004
1069.000000	17.651500
1070.000000	17.678934
1071.000000	17.706200
1072.000000	17.733157
1073.000000	17.759775
1074.000000	17.786215
1075.000000	17.812996
1076.000000	17.839926
1077.000000	17.866749
1078.000000	17.893535
1079.000000	17.920473
1080.000000	17.947362
1081.000000	17.973657
1082.000000	17.999484
1083.000000	18.025616
1084.000000	18.051793
1085.000000	18.077727
1086.000000	18.103563
1087.000000	18.129339
1088.000000	18.154772
1089.000000	18.179782
1090.000000	18.204668
1091.000000	18.229256
1092.000000	18.253930
1093.000000	18.278397
1094.000000	18.302231
1095.000000	18.326047
1096.000000	18.349958
1097.000000	18.373027
1098.000000	18.396089
1099.000000	18.418796
1100.000000	18.441185
1101.000000	18.463510
1102.000000	18.485595
1103.000000	18.507284
1104.000000	18.528905
1105.000000	18.550098
1106.000000	18.570847
1107.000000	18.591209
1108.000000	18.611058
1109.000000	18.630594
1110.000000	18.649872
1111.000000	18.668975
1112.000000	18.687507
1113.000000	18.705450
1114.000000	18.722977
1115.000000	18.739806
1116.000000	18.756528
1117.000000	18.773227
1118.000000	18.789633
1119.000000	18.805556
1120.000000	18.821429
1121.000000	18.836539
1122.000000	18.851637
1123.000000	18.866526
1124.000000	18.881140
1125.000000	18.895151
1126.000000	18.908445
1127.000000	18.920676
1128.000000	18.932759
1129.000000	18.944600
1130.000000	18.955881
1131.000000	18.965320
1132.000000	18.973685
1133.000000	18.980625
1134.000000	18.987297
1135.000000	18.993865
1136.000000	18.999953
1137.000000	19.004637
1138.000000	19.007563
1139.000000	19.009570
1140.000000	19.010832
1141.000000	19.011176
1142.000000	19.010447
1143.000000	19.009227
1144.000000	19.007398
1145.000000	19.004855
1146.000000	19.002073
1147.000000	18.998725
1148.000000	18.994816
1149.000000	18.990325
1150.000000	18.985642
1151.000000	18.980745
1152.000000	18.974729
1153.000000	18.968441
1154.000000	18.961384
1155.000000	18.953291
1156.000000	18.945023
1157.000000	18.935472
1158.000000	18.925118
1159.000000	18.913757
1160.000000	18.901584
1161.000000	18.888468
1162.000000	18.874284
1163.000000	18.859410
1164.000000	18.843347
1165.000000	18.826491
1166.000000	18.809827
1167.000000	18.793000
1168.000000	18.775959
1169.000000	18.757860
1170.000000	18.738580
1171.000000	18.718889
1172.000000	18.699210
1173.000000	18.680126
1174.000000	18.660541
1175.000000	18.641175
1176.000000	18.621998
1177.000000	18.603350
1178.000000	18.584162
1179.000000	18.564833
1180.000000	18.544777
1181.000000	18.524753
1182.000000	18.504537
1183.000000	18.484496
1184.000000	18.464125
1185.000000	18.443487
1186.000000	18.423105
1187.000000	18.403334
1188.000000	18.383043
1189.000000	18.363392
1190.000000	18.345077
1191.000000	18.327499
1192.000000	18.311752
1193.000000	18.296886
1194.000000	18.283220
1195.000000	18.271191
1196.000000	18.261301
1197.000000	18.252800
1198.000000	18.245339
1199.000000	18.240007
1200.000000	18.236071
1201.000000	18.233401
1202.000000	18.232181
1203.000000	18.232817
1204.000000	18.235223
1205.000000	18.239437
1206.000000	18.244746
1207.000000	18.251340
1208.000000	18.259273
1209.000000	18.268513
1210.000000	18.279077
1211.000000	18.290593
1212.000000	18.302858
1213.000000	18.316823
1214.000000	18.331926
1215.000000	18.348592
1216.000000	18.365728
1217.000000	18.383654
1218.000000	18.402240
1219.000000	18.421972
1220.000000	18.442301
1221.000000	18.462948
1222.000000	18.484002
1223.000000	18.505404
1224.000000	18.527057
1225.000000	18.548077
1226.000000	18.568789
1227.000000	18.588682
1228.000000	18.608449
1229.000000	18.627773
1230.000000	18.646482
1231.000000	18.664566
1232.000000	18.682579
1233.000000	18.699989
1234.000000	18.716560
1235.000000	18.732508
1236.000000	18.747841
1237.000000	18.763057
1238.000000	18.777649
1239.000000	18.791447
1240.000000	18.804826
1241.000000	18.817465
1242.000000	18.829435
1243.000000	18.840989
1244.000000	18.852476
1245.000000	18.863224
1246.000000	18.873997
1247.000000	18.884673
1248.000000	18.894563
1249.000000	18.904292
1250.000000	18.914092
1251.000000	18.923618
1252.000000	18.933448
1253.000000	18.943173
1254.000000	18.952663
1255.000000	18.962433
1256.000000	18.971822
1257.000000	18.981370
1258.000000	18.991212
1259.000000	19.001118
1260.000000	19.011278
1261.000000	19.021586
1262.000000	19.031946
1263.000000	19.042226
1264.000000	19.052309
1265.000000	19.062094
1266.000000	19.071619
1267.000000	19.081399
1268.000000	19.091049
1269.000000	19.100536
1270.000000	19.109660
1271.000000	19.119077
1272.000000	19.128342
1273.000000	19.137541
1274.000000	19.146733
1275.000000	19.155194
1276.000000	19.163902
1277.000000	19.172801
1278.000000	19.181062
1279.000000	19.188764
1280.000000	19.196273
1281.000000	19.203609
1282.000000	19.210640
1283.000000	19.217864
1284.000000	19.224663
1285.000000	19.230996
1286.000000	19.237271
1287.000000	19.243119
1288.000000	19.248750
1289.000000	19.254176
1290.000000	19.259631
1291.000000	19.265234
1292.000000	19.270575
1293.000000	19.275490
1294.000000	19.279923
1295.000000	19.284154
1296.000000	19.288270
1297.000000	19.292267
1298.000000	19.296203
1299.000000	19.300620
1300.000000	19.305367
1301.000000	19.309913
1302.000000	19.314209
1303.000000	19.318548
1304.000000	19.323150
1305.000000	19.328023
1306.000000	19.332823
1307.000000	19.337518
1308.000000	19.341788
1309.000000	19.345882
1310.000000	19.350270
1311.000000	19.354297
1312.000000	19.358227
1313.000000	19.362390
1314.000000	19.366183
1315.000000	19.369255
1316.000000	19.371581
1317.000000	19.373205
1318.000000	19.374175
1319.000000	19.374648
1320.000000	19.374395
1321.000000	19.373224
1322.000000	19.371237
1323.000000	19.368543
1324.000000	19.365150
1325.000000	19.360536
1326.000000	19.354886
1327.000000	19.348408
1328.000000	19.341162
1329.000000	19.333436
1330.000000	19.325173
1331.000000	19.316119
1332.000000	19.305961
1333.000000	19.294874
1334.000000	19.282670
1335.000000	19.269370
1336.000000	19.255491
1337.000000	19.240605
1338.000000	19.224569
1339.000000	19.207282
1340.000000	19.189118
1341.000000	19.170039
1342.000000	19.149650
1343.000000	19.128147
1344.000000	19.105615
1345.000000	19.081952
1346.000000	19.056894
1347.000000	19.030561
1348.000000	19.003544
1349.000000	18.975848
1350.000000	18.946855
1351.000000	18.916484
1352.000000	18.884720
1353.000000	18.851364
1354.000000	18.817277
1355.000000	18.783235
1356.000000	18.749628
1357.000000	18.715728
1358.000000	18.680659
1359.000000	18.644423
1360.000000	18.607021
1361.000000	18.570224
1362.000000	18.536316
1363.000000	18.502986
1364.000000	18.467643
1365.000000	18.431709
1366.000000	18.395268
1367.000000	18.357190
1368.000000	18.318783
1369.000000	18.279655
1370.000000	18.238203
1371.000000	18.194518
1372.000000	18.149452
1373.000000	18.101456
1374.000000	18.049010
1375.000000	17.992130
1376.000000	17.931030
1377.000000	17.866188
1378.000000	17.797267
1379.000000	17.723118
1380.000000	17.645120
1381.000000	17.565876
1382.000000	17.487037
1383.000000	17.408525
1384.000000	17.330381
1385.000000	17.252147
1386.000000	17.173763
1387.000000	17.095993
1388.000000	17.020624
1389.000000	16.946926
1390.000000	16.872283
1391.000000	16.795739
1392.000000	16.720466
1393.000000	16.647267
1394.000000	16.575356
1395.000000	16.504890
1396.000000	16.437273
1397.000000	16.367454
1398.000000	16.295040
1399.000000	16.222081
1400.000000	16.150376
1401.000000	16.082599
1402.000000	16.016188
1403.000000	15.947389
1404.000000	15.877147
1405.000000	15.809461
1406.000000	15.743261
1407.000000	15.677772
1408.000000	15.614474
1409.000000	15.555224
1410.000000	15.499767
1411.000000	15.447347
1412.000000	15.397089
1413.000000	15.349796
1414.000000	15.307954
1415.000000	15.270508
1416.000000	15.233732
1417.000000	15.194869
1418.000000	15.154557
1419.000000	15.114554
1420.000000	15.075525
1421.000000	15.036788
1422.000000	14.996936
1423.000000	14.955053
1424.000000	14.912251
1425.000000	14.869588
1426.000000	14.826794
1427.000000	14.782054
1428.000000	14.736184
1429.000000	14.689748
1430.000000	14.642351
1431.000000	14.590930
1432.000000	14.539292
1433.000000	14.489797
1434.000000	14.442344
1435.000000	14.393444
1436.000000	14.340493
1437.000000	14.287836
1438.000000	14.238732
1439.000000	14.191941
1440.000000	14.144675
1441.000000	14.098078
1442.000000	14.052768
1443.000000	14.008677
1444.000000	13.965281
1445.000000	13.922820
1446.000000	13.882966
1447.000000	13.845475
1448.000000	13.808749
1449.000000	13.772030
1450.000000	13.735331
1451.000000	13.701138
1452.000000	13.669918
1453.000000	13.639172
1454.000000	13.608024
1455.000000	13.577771
1456.000000	13.548568
1457.000000	13.520792
1458.000000	13.494177
1459.000000	13.466971
1460.000000	13.440180
1461.000000	13.414914
1462.000000	13.391042
1463.000000	13.367292
1464.000000	13.343928
1465.000000	13.321599
1466.000000	13.299812
1467.000000	13.277427
1468.000000	13.254908
1469.000000	13.232725
1470.000000	13.211536
1471.000000	13.191270
1472.000000	13.171901
1473.000000	13.152243
1474.000000	13.132332
1475.000000	13.112740
1476.000000	13.093216
1477.000000	13.073880
1478.000000	13.054801
1479.000000	13.035943
1480.000000	13.017290
1481.000000	12.997777
1482.000000	12.978624
1483.000000	12.960484
1484.000000	12.943001
1485.000000	12.925942
1486.000000	12.908152
1487.000000	12.889978
1488.000000	12.872876
1489.000000	12.856156
1490.000000	12.839097
1491.000000	12.822352
1492.000000	12.806537
1493.000000	12.790897
1494.000000	12.775713
1495.000000	12.761363
1496.000000	12.747834
1497.000000	12.734724
1498.000000	12.722327
1499.000000	12.710437
1500.000000	12.699224
1501.000000	12.689110
1502.000000	12.679854
1503.000000	12.671738
1504.000000	12.664840
1505.000000	12.658526
1506.000000	12.653015
1507.000000	12.647910
1508.000000	12.643909
1509.000000	12.640982
1510.000000	12.639114
1511.000000	12.638658
1512.000000	12.638854
1513.000000	12.640041
1514.000000	12.642402
1515.000000	12.645596
1516.000000	12.649888
1517.000000	12.654993
1518.000000	12.661276
1519.000000	12.668175
1520.000000	12.675556
1521.000000	12.684108
1522.000000	12.693660
1523.000000	12.703785
1524.000000	12.715085
1525.000000	12.727275
1526.000000	12.739839
1527.000000	12.753149
1528.000000	12.767470
1529.000000	12.782460
1530.000000	12.797605
1531.000000	12.813106
1532.000000	12.828912
1533.000000	12.844944
1534.000000	12.861310
1535.000000	12.878036
1536.000000	12.894635
1537.000000	12.911092
1538.000000	12.927606
1539.000000	12.943877
1540.000000	12.960080
1541.000000	12.976259
1542.000000	12.992436
1543.000000	13.008155
1544.000000	13.024110
1545.000000	13.040115
1546.000000	13.055831
1547.000000	13.071510
1548.000000	13.087120
1549.000000	13.103116
1550.000000	13.119412
1551.000000	13.135509
1552.000000	13.151843
1553.000000	13.168285
1554.000000	13.184898
1555.000000	13.201813
1556.000000	13.218442
1557.000000	13.235032
1558.000000	13.251712
1559.000000	13.267887
1560.000000	13.283939
1561.000000	13.299965
1562.000000	13.315147
1563.000000	13.329599
1564.000000	13.343826
1565.000000	13.357322
1566.000000	13.370142
1567.000000	13.382475
1568.000000	13.394218
1569.000000	13.405831
1570.000000	13.416933
1571.000000	13.427378
1572.000000	13.437718
1573.000000	13.447681
1574.000000	13.457290
1575.000000	13.466660
1576.000000	13.475824
1577.000000	13.484917
1578.000000	13.494081
1579.000000	13.502817
1580.000000	13.511119
1581.000000	13.519516
1582.000000	13.527996
1583.000000	13.536272
1584.000000	13.544012
1585.000000	13.551103
1586.000000	13.558177
1587.000000	13.564790
1588.000000	13.571014
1589.000000	13.577213
1590.000000	13.583480
1591.000000	13.589730
1592.000000	13.595990
1593.000000	13.602109
1594.000000	13.608535
1595.000000	13.615296
1596.000000	13.622691
1597.000000	13.630974
1598.000000	13.639775
1599.000000	13.649008
1600.000000	13.659478
1601.000000	13.670796
1602.000000	13.682641
1603.000000	13.695526
1604.000000	13.708734
1605.000000	13.722392
1606.000000	13.737000
1607.000000	13.752237
1608.000000	13.767756
1609.000000	13.783624
1610.000000	13.800041
1611.000000	13.816962
1612.000000	13.834002
1613.000000	13.851083
1614.000000	13.868608
1615.000000	13.886357
1616.000000	13.903891
1617.000000	13.921103
1618.000000	13.938235
1619.000000	13.955104
1620.000000	13.972030
1621.000000	13.988230
1622.000000	14.004396
1623.000000	14.020918
1624.000000	14.037116
1625.000000	14.053245
1626.000000	14.069164
1627.000000	14.084538
1628.000000	14.100170
1629.000000	14.115429
1630.000000	14.130010
1631.000000	14.144556
1632.000000	14.158767
1633.000000	14.172563
1634.000000	14.185882
1635.000000	14.198965
1636.000000	14.211586
1637.000000	14.223760
1638.000000	14.235590
1639.000000	14.246722
1640.000000	14.257357
1641.000000	14.267630
1642.000000	14.277518
1643.000000	14.287023
1644.000000	14.295777
1645.000000	14.303873
1646.000000	14.311473
1647.000000	14.319023
1648.000000	14.326207
1649.000000	14.332893
1650.000000	14.339425
1651.000000	14.345833
1652.000000	14.351675
1653.000000	14.356850
1654.000000	14.361774
1655.000000	14.366348
1656.000000	14.370587
1657.000000	14.374165
1658.000000	14.376393
1659.000000	14.377857
1660.000000	14.377956
1661.000000	14.376418
1662.000000	14.374179
1663.000000	14.370059
1664.000000	14.364778
1665.000000	14.358591
1666.000000	14.350518
1667.000000	14.340603
1668.000000	14.327756
1669.000000	14.313485
1670.000000	14.296870
1671.000000	14.278437
1672.000000	14.258266
1673.000000	14.236139
1674.000000	14.212899
1675.000000	14.188013
1676.000000	14.161342
1677.000000	14.133271
1678.000000	14.102992
1679.000000	14.071293
1680.000000	14.037844
1681.000000	14.002116
1682.000000	13.964027
1683.000000	13.924033
1684.000000	13.882444
1685.000000	13.839258
1686.000000	13.793963
1687.000000	13.748348
1688.000000	13.702110
1689.000000	13.655534
1690.000000	13.609633
1691.000000	13.564158
1692.000000	13.519419
1693.000000	13.475677
1694.000000	13.432950
1695.000000	13.391359
1696.000000	13.351202
1697.000000	13.312185
1698.000000	13.274573
1699.000000	13.238164
1700.000000	13.202315
1701.000000	13.167802
1702.000000	13.134595
1703.000000	13.103954
1704.000000	13.074517
1705.000000	13.046775
1706.000000	13.020192
1707.000000	12.994904
1708.000000	12.970576
1709.000000	12.947042
1710.000000	12.924430
1711.000000	12.901855
1712.000000	12.879838
1713.000000	12.859174
1714.000000	12.838410
1715.000000	12.818561
1716.000000	12.798691
1717.000000	12.779350
1718.000000	12.760041
1719.000000	12.740931
1720.000000	12.721484
1721.000000	12.703015
1722.000000	12.684642
1723.000000	12.666744
1724.000000	12.648928
1725.000000	12.630435
1726.000000	12.612223
1727.000000	12.593652
1728.000000	12.575091
1729.000000	12.556390
1730.000000	12.537782
1731.000000	12.519613
1732.000000	12.501243
1733.000000	12.483351
1734.000000	12.465675
1735.000000	12.448953
1736.000000	12.432622
1737.000000	12.416805
1738.000000	12.401951
1739.000000	12.388105
1740.000000	12.374759
1741.000000	12.362537
1742.000000	12.351750
1743.000000	12.342021
1744.000000	12.333342
1745.000000	12.325906
1746.000000	12.321086
1747.000000	12.317347
1748.000000	12.314845
1749.000000	12.314836
1750.000000	12.316090
1751.000000	12.319561
1752.000000	12.324816
1753.000000	12.332195
1754.000000	12.341115
1755.000000	12.351762
1756.000000	12.363561
1757.000000	12.376260
1758.000000	12.390013
1759.000000	12.404088
1760.000000	12.418220
1761.000000	12.432087
1762.000000	12.445959
1763.000000	12.459774
1764.000000	12.473541
1765.000000	12.487663
1766.000000	12.501558
1767.000000	12.515609
1768.000000	12.529750
1769.000000	12.543843
1770.000000	12.557860
1771.000000	12.572216
1772.000000	12.586423
1773.000000	12.600307
1774.000000	12.613750
1775.000000	12.627550
1776.000000	12.641183
1777.000000	12.654469
1778.000000	12.667719
1779.000000	12.680877
1780.000000	12.694030
1781.000000	12.706410
1782.000000	12.718792
1783.000000	12.730743
1784.000000	12.741888
1785.000000	12.752903
1786.000000	12.764181
1787.000000	12.775250
1788.000000	12.785944
1789.000000	12.796550
1790.000000	12.806950
1791.000000	12.816840
1792.000000	12.826783
1793.000000	12.836309
1794.000000	12.846115
1795.000000	12.856338
1796.000000	12.867103
1797.000000	12.877820
1798.000000	12.887750
1799.000000	12.897090
1800.000000	12.905784
1801.000000	12.914662
1802.000000	12.923842
1803.000000	12.932762
1804.000000	12.940922
1805.000000	12.948135
1806.000000	12.955092
1807.000000	12.962656
1808.000000	12.969818
1809.000000	12.975750
1810.000000	12.980410
1811.000000	12.984944
1812.000000	12.989874
1813.000000	12.994782
1814.000000	12.998950
1815.000000	13.002362
1816.000000	13.005892
1817.000000	13.008830
1818.000000	13.009993
1819.000000	13.009617
1820.000000	13.009764
1821.000000	13.012768
1822.000000	13.018649
1823.000000	13.024364
1824.000000	13.026992
1825.000000	13.027630
1826.000000	13.028027
1827.000000	13.028804
1828.000000	13.030570
1829.000000	13.032871
1830.000000	13.035673
1831.000000	13.039185
1832.000000	13.042712
1833.000000	13.045333
1834.000000	13.046042
1835.000000	13.045608
1836.000000	13.045551
1837.000000	13.046840
1838.000000	13.049205
1839.000000	13.051883
1840.000000	13.055132
1841.000000	13.059779
1842.000000	13.066775
1843.000000	13.074806
1844.000000	13.081215
1845.000000	13.083562
1846.000000	13.081963
1847.000000	13.080184
1848.000000	13.082930
1849.000000	13.090632
1850.000000	13.099040
1851.000000	13.103557
1852.000000	13.104967
1853.000000	13.107408
1854.000000	13.112317
1855.000000	13.117333
1856.000000	13.119158
1857.000000	13.116349
1858.000000	13.112188
1859.000000	13.111872
1860.000000	13.115002
1861.000000	13.119387
1862.000000	13.122682
1863.000000	13.123405
1864.000000	13.120079
1865.000000	13.112458
1866.000000	13.100724
1867.000000	13.086345
1868.000000	13.071944
1869.000000	13.058188
1870.000000	13.045414
1871.000000	13.033294
1872.000000	13.019908
1873.000000	13.005323
1874.000000	12.990517
1875.000000	12.974506
1876.000000	12.954780
1877.000000	12.929673
1878.000000	12.900927
1879.000000	12.871557
1880.000000	12.842950
1881.000000	12.813330
1882.000000	12.778925
1883.000000	12.736657
1884.000000	12.687075
1885.000000	12.633904
1886.000000	12.580918
1887.000000	12.526903
1888.000000	12.468071
1889.000000	12.403211
1890.000000	12.333259
1891.000000	12.259776
1892.000000	12.184971
1893.000000	12.108247
1894.000000	12.026045
1895.000000	11.937675
1896.000000	11.842121
1897.000000	11.740606
1898.000000	11.635675
1899.000000	11.530560
1900.000000	11.426351
1901.000000	11.321815
1902.000000	11.215717
1903.000000	11.106749
1904.000000	10.994972
1905.000000	10.880865
1906.000000	10.763591
1907.000000	10.643581
1908.000000	10.520205
1909.000000	10.393217
1910.000000	10.263274
1911.000000	10.131346
1912.000000	9.999076
1913.000000	9.868510
1914.000000	9.740535
1915.000000	9.615273
1916.000000	9.492481
1917.000000	9.370130
1918.000000	9.247707
1919.000000	9.125460
1920.000000	9.005632
1921.000000	8.889019
1922.000000	8.776236
1923.000000	8.668570
1924.000000	8.565146
1925.000000	8.463728
1926.000000	8.364452
1927.000000	8.267911
1928.000000	8.174763
1929.000000	8.085837
1930.000000	8.002143
1931.000000	7.925045
1932.000000	7.853290
1933.000000	7.786222
1934.000000	7.722272
1935.000000	7.660617
1936.000000	7.602140
1937.000000	7.547633
1938.000000	7.497786
1939.000000	7.453502
1940.000000	7.412249
1941.000000	7.373221
1942.000000	7.335957
1943.000000	7.302036
1944.000000	7.272143
1945.000000	7.246844
1946.000000	7.225910
1947.000000	7.208690
1948.000000	7.192788
1949.000000	7.177640
1950.000000	7.164836
1951.000000	7.154482
1952.000000	7.147990
1953.000000	7.144937
1954.000000	7.145070
1955.000000	7.146867
1956.000000	7.149765
1957.000000	7.154255
1958.000000	7.159674
1959.000000	7.167037
1960.000000	7.177270
1961.000000	7.189212
1962.000000	7.202409
1963.000000	7.216190
1964.000000	7.231155
1965.000000	7.247060
1966.000000	7.263221
1967.000000	7.281202
1968.000000	7.299354
1969.000000	7.318619
1970.000000	7.339293
1971.000000	7.360750
1972.000000	7.382949
1973.000000	7.405262
1974.000000	7.427170
1975.000000	7.449155
1976.000000	7.471093
1977.000000	7.494059
1978.000000	7.517458
1979.000000	7.541219
1980.000000	7.565385
1981.000000	7.589394
1982.000000	7.613281
1983.000000	7.637533
1984.000000	7.661740
1985.000000	7.685703
1986.000000	7.709944
1987.000000	7.734669
1988.000000	7.759542
1989.000000	7.784590
1990.000000	7.809349
1991.000000	7.833822
1992.000000	7.857765
1993.000000	7.881750
1994.000000	7.905465
1995.000000	7.929258
1996.000000	7.953471
1997.000000	7.976906
1998.000000	7.999886
1999.000000	8.022805
2000.000000	8.044970
2001.000000	8.067039
2002.000000	8.088410
2003.000000	8.110366
2004.000000	8.132005
2005.000000	8.152640
2006.000000	8.172602
2007.000000	8.192021
2008.000000	8.211202
2009.000000	8.229740
2010.000000	8.247310
2011.000000	8.264592
2012.000000	8.280388
2013.000000	8.295322
2014.000000	8.309716
2015.000000	8.322852
2016.000000	8.335085
2017.000000	8.345992
2018.000000	8.355603
2019.000000	8.364903
2020.000000	8.372578
2021.000000	8.379147
2022.000000	8.383990
2023.000000	8.387809
2024.000000	8.389998
2025.000000	8.390655
2026.000000	8.389962
2027.000000	8.387728
2028.000000	8.384193
2029.000000	8.379161
2030.000000	8.372301
2031.000000	8.363441
2032.000000	8.353925
2033.000000	8.343302
2034.000000	8.330893
2035.000000	8.316866
2036.000000	8.301408
2037.000000	8.284237
2038.000000	8.265395
2039.000000	8.244915
2040.000000	8.222997
2041.000000	8.199661
2042.000000	8.175097
2043.000000	8.149229
2044.000000	8.121662
2045.000000	8.092614
2046.000000	8.062230
2047.000000	8.031291
2048.000000	7.999492
2049.000000	7.966917
2050.000000	7.934125
2051.000000	7.900910
2052.000000	7.867350
2053.000000	7.833750
2054.000000	7.799982
2055.000000	7.766902
2056.000000	7.734519
2057.000000	7.703369
2058.000000	7.673018
2059.000000	7.643952
2060.000000	7.616219
2061.000000	7.589624
2062.000000	7.565125
2063.000000	7.542396
2064.000000	7.521086
2065.000000	7.502044
2066.000000	7.485059
2067.000000	7.469510
2068.000000	7.456066
2069.000000	7.444619
2070.000000	7.435130
2071.000000	7.427806
2072.000000	7.422882
2073.000000	7.419887
2074.000000	7.418761
2075.000000	7.419560
2076.000000	7.422354
2077.000000	7.427278
2078.000000	7.434049
2079.000000	7.442652
2080.000000	7.453183
2081.000000	7.465119
2082.000000	7.478454
2083.000000	7.492990
2084.000000	7.508447
2085.000000	7.524752
2086.000000	7.541855
2087.000000	7.559114
2088.000000	7.577020
2089.000000	7.595545
2090.000000	7.613823
2091.000000	7.631459
2092.000000	7.648546
2093.000000	7.665184
2094.000000	7.681040
2095.000000	7.696500
2096.000000	7.711037
2097.000000	7.723862
2098.000000	7.735760
2099.000000	7.746857
2100.000000	7.757012
2101.000000	7.766550
2102.000000	7.774559
2103.000000	7.781128
2104.000000	7.786378
2105.000000	7.790601
2106.000000	7.793848
2107.000000	7.795954
2108.000000	7.796855
2109.000000	7.796909
2110.000000	7.796309
2111.000000	7.794914
2112.000000	7.792152
2113.000000	7.788378
2114.000000	7.784004
2115.000000	7.779124
2116.000000	7.773617
2117.000000	7.767205
2118.000000	7.760237
2119.000000	7.752965
2120.000000	7.744831
2121.000000	7.736157
2122.000000	7.727388
2123.000000	7.718029
2124.000000	7.708177
2125.000000	7.697846
2126.000000	7.686939
2127.000000	7.675745
2128.000000	7.663716
2129.000000	7.651273
2130.000000	7.638236
2131.000000	7.624922
2132.000000	7.611538
2133.000000	7.597030
2134.000000	7.581807
2135.000000	7.565910
2136.000000	7.548968
2137.000000	7.531558
2138.000000	7.513622
2139.000000	7.495279
2140.000000	7.476211
2141.000000	7.456465
2142.000000	7.436133
2143.000000	7.415104
2144.000000	7.393219
2145.000000	7.370472
2146.000000	7.346750
2147.000000	7.322416
2148.000000	7.297469
2149.000000	7.271880
2150.000000	7.245814
2151.000000	7.219160
2152.000000	7.192137
2153.000000	7.164938
2154.000000	7.137227
2155.000000	7.109204
2156.000000	7.081157
2157.000000	7.052558
2158.000000	7.023945
2159.000000	6.994996
2160.000000	6.966257
2161.000000	6.938250
2162.000000	6.910002
2163.000000	6.881845
2164.000000	6.853950
2165.000000	6.825998
2166.000000	6.798491
2167.000000	6.770969
2168.000000	6.744234
2169.000000	6.718211
2170.000000	6.692176
2171.000000	6.666413
2172.000000	6.641490
2173.000000	6.617097
2174.000000	6.593072
2175.000000	6.569508
2176.000000	6.546242
2177.000000	6.523725
2178.000000	6.502056
2179.000000	6.480951
2180.000000	6.460467
2181.000000	6.440651
2182.000000	6.421119
2183.000000	6.401730
2184.000000	6.382519
2185.000000	6.362980
2186.000000	6.343194
2187.000000	6.323610
2188.000000	6.303449
2189.000000	6.282624
2190.000000	6.261053
2191.000000	6.238296
2192.000000	6.214943
2193.000000	6.189973
2194.000000	6.163677
2195.000000	6.135585
2196.000000	6.105190
2197.000000	6.073698
2198.000000	6.040283
2199.000000	6.005422
2200.000000	5.969028
2201.000000	5.930945
2202.000000	5.891736
2203.000000	5.850829
2204.000000	5.808790
2205.000000	5.765939
2206.000000	5.722707
2207.000000	5.678609
2208.000000	5.634719
2209.000000	5.591047
2210.000000	5.548159
2211.000000	5.505692
2212.000000	5.464027
2213.000000	5.423143
2214.000000	5.383460
2215.000000	5.345042
2216.000000	5.308305
2217.000000	5.273038
2218.000000	5.239630
2219.000000	5.208692
2220.000000	5.179866
2221.000000	5.153036
2222.000000	5.128257
2223.000000	5.106242
2224.000000	5.086124
2225.000000	5.068897
2226.000000	5.054367
2227.000000	5.042444
2228.000000	5.033083
2229.000000	5.026431
2230.000000	5.022619
2231.000000	5.021471
2232.000000	5.022635
2233.000000	5.026681
2234.000000	5.032886
2235.000000	5.041074
2236.000000	5.051187
2237.000000	5.062782
2238.000000	5.076335
2239.000000	5.091105
2240.000000	5.106969
2241.000000	5.123363
2242.000000	5.140086
2243.000000	5.156892
2244.000000	5.173248
2245.000000	5.188630
2246.000000	5.203206
2247.000000	5.216489
2248.000000	5.228880
2249.000000	5.239948
2250.000000	5.249358
2251.000000	5.256873
2252.000000	5.263098
2253.000000	5.267590
2254.000000	5.269632
2255.000000	5.270130
2256.000000	5.269073
2257.000000	5.266507
2258.000000	5.262115
2259.000000	5.256615
2260.000000	5.250065
2261.000000	5.241511
2262.000000	5.231870
2263.000000	5.221934
2264.000000	5.211331
2265.000000	5.200300
2266.000000	5.188841
2267.000000	5.177185
2268.000000	5.165825
2269.000000	5.154217
2270.000000	5.142791
2271.000000	5.131813
2272.000000	5.121261
2273.000000	5.111308
2274.000000	5.101242
2275.000000	5.091796
2276.000000	5.083056
2277.000000	5.075390
2278.000000	5.067785
2279.000000	5.061309
2280.000000	5.055864
2281.000000	5.051119
2282.000000	5.046991
2283.000000	5.043446
2284.000000	5.040497
2285.000000	5.038721
2286.000000	5.037590
2287.000000	5.037015
2288.000000	5.037168
2289.000000	5.038274
2290.000000	5.039724
2291.000000	5.042231
2292.000000	5.045173
2293.000000	5.048363
2294.000000	5.051952
2295.000000	5.055689
2296.000000	5.061021
2297.000000	5.066310
2298.000000	5.071902
2299.000000	5.077459
2300.000000	5.083082
2301.000000	5.089408
2302.000000	5.095758
2303.000000	5.101961
2304.000000	5.108342
2305.000000	5.115193
2306.000000	5.122092
2307.000000	5.129144
2308.000000	5.136149
2309.000000	5.144089
2310.000000	5.151886
2311.000000	5.159633
2312.000000	5.167463
2313.000000	5.176085
2314.000000	5.184630
2315.000000	5.193179
2316.000000	5.202061
2317.000000	5.211147
2318.000000	5.220197
2319.000000	5.229385
2320.000000	5.238364
2321.000000	5.247413
2322.000000	5.256325
2323.000000	5.265069
2324.000000	5.273786
2325.000000	5.282573
2326.000000	5.290716
2327.000000	5.298928
2328.000000	5.307050
2329.000000	5.314956
2330.000000	5.322246
2331.000000	5.328940
2332.000000	5.336021
2333.000000	5.342651
2334.000000	5.349052
2335.000000	5.355181
2336.000000	5.360610
2337.000000	5.365851
2338.000000	5.370730
2339.000000	5.375510
2340.000000	5.379972
2341.000000	5.384024
2342.000000	5.387872
2343.000000	5.390990
2344.000000	5.393427
2345.000000	5.395730
2346.000000	5.397861
2347.000000	5.399769
2348.000000	5.401196
2349.000000	5.402533
2350.000000	5.403828
2351.000000	5.404983
2352.000000	5.406034
2353.000000	5.406990
2354.000000	5.408009
2355.000000	5.408830
2356.000000	5.409650
2357.000000	5.410897
2358.000000	5.412470
2359.000000	5.413749
2360.000000	5.415237
2361.000000	5.417058
2362.000000	5.418748
2363.000000	5.420400
2364.000000	5.422386
2365.000000	5.424798
2366.000000	5.427267
2367.000000	5.429510
2368.000000	5.431800
2369.000000	5.434262
2370.000000	5.437040
2371.000000	5.440228
2372.000000	5.443310
2373.000000	5.446290
2374.000000	5.449056
2375.000000	5.451830
2376.000000	5.454707
2377.000000	5.457427
2378.000000	5.460233
2379.000000	5.463271
2380.000000	5.466210
2381.000000	5.468881
2382.000000	5.471260
2383.000000	5.473689
2384.000000	5.475590
2385.000000	5.476953
2386.000000	5.477952
2387.000000	5.478625
2388.000000	5.479132
2389.000000	5.479244
2390.000000	5.479227
2391.000000	5.479119
2392.000000	5.478386
2393.000000	5.477090
2394.000000	5.475698
2395.000000	5.474148
2396.000000	5.472164
2397.000000	5.469707
2398.000000	5.467088
2399.000000	5.464481
2400.000000	5.461287
2401.000000	5.457616
2402.000000	5.453573
2403.000000	5.449236
2404.000000	5.443855
2405.000000	5.437891
2406.000000	5.431849
2407.000000	5.425064
2408.000000	5.417753
2409.000000	5.410111
2410.000000	5.401636
2411.000000	5.392390
2412.000000	5.382818
2413.000000	5.372559
2414.000000	5.361611
2415.000000	5.349858
2416.000000	5.337610
2417.000000	5.324471
2418.000000	5.310222
2419.000000	5.295117
2420.000000	5.279394
2421.000000	5.263202
2422.000000	5.246571
2423.000000	5.229399
2424.000000	5.211215
2425.000000	5.191967
2426.000000	5.171725
2427.000000	5.151012
2428.000000	5.130040
2429.000000	5.108052
2430.000000	5.085300
2431.000000	5.062087
2432.000000	5.038317
2433.000000	5.013999
2434.000000	4.989241
2435.000000	4.964008
2436.000000	4.938451
2437.000000	4.912058
2438.000000	4.885139
2439.000000	4.858358
2440.000000	4.831109
2441.000000	4.802813
2442.000000	4.774231
2443.000000	4.745463
2444.000000	4.716500
2445.000000	4.686976
2446.000000	4.656938
2447.000000	4.626671
2448.000000	4.596634
2449.000000	4.566610
2450.000000	4.536298
2451.000000	4.506230
2452.000000	4.476310
2453.000000	4.445684
2454.000000	4.415655
2455.000000	4.386036
2456.000000	4.356332
2457.000000	4.327192
2458.000000	4.297611
2459.000000	4.268578
2460.000000	4.240103
2461.000000	4.211884
2462.000000	4.184020
2463.000000	4.156355
2464.000000	4.128531
2465.000000	4.100893
2466.000000	4.074364
2467.000000	4.048557
2468.000000	4.023405
2469.000000	3.998512
2470.000000	3.973241
2471.000000	3.948516
2472.000000	3.925049
2473.000000	3.901524
2474.000000	3.879415
2475.000000	3.857985
2476.000000	3.838087
2477.000000	3.817948
2478.000000	3.798855
2479.000000	3.780186
2480.000000	3.761957
2481.000000	3.745448
2482.000000	3.728861
2483.000000	3.712822
2484.000000	3.697850
2485.000000	3.683033
2486.000000	3.668005
2487.000000	3.653474
2488.000000	3.640837
2489.000000	3.629305
2490.000000	3.619792
2491.000000	3.610996
2492.000000	3.600431
2493.000000	3.592386
2494.000000	3.584172
2495.000000	3.578449
2496.000000	3.572951
2497.000000	3.568989
2498.000000	3.564829
2499.000000	3.560705
2500.000000	3.558855
