PE UV       SUBTECH     SPECTRUM    ASCII       PEDS        4.00        
   -1
CICIMAUCR0177-3.ASC
24/03/01
13:25:40.00
24/03/01
13:25:40.00
Vinicio Soto Monge
C.aurora. USA: AZ: Cochise Co, Chrisicahua Mtns., Pine Canyon, 31°56.895'N, 10920.495'W, 1798 m, 22.VII.2009 MV light, N.P. Lord, colr. 
250,000000
1
Lambda 1050
1050L1511233
PerkinElmer UV WinLab 6.3.2.0749 / 2.02.05 Lambda 900 UV/VIS/NIR, Aug  7 2015 09:38:08

0
0
3350/servo 860,8/2
0
0
UV/VIS
1
1
1
DoubleDePol,CommonBeamDepol,RBeamAtt,SBeamAtt,60mm sphere, WB InGaAs Detector
0
0
0
0
Program
Program
3350/servo 860,8/2
3350/0,2 860,8/0,2
3350/0,2 860,8/0,2
0
15.00
 
 
 
0
 
860,8
319,2
860,8
Front
100
on
S:100 R:100
0
0
0
0
 
0
 
 
 
0
 
 
0
0
0
0
0
 
 
 
 
0
0


0
0
#HDR
-1
-1
#GR
nm
%R
1.0
0.0
2500,000000
-1,000000
2251
8
22,957100
1,328400
#DATA
250.000000	nan
251.000000	nan
252.000000	nan
253.000000	nan
254.000000	nan
255.000000	nan
256.000000	nan
257.000000	nan
258.000000	nan
259.000000	nan
260.000000	nan
261.000000	nan
262.000000	nan
263.000000	nan
264.000000	nan
265.000000	nan
266.000000	nan
267.000000	nan
268.000000	nan
269.000000	nan
270.000000	nan
271.000000	nan
272.000000	nan
273.000000	nan
274.000000	nan
275.000000	nan
276.000000	nan
277.000000	nan
278.000000	nan
279.000000	nan
280.000000	nan
281.000000	nan
282.000000	nan
283.000000	nan
284.000000	1.801256
285.000000	1.797649
286.000000	1.794833
287.000000	1.791553
288.000000	1.787128
289.000000	1.783366
290.000000	1.779746
291.000000	1.775283
292.000000	1.771938
293.000000	1.768376
294.000000	1.765000
295.000000	1.760753
296.000000	1.756989
297.000000	1.753011
298.000000	1.749129
299.000000	1.745739
300.000000	1.742451
301.000000	1.739019
302.000000	1.735312
303.000000	1.731475
304.000000	1.728307
305.000000	1.724967
306.000000	1.722106
307.000000	1.719940
308.000000	1.717149
309.000000	1.715226
310.000000	1.711863
311.000000	1.709225
312.000000	1.706018
313.000000	1.703748
314.000000	1.701273
315.000000	1.699389
316.000000	1.697129
317.000000	1.698309
318.000000	1.699838
319.000000	1.702225
320.000000	1.705284
321.000000	1.708288
322.000000	1.707779
323.000000	1.709565
324.000000	1.711451
325.000000	1.714290
326.000000	1.716291
327.000000	1.714143
328.000000	1.715857
329.000000	1.717337
330.000000	1.718235
331.000000	1.719365
332.000000	1.720151
333.000000	1.720690
334.000000	1.721409
335.000000	1.720645
336.000000	1.721408
337.000000	1.722546
338.000000	1.722225
339.000000	1.721654
340.000000	1.720674
341.000000	1.721256
342.000000	1.720433
343.000000	1.718545
344.000000	1.716716
345.000000	1.716112
346.000000	1.715368
347.000000	1.714059
348.000000	1.711402
349.000000	1.711444
350.000000	1.710695
351.000000	1.709719
352.000000	1.704624
353.000000	1.699508
354.000000	1.693749
355.000000	1.687577
356.000000	1.681404
357.000000	1.678196
358.000000	1.672879
359.000000	1.667386
360.000000	1.661329
361.000000	1.656554
362.000000	1.655401
363.000000	1.651143
364.000000	1.646025
365.000000	1.641268
366.000000	1.636089
367.000000	1.631006
368.000000	1.626907
369.000000	1.623897
370.000000	1.621586
371.000000	1.617262
372.000000	1.611053
373.000000	1.604971
374.000000	1.600491
375.000000	1.596196
376.000000	1.589674
377.000000	1.582153
378.000000	1.575643
379.000000	1.568864
380.000000	1.561879
381.000000	1.554203
382.000000	1.547581
383.000000	1.542353
384.000000	1.534838
385.000000	1.527258
386.000000	1.520726
387.000000	1.514651
388.000000	1.508244
389.000000	1.501970
390.000000	1.495721
391.000000	1.489326
392.000000	1.483752
393.000000	1.478299
394.000000	1.472725
395.000000	1.467498
396.000000	1.462073
397.000000	1.456622
398.000000	1.451159
399.000000	1.446741
400.000000	1.442811
401.000000	1.439345
402.000000	1.436436
403.000000	1.433151
404.000000	1.428911
405.000000	1.425945
406.000000	1.423780
407.000000	1.423461
408.000000	1.424336
409.000000	1.424512
410.000000	1.425297
411.000000	1.426981
412.000000	1.431368
413.000000	1.435946
414.000000	1.440823
415.000000	1.446198
416.000000	1.452116
417.000000	1.458500
418.000000	1.465139
419.000000	1.472209
420.000000	1.479914
421.000000	1.488253
422.000000	1.497029
423.000000	1.506175
424.000000	1.515901
425.000000	1.526264
426.000000	1.537148
427.000000	1.548406
428.000000	1.560384
429.000000	1.573151
430.000000	1.586721
431.000000	1.600866
432.000000	1.615657
433.000000	1.631156
434.000000	1.647414
435.000000	1.664567
436.000000	1.682480
437.000000	1.701130
438.000000	1.720412
439.000000	1.740408
440.000000	1.761178
441.000000	1.782767
442.000000	1.805213
443.000000	1.828497
444.000000	1.852433
445.000000	1.877049
446.000000	1.902249
447.000000	1.928225
448.000000	1.954896
449.000000	1.982152
450.000000	2.010075
451.000000	2.038603
452.000000	2.067591
453.000000	2.097258
454.000000	2.127460
455.000000	2.158035
456.000000	2.188883
457.000000	2.220072
458.000000	2.251774
459.000000	2.283830
460.000000	2.316059
461.000000	2.348540
462.000000	2.381403
463.000000	2.414435
464.000000	2.447528
465.000000	2.480561
466.000000	2.513496
467.000000	2.546443
468.000000	2.579298
469.000000	2.611881
470.000000	2.644214
471.000000	2.676174
472.000000	2.707702
473.000000	2.738778
474.000000	2.769483
475.000000	2.799620
476.000000	2.829155
477.000000	2.857973
478.000000	2.885987
479.000000	2.913280
480.000000	2.939806
481.000000	2.965458
482.000000	2.989978
483.000000	3.013695
484.000000	3.036825
485.000000	3.059454
486.000000	3.081595
487.000000	3.103243
488.000000	3.124373
489.000000	3.145115
490.000000	3.165562
491.000000	3.185582
492.000000	3.205241
493.000000	3.224485
494.000000	3.243510
495.000000	3.262299
496.000000	3.280778
497.000000	3.298936
498.000000	3.317117
499.000000	3.335260
500.000000	3.353309
501.000000	3.371468
502.000000	3.389738
503.000000	3.408181
504.000000	3.426879
505.000000	3.445973
506.000000	3.465530
507.000000	3.485635
508.000000	3.506373
509.000000	3.527657
510.000000	3.549752
511.000000	3.572861
512.000000	3.596988
513.000000	3.622108
514.000000	3.648276
515.000000	3.675736
516.000000	3.704801
517.000000	3.735302
518.000000	3.767048
519.000000	3.800111
520.000000	3.834336
521.000000	3.869750
522.000000	3.906458
523.000000	3.944471
524.000000	3.983682
525.000000	4.024250
526.000000	4.066288
527.000000	4.109526
528.000000	4.154094
529.000000	4.199870
530.000000	4.246986
531.000000	4.295456
532.000000	4.345199
533.000000	4.395941
534.000000	4.447711
535.000000	4.500612
536.000000	4.554528
537.000000	4.609287
538.000000	4.664826
539.000000	4.721052
540.000000	4.777772
541.000000	4.835129
542.000000	4.893067
543.000000	4.951332
544.000000	5.010054
545.000000	5.068832
546.000000	5.127561
547.000000	5.186212
548.000000	5.244867
549.000000	5.303375
550.000000	5.361641
551.000000	5.419481
552.000000	5.476900
553.000000	5.533920
554.000000	5.590242
555.000000	5.645687
556.000000	5.700054
557.000000	5.753320
558.000000	5.805490
559.000000	5.856374
560.000000	5.901105
561.000000	5.943428
562.000000	5.984369
563.000000	6.023390
564.000000	6.060636
565.000000	6.095710
566.000000	6.128487
567.000000	6.159198
568.000000	6.187837
569.000000	6.214124
570.000000	6.238221
571.000000	6.259940
572.000000	6.279185
573.000000	6.295903
574.000000	6.310063
575.000000	6.321789
576.000000	6.330915
577.000000	6.337500
578.000000	6.341594
579.000000	6.343038
580.000000	6.341980
581.000000	6.338353
582.000000	6.332308
583.000000	6.323750
584.000000	6.312613
585.000000	6.299038
586.000000	6.282888
587.000000	6.264403
588.000000	6.243748
589.000000	6.220606
590.000000	6.195581
591.000000	6.168496
592.000000	6.139493
593.000000	6.108332
594.000000	6.075196
595.000000	6.045028
596.000000	6.014025
597.000000	5.981455
598.000000	5.947719
599.000000	5.912532
600.000000	5.876230
601.000000	5.838919
602.000000	5.800650
603.000000	5.761133
604.000000	5.721034
605.000000	5.680173
606.000000	5.638653
607.000000	5.596729
608.000000	5.554615
609.000000	5.512323
610.000000	5.470171
611.000000	5.428120
612.000000	5.385906
613.000000	5.343905
614.000000	5.302373
615.000000	5.261252
616.000000	5.220597
617.000000	5.180570
618.000000	5.141124
619.000000	5.102630
620.000000	5.065059
621.000000	5.028153
622.000000	4.992195
623.000000	4.957083
624.000000	4.923149
625.000000	4.889981
626.000000	4.857980
627.000000	4.827043
628.000000	4.797404
629.000000	4.769098
630.000000	4.741825
631.000000	4.715605
632.000000	4.690662
633.000000	4.666712
634.000000	4.644027
635.000000	4.622634
636.000000	4.602507
637.000000	4.583813
638.000000	4.566582
639.000000	4.550435
640.000000	4.535617
641.000000	4.522393
642.000000	4.510403
643.000000	4.499645
644.000000	4.490293
645.000000	4.482059
646.000000	4.474846
647.000000	4.469161
648.000000	4.464800
649.000000	4.461340
650.000000	4.458969
651.000000	4.457872
652.000000	4.457742
653.000000	4.458800
654.000000	4.460700
655.000000	4.463595
656.000000	4.467632
657.000000	4.472624
658.000000	4.478467
659.000000	4.484999
660.000000	4.492468
661.000000	4.500944
662.000000	4.510309
663.000000	4.520434
664.000000	4.531372
665.000000	4.543256
666.000000	4.556073
667.000000	4.569426
668.000000	4.583702
669.000000	4.598592
670.000000	4.614263
671.000000	4.630693
672.000000	4.647750
673.000000	4.665388
674.000000	4.683941
675.000000	4.703193
676.000000	4.722746
677.000000	4.743081
678.000000	4.764290
679.000000	4.786010
680.000000	4.808379
681.000000	4.831416
682.000000	4.854880
683.000000	4.878883
684.000000	4.903742
685.000000	4.929124
686.000000	4.954719
687.000000	4.980997
688.000000	5.007869
689.000000	5.035135
690.000000	5.062669
691.000000	5.090875
692.000000	5.119442
693.000000	5.148261
694.000000	5.177595
695.000000	5.207527
696.000000	5.237851
697.000000	5.268325
698.000000	5.299138
699.000000	5.330352
700.000000	5.361683
701.000000	5.393397
702.000000	5.425617
703.000000	5.458001
704.000000	5.491031
705.000000	5.524443
706.000000	5.558334
707.000000	5.592403
708.000000	5.627052
709.000000	5.661832
710.000000	5.696838
711.000000	5.732429
712.000000	5.768351
713.000000	5.804481
714.000000	5.840778
715.000000	5.877378
716.000000	5.914314
717.000000	5.951401
718.000000	5.988684
719.000000	6.026030
720.000000	6.063918
721.000000	6.102244
722.000000	6.140945
723.000000	6.179848
724.000000	6.219021
725.000000	6.258559
726.000000	6.298357
727.000000	6.338513
728.000000	6.378853
729.000000	6.419472
730.000000	6.460216
731.000000	6.501084
732.000000	6.542513
733.000000	6.584592
734.000000	6.626840
735.000000	6.669615
736.000000	6.712387
737.000000	6.755543
738.000000	6.799400
739.000000	6.843187
740.000000	6.887495
741.000000	6.932250
742.000000	6.976910
743.000000	7.021848
744.000000	7.067511
745.000000	7.113604
746.000000	7.159919
747.000000	7.206324
748.000000	7.253235
749.000000	7.300934
750.000000	7.348428
751.000000	7.396204
752.000000	7.444578
753.000000	7.492911
754.000000	7.541299
755.000000	7.590512
756.000000	7.640140
757.000000	7.689582
758.000000	7.739252
759.000000	7.789039
760.000000	7.839179
761.000000	7.889794
762.000000	7.940465
763.000000	7.991739
764.000000	8.043227
765.000000	8.095112
766.000000	8.147578
767.000000	8.200040
768.000000	8.252501
769.000000	8.305431
770.000000	8.358367
771.000000	8.411844
772.000000	8.465825
773.000000	8.519875
774.000000	8.574772
775.000000	8.629716
776.000000	8.684079
777.000000	8.739086
778.000000	8.794784
779.000000	8.850734
780.000000	8.906696
781.000000	8.962951
782.000000	9.020108
783.000000	9.076695
784.000000	9.132686
785.000000	9.189524
786.000000	9.246761
787.000000	9.304041
788.000000	9.361860
789.000000	9.420652
790.000000	9.478885
791.000000	9.537480
792.000000	9.596729
793.000000	9.656090
794.000000	9.716500
795.000000	9.777025
796.000000	9.837554
797.000000	9.898152
798.000000	9.959482
799.000000	10.021139
800.000000	10.082466
801.000000	10.144342
802.000000	10.206726
803.000000	10.268837
804.000000	10.331288
805.000000	10.393818
806.000000	10.456568
807.000000	10.519529
808.000000	10.584207
809.000000	10.648944
810.000000	10.713349
811.000000	10.778027
812.000000	10.843437
813.000000	10.908193
814.000000	10.972405
815.000000	11.037340
816.000000	11.103118
817.000000	11.167932
818.000000	11.234004
819.000000	11.299590
820.000000	11.364897
821.000000	11.430897
822.000000	11.496168
823.000000	11.561932
824.000000	11.627470
825.000000	11.693673
826.000000	11.758786
827.000000	11.822985
828.000000	11.887472
829.000000	11.951227
830.000000	12.014026
831.000000	12.077041
832.000000	12.141456
833.000000	12.204736
834.000000	12.268235
835.000000	12.329996
836.000000	12.391753
837.000000	12.454557
838.000000	12.516397
839.000000	12.577983
840.000000	12.639040
841.000000	12.699837
842.000000	12.760997
843.000000	12.820215
844.000000	12.877515
845.000000	12.934583
846.000000	12.993595
847.000000	13.051758
848.000000	13.109312
849.000000	13.168493
850.000000	13.224573
851.000000	13.278538
852.000000	13.334149
853.000000	13.385725
854.000000	13.437700
855.000000	13.490941
856.000000	13.543127
857.000000	13.598786
858.000000	13.671004
859.000000	13.730915
860.000000	13.790016
861.000000	13.849857
862.000000	13.910800
863.000000	13.972377
864.000000	14.034106
865.000000	14.096802
866.000000	14.160174
867.000000	14.222025
868.000000	14.284302
869.000000	14.346371
870.000000	14.410260
871.000000	14.473280
872.000000	14.534997
873.000000	14.598128
874.000000	14.661140
875.000000	14.724640
876.000000	14.787980
877.000000	14.850331
878.000000	14.913115
879.000000	14.977151
880.000000	15.041601
881.000000	15.104709
882.000000	15.167716
883.000000	15.231408
884.000000	15.293732
885.000000	15.358358
886.000000	15.423995
887.000000	15.488570
888.000000	15.556498
889.000000	15.624371
890.000000	15.691115
891.000000	15.757834
892.000000	15.821609
893.000000	15.868315
894.000000	15.927002
895.000000	15.985892
896.000000	16.045275
897.000000	16.103710
898.000000	16.161418
899.000000	16.219210
900.000000	16.276557
901.000000	16.332970
902.000000	16.389620
903.000000	16.446782
904.000000	16.503883
905.000000	16.561240
906.000000	16.618783
907.000000	16.676475
908.000000	16.733934
909.000000	16.790983
910.000000	16.847382
911.000000	16.904283
912.000000	16.961579
913.000000	17.018358
914.000000	17.075031
915.000000	17.131462
916.000000	17.187830
917.000000	17.243715
918.000000	17.299495
919.000000	17.354834
920.000000	17.409816
921.000000	17.464865
922.000000	17.519285
923.000000	17.573360
924.000000	17.627266
925.000000	17.680022
926.000000	17.732910
927.000000	17.785035
928.000000	17.836826
929.000000	17.888002
930.000000	17.938835
931.000000	17.988778
932.000000	18.038583
933.000000	18.088356
934.000000	18.137677
935.000000	18.186791
936.000000	18.235855
937.000000	18.285148
938.000000	18.333640
939.000000	18.381797
940.000000	18.429088
941.000000	18.475968
942.000000	18.522224
943.000000	18.568266
944.000000	18.614492
945.000000	18.660986
946.000000	18.706930
947.000000	18.752139
948.000000	18.797131
949.000000	18.842042
950.000000	18.886388
951.000000	18.930126
952.000000	18.974303
953.000000	19.017883
954.000000	19.061460
955.000000	19.104815
956.000000	19.147516
957.000000	19.190517
958.000000	19.232573
959.000000	19.274674
960.000000	19.317235
961.000000	19.358905
962.000000	19.400827
963.000000	19.441933
964.000000	19.483269
965.000000	19.524101
966.000000	19.564670
967.000000	19.604737
968.000000	19.643734
969.000000	19.682106
970.000000	19.720190
971.000000	19.757458
972.000000	19.793358
973.000000	19.828560
974.000000	19.863466
975.000000	19.898141
976.000000	19.932551
977.000000	19.966336
978.000000	19.999367
979.000000	20.032131
980.000000	20.064138
981.000000	20.095185
982.000000	20.125871
983.000000	20.156202
984.000000	20.185881
985.000000	20.215403
986.000000	20.244684
987.000000	20.273183
988.000000	20.300814
989.000000	20.327653
990.000000	20.354190
991.000000	20.380579
992.000000	20.406076
993.000000	20.431428
994.000000	20.456532
995.000000	20.481796
996.000000	20.507096
997.000000	20.531624
998.000000	20.555971
999.000000	20.579672
1000.000000	20.603097
1001.000000	20.626130
1002.000000	20.649109
1003.000000	20.671522
1004.000000	20.693879
1005.000000	20.715711
1006.000000	20.737048
1007.000000	20.758372
1008.000000	20.779364
1009.000000	20.799786
1010.000000	20.819799
1011.000000	20.839062
1012.000000	20.858214
1013.000000	20.877111
1014.000000	20.895301
1015.000000	20.913815
1016.000000	20.932250
1017.000000	20.950030
1018.000000	20.967431
1019.000000	20.984481
1020.000000	21.001655
1021.000000	21.018578
1022.000000	21.035356
1023.000000	21.052478
1024.000000	21.069572
1025.000000	21.086799
1026.000000	21.103752
1027.000000	21.120718
1028.000000	21.137803
1029.000000	21.154291
1030.000000	21.169850
1031.000000	21.185482
1032.000000	21.201436
1033.000000	21.217410
1034.000000	21.233278
1035.000000	21.249067
1036.000000	21.264788
1037.000000	21.280665
1038.000000	21.296876
1039.000000	21.312920
1040.000000	21.329382
1041.000000	21.345889
1042.000000	21.362490
1043.000000	21.379389
1044.000000	21.396248
1045.000000	21.413284
1046.000000	21.430563
1047.000000	21.447790
1048.000000	21.465315
1049.000000	21.483000
1050.000000	21.500671
1051.000000	21.518563
1052.000000	21.537191
1053.000000	21.556194
1054.000000	21.575380
1055.000000	21.594445
1056.000000	21.613215
1057.000000	21.632350
1058.000000	21.651582
1059.000000	21.671098
1060.000000	21.690567
1061.000000	21.710404
1062.000000	21.730398
1063.000000	21.750464
1064.000000	21.770937
1065.000000	21.791612
1066.000000	21.812046
1067.000000	21.832657
1068.000000	21.853584
1069.000000	21.874668
1070.000000	21.895829
1071.000000	21.917103
1072.000000	21.938214
1073.000000	21.959472
1074.000000	21.981053
1075.000000	22.002429
1076.000000	22.023902
1077.000000	22.045484
1078.000000	22.066793
1079.000000	22.088254
1080.000000	22.109749
1081.000000	22.131255
1082.000000	22.152675
1083.000000	22.174060
1084.000000	22.195241
1085.000000	22.216590
1086.000000	22.237626
1087.000000	22.257728
1088.000000	22.277507
1089.000000	22.297349
1090.000000	22.316949
1091.000000	22.336496
1092.000000	22.355550
1093.000000	22.374497
1094.000000	22.393352
1095.000000	22.411867
1096.000000	22.429642
1097.000000	22.447339
1098.000000	22.464267
1099.000000	22.480900
1100.000000	22.497145
1101.000000	22.512738
1102.000000	22.527733
1103.000000	22.542350
1104.000000	22.556712
1105.000000	22.570687
1106.000000	22.584224
1107.000000	22.597524
1108.000000	22.610178
1109.000000	22.621883
1110.000000	22.633686
1111.000000	22.645190
1112.000000	22.655851
1113.000000	22.665920
1114.000000	22.675354
1115.000000	22.684230
1116.000000	22.692528
1117.000000	22.700613
1118.000000	22.708432
1119.000000	22.715708
1120.000000	22.721856
1121.000000	22.727607
1122.000000	22.733119
1123.000000	22.738150
1124.000000	22.742441
1125.000000	22.746128
1126.000000	22.748932
1127.000000	22.750529
1128.000000	22.750840
1129.000000	22.749590
1130.000000	22.747147
1131.000000	22.743125
1132.000000	22.736780
1133.000000	22.728650
1134.000000	22.719592
1135.000000	22.709941
1136.000000	22.699241
1137.000000	22.686620
1138.000000	22.671813
1139.000000	22.654530
1140.000000	22.634787
1141.000000	22.614365
1142.000000	22.591742
1143.000000	22.567501
1144.000000	22.542066
1145.000000	22.514629
1146.000000	22.485456
1147.000000	22.455168
1148.000000	22.423443
1149.000000	22.390193
1150.000000	22.355460
1151.000000	22.319177
1152.000000	22.281232
1153.000000	22.241904
1154.000000	22.201400
1155.000000	22.159630
1156.000000	22.116249
1157.000000	22.070638
1158.000000	22.022599
1159.000000	21.972866
1160.000000	21.920241
1161.000000	21.865063
1162.000000	21.807785
1163.000000	21.748775
1164.000000	21.688157
1165.000000	21.625806
1166.000000	21.562957
1167.000000	21.500001
1168.000000	21.437438
1169.000000	21.374162
1170.000000	21.310405
1171.000000	21.246997
1172.000000	21.183989
1173.000000	21.121746
1174.000000	21.060465
1175.000000	21.000479
1176.000000	20.939810
1177.000000	20.879597
1178.000000	20.819435
1179.000000	20.759217
1180.000000	20.698967
1181.000000	20.637949
1182.000000	20.576456
1183.000000	20.514679
1184.000000	20.452806
1185.000000	20.390800
1186.000000	20.328506
1187.000000	20.266570
1188.000000	20.204486
1189.000000	20.142817
1190.000000	20.081620
1191.000000	20.021169
1192.000000	19.962647
1193.000000	19.906123
1194.000000	19.851150
1195.000000	19.799332
1196.000000	19.749998
1197.000000	19.703261
1198.000000	19.658744
1199.000000	19.616284
1200.000000	19.575596
1201.000000	19.536463
1202.000000	19.498225
1203.000000	19.460634
1204.000000	19.423770
1205.000000	19.387605
1206.000000	19.351319
1207.000000	19.315603
1208.000000	19.280486
1209.000000	19.246663
1210.000000	19.213950
1211.000000	19.182873
1212.000000	19.153722
1213.000000	19.127144
1214.000000	19.103286
1215.000000	19.082162
1216.000000	19.064730
1217.000000	19.051370
1218.000000	19.042451
1219.000000	19.038090
1220.000000	19.038660
1221.000000	19.044030
1222.000000	19.054046
1223.000000	19.068295
1224.000000	19.086176
1225.000000	19.108214
1226.000000	19.134085
1227.000000	19.163241
1228.000000	19.195559
1229.000000	19.230893
1230.000000	19.268595
1231.000000	19.308393
1232.000000	19.350325
1233.000000	19.394250
1234.000000	19.440348
1235.000000	19.488618
1236.000000	19.538475
1237.000000	19.590713
1238.000000	19.644866
1239.000000	19.700642
1240.000000	19.757351
1241.000000	19.815887
1242.000000	19.876686
1243.000000	19.939144
1244.000000	20.002355
1245.000000	20.066659
1246.000000	20.131753
1247.000000	20.197628
1248.000000	20.263529
1249.000000	20.329283
1250.000000	20.394787
1251.000000	20.459968
1252.000000	20.523936
1253.000000	20.586213
1254.000000	20.646683
1255.000000	20.705192
1256.000000	20.761268
1257.000000	20.814629
1258.000000	20.865773
1259.000000	20.914454
1260.000000	20.960782
1261.000000	21.004909
1262.000000	21.046302
1263.000000	21.085629
1264.000000	21.122851
1265.000000	21.158033
1266.000000	21.191900
1267.000000	21.224153
1268.000000	21.254971
1269.000000	21.284195
1270.000000	21.311772
1271.000000	21.338075
1272.000000	21.362900
1273.000000	21.386630
1274.000000	21.409556
1275.000000	21.431769
1276.000000	21.453186
1277.000000	21.473305
1278.000000	21.492404
1279.000000	21.510741
1280.000000	21.528282
1281.000000	21.544759
1282.000000	21.560085
1283.000000	21.574390
1284.000000	21.587795
1285.000000	21.600580
1286.000000	21.612672
1287.000000	21.624023
1288.000000	21.634777
1289.000000	21.644755
1290.000000	21.653608
1291.000000	21.662350
1292.000000	21.670617
1293.000000	21.678329
1294.000000	21.686071
1295.000000	21.693353
1296.000000	21.700295
1297.000000	21.707256
1298.000000	21.713966
1299.000000	21.720669
1300.000000	21.727183
1301.000000	21.733673
1302.000000	21.740019
1303.000000	21.746114
1304.000000	21.752124
1305.000000	21.758516
1306.000000	21.764980
1307.000000	21.771422
1308.000000	21.778050
1309.000000	21.784468
1310.000000	21.790543
1311.000000	21.795970
1312.000000	21.800797
1313.000000	21.805297
1314.000000	21.809380
1315.000000	21.812603
1316.000000	21.815258
1317.000000	21.817442
1318.000000	21.818878
1319.000000	21.819647
1320.000000	21.819333
1321.000000	21.817800
1322.000000	21.815273
1323.000000	21.811988
1324.000000	21.807836
1325.000000	21.802928
1326.000000	21.796690
1327.000000	21.789227
1328.000000	21.780508
1329.000000	21.770657
1330.000000	21.759817
1331.000000	21.747740
1332.000000	21.734614
1333.000000	21.720235
1334.000000	21.704231
1335.000000	21.686690
1336.000000	21.667693
1337.000000	21.647659
1338.000000	21.626610
1339.000000	21.604364
1340.000000	21.580396
1341.000000	21.555150
1342.000000	21.528419
1343.000000	21.499866
1344.000000	21.469656
1345.000000	21.437800
1346.000000	21.404201
1347.000000	21.369648
1348.000000	21.333725
1349.000000	21.296021
1350.000000	21.256001
1351.000000	21.213888
1352.000000	21.169630
1353.000000	21.123366
1354.000000	21.076041
1355.000000	21.028162
1356.000000	20.979607
1357.000000	20.929671
1358.000000	20.877266
1359.000000	20.822936
1360.000000	20.766737
1361.000000	20.710658
1362.000000	20.656540
1363.000000	20.602170
1364.000000	20.546265
1365.000000	20.489859
1366.000000	20.432327
1367.000000	20.371992
1368.000000	20.310113
1369.000000	20.246246
1370.000000	20.179538
1371.000000	20.109932
1372.000000	20.037601
1373.000000	19.960418
1374.000000	19.877742
1375.000000	19.789958
1376.000000	19.697395
1377.000000	19.599160
1378.000000	19.495745
1379.000000	19.386919
1380.000000	19.274477
1381.000000	19.159916
1382.000000	19.045388
1383.000000	18.930180
1384.000000	18.815440
1385.000000	18.699859
1386.000000	18.583821
1387.000000	18.467857
1388.000000	18.354098
1389.000000	18.241102
1390.000000	18.126948
1391.000000	18.012363
1392.000000	17.900406
1393.000000	17.792148
1394.000000	17.687230
1395.000000	17.585847
1396.000000	17.488662
1397.000000	17.391025
1398.000000	17.292304
1399.000000	17.194366
1400.000000	17.099051
1401.000000	17.007689
1402.000000	16.917754
1403.000000	16.826424
1404.000000	16.735326
1405.000000	16.647819
1406.000000	16.562247
1407.000000	16.477735
1408.000000	16.397085
1409.000000	16.321031
1410.000000	16.249386
1411.000000	16.180891
1412.000000	16.116247
1413.000000	16.056394
1414.000000	16.002510
1415.000000	15.953101
1416.000000	15.905612
1417.000000	15.856846
1418.000000	15.809204
1419.000000	15.762813
1420.000000	15.718885
1421.000000	15.675392
1422.000000	15.632670
1423.000000	15.588816
1424.000000	15.544799
1425.000000	15.501864
1426.000000	15.458697
1427.000000	15.413431
1428.000000	15.366955
1429.000000	15.318219
1430.000000	15.266986
1431.000000	15.211106
1432.000000	15.154377
1433.000000	15.099180
1434.000000	15.044410
1435.000000	14.987223
1436.000000	14.927474
1437.000000	14.869401
1438.000000	14.814747
1439.000000	14.762366
1440.000000	14.709560
1441.000000	14.658478
1442.000000	14.609532
1443.000000	14.562471
1444.000000	14.516691
1445.000000	14.472611
1446.000000	14.431484
1447.000000	14.392844
1448.000000	14.355635
1449.000000	14.318882
1450.000000	14.283543
1451.000000	14.250122
1452.000000	14.219140
1453.000000	14.188554
1454.000000	14.157235
1455.000000	14.126601
1456.000000	14.098218
1457.000000	14.070625
1458.000000	14.044195
1459.000000	14.017713
1460.000000	13.992318
1461.000000	13.968745
1462.000000	13.945753
1463.000000	13.922924
1464.000000	13.900663
1465.000000	13.879018
1466.000000	13.858183
1467.000000	13.837319
1468.000000	13.816377
1469.000000	13.795834
1470.000000	13.775979
1471.000000	13.756683
1472.000000	13.737841
1473.000000	13.718530
1474.000000	13.699225
1475.000000	13.680533
1476.000000	13.661610
1477.000000	13.643129
1478.000000	13.624596
1479.000000	13.606470
1480.000000	13.588270
1481.000000	13.569791
1482.000000	13.551567
1483.000000	13.533349
1484.000000	13.515786
1485.000000	13.497530
1486.000000	13.478977
1487.000000	13.460565
1488.000000	13.442513
1489.000000	13.425109
1490.000000	13.407669
1491.000000	13.389991
1492.000000	13.372844
1493.000000	13.355941
1494.000000	13.340038
1495.000000	13.324093
1496.000000	13.308614
1497.000000	13.294291
1498.000000	13.280254
1499.000000	13.267303
1500.000000	13.255428
1501.000000	13.244202
1502.000000	13.233602
1503.000000	13.224150
1504.000000	13.215654
1505.000000	13.208156
1506.000000	13.201553
1507.000000	13.195840
1508.000000	13.191599
1509.000000	13.188278
1510.000000	13.186201
1511.000000	13.185760
1512.000000	13.186111
1513.000000	13.187289
1514.000000	13.189425
1515.000000	13.192728
1516.000000	13.196966
1517.000000	13.202652
1518.000000	13.209625
1519.000000	13.217449
1520.000000	13.226197
1521.000000	13.236255
1522.000000	13.246729
1523.000000	13.258218
1524.000000	13.270935
1525.000000	13.284766
1526.000000	13.299460
1527.000000	13.315139
1528.000000	13.331774
1529.000000	13.349110
1530.000000	13.366920
1531.000000	13.384659
1532.000000	13.402836
1533.000000	13.421665
1534.000000	13.440926
1535.000000	13.460429
1536.000000	13.480082
1537.000000	13.499893
1538.000000	13.519432
1539.000000	13.539152
1540.000000	13.558881
1541.000000	13.578098
1542.000000	13.596984
1543.000000	13.615810
1544.000000	13.634932
1545.000000	13.654111
1546.000000	13.673355
1547.000000	13.692780
1548.000000	13.712426
1549.000000	13.732359
1550.000000	13.752612
1551.000000	13.772936
1552.000000	13.793227
1553.000000	13.813899
1554.000000	13.834659
1555.000000	13.855633
1556.000000	13.876951
1557.000000	13.898510
1558.000000	13.919793
1559.000000	13.940539
1560.000000	13.960952
1561.000000	13.981137
1562.000000	14.000929
1563.000000	14.020081
1564.000000	14.038370
1565.000000	14.056070
1566.000000	14.073310
1567.000000	14.089801
1568.000000	14.105497
1569.000000	14.120266
1570.000000	14.134621
1571.000000	14.148454
1572.000000	14.161464
1573.000000	14.174603
1574.000000	14.187520
1575.000000	14.199970
1576.000000	14.212374
1577.000000	14.224693
1578.000000	14.236514
1579.000000	14.247951
1580.000000	14.258955
1581.000000	14.269365
1582.000000	14.279376
1583.000000	14.289111
1584.000000	14.298450
1585.000000	14.307336
1586.000000	14.316113
1587.000000	14.324764
1588.000000	14.333074
1589.000000	14.340885
1590.000000	14.348541
1591.000000	14.356066
1592.000000	14.363345
1593.000000	14.370728
1594.000000	14.378375
1595.000000	14.386586
1596.000000	14.395301
1597.000000	14.404643
1598.000000	14.414666
1599.000000	14.425553
1600.000000	14.437450
1601.000000	14.450266
1602.000000	14.463970
1603.000000	14.478930
1604.000000	14.494983
1605.000000	14.511744
1606.000000	14.529258
1607.000000	14.547868
1608.000000	14.566702
1609.000000	14.585845
1610.000000	14.605285
1611.000000	14.624890
1612.000000	14.644654
1613.000000	14.665006
1614.000000	14.685379
1615.000000	14.705729
1616.000000	14.726229
1617.000000	14.746656
1618.000000	14.767035
1619.000000	14.787390
1620.000000	14.807439
1621.000000	14.827078
1622.000000	14.846172
1623.000000	14.865130
1624.000000	14.883842
1625.000000	14.902290
1626.000000	14.920003
1627.000000	14.937878
1628.000000	14.955765
1629.000000	14.973345
1630.000000	14.990280
1631.000000	15.006566
1632.000000	15.022467
1633.000000	15.037716
1634.000000	15.052403
1635.000000	15.066566
1636.000000	15.080407
1637.000000	15.093736
1638.000000	15.106310
1639.000000	15.117923
1640.000000	15.128562
1641.000000	15.138981
1642.000000	15.148737
1643.000000	15.157827
1644.000000	15.166008
1645.000000	15.173405
1646.000000	15.180394
1647.000000	15.186706
1648.000000	15.192453
1649.000000	15.197972
1650.000000	15.202755
1651.000000	15.206548
1652.000000	15.209661
1653.000000	15.211997
1654.000000	15.213090
1655.000000	15.212987
1656.000000	15.211880
1657.000000	15.209726
1658.000000	15.205670
1659.000000	15.200158
1660.000000	15.192814
1661.000000	15.183495
1662.000000	15.172282
1663.000000	15.158580
1664.000000	15.142543
1665.000000	15.124461
1666.000000	15.104413
1667.000000	15.082006
1668.000000	15.056175
1669.000000	15.027941
1670.000000	14.997843
1671.000000	14.965370
1672.000000	14.930033
1673.000000	14.892320
1674.000000	14.852586
1675.000000	14.811085
1676.000000	14.767070
1677.000000	14.720754
1678.000000	14.672056
1679.000000	14.621335
1680.000000	14.568393
1681.000000	14.512304
1682.000000	14.453390
1683.000000	14.391509
1684.000000	14.326833
1685.000000	14.259697
1686.000000	14.190359
1687.000000	14.118762
1688.000000	14.045189
1689.000000	13.970321
1690.000000	13.895061
1691.000000	13.818740
1692.000000	13.742443
1693.000000	13.666875
1694.000000	13.591901
1695.000000	13.517510
1696.000000	13.444263
1697.000000	13.371235
1698.000000	13.298264
1699.000000	13.225390
1700.000000	13.151568
1701.000000	13.076693
1702.000000	13.001157
1703.000000	12.926485
1704.000000	12.851815
1705.000000	12.776411
1706.000000	12.701179
1707.000000	12.626408
1708.000000	12.551748
1709.000000	12.477149
1710.000000	12.402417
1711.000000	12.327886
1712.000000	12.253873
1713.000000	12.180265
1714.000000	12.106726
1715.000000	12.033550
1716.000000	11.960700
1717.000000	11.888763
1718.000000	11.817390
1719.000000	11.747006
1720.000000	11.677811
1721.000000	11.609214
1722.000000	11.541656
1723.000000	11.475334
1724.000000	11.409966
1725.000000	11.345190
1726.000000	11.282107
1727.000000	11.219829
1728.000000	11.158637
1729.000000	11.099077
1730.000000	11.042297
1731.000000	10.988690
1732.000000	10.939290
1733.000000	10.894756
1734.000000	10.855294
1735.000000	10.821954
1736.000000	10.794955
1737.000000	10.773587
1738.000000	10.757190
1739.000000	10.745446
1740.000000	10.737870
1741.000000	10.734540
1742.000000	10.734641
1743.000000	10.738017
1744.000000	10.744344
1745.000000	10.753470
1746.000000	10.764823
1747.000000	10.777956
1748.000000	10.793318
1749.000000	10.810883
1750.000000	10.830181
1751.000000	10.851981
1752.000000	10.875249
1753.000000	10.899849
1754.000000	10.925041
1755.000000	10.951128
1756.000000	10.978796
1757.000000	11.007166
1758.000000	11.035883
1759.000000	11.064889
1760.000000	11.094217
1761.000000	11.123582
1762.000000	11.153032
1763.000000	11.182992
1764.000000	11.213181
1765.000000	11.242505
1766.000000	11.271300
1767.000000	11.299548
1768.000000	11.327231
1769.000000	11.353886
1770.000000	11.378838
1771.000000	11.402504
1772.000000	11.425143
1773.000000	11.446454
1774.000000	11.466855
1775.000000	11.486930
1776.000000	11.506053
1777.000000	11.524926
1778.000000	11.543709
1779.000000	11.563056
1780.000000	11.582817
1781.000000	11.603179
1782.000000	11.624061
1783.000000	11.645701
1784.000000	11.667897
1785.000000	11.691343
1786.000000	11.715554
1787.000000	11.740720
1788.000000	11.766945
1789.000000	11.794863
1790.000000	11.823783
1791.000000	11.853347
1792.000000	11.883974
1793.000000	11.915471
1794.000000	11.948235
1795.000000	11.981685
1796.000000	12.015595
1797.000000	12.049667
1798.000000	12.082561
1799.000000	12.114486
1800.000000	12.146002
1801.000000	12.176513
1802.000000	12.205129
1803.000000	12.231730
1804.000000	12.256238
1805.000000	12.279267
1806.000000	12.300684
1807.000000	12.320655
1808.000000	12.339662
1809.000000	12.356816
1810.000000	12.372290
1811.000000	12.386767
1812.000000	12.400993
1813.000000	12.414440
1814.000000	12.426391
1815.000000	12.437464
1816.000000	12.448144
1817.000000	12.457811
1818.000000	12.465550
1819.000000	12.472135
1820.000000	12.479161
1821.000000	12.488526
1822.000000	12.499672
1823.000000	12.510367
1824.000000	12.518621
1825.000000	12.525610
1826.000000	12.532553
1827.000000	12.539891
1828.000000	12.548246
1829.000000	12.557062
1830.000000	12.566556
1831.000000	12.577034
1832.000000	12.587469
1833.000000	12.597021
1834.000000	12.605318
1835.000000	12.612852
1836.000000	12.620414
1837.000000	12.629169
1838.000000	12.639110
1839.000000	12.649370
1840.000000	12.660078
1841.000000	12.672412
1842.000000	12.686692
1843.000000	12.701427
1844.000000	12.714346
1845.000000	12.724195
1846.000000	12.731702
1847.000000	12.740113
1848.000000	12.752765
1849.000000	12.769110
1850.000000	12.785342
1851.000000	12.798673
1852.000000	12.810208
1853.000000	12.822967
1854.000000	12.837436
1855.000000	12.851072
1856.000000	12.861990
1857.000000	12.869893
1858.000000	12.877131
1859.000000	12.887170
1860.000000	12.899455
1861.000000	12.912000
1862.000000	12.923513
1863.000000	12.932648
1864.000000	12.938540
1865.000000	12.941013
1866.000000	12.939691
1867.000000	12.936389
1868.000000	12.932800
1869.000000	12.928874
1870.000000	12.925420
1871.000000	12.922771
1872.000000	12.918297
1873.000000	12.912224
1874.000000	12.905363
1875.000000	12.896028
1876.000000	12.883232
1877.000000	12.865807
1878.000000	12.845148
1879.000000	12.823596
1880.000000	12.801795
1881.000000	12.777727
1882.000000	12.748208
1883.000000	12.711132
1884.000000	12.667698
1885.000000	12.620389
1886.000000	12.572030
1887.000000	12.521104
1888.000000	12.464621
1889.000000	12.401579
1890.000000	12.333541
1891.000000	12.260899
1892.000000	12.185393
1893.000000	12.107239
1894.000000	12.022806
1895.000000	11.931525
1896.000000	11.833959
1897.000000	11.730983
1898.000000	11.623714
1899.000000	11.514543
1900.000000	11.404650
1901.000000	11.292769
1902.000000	11.178370
1903.000000	11.060850
1904.000000	10.940916
1905.000000	10.817133
1906.000000	10.689190
1907.000000	10.558133
1908.000000	10.423922
1909.000000	10.286504
1910.000000	10.147262
1911.000000	10.005870
1912.000000	9.864187
1913.000000	9.723521
1914.000000	9.584376
1915.000000	9.446605
1916.000000	9.310592
1917.000000	9.176274
1918.000000	9.042255
1919.000000	8.908868
1920.000000	8.778259
1921.000000	8.650095
1922.000000	8.526293
1923.000000	8.406931
1924.000000	8.291811
1925.000000	8.179583
1926.000000	8.071033
1927.000000	7.965678
1928.000000	7.863463
1929.000000	7.766533
1930.000000	7.674843
1931.000000	7.588801
1932.000000	7.508124
1933.000000	7.432642
1934.000000	7.360921
1935.000000	7.292308
1936.000000	7.227659
1937.000000	7.168063
1938.000000	7.113042
1939.000000	7.062775
1940.000000	7.016703
1941.000000	6.973735
1942.000000	6.934216
1943.000000	6.898042
1944.000000	6.866219
1945.000000	6.838560
1946.000000	6.815204
1947.000000	6.794744
1948.000000	6.776897
1949.000000	6.760895
1950.000000	6.748024
1951.000000	6.738030
1952.000000	6.730972
1953.000000	6.727091
1954.000000	6.726195
1955.000000	6.727027
1956.000000	6.729894
1957.000000	6.734506
1958.000000	6.740894
1959.000000	6.749395
1960.000000	6.760316
1961.000000	6.773312
1962.000000	6.787794
1963.000000	6.803629
1964.000000	6.820358
1965.000000	6.837998
1966.000000	6.856706
1967.000000	6.876475
1968.000000	6.897319
1969.000000	6.919540
1970.000000	6.942680
1971.000000	6.966902
1972.000000	6.991345
1973.000000	7.016591
1974.000000	7.041697
1975.000000	7.066806
1976.000000	7.092136
1977.000000	7.117838
1978.000000	7.144542
1979.000000	7.171327
1980.000000	7.198756
1981.000000	7.226000
1982.000000	7.253722
1983.000000	7.281134
1984.000000	7.309148
1985.000000	7.336633
1986.000000	7.364823
1987.000000	7.392796
1988.000000	7.421407
1989.000000	7.449483
1990.000000	7.477683
1991.000000	7.505872
1992.000000	7.533096
1993.000000	7.560860
1994.000000	7.588608
1995.000000	7.616073
1996.000000	7.642866
1997.000000	7.669535
1998.000000	7.695927
1999.000000	7.722144
2000.000000	7.747897
2001.000000	7.773112
2002.000000	7.798066
2003.000000	7.822950
2004.000000	7.847095
2005.000000	7.871021
2006.000000	7.894354
2007.000000	7.916610
2008.000000	7.938190
2009.000000	7.959184
2010.000000	7.979226
2011.000000	7.998795
2012.000000	8.017595
2013.000000	8.034964
2014.000000	8.051175
2015.000000	8.065871
2016.000000	8.079887
2017.000000	8.092856
2018.000000	8.104387
2019.000000	8.114323
2020.000000	8.123080
2021.000000	8.129996
2022.000000	8.135824
2023.000000	8.139713
2024.000000	8.142467
2025.000000	8.143530
2026.000000	8.142518
2027.000000	8.140109
2028.000000	8.135793
2029.000000	8.129990
2030.000000	8.122787
2031.000000	8.113810
2032.000000	8.102481
2033.000000	8.089455
2034.000000	8.074698
2035.000000	8.058553
2036.000000	8.040857
2037.000000	8.021405
2038.000000	7.999928
2039.000000	7.976780
2040.000000	7.951803
2041.000000	7.925278
2042.000000	7.897393
2043.000000	7.867589
2044.000000	7.836170
2045.000000	7.803519
2046.000000	7.769119
2047.000000	7.733410
2048.000000	7.697105
2049.000000	7.660223
2050.000000	7.622828
2051.000000	7.584758
2052.000000	7.546052
2053.000000	7.507500
2054.000000	7.469801
2055.000000	7.433010
2056.000000	7.397197
2057.000000	7.362030
2058.000000	7.327930
2059.000000	7.295381
2060.000000	7.264592
2061.000000	7.235685
2062.000000	7.208850
2063.000000	7.183910
2064.000000	7.160610
2065.000000	7.139418
2066.000000	7.120868
2067.000000	7.104907
2068.000000	7.091089
2069.000000	7.079473
2070.000000	7.070072
2071.000000	7.063174
2072.000000	7.058671
2073.000000	7.056291
2074.000000	7.056523
2075.000000	7.059226
2076.000000	7.064299
2077.000000	7.071689
2078.000000	7.081540
2079.000000	7.093327
2080.000000	7.106857
2081.000000	7.122339
2082.000000	7.139972
2083.000000	7.158989
2084.000000	7.178933
2085.000000	7.199950
2086.000000	7.221829
2087.000000	7.244298
2088.000000	7.267194
2089.000000	7.289760
2090.000000	7.312214
2091.000000	7.334335
2092.000000	7.355960
2093.000000	7.377105
2094.000000	7.397391
2095.000000	7.416455
2096.000000	7.434375
2097.000000	7.450830
2098.000000	7.466068
2099.000000	7.480273
2100.000000	7.493005
2101.000000	7.504462
2102.000000	7.514620
2103.000000	7.523354
2104.000000	7.530971
2105.000000	7.537443
2106.000000	7.542343
2107.000000	7.545830
2108.000000	7.548307
2109.000000	7.549666
2110.000000	7.549253
2111.000000	7.547375
2112.000000	7.544576
2113.000000	7.540414
2114.000000	7.535281
2115.000000	7.529625
2116.000000	7.522981
2117.000000	7.515252
2118.000000	7.506310
2119.000000	7.496755
2120.000000	7.486543
2121.000000	7.475446
2122.000000	7.463841
2123.000000	7.451637
2124.000000	7.438876
2125.000000	7.425823
2126.000000	7.412029
2127.000000	7.397560
2128.000000	7.382690
2129.000000	7.367070
2130.000000	7.350529
2131.000000	7.333801
2132.000000	7.316628
2133.000000	7.298481
2134.000000	7.279390
2135.000000	7.259644
2136.000000	7.238829
2137.000000	7.217430
2138.000000	7.195610
2139.000000	7.172799
2140.000000	7.148984
2141.000000	7.124404
2142.000000	7.098862
2143.000000	7.072750
2144.000000	7.045853
2145.000000	7.018644
2146.000000	6.991033
2147.000000	6.962313
2148.000000	6.933324
2149.000000	6.903931
2150.000000	6.874141
2151.000000	6.844099
2152.000000	6.813681
2153.000000	6.783124
2154.000000	6.752434
2155.000000	6.721513
2156.000000	6.690494
2157.000000	6.659004
2158.000000	6.627894
2159.000000	6.597072
2160.000000	6.565718
2161.000000	6.534361
2162.000000	6.503464
2163.000000	6.473059
2164.000000	6.442741
2165.000000	6.413188
2166.000000	6.383808
2167.000000	6.354826
2168.000000	6.326360
2169.000000	6.298764
2170.000000	6.271632
2171.000000	6.245138
2172.000000	6.219252
2173.000000	6.193822
2174.000000	6.169244
2175.000000	6.145172
2176.000000	6.122203
2177.000000	6.100300
2178.000000	6.078826
2179.000000	6.057766
2180.000000	6.037361
2181.000000	6.017091
2182.000000	5.997624
2183.000000	5.978670
2184.000000	5.960021
2185.000000	5.941482
2186.000000	5.922569
2187.000000	5.903329
2188.000000	5.883679
2189.000000	5.863709
2190.000000	5.842766
2191.000000	5.821532
2192.000000	5.800078
2193.000000	5.776687
2194.000000	5.751986
2195.000000	5.726329
2196.000000	5.699382
2197.000000	5.670958
2198.000000	5.640523
2199.000000	5.608701
2200.000000	5.575442
2201.000000	5.540694
2202.000000	5.504739
2203.000000	5.467723
2204.000000	5.429782
2205.000000	5.391227
2206.000000	5.352092
2207.000000	5.312477
2208.000000	5.272812
2209.000000	5.233310
2210.000000	5.194610
2211.000000	5.156142
2212.000000	5.118661
2213.000000	5.081857
2214.000000	5.046096
2215.000000	5.011570
2216.000000	4.978907
2217.000000	4.948129
2218.000000	4.918921
2219.000000	4.891370
2220.000000	4.865544
2221.000000	4.841806
2222.000000	4.820180
2223.000000	4.801067
2224.000000	4.783589
2225.000000	4.768883
2226.000000	4.756138
2227.000000	4.745235
2228.000000	4.737384
2229.000000	4.731627
2230.000000	4.728253
2231.000000	4.727134
2232.000000	4.728154
2233.000000	4.731114
2234.000000	4.736407
2235.000000	4.743647
2236.000000	4.752116
2237.000000	4.762203
2238.000000	4.773126
2239.000000	4.784907
2240.000000	4.797326
2241.000000	4.809888
2242.000000	4.822928
2243.000000	4.835141
2244.000000	4.846650
2245.000000	4.857130
2246.000000	4.866555
2247.000000	4.874190
2248.000000	4.880503
2249.000000	4.885088
2250.000000	4.887870
2251.000000	4.888374
2252.000000	4.886804
2253.000000	4.882959
2254.000000	4.877189
2255.000000	4.869008
2256.000000	4.859175
2257.000000	4.847105
2258.000000	4.832848
2259.000000	4.817746
2260.000000	4.800508
2261.000000	4.781813
2262.000000	4.762018
2263.000000	4.740940
2264.000000	4.718891
2265.000000	4.695699
2266.000000	4.672049
2267.000000	4.647821
2268.000000	4.623610
2269.000000	4.599080
2270.000000	4.573793
2271.000000	4.549296
2272.000000	4.524426
2273.000000	4.500289
2274.000000	4.475943
2275.000000	4.451916
2276.000000	4.428914
2277.000000	4.405971
2278.000000	4.384241
2279.000000	4.363021
2280.000000	4.342234
2281.000000	4.322002
2282.000000	4.302492
2283.000000	4.283599
2284.000000	4.265576
2285.000000	4.247988
2286.000000	4.231290
2287.000000	4.215051
2288.000000	4.199462
2289.000000	4.184102
2290.000000	4.169419
2291.000000	4.155088
2292.000000	4.140866
2293.000000	4.127089
2294.000000	4.112938
2295.000000	4.098945
2296.000000	4.085188
2297.000000	4.071431
2298.000000	4.057254
2299.000000	4.042766
2300.000000	4.028009
2301.000000	4.013211
2302.000000	3.998352
2303.000000	3.983191
2304.000000	3.968217
2305.000000	3.953895
2306.000000	3.939661
2307.000000	3.926349
2308.000000	3.913806
2309.000000	3.902600
2310.000000	3.892564
2311.000000	3.883339
2312.000000	3.876086
2313.000000	3.870230
2314.000000	3.865500
2315.000000	3.862748
2316.000000	3.861790
2317.000000	3.862238
2318.000000	3.863955
2319.000000	3.866683
2320.000000	3.870709
2321.000000	3.875755
2322.000000	3.881406
2323.000000	3.887868
2324.000000	3.895314
2325.000000	3.903366
2326.000000	3.911739
2327.000000	3.920773
2328.000000	3.930497
2329.000000	3.940523
2330.000000	3.951324
2331.000000	3.962330
2332.000000	3.973414
2333.000000	3.985053
2334.000000	3.996967
2335.000000	4.008868
2336.000000	4.020413
2337.000000	4.031911
2338.000000	4.043246
2339.000000	4.053974
2340.000000	4.064124
2341.000000	4.073308
2342.000000	4.081447
2343.000000	4.088536
2344.000000	4.094942
2345.000000	4.100107
2346.000000	4.104328
2347.000000	4.107343
2348.000000	4.109381
2349.000000	4.111121
2350.000000	4.112193
2351.000000	4.112580
2352.000000	4.112869
2353.000000	4.113201
2354.000000	4.113234
2355.000000	4.113029
2356.000000	4.112683
2357.000000	4.112136
2358.000000	4.111608
2359.000000	4.111348
2360.000000	4.111373
2361.000000	4.111553
2362.000000	4.112267
2363.000000	4.112919
2364.000000	4.113968
2365.000000	4.115166
2366.000000	4.116774
2367.000000	4.118871
2368.000000	4.121377
2369.000000	4.124590
2370.000000	4.128526
2371.000000	4.132996
2372.000000	4.138216
2373.000000	4.144268
2374.000000	4.150780
2375.000000	4.157864
2376.000000	4.165406
2377.000000	4.173436
2378.000000	4.181800
2379.000000	4.190137
2380.000000	4.198709
2381.000000	4.207193
2382.000000	4.215200
2383.000000	4.222868
2384.000000	4.230130
2385.000000	4.236713
2386.000000	4.242501
2387.000000	4.246905
2388.000000	4.250524
2389.000000	4.253556
2390.000000	4.255831
2391.000000	4.257818
2392.000000	4.259557
2393.000000	4.260752
2394.000000	4.261344
2395.000000	4.261391
2396.000000	4.261231
2397.000000	4.260889
2398.000000	4.260481
2399.000000	4.259755
2400.000000	4.258929
2401.000000	4.257973
2402.000000	4.256832
2403.000000	4.255182
2404.000000	4.253633
2405.000000	4.251980
2406.000000	4.250181
2407.000000	4.248023
2408.000000	4.245392
2409.000000	4.242868
2410.000000	4.240184
2411.000000	4.237371
2412.000000	4.234311
2413.000000	4.230951
2414.000000	4.227312
2415.000000	4.223463
2416.000000	4.219133
2417.000000	4.214619
2418.000000	4.209541
2419.000000	4.203826
2420.000000	4.197595
2421.000000	4.190927
2422.000000	4.184292
2423.000000	4.177189
2424.000000	4.169741
2425.000000	4.162029
2426.000000	4.153315
2427.000000	4.144024
2428.000000	4.134547
2429.000000	4.124399
2430.000000	4.114022
2431.000000	4.103490
2432.000000	4.092469
2433.000000	4.080895
2434.000000	4.068983
2435.000000	4.056730
2436.000000	4.043528
2437.000000	4.030031
2438.000000	4.016592
2439.000000	4.001730
2440.000000	3.986562
2441.000000	3.971597
2442.000000	3.956070
2443.000000	3.939875
2444.000000	3.922989
2445.000000	3.906168
2446.000000	3.888736
2447.000000	3.870952
2448.000000	3.852979
2449.000000	3.834275
2450.000000	3.814881
2451.000000	3.795808
2452.000000	3.776269
2453.000000	3.756742
2454.000000	3.737158
2455.000000	3.717079
2456.000000	3.697013
2457.000000	3.677059
2458.000000	3.657407
2459.000000	3.638058
2460.000000	3.618513
2461.000000	3.598956
2462.000000	3.579529
2463.000000	3.560122
2464.000000	3.540530
2465.000000	3.521812
2466.000000	3.502830
2467.000000	3.483867
2468.000000	3.465397
2469.000000	3.446827
2470.000000	3.429088
2471.000000	3.411498
2472.000000	3.394552
2473.000000	3.377679
2474.000000	3.362558
2475.000000	3.346914
2476.000000	3.331582
2477.000000	3.317479
2478.000000	3.303504
2479.000000	3.289910
2480.000000	3.276950
2481.000000	3.264680
2482.000000	3.253995
2483.000000	3.243053
2484.000000	3.231983
2485.000000	3.222979
2486.000000	3.213619
2487.000000	3.206393
2488.000000	3.199248
2489.000000	3.193143
2490.000000	3.188918
2491.000000	3.183563
2492.000000	3.179405
2493.000000	3.176648
2494.000000	3.173281
2495.000000	3.171480
2496.000000	3.169587
2497.000000	3.169731
2498.000000	3.168846
2499.000000	3.169173
2500.000000	3.172295
