PE UV       SUBTECH     SPECTRUM    ASCII       PEDS        4.00        
   -1
CICIMAUCR0020-3.Sample.ASC
24/04/17
10:21:33.00
24/04/17
10:21:33.00
Vinicio Soto Monge
C. resplendens
250,000000
1
Lambda 1050
1050L1511233
PerkinElmer UV WinLab 6.3.2.0749 / 2.02.05 Lambda 900 UV/VIS/NIR, Aug  7 2015 09:38:08

0
0
3350/servo 860,8/2
0
0
UV/VIS
1
1
1
DoubleDePol,CommonBeamDepol,RBeamAtt,SBeamAtt,60mm sphere, WB InGaAs Detector
0
0
0
0
Program
Program
3350/servo 860,8/2
3350/0,2 860,8/0,2
3350/0,2 860,8/0,2
0
15.00
 
 
 
0
 
860,8
319,2
860,8
Front
100
on
S:100 R:100
0
0
0
0
 
0
 
 
 
0
 
 
0
0
0
0
0
 
 
 
 
0
0


0
0
#HDR
-1
-1
#GR
nm
%R
1.0
0.0
2500,000000
-1,000000
2251
8
47,307500
3,086100
#DATA
2482.000000	13.612078
2481.000000	13.556361
2480.000000	13.544358
2479.000000	13.590386
2478.000000	13.621438
2477.000000	13.582568
2476.000000	13.564619
2475.000000	13.650618
2474.000000	13.734854
2473.000000	13.683762
2472.000000	13.671759
2471.000000	13.694773
2470.000000	13.723953
2469.000000	13.767337
2468.000000	13.773504
2467.000000	13.767337
2466.000000	13.832745
2465.000000	13.822724
2464.000000	13.854217
2463.000000	13.877341
2462.000000	13.922487
2461.000000	13.960476
2460.000000	13.966532
2459.000000	14.010798
2458.000000	14.039317
2457.000000	14.070809
2456.000000	14.112983
2455.000000	14.175417
2454.000000	14.209882
2453.000000	14.265159
2452.000000	14.325171
2451.000000	14.392119
2450.000000	14.467217
2449.000000	14.523705
2448.000000	14.596600
2447.000000	14.656501
2446.000000	14.714861
2445.000000	14.785664
2444.000000	14.853824
2443.000000	14.910642
2442.000000	14.959312
2441.000000	15.029675
2440.000000	15.081978
2439.000000	15.154873
2438.000000	15.227878
2437.000000	15.296589
2436.000000	15.354398
2435.000000	15.406482
2434.000000	15.456143
2433.000000	15.508006
2432.000000	15.570991
2431.000000	15.623955
2430.000000	15.682646
2429.000000	15.706871
2428.000000	15.777563
2427.000000	15.811038
2426.000000	15.849357
2425.000000	15.899238
2424.000000	15.935796
2423.000000	15.979951
2422.000000	16.023226
2421.000000	16.067491
2420.000000	16.110986
2419.000000	16.145561
2418.000000	16.192359
2417.000000	16.240038
2416.000000	16.308969
2415.000000	16.338369
2414.000000	16.360722
2413.000000	16.410934
2412.000000	16.457402
2411.000000	16.492858
2410.000000	16.508494
2409.000000	16.538445
2408.000000	16.560688
2407.000000	16.583261
2406.000000	16.617947
2405.000000	16.623012
2404.000000	16.643823
2403.000000	16.671021
2402.000000	16.677518
2401.000000	16.699761
2400.000000	16.730703
2399.000000	16.747770
2398.000000	16.778161
2397.000000	16.780804
2396.000000	16.772215
2395.000000	16.793247
2394.000000	16.802937
2393.000000	16.817031
2392.000000	16.832778
2391.000000	16.838393
2390.000000	16.845661
2389.000000	16.849515
2388.000000	16.852708
2387.000000	16.857443
2386.000000	16.879686
2385.000000	16.904902
2384.000000	16.881448
2383.000000	16.861737
2382.000000	16.871317
2381.000000	16.879355
2380.000000	16.862508
2379.000000	16.854250
2378.000000	16.851277
2377.000000	16.840155
2376.000000	16.831016
2375.000000	16.840155
2374.000000	16.833658
2373.000000	16.816701
2372.000000	16.815820
2371.000000	16.810425
2370.000000	16.816921
2369.000000	16.806901
2368.000000	16.805139
2367.000000	16.823418
2366.000000	16.821986
2365.000000	16.820775
2364.000000	16.833548
2363.000000	16.839274
2362.000000	16.829034
2361.000000	16.814499
2360.000000	16.813508
2359.000000	16.819234
2358.000000	16.815159
2357.000000	16.796660
2356.000000	16.800404
2355.000000	16.801616
2354.000000	16.798422
2353.000000	16.789283
2352.000000	16.806350
2351.000000	16.817031
2350.000000	16.807452
2349.000000	16.791265
2348.000000	16.787081
2347.000000	16.801285
2346.000000	16.801505
2345.000000	16.808553
2344.000000	16.814279
2343.000000	16.799964
2342.000000	16.818793
2341.000000	16.841587
2340.000000	16.837843
2339.000000	16.843238
2338.000000	16.864270
2337.000000	16.871758
2336.000000	16.877043
2335.000000	16.886182
2334.000000	16.922410
2333.000000	16.926264
2332.000000	16.937385
2331.000000	16.955003
2330.000000	16.969979
2329.000000	16.973832
2328.000000	16.984624
2327.000000	17.000590
2326.000000	17.022282
2325.000000	17.036817
2324.000000	17.053444
2323.000000	17.075247
2322.000000	17.081303
2321.000000	17.071283
2320.000000	17.064125
2319.000000	17.071283
2318.000000	17.039680
2317.000000	17.018649
2316.000000	16.991561
2315.000000	16.980439
2314.000000	16.964693
2313.000000	16.944873
2312.000000	16.906223
2311.000000	16.887063
2310.000000	16.854250
2309.000000	16.841917
2308.000000	16.818132
2307.000000	16.810975
2306.000000	16.789393
2305.000000	16.776510
2304.000000	16.761094
2303.000000	16.764507
2302.000000	16.759222
2301.000000	16.743145
2300.000000	16.759332
2299.000000	16.762635
2298.000000	16.779042
2297.000000	16.765278
2296.000000	16.796991
2295.000000	16.814609
2294.000000	16.836301
2293.000000	16.840596
2292.000000	16.844780
2291.000000	16.871978
2290.000000	16.903690
2289.000000	16.923291
2288.000000	16.948396
2287.000000	16.980329
2286.000000	16.995745
2285.000000	17.035276
2284.000000	17.101233
2283.000000	17.123476
2282.000000	17.131735
2281.000000	17.148692
2280.000000	17.179304
2279.000000	17.183378
2278.000000	17.209915
2277.000000	17.238324
2276.000000	17.270037
2275.000000	17.300538
2274.000000	17.310889
2273.000000	17.348988
2272.000000	17.368478
2271.000000	17.415937
2270.000000	17.455688
2269.000000	17.471103
2268.000000	17.516250
2267.000000	17.564259
2266.000000	17.615131
2265.000000	17.691880
2264.000000	17.749470
2263.000000	17.829302
2262.000000	17.921246
2261.000000	18.011649
2260.000000	18.111632
2259.000000	18.235399
2258.000000	18.344191
2257.000000	18.469499
2256.000000	18.610995
2255.000000	18.725182
2254.000000	18.868660
2253.000000	18.970735
2252.000000	19.074681
2251.000000	19.214415
2250.000000	19.310764
2249.000000	19.434201
2248.000000	19.526145
2247.000000	19.627339
2246.000000	19.740756
2245.000000	19.821909
2244.000000	19.892272
2243.000000	19.954485
2242.000000	20.025729
2241.000000	20.063828
2240.000000	20.111837
2239.000000	20.165132
2238.000000	20.197836
2237.000000	20.235274
2236.000000	20.229768
2235.000000	20.246395
2234.000000	20.263353
2233.000000	20.263353
2232.000000	20.242211
2231.000000	20.216665
2230.000000	20.216004
2229.000000	20.170417
2228.000000	20.137604
2227.000000	20.090035
2226.000000	20.055569
2225.000000	20.016920
2224.000000	19.967038
2223.000000	19.877847
2222.000000	19.838536
2221.000000	19.804401
2220.000000	19.746261
2219.000000	19.669182
2218.000000	19.611593
2217.000000	19.552462
2216.000000	19.521521
2215.000000	19.461619
2214.000000	19.440147
2213.000000	19.386962
2212.000000	19.338182
2211.000000	19.288741
2210.000000	19.244256
2209.000000	19.216727
2208.000000	19.172242
2207.000000	19.131610
2206.000000	19.104412
2205.000000	19.039555
2204.000000	19.035151
2203.000000	19.014890
2202.000000	18.993968
2201.000000	18.945519
2200.000000	18.935168
2199.000000	18.915678
2198.000000	18.897289
2197.000000	18.871192
2196.000000	18.837167
2195.000000	18.841572
2194.000000	18.783983
2193.000000	18.765594
2192.000000	18.747755
2191.000000	18.730468
2190.000000	18.698315
2189.000000	18.671337
2188.000000	18.670566
2187.000000	18.638964
2186.000000	18.591395
2185.000000	18.594698
2184.000000	18.561114
2183.000000	18.528520
2182.000000	18.529401
2181.000000	18.504846
2180.000000	18.494165
2179.000000	18.474785
2178.000000	18.479740
2177.000000	18.454084
2176.000000	18.452872
2175.000000	18.464214
2174.000000	18.462122
2173.000000	18.461131
2172.000000	18.459699
2171.000000	18.472362
2170.000000	18.482052
2169.000000	18.483924
2168.000000	18.500992
2167.000000	18.530612
2166.000000	18.547239
2165.000000	18.579392
2164.000000	18.612977
2163.000000	18.642707
2162.000000	18.684330
2161.000000	18.736964
2160.000000	18.797416
2159.000000	18.848289
2158.000000	18.923386
2157.000000	19.003768
2156.000000	19.082720
2155.000000	19.165304
2154.000000	19.249211
2153.000000	19.329924
2152.000000	19.421868
2151.000000	19.499057
2150.000000	19.590231
2149.000000	19.678542
2148.000000	19.743068
2147.000000	19.835233
2146.000000	19.936757
2145.000000	20.022425
2144.000000	20.094659
2143.000000	20.183741
2142.000000	20.260270
2141.000000	20.350783
2140.000000	20.420925
2139.000000	20.505932
2138.000000	20.600850
2137.000000	20.681122
2136.000000	20.748291
2135.000000	20.833629
2134.000000	20.904432
2133.000000	20.974684
2132.000000	21.029410
2131.000000	21.103406
2130.000000	21.168483
2129.000000	21.220346
2128.000000	21.269016
2127.000000	21.326826
2126.000000	21.374505
2125.000000	21.436608
2124.000000	21.489022
2123.000000	21.523598
2122.000000	21.558724
2121.000000	21.586583
2120.000000	21.617855
2119.000000	21.640538
2118.000000	21.662340
2117.000000	21.663992
2116.000000	21.682932
2115.000000	21.706496
2114.000000	21.715745
2113.000000	21.717397
2112.000000	21.720150
2111.000000	21.715745
2110.000000	21.726757
2109.000000	21.745256
2108.000000	21.752083
2107.000000	21.757698
2106.000000	21.764525
2105.000000	21.770031
2104.000000	21.779281
2103.000000	21.770912
2102.000000	21.759791
2101.000000	21.758139
2100.000000	21.754835
2099.000000	21.757809
2098.000000	21.759791
2097.000000	21.788090
2096.000000	21.818811
2095.000000	21.801854
2094.000000	21.798000
2093.000000	21.825969
2092.000000	21.840173
2091.000000	21.830924
2090.000000	21.828832
2089.000000	21.845899
2088.000000	21.842375
2087.000000	21.832575
2086.000000	21.845018
2085.000000	21.852286
2084.000000	21.838632
2083.000000	21.822335
2082.000000	21.787429
2081.000000	21.751973
2080.000000	21.714975
2079.000000	21.669167
2078.000000	21.611248
2077.000000	21.558944
2076.000000	21.517982
2075.000000	21.457970
2074.000000	21.386067
2073.000000	21.304913
2072.000000	21.232459
2071.000000	21.146570
2070.000000	21.059251
2069.000000	20.989769
2068.000000	20.934052
2067.000000	20.861598
2066.000000	20.768001
2065.000000	20.674075
2064.000000	20.587526
2063.000000	20.504391
2062.000000	20.422246
2061.000000	20.363556
2060.000000	20.314335
2059.000000	20.282402
2058.000000	20.232521
2057.000000	20.198056
2056.000000	20.184512
2055.000000	20.178786
2054.000000	20.186714
2053.000000	20.213912
2052.000000	20.263573
2051.000000	20.306958
2050.000000	20.370493
2049.000000	20.450325
2048.000000	20.541389
2047.000000	20.644675
2046.000000	20.746639
2045.000000	20.869856
2044.000000	20.995936
2043.000000	21.100213
2042.000000	21.190506
2041.000000	21.316695
2040.000000	21.411062
2039.000000	21.525470
2038.000000	21.638446
2037.000000	21.753844
2036.000000	21.847881
2035.000000	21.951938
2034.000000	22.041900
2033.000000	22.129771
2032.000000	22.212906
2031.000000	22.285801
2030.000000	22.370588
2029.000000	22.429499
2028.000000	22.511533
2027.000000	22.576830
2026.000000	22.616581
2025.000000	22.686723
2024.000000	22.749378
2023.000000	22.783733
2022.000000	22.803003
2021.000000	22.842533
2020.000000	22.886799
2019.000000	22.913116
2018.000000	22.902215
2017.000000	22.926660
2016.000000	22.954408
2015.000000	22.984139
2014.000000	23.021247
2013.000000	23.051638
2012.000000	23.064301
2011.000000	23.073771
2010.000000	23.033029
2009.000000	23.020696
2008.000000	23.013979
2007.000000	22.975880
2006.000000	22.954408
2005.000000	22.932055
2004.000000	22.919062
2003.000000	22.898030
2002.000000	22.852994
2001.000000	22.823043
2000.000000	22.767766
1999.000000	22.738586
1998.000000	22.672188
1997.000000	22.611736
1996.000000	22.555248
1995.000000	22.491272
1994.000000	22.414303
1993.000000	22.350327
1992.000000	22.272257
1991.000000	22.222266
1990.000000	22.162034
1989.000000	22.103454
1988.000000	22.008536
1987.000000	21.951828
1986.000000	21.902167
1985.000000	21.792935
1984.000000	21.726536
1983.000000	21.625012
1982.000000	21.554870
1981.000000	21.446078
1980.000000	21.396527
1979.000000	21.344884
1978.000000	21.287515
1977.000000	21.197222
1976.000000	21.117501
1975.000000	21.043945
1974.000000	20.984704
1973.000000	20.887034
1972.000000	20.843209
1971.000000	20.770534
1970.000000	20.708100
1969.000000	20.632672
1968.000000	20.581690
1967.000000	20.481487
1966.000000	20.418833
1965.000000	20.329971
1964.000000	20.259719
1963.000000	20.255755
1962.000000	20.136833
1961.000000	20.052376
1960.000000	20.019012
1959.000000	19.937198
1958.000000	19.830168
1957.000000	19.770046
1956.000000	19.703758
1955.000000	19.643196
1954.000000	19.569970
1953.000000	19.512822
1952.000000	19.415592
1951.000000	19.331906
1950.000000	19.290063
1949.000000	19.192833
1948.000000	19.145044
1947.000000	19.075232
1946.000000	19.018964
1945.000000	18.972937
1944.000000	18.918871
1943.000000	18.854235
1942.000000	18.775394
1941.000000	18.724522
1940.000000	18.658233
1939.000000	18.709326
1938.000000	18.788277
1937.000000	18.802482
1936.000000	18.784423
1935.000000	18.762951
1934.000000	18.718135
1933.000000	18.719566
1932.000000	18.708665
1931.000000	18.732009
1930.000000	18.784753
1929.000000	18.883415
1928.000000	19.011036
1927.000000	19.119608
1926.000000	19.268591
1925.000000	19.356351
1924.000000	19.315499
1923.000000	19.342587
1922.000000	19.490469
1921.000000	19.800878
1920.000000	20.121087
1919.000000	20.367740
1918.000000	20.498665
1917.000000	20.468384
1916.000000	20.459685
1915.000000	20.577616
1914.000000	20.893861
1913.000000	21.401042
1912.000000	21.805377
1911.000000	22.076806
1910.000000	22.224248
1909.000000	22.180313
1908.000000	22.259925
1907.000000	22.529482
1906.000000	22.998894
1905.000000	23.689854
1904.000000	24.213662
1903.000000	24.516914
1902.000000	24.735268
1901.000000	24.997668
1900.000000	25.523899
1899.000000	26.251967
1898.000000	26.840081
1897.000000	27.280424
1896.000000	27.425443
1895.000000	27.496906
1894.000000	27.768555
1893.000000	28.158356
1892.000000	28.761556
1891.000000	29.420473
1890.000000	29.958486
1889.000000	30.375154
1888.000000	30.625661
1887.000000	30.774534
1886.000000	31.047285
1885.000000	31.478267
1884.000000	31.960123
1883.000000	32.332085
1882.000000	32.626748
1881.000000	32.846754
1880.000000	32.887385
1879.000000	32.978449
1878.000000	33.126441
1877.000000	33.257696
1876.000000	33.409982
1875.000000	33.620078
1874.000000	33.785909
1873.000000	34.140473
1872.000000	34.517611
1871.000000	34.858741
1870.000000	35.385743
1869.000000	35.786995
1868.000000	35.925297
1867.000000	36.034860
1866.000000	35.887198
1865.000000	35.757925
1864.000000	35.573155
1863.000000	35.355792
1862.000000	35.281576
1861.000000	35.329255
1860.000000	35.492553
1859.000000	35.752530
1858.000000	35.951064
1857.000000	35.927279
1856.000000	35.781049
1855.000000	35.818157
1854.000000	36.009203
1853.000000	36.102469
1852.000000	36.091568
1851.000000	35.862973
1850.000000	35.467777
1849.000000	35.391469
1848.000000	35.884115
1847.000000	36.541050
1846.000000	36.747622
1845.000000	36.376100
1844.000000	35.754512
1843.000000	35.385853
1842.000000	35.532083
1841.000000	35.876627
1840.000000	36.014048
1839.000000	35.958882
1838.000000	35.851962
1837.000000	35.971985
1836.000000	36.194524
1835.000000	36.318511
1834.000000	36.142220
1833.000000	35.761669
1832.000000	35.531973
1831.000000	35.532964
1830.000000	35.676772
1829.000000	35.725772
1828.000000	35.689765
1827.000000	35.723790
1826.000000	35.842712
1825.000000	35.810229
1824.000000	35.572164
1823.000000	35.210663
1822.000000	35.111451
1821.000000	35.425163
1820.000000	35.817717
1819.000000	35.901623
1818.000000	35.691857
1817.000000	35.468107
1816.000000	35.455444
1815.000000	35.538910
1814.000000	35.530431
1813.000000	35.462382
1812.000000	35.435624
1811.000000	35.519640
1810.000000	35.583836
1809.000000	35.507528
1808.000000	35.362068
1807.000000	35.317693
1806.000000	35.362179
1805.000000	35.391799
1804.000000	35.352929
1803.000000	35.265169
1802.000000	35.279484
1801.000000	35.381669
1800.000000	35.427916
1799.000000	35.385412
1798.000000	35.320336
1797.000000	35.262967
1796.000000	35.241825
1795.000000	35.241054
1794.000000	35.248652
1793.000000	35.229272
1792.000000	35.231915
1791.000000	35.245018
1790.000000	35.237751
1789.000000	35.227180
1788.000000	35.212645
1787.000000	35.214847
1786.000000	35.228061
1785.000000	35.260764
1784.000000	35.264618
1783.000000	35.227290
1782.000000	35.182474
1781.000000	35.173995
1780.000000	35.188971
1779.000000	35.199101
1778.000000	35.201413
1777.000000	35.182804
1776.000000	35.162874
1775.000000	35.157478
1774.000000	35.137548
1773.000000	35.083702
1772.000000	35.086015
1771.000000	35.073132
1770.000000	35.041199
1769.000000	34.988565
1768.000000	34.934829
1767.000000	34.928002
1766.000000	34.941656
1765.000000	34.922497
1764.000000	34.893207
1763.000000	34.843876
1762.000000	34.831323
1761.000000	34.820422
1760.000000	34.837599
1759.000000	34.807979
1758.000000	34.783754
1757.000000	34.776707
1756.000000	34.779240
1755.000000	34.773293
1754.000000	34.749509
1753.000000	34.756116
1752.000000	34.765475
1751.000000	34.763493
1750.000000	34.727266
1749.000000	34.684873
1748.000000	34.643250
1747.000000	34.600085
1746.000000	34.563418
1745.000000	34.507921
1744.000000	34.484136
1743.000000	34.441082
1742.000000	34.357066
1741.000000	34.320508
1740.000000	34.297935
1739.000000	34.270737
1738.000000	34.210285
1737.000000	34.142565
1736.000000	34.111073
1735.000000	34.074956
1734.000000	34.060201
1733.000000	34.037407
1732.000000	33.997877
1731.000000	33.973872
1730.000000	33.952180
1729.000000	33.933130
1728.000000	33.938526
1727.000000	33.932910
1726.000000	33.889085
1725.000000	33.874550
1724.000000	33.884460
1723.000000	33.917824
1722.000000	33.991820
1721.000000	34.065816
1720.000000	34.168442
1719.000000	34.308175
1718.000000	34.451102
1717.000000	34.567382
1716.000000	34.716915
1715.000000	34.851143
1714.000000	35.001228
1713.000000	35.082711
1712.000000	35.180272
1711.000000	35.296221
1710.000000	35.364491
1709.000000	35.448507
1708.000000	35.494314
1707.000000	35.533294
1706.000000	35.591875
1705.000000	35.638563
1704.000000	35.652217
1703.000000	35.650675
1702.000000	35.678974
1701.000000	35.661246
1700.000000	35.657942
1699.000000	35.649023
1698.000000	35.632837
1697.000000	35.591324
1696.000000	35.553555
1695.000000	35.540672
1694.000000	35.547719
1693.000000	35.512043
1692.000000	35.508629
1691.000000	35.459078
1690.000000	35.441680
1689.000000	35.428246
1688.000000	35.454674
1687.000000	35.527348
1686.000000	35.613016
1685.000000	35.735682
1684.000000	35.852402
1683.000000	35.944016
1682.000000	36.061838
1681.000000	36.222603
1680.000000	36.383038
1679.000000	36.557677
1678.000000	36.713707
1677.000000	36.859497
1676.000000	36.976768
1675.000000	37.071465
1674.000000	37.176953
1673.000000	37.302042
1672.000000	37.441996
1671.000000	37.585143
1670.000000	37.716067
1669.000000	37.828383
1668.000000	37.954132
1667.000000	38.076908
1666.000000	38.162686
1665.000000	38.327085
1664.000000	38.438850
1663.000000	38.530244
1662.000000	38.621418
1661.000000	38.705324
1660.000000	38.790221
1659.000000	38.852545
1658.000000	38.926872
1657.000000	39.004612
1656.000000	39.049648
1655.000000	39.061100
1654.000000	39.082792
1653.000000	39.109990
1652.000000	39.147759
1651.000000	39.153705
1650.000000	39.179361
1649.000000	39.187179
1648.000000	39.172534
1647.000000	39.170552
1646.000000	39.194226
1645.000000	39.204247
1644.000000	39.164606
1643.000000	39.154806
1642.000000	39.153374
1641.000000	39.125956
1640.000000	39.128159
1639.000000	39.143684
1638.000000	39.134435
1637.000000	39.155797
1636.000000	39.174626
1635.000000	39.154586
1634.000000	39.125075
1633.000000	39.084664
1632.000000	39.067596
1631.000000	39.059668
1630.000000	39.057136
1629.000000	39.047996
1628.000000	38.996904
1627.000000	38.957924
1626.000000	38.900445
1625.000000	38.879853
1624.000000	38.856509
1623.000000	38.819732
1622.000000	38.810152
1621.000000	38.802224
1620.000000	38.777889
1619.000000	38.745846
1618.000000	38.720960
1617.000000	38.701140
1616.000000	38.696405
1615.000000	38.696074
1614.000000	38.688256
1613.000000	38.639036
1612.000000	38.601377
1611.000000	38.576602
1610.000000	38.512186
1609.000000	38.478381
1608.000000	38.452174
1607.000000	38.447990
1606.000000	38.431142
1605.000000	38.378068
1604.000000	38.321800
1603.000000	38.266964
1602.000000	38.183388
1601.000000	38.092875
1600.000000	38.066227
1599.000000	38.046077
1598.000000	38.011831
1597.000000	37.992451
1596.000000	37.964152
1595.000000	37.927925
1594.000000	37.863619
1593.000000	37.814068
1592.000000	37.791825
1591.000000	37.745578
1590.000000	37.711993
1589.000000	37.682923
1588.000000	37.655615
1587.000000	37.616966
1586.000000	37.587345
1585.000000	37.572480
1584.000000	37.543630
1583.000000	37.509495
1582.000000	37.466551
1581.000000	37.425038
1580.000000	37.411164
1579.000000	37.395198
1578.000000	37.384297
1577.000000	37.375377
1576.000000	37.361833
1575.000000	37.347739
1574.000000	37.333975
1573.000000	37.326928
1572.000000	37.322633
1571.000000	37.331332
1570.000000	37.352694
1569.000000	37.373395
1568.000000	37.406539
1567.000000	37.438142
1566.000000	37.446180
1565.000000	37.442546
1564.000000	37.428342
1563.000000	37.415018
1562.000000	37.388261
1561.000000	37.365577
1560.000000	37.352804
1559.000000	37.338710
1558.000000	37.316797
1557.000000	37.281891
1556.000000	37.243682
1555.000000	37.225073
1554.000000	37.176293
1553.000000	37.111656
1552.000000	37.067171
1551.000000	37.018721
1550.000000	36.957608
1549.000000	36.894844
1548.000000	36.819196
1547.000000	36.764029
1546.000000	36.727802
1545.000000	36.697521
1544.000000	36.661404
1543.000000	36.616037
1542.000000	36.577608
1541.000000	36.539508
1540.000000	36.491940
1539.000000	36.454281
1538.000000	36.411557
1537.000000	36.372467
1536.000000	36.353417
1535.000000	36.331505
1534.000000	36.309922
1533.000000	36.282614
1532.000000	36.269621
1531.000000	36.246607
1530.000000	36.202342
1529.000000	36.167766
1528.000000	36.133301
1527.000000	36.094982
1526.000000	36.051046
1525.000000	36.041687
1524.000000	35.980244
1523.000000	35.932344
1522.000000	35.906798
1521.000000	35.860661
1520.000000	35.803732
1519.000000	35.735682
1518.000000	35.690646
1517.000000	35.664439
1516.000000	35.628432
1515.000000	35.602776
1514.000000	35.581194
1513.000000	35.548380
1512.000000	35.530542
1511.000000	35.469319
1510.000000	35.415694
1509.000000	35.393010
1508.000000	35.333659
1507.000000	35.256690
1506.000000	35.223876
1505.000000	35.213526
1504.000000	35.198991
1503.000000	35.169260
1502.000000	35.138098
1501.000000	35.108588
1500.000000	35.065864
1499.000000	35.026003
1498.000000	35.010697
1497.000000	35.002439
1496.000000	35.014882
1495.000000	35.008385
1494.000000	35.018515
1493.000000	35.054963
1492.000000	35.111121
1491.000000	35.147017
1490.000000	35.187099
1489.000000	35.203505
1488.000000	35.175206
1487.000000	35.193265
1486.000000	35.218371
1485.000000	35.237090
1484.000000	35.265279
1483.000000	35.285980
1482.000000	35.313839
1481.000000	35.353590
1480.000000	35.410959
1479.000000	35.439808
1478.000000	35.456325
1477.000000	35.512483
1476.000000	35.562584
1475.000000	35.598041
1474.000000	35.618522
1473.000000	35.663228
1472.000000	35.711237
1471.000000	35.797566
1470.000000	35.877508
1469.000000	35.949852
1468.000000	35.953156
1467.000000	35.934216
1466.000000	36.033098
1465.000000	36.085402
1464.000000	36.166665
1463.000000	36.230861
1462.000000	36.275127
1461.000000	36.340534
1460.000000	36.395370
1459.000000	36.448335
1458.000000	36.502510
1457.000000	36.541380
1456.000000	36.623745
1455.000000	36.701375
1454.000000	36.734959
1453.000000	36.793209
1452.000000	36.849807
1451.000000	36.936797
1450.000000	37.067941
1449.000000	37.103838
1448.000000	37.091836
1447.000000	37.116281
1446.000000	37.251940
1445.000000	37.435389
1444.000000	37.479324
1443.000000	37.448492
1442.000000	37.553871
1441.000000	37.636125
1440.000000	37.722894
1439.000000	37.754937
1438.000000	37.845120
1437.000000	37.959858
1436.000000	38.034074
1435.000000	38.064465
1434.000000	38.165659
1433.000000	38.280067
1432.000000	38.430812
1431.000000	38.614591
1430.000000	38.631328
1429.000000	38.685944
1428.000000	38.845278
1427.000000	38.996243
1426.000000	39.106907
1425.000000	39.175838
1424.000000	39.337484
1423.000000	39.557710
1422.000000	39.708565
1421.000000	39.760428
1420.000000	39.922625
1419.000000	40.210130
1418.000000	40.509858
1417.000000	40.586717
1416.000000	40.603565
1415.000000	40.802980
1414.000000	41.264244
1413.000000	41.544482
1412.000000	41.592711
1411.000000	41.690932
1410.000000	41.956305
1409.000000	42.432324
1408.000000	42.673031
1407.000000	42.942038
1406.000000	43.128459
1405.000000	43.450981
1404.000000	43.815455
1403.000000	43.916869
1402.000000	43.748947
1401.000000	44.155815
1400.000000	44.894234
1399.000000	45.153220
1398.000000	44.853822
1397.000000	44.764631
1396.000000	45.228868
1395.000000	45.921149
1394.000000	45.971471
1393.000000	45.910138
1392.000000	46.233210
1391.000000	46.555401
1390.000000	46.451454
1389.000000	46.464888
1388.000000	46.870985
1387.000000	47.103544
1386.000000	47.142634
1385.000000	47.195599
1384.000000	47.338526
1383.000000	47.558972
1382.000000	47.910013
1381.000000	48.254887
1380.000000	48.279002
1379.000000	48.323818
1378.000000	48.303007
1377.000000	48.352888
1376.000000	48.331416
1375.000000	48.429196
1374.000000	48.470158
1373.000000	48.506276
1372.000000	48.521251
1371.000000	48.740927
1370.000000	48.798516
1369.000000	48.727823
1368.000000	48.900701
1367.000000	49.060035
1366.000000	48.972715
1365.000000	49.060145
1364.000000	49.203072
1363.000000	49.101657
1362.000000	49.254274
1361.000000	49.606526
1360.000000	49.680412
1359.000000	49.523060
1358.000000	49.511939
1357.000000	49.462939
1356.000000	49.459745
1355.000000	49.591110
1354.000000	49.793939
1353.000000	49.812548
1352.000000	49.849656
1351.000000	49.927616
1350.000000	50.003484
1349.000000	50.044997
1348.000000	50.162047
1347.000000	50.290109
1346.000000	50.341642
1345.000000	50.411233
1344.000000	50.553940
1343.000000	50.637736
1342.000000	50.695766
1341.000000	50.766238
1340.000000	50.874259
1339.000000	50.964442
1338.000000	51.038878
1337.000000	51.125207
1336.000000	51.178391
1335.000000	51.227061
1334.000000	51.292469
1333.000000	51.347415
1332.000000	51.386395
1331.000000	51.429449
1330.000000	51.466447
1329.000000	51.498490
1328.000000	51.533396
1327.000000	51.596821
1326.000000	51.672139
1325.000000	51.708917
1324.000000	51.750870
1323.000000	51.804165
1322.000000	51.833344
1321.000000	51.839951
1320.000000	51.852835
1319.000000	51.886199
1318.000000	51.925729
1317.000000	51.937732
1316.000000	51.937512
1315.000000	51.960856
1314.000000	51.972087
1313.000000	51.978694
1312.000000	52.009636
1311.000000	52.031768
1310.000000	52.039036
1309.000000	52.048285
1308.000000	52.064472
1307.000000	52.070088
1306.000000	52.060728
1305.000000	52.054562
1304.000000	52.070198
1303.000000	52.079998
1302.000000	52.074823
1301.000000	52.041128
1300.000000	52.015582
1299.000000	52.032759
1298.000000	52.050047
1297.000000	52.063701
1296.000000	52.091780
1295.000000	52.083191
1294.000000	52.016793
1293.000000	51.967242
1292.000000	51.960635
1291.000000	51.978143
1290.000000	51.987613
1289.000000	51.974069
1288.000000	51.955790
1287.000000	51.938943
1286.000000	51.930024
1285.000000	51.917361
1284.000000	51.904367
1283.000000	51.923747
1282.000000	51.919783
1281.000000	51.904698
1280.000000	51.910093
1279.000000	51.915709
1278.000000	51.927491
1277.000000	51.917361
1276.000000	51.911525
1275.000000	51.915709
1274.000000	51.916920
1273.000000	51.908772
1272.000000	51.889943
1271.000000	51.865938
1270.000000	51.845016
1269.000000	51.841823
1268.000000	51.840942
1267.000000	51.843695
1266.000000	51.855918
1265.000000	51.846778
1264.000000	51.829491
1263.000000	51.827508
1262.000000	51.814625
1261.000000	51.796126
1260.000000	51.781371
1259.000000	51.744593
1258.000000	51.713211
1257.000000	51.763313
1256.000000	51.794915
1255.000000	51.794915
1254.000000	51.793594
1253.000000	51.747016
1252.000000	51.725103
1251.000000	51.709137
1250.000000	51.673460
1249.000000	51.657384
1248.000000	51.661017
1247.000000	51.655622
1246.000000	51.609154
1245.000000	51.599905
1244.000000	51.584599
1243.000000	51.570835
1242.000000	51.534828
1241.000000	51.530313
1240.000000	51.539783
1239.000000	51.497169
1238.000000	51.480542
1237.000000	51.482634
1236.000000	51.450371
1235.000000	51.444205
1234.000000	51.457638
1233.000000	51.421191
1232.000000	51.392562
1231.000000	51.375714
1230.000000	51.366795
1229.000000	51.347525
1228.000000	51.325282
1227.000000	51.325833
1226.000000	51.322860
1225.000000	51.304361
1224.000000	51.268904
1223.000000	51.212527
1222.000000	51.186430
1221.000000	51.137760
1220.000000	51.111773
1219.000000	51.089530
1218.000000	51.098670
1217.000000	51.073894
1216.000000	51.042071
1215.000000	51.009368
1214.000000	50.977655
1213.000000	50.957064
1212.000000	50.926012
1211.000000	50.862587
1210.000000	50.801584
1209.000000	50.741022
1208.000000	50.715806
1207.000000	50.700500
1206.000000	50.665374
1205.000000	50.646545
1204.000000	50.631019
1203.000000	50.617916
1202.000000	50.573430
1201.000000	50.544910
1200.000000	50.508133
1199.000000	50.483577
1198.000000	50.423235
1197.000000	50.407379
1196.000000	50.379631
1195.000000	50.352763
1194.000000	50.312682
1193.000000	50.293632
1192.000000	50.242980
1191.000000	50.163699
1190.000000	50.108312
1189.000000	50.067900
1188.000000	50.069222
1187.000000	50.021102
1186.000000	49.971992
1185.000000	49.934774
1184.000000	49.960320
1183.000000	49.993904
1182.000000	50.014936
1181.000000	50.009320
1180.000000	50.033545
1179.000000	50.093226
1178.000000	50.116350
1177.000000	50.142006
1176.000000	50.136060
1175.000000	50.148393
1174.000000	50.178894
1173.000000	50.192769
1172.000000	50.257185
1171.000000	50.282291
1170.000000	50.307066
1169.000000	50.365536
1168.000000	50.412334
1167.000000	50.440854
1166.000000	50.521126
1165.000000	50.592259
1164.000000	50.662732
1163.000000	50.711952
1162.000000	50.785508
1161.000000	50.846070
1160.000000	50.918414
1159.000000	50.939446
1158.000000	50.929316
1157.000000	50.988336
1156.000000	51.044934
1155.000000	51.046476
1154.000000	51.058478
1153.000000	51.126308
1152.000000	51.188192
1151.000000	51.209994
1150.000000	51.220345
1149.000000	51.241376
1148.000000	51.279475
1147.000000	51.304691
1146.000000	51.323741
1145.000000	51.331449
1144.000000	51.332990
1143.000000	51.352370
1142.000000	51.333871
1141.000000	51.330568
1140.000000	51.386395
1139.000000	51.383312
1138.000000	51.361400
1137.000000	51.372521
1136.000000	51.423613
1135.000000	51.514567
1134.000000	51.685573
1133.000000	51.691409
1132.000000	51.630957
1131.000000	51.641637
1130.000000	51.704512
1129.000000	51.760780
1128.000000	51.718607
1127.000000	51.732040
1126.000000	51.766836
1125.000000	51.778508
1124.000000	51.798989
1123.000000	51.801852
1122.000000	51.843365
1121.000000	51.855697
1120.000000	51.819801
1119.000000	51.778288
1118.000000	51.769038
1117.000000	51.726975
1116.000000	51.723562
1115.000000	51.722681
1114.000000	51.689316
1113.000000	51.654961
1112.000000	51.607062
1111.000000	51.615210
1110.000000	51.629305
1109.000000	51.613999
1108.000000	51.549032
1107.000000	51.510933
1106.000000	51.510052
1105.000000	51.530423
1104.000000	51.536920
1103.000000	51.505758
1102.000000	51.470191
1101.000000	51.424715
1100.000000	51.425485
1099.000000	51.411941
1098.000000	51.395204
1097.000000	51.332220
1096.000000	51.293460
1095.000000	51.302929
1094.000000	51.321428
1093.000000	51.299956
1092.000000	51.243248
1091.000000	51.185549
1090.000000	51.175749
1089.000000	51.124766
1088.000000	51.069710
1087.000000	51.014763
1086.000000	50.982060
1085.000000	50.940437
1084.000000	50.913790
1083.000000	50.903989
1082.000000	50.889565
1081.000000	50.871396
1080.000000	50.829443
1079.000000	50.772184
1078.000000	50.731332
1077.000000	50.710851
1076.000000	50.666365
1075.000000	50.621880
1074.000000	50.580697
1073.000000	50.561758
1072.000000	50.531587
1071.000000	50.459683
1070.000000	50.404406
1069.000000	50.381392
1068.000000	50.333603
1067.000000	50.264452
1066.000000	50.201247
1065.000000	50.167332
1064.000000	50.117121
1063.000000	50.088932
1062.000000	50.081004
1061.000000	50.053255
1060.000000	50.019230
1059.000000	49.990381
1058.000000	49.953273
1057.000000	49.901299
1056.000000	49.837323
1055.000000	49.787222
1054.000000	49.755619
1053.000000	49.725889
1052.000000	49.707390
1051.000000	49.664776
1050.000000	49.630421
1049.000000	49.565014
1048.000000	49.505552
1047.000000	49.459305
1046.000000	49.406230
1045.000000	49.380684
1044.000000	49.352385
1043.000000	49.315167
1042.000000	49.295567
1041.000000	49.263854
1040.000000	49.217827
1039.000000	49.153300
1038.000000	49.082388
1037.000000	49.049244
1036.000000	49.038673
1035.000000	48.991985
1034.000000	48.958620
1033.000000	48.940562
1032.000000	48.895636
1031.000000	48.855885
1030.000000	48.813822
1029.000000	48.755352
1028.000000	48.697542
1027.000000	48.637420
1026.000000	48.576968
1025.000000	48.540961
1024.000000	48.510790
1023.000000	48.486786
1022.000000	48.448136
1021.000000	48.398585
1020.000000	48.353218
1019.000000	48.301906
1018.000000	48.269202
1017.000000	48.239031
1016.000000	48.228020
1015.000000	48.200822
1014.000000	48.162833
1013.000000	48.125504
1012.000000	48.082670
1011.000000	48.046883
1010.000000	48.057675
1009.000000	48.036643
1008.000000	47.990175
1007.000000	47.946130
1006.000000	47.894597
1005.000000	47.853965
1004.000000	47.829300
1003.000000	47.793623
1002.000000	47.776335
1001.000000	47.751120
1000.000000	47.711038
999.000000	47.696393
998.000000	47.655872
997.000000	47.605550
996.000000	47.576590
995.000000	47.543776
994.000000	47.476057
993.000000	47.432342
992.000000	47.422762
991.000000	47.403382
990.000000	47.358786
989.000000	47.323440
988.000000	47.293379
987.000000	47.269815
986.000000	47.204408
985.000000	47.141753
984.000000	47.089890
983.000000	47.012370
982.000000	46.957534
981.000000	46.972840
980.000000	46.952028
979.000000	46.870545
978.000000	46.795117
977.000000	46.772764
976.000000	46.733894
975.000000	46.681811
974.000000	46.632370
973.000000	46.567183
972.000000	46.524019
971.000000	46.476780
970.000000	46.432074
969.000000	46.373714
968.000000	46.348608
967.000000	46.309628
966.000000	46.204030
965.000000	46.161856
964.000000	46.145009
963.000000	46.110213
962.000000	46.062755
961.000000	46.034455
960.000000	45.981711
959.000000	45.940089
958.000000	45.907385
957.000000	45.851227
956.000000	45.785820
955.000000	45.721514
954.000000	45.716889
953.000000	45.693215
952.000000	45.670642
951.000000	45.678570
950.000000	45.651482
949.000000	45.621972
948.000000	45.604904
947.000000	45.517694
946.000000	45.461757
945.000000	45.408572
944.000000	45.384127
943.000000	45.371574
942.000000	45.371684
941.000000	45.322023
940.000000	45.298569
939.000000	45.256616
938.000000	45.171499
937.000000	45.167865
936.000000	45.148485
935.000000	45.098053
934.000000	45.097613
933.000000	45.053898
932.000000	45.069534
931.000000	45.108844
930.000000	44.998291
929.000000	44.929250
928.000000	44.903814
927.000000	44.866155
926.000000	44.779826
925.000000	44.710014
924.000000	44.633816
923.000000	44.634807
922.000000	44.542642
921.000000	44.530310
920.000000	44.491440
919.000000	44.448936
918.000000	44.393659
917.000000	44.366131
916.000000	44.316580
915.000000	44.306890
914.000000	44.276059
913.000000	44.254807
912.000000	44.199310
911.000000	44.165945
910.000000	44.118817
909.000000	44.106154
908.000000	44.089637
907.000000	44.033920
906.000000	43.985250
905.000000	43.955079
904.000000	43.883615
903.000000	43.820410
902.000000	43.760949
901.000000	43.681998
900.000000	43.610535
899.000000	43.613177
898.000000	43.554047
897.000000	43.479500
896.000000	43.403522
895.000000	43.358045
894.000000	43.270946
893.000000	43.212365
892.000000	43.164576
891.000000	43.096086
890.000000	43.005573
889.000000	42.972099
888.000000	42.926071
887.000000	42.889514
886.000000	42.823886
885.000000	42.741191
884.000000	42.710360
883.000000	42.641649
882.000000	42.570846
881.000000	42.567653
880.000000	42.529444
879.000000	42.462495
878.000000	42.400281
877.000000	42.395106
876.000000	42.353923
875.000000	42.319788
874.000000	42.299858
873.000000	42.276404
872.000000	42.253390
871.000000	42.256253
870.000000	42.253280
869.000000	42.221677
868.000000	42.219365
867.000000	42.198774
866.000000	42.169264
865.000000	42.160234
864.000000	42.113546
863.000000	42.099342
862.000000	42.086679
861.000000	42.042633
860.000000	42.056067
859.000000	42.058270
858.000000	42.856700
857.000000	43.229800
856.000000	42.618500
855.000000	42.721800
854.000000	42.898900
853.000000	43.105400
852.000000	43.137600
851.000000	43.415800
850.000000	42.938500
849.000000	43.128700
848.000000	43.239200
847.000000	43.148800
846.000000	43.246500
845.000000	43.012900
844.000000	43.114300
843.000000	42.987400
842.000000	42.940200
841.000000	43.033000
840.000000	43.046100
839.000000	42.930500
838.000000	42.946000
837.000000	43.059600
836.000000	42.930200
835.000000	42.854500
834.000000	42.778400
833.000000	42.818800
832.000000	42.761100
831.000000	42.718900
830.000000	42.676700
829.000000	42.644900
828.000000	42.657700
827.000000	42.581200
826.000000	42.576400
825.000000	42.462700
824.000000	42.445100
823.000000	42.500200
822.000000	42.432600
821.000000	42.372000
820.000000	42.428200
819.000000	42.459900
818.000000	42.333500
817.000000	42.279000
816.000000	42.310600
815.000000	42.394200
814.000000	42.368400
813.000000	42.331100
812.000000	42.194700
811.000000	42.259000
810.000000	42.266300
809.000000	42.218500
808.000000	42.266900
807.000000	42.374300
806.000000	42.419500
805.000000	42.414100
804.000000	42.358400
803.000000	42.446800
802.000000	42.352900
801.000000	42.433200
800.000000	42.528200
799.000000	42.485300
798.000000	42.556700
797.000000	42.624500
796.000000	42.605100
795.000000	42.650100
794.000000	42.613600
793.000000	42.568500
792.000000	42.491700
791.000000	42.471000
790.000000	42.511500
789.000000	42.532700
788.000000	42.582100
787.000000	42.648400
786.000000	42.574300
785.000000	42.545300
784.000000	42.482400
783.000000	42.415300
782.000000	42.440600
781.000000	42.442200
780.000000	42.379100
779.000000	42.359100
778.000000	42.326500
777.000000	42.329600
776.000000	42.370200
775.000000	42.399400
774.000000	42.382300
773.000000	42.342400
772.000000	42.375400
771.000000	42.274000
770.000000	42.163500
769.000000	42.077900
768.000000	42.040000
767.000000	42.078500
766.000000	42.106600
765.000000	42.028200
764.000000	41.965400
763.000000	41.979400
762.000000	41.877700
761.000000	41.787800
760.000000	41.841100
759.000000	41.820400
758.000000	41.735000
757.000000	41.656400
756.000000	41.613300
755.000000	41.587800
754.000000	41.481100
753.000000	41.389700
752.000000	41.356200
751.000000	41.320500
750.000000	41.231000
749.000000	41.156100
748.000000	41.083000
747.000000	41.020300
746.000000	40.977700
745.000000	40.919500
744.000000	40.814700
743.000000	40.716400
742.000000	40.697500
741.000000	40.653900
740.000000	40.521200
739.000000	40.465800
738.000000	40.421500
737.000000	40.314800
736.000000	40.252900
735.000000	40.163500
734.000000	40.068100
733.000000	39.975200
732.000000	39.884900
731.000000	39.855200
730.000000	39.787700
729.000000	39.636900
728.000000	39.565400
727.000000	39.473600
726.000000	39.345000
725.000000	39.249200
724.000000	39.179900
723.000000	39.145600
722.000000	39.087900
721.000000	39.011200
720.000000	38.943000
719.000000	38.891500
718.000000	38.846100
717.000000	38.852000
716.000000	38.784600
715.000000	38.722800
714.000000	38.709700
713.000000	38.662400
712.000000	38.619200
711.000000	38.583500
710.000000	38.540200
709.000000	38.479700
708.000000	38.461100
707.000000	38.396100
706.000000	38.291600
705.000000	38.244200
704.000000	38.162900
703.000000	38.099200
702.000000	38.104500
701.000000	38.048200
700.000000	37.978100
699.000000	37.901900
698.000000	37.856100
697.000000	37.822400
696.000000	37.752700
695.000000	37.691400
694.000000	37.638200
693.000000	37.585300
692.000000	37.525400
691.000000	37.449400
690.000000	37.390000
689.000000	37.313000
688.000000	37.223500
687.000000	37.234300
686.000000	37.165300
685.000000	37.029400
684.000000	37.007100
683.000000	36.942200
682.000000	36.806700
681.000000	36.672000
680.000000	36.573100
679.000000	36.455800
678.000000	36.326200
677.000000	36.230000
676.000000	36.131000
675.000000	35.948700
674.000000	35.742800
673.000000	35.608700
672.000000	35.462300
671.000000	35.251000
670.000000	35.033600
669.000000	34.835200
668.000000	34.671100
667.000000	34.535900
666.000000	34.368800
665.000000	34.157500
664.000000	33.938900
663.000000	33.754000
662.000000	33.571400
661.000000	33.372900
660.000000	33.139100
659.000000	32.954900
658.000000	32.745300
657.000000	32.512200
656.000000	32.315600
655.000000	32.107100
654.000000	31.870400
653.000000	31.650500
652.000000	31.430300
651.000000	31.224400
650.000000	30.991800
649.000000	30.740300
648.000000	30.456200
647.000000	30.212300
646.000000	30.003200
645.000000	29.836900
644.000000	29.640200
643.000000	29.426800
642.000000	29.254200
641.000000	29.099600
640.000000	28.992800
639.000000	28.868400
638.000000	28.768700
637.000000	28.674800
636.000000	28.647900
635.000000	28.578900
634.000000	28.540300
633.000000	28.505000
632.000000	28.488900
631.000000	28.486100
630.000000	28.512500
629.000000	28.531000
628.000000	28.568300
627.000000	28.575200
626.000000	28.635100
625.000000	28.710700
624.000000	28.755100
623.000000	28.766300
622.000000	28.848400
621.000000	28.885900
620.000000	28.932900
619.000000	29.004700
618.000000	29.099300
617.000000	29.140500
616.000000	29.272600
615.000000	29.428200
614.000000	29.550100
613.000000	29.649600
612.000000	29.768600
611.000000	29.929600
610.000000	30.062000
609.000000	30.185200
608.000000	30.402100
607.000000	30.522000
606.000000	30.739800
605.000000	30.918600
604.000000	31.067300
603.000000	31.248200
602.000000	31.458200
601.000000	31.711600
600.000000	31.898800
599.000000	32.087200
598.000000	32.152600
597.000000	32.318900
596.000000	32.505800
595.000000	32.696400
594.000000	32.814500
593.000000	33.017400
592.000000	33.185100
591.000000	33.361600
590.000000	33.435000
589.000000	33.618700
588.000000	33.781100
587.000000	33.980100
586.000000	34.141700
585.000000	34.311100
584.000000	34.402500
583.000000	34.596800
582.000000	34.702500
581.000000	34.829700
580.000000	34.940500
579.000000	35.015000
578.000000	35.100100
577.000000	35.200200
576.000000	35.284200
575.000000	35.362400
574.000000	35.417200
573.000000	35.527600
572.000000	35.588700
571.000000	35.619400
570.000000	35.620000
569.000000	35.609900
568.000000	35.621300
567.000000	35.652800
566.000000	35.651000
565.000000	35.608100
564.000000	35.564300
563.000000	35.560200
562.000000	35.505400
561.000000	35.427200
560.000000	35.385400
559.000000	35.714100
558.000000	35.677500
557.000000	35.582100
556.000000	35.518300
555.000000	35.391800
554.000000	35.303500
553.000000	35.229300
552.000000	35.081700
551.000000	34.958200
550.000000	34.858800
549.000000	34.726900
548.000000	34.560700
547.000000	34.370900
546.000000	34.142700
545.000000	33.964100
544.000000	33.747600
543.000000	33.539300
542.000000	33.340300
541.000000	33.115300
540.000000	32.867000
539.000000	32.601900
538.000000	32.384700
537.000000	32.158900
536.000000	31.898700
535.000000	31.638300
534.000000	31.391800
533.000000	31.105100
532.000000	30.874600
531.000000	30.609500
530.000000	30.356100
529.000000	30.114700
528.000000	29.874400
527.000000	29.623300
526.000000	29.404300
525.000000	29.138800
524.000000	28.831300
523.000000	28.557900
522.000000	28.315000
521.000000	28.041100
520.000000	27.729800
519.000000	27.422700
518.000000	27.106000
517.000000	26.813200
516.000000	26.495300
515.000000	26.177500
514.000000	25.851300
513.000000	25.553000
512.000000	25.245300
511.000000	24.928200
510.000000	24.601100
509.000000	24.255100
508.000000	23.920500
507.000000	23.566600
506.000000	23.203900
505.000000	22.851900
504.000000	22.472900
503.000000	22.092500
502.000000	21.705400
501.000000	21.328300
500.000000	20.948600
499.000000	20.580900
498.000000	20.196200
497.000000	19.806600
496.000000	19.422900
495.000000	19.064900
494.000000	18.692300
493.000000	18.325000
492.000000	17.974500
491.000000	17.650300
490.000000	17.310900
489.000000	16.970400
488.000000	16.635100
487.000000	16.309400
486.000000	16.011300
485.000000	15.707800
484.000000	15.419600
483.000000	15.130700
482.000000	14.789700
481.000000	14.441400
480.000000	14.104300
479.000000	13.835700
478.000000	13.641600
477.000000	13.462200
476.000000	13.290700
475.000000	13.130600
474.000000	12.973400
473.000000	12.825600
472.000000	12.691300
471.000000	12.582600
470.000000	12.489700
469.000000	12.399700
468.000000	12.298000
467.000000	12.216900
466.000000	12.153400
465.000000	12.071200
464.000000	11.994000
463.000000	11.926700
462.000000	11.868900
461.000000	11.819800
460.000000	11.773700
459.000000	11.724000
458.000000	11.680400
457.000000	11.660900
456.000000	11.650700
455.000000	11.628500
454.000000	11.595900
453.000000	11.584500
452.000000	11.573700
451.000000	11.560400
450.000000	11.547200
449.000000	11.529600
448.000000	11.513100
447.000000	11.501500
446.000000	11.489700
445.000000	11.487700
444.000000	11.462800
443.000000	11.402400
442.000000	11.349300
441.000000	11.308000
440.000000	11.261600
439.000000	11.209800
438.000000	11.158900
437.000000	11.101200
436.000000	11.033300
435.000000	10.947600
434.000000	10.861500
433.000000	10.783600
432.000000	10.703500
431.000000	10.606600
430.000000	10.511300
429.000000	10.411300
428.000000	10.305200
427.000000	10.194700
426.000000	10.086200
425.000000	9.971800
424.000000	9.856600
423.000000	9.725600
422.000000	9.580800
421.000000	9.442300
420.000000	9.313300
419.000000	9.180100
418.000000	9.042700
417.000000	8.893100
416.000000	8.749200
415.000000	8.610900
414.000000	8.461900
413.000000	8.318100
412.000000	8.170200
411.000000	8.018800
410.000000	7.874600
409.000000	7.738900
408.000000	7.588500
407.000000	7.426700
406.000000	7.290900
405.000000	7.149400
404.000000	7.009300
403.000000	6.874200
402.000000	6.746600
401.000000	6.606000
400.000000	6.466600
399.000000	6.343700
398.000000	6.222500
397.000000	6.096400
396.000000	5.973300
395.000000	5.845500
394.000000	5.731600
393.000000	5.633500
392.000000	5.527300
391.000000	5.406400
390.000000	5.300500
389.000000	5.204100
388.000000	5.101100
387.000000	5.009200
386.000000	4.926000
385.000000	4.848000
384.000000	4.757300
383.000000	4.677500
382.000000	4.593400
381.000000	4.518600
380.000000	4.460500
379.000000	4.366300
378.000000	4.311400
377.000000	4.275600
376.000000	4.359900
375.000000	4.137000
374.000000	4.049400
373.000000	4.067100
372.000000	4.087900
371.000000	4.031300
370.000000	4.008200
369.000000	3.981300
368.000000	3.912800
367.000000	3.906000
366.000000	3.846300
365.000000	3.787000
364.000000	3.749200
363.000000	3.698600
362.000000	3.752000
361.000000	3.803500
360.000000	3.723100
359.000000	3.606800
358.000000	3.612000
357.000000	3.630900
356.000000	3.563100
355.000000	3.616400
354.000000	3.510300
353.000000	3.485900
352.000000	3.567200
351.000000	3.556400
350.000000	3.557900
349.000000	3.462000
348.000000	3.454600
347.000000	3.500800
346.000000	3.477600
345.000000	3.441500
344.000000	3.418400
343.000000	3.370000
342.000000	3.304700
341.000000	3.388400
340.000000	3.278200
339.000000	3.313000
338.000000	3.357800
337.000000	3.287800
336.000000	3.332000
335.000000	3.289100
334.000000	3.154600
333.000000	3.445100
332.000000	3.131800
331.000000	3.299100
330.000000	3.213900
329.000000	3.264300
328.000000	3.406700
327.000000	3.086100
326.000000	3.442700
325.000000	3.560200
324.000000	3.405500
323.000000	3.249300
322.000000	3.534300
321.000000	3.315600
320.000000	3.407600
319.000000	3.394000
318.000000	3.763100
317.000000	3.454500
316.000000	3.258700
315.000000	3.193000
314.000000	3.191600
313.000000	3.249500
312.000000	3.261800
311.000000	3.206100
310.000000	3.237500
309.000000	3.233000
308.000000	3.257000
307.000000	3.189700
306.000000	3.192600
305.000000	3.236800
304.000000	3.196000
303.000000	3.293400
302.000000	3.216500
301.000000	3.183700
300.000000	3.205100
299.000000	3.279600
298.000000	3.231400
297.000000	3.237800
296.000000	3.208600
295.000000	3.186600
294.000000	3.187200
293.000000	3.230000
292.000000	3.229600
291.000000	3.245700
290.000000	3.272900
289.000000	3.247300
288.000000	3.169600
287.000000	3.224400
286.000000	3.208300
285.000000	3.236600
284.000000	3.211100
283.000000	3.189400
282.000000	3.176400
281.000000	3.178300
280.000000	3.199800
279.000000	3.191800
278.000000	3.223500
277.000000	3.244300
276.000000	3.275800
275.000000	3.223100
274.000000	3.190100
273.000000	3.183200
272.000000	3.219800
271.000000	3.206500
270.000000	3.243700
269.000000	3.239900
268.000000	3.249500
267.000000	3.249800
266.000000	3.259100
265.000000	3.268600
264.000000	3.292400
263.000000	3.291000
262.000000	3.272100
261.000000	3.338300
260.000000	3.265500
259.000000	3.305800
258.000000	3.329400
257.000000	3.313200
256.000000	3.332100
255.000000	3.315100
254.000000	3.321700
253.000000	3.340400
252.000000	3.347200
251.000000	3.351600
250.000000	3.333100
