PE UV       SUBTECH     SPECTRUM    ASCII       PEDS        4.00        
   -1
CICIMAUCR0158-1.Sample.ASC
24/04/19
10:31:38.00
24/04/19
10:31:38.00
Vinicio Soto Monge
C. cupreomarginata
250,000000
1
Lambda 1050
1050L1511233
PerkinElmer UV WinLab 6.3.2.0749 / 2.02.05 Lambda 900 UV/VIS/NIR, Aug  7 2015 09:38:08

0
0
3350/servo 860,8/2
0
0
UV/VIS
1
1
1
DoubleDePol,CommonBeamDepol,RBeamAtt,SBeamAtt,60mm sphere, WB InGaAs Detector
0
0
0
0
Program
Program
3350/servo 860,8/2
3350/0,2 860,8/0,2
3350/0,2 860,8/0,2
0
15.00
 
 
 
0
 
860,8
319,2
860,8
Front
100
on
S:100 R:100
0
0
0
0
 
0
 
 
 
0
 
 
0
0
0
0
0
 
 
 
 
0
0


0
0
#HDR
-1
-1
#GR
nm
%R
1.0
0.0
2500,000000
-1,000000
2251
8
62,375300
4,764000
#DATA
2482.000000	15.732145
2481.000000	15.769949
2480.000000	15.805293
2479.000000	15.755745
2478.000000	15.818491
2477.000000	15.809320
2476.000000	15.861776
2475.000000	15.879672
2474.000000	15.905173
2473.000000	15.975637
2472.000000	15.990736
2471.000000	16.040732
2470.000000	16.059523
2469.000000	16.131329
2468.000000	16.158955
2467.000000	16.210405
2466.000000	16.241611
2465.000000	16.284448
2464.000000	16.386789
2463.000000	16.433988
2462.000000	16.508926
2461.000000	16.527829
2460.000000	16.596950
2459.000000	16.684639
2458.000000	16.762373
2457.000000	16.797829
2456.000000	16.900505
2455.000000	16.986627
2454.000000	17.078007
2453.000000	17.146346
2452.000000	17.231350
2451.000000	17.327427
2450.000000	17.450012
2449.000000	17.557721
2448.000000	17.635791
2447.000000	17.735894
2446.000000	17.845729
2445.000000	17.961715
2444.000000	18.058015
2443.000000	18.165948
2442.000000	18.278355
2441.000000	18.372866
2440.000000	18.457535
2439.000000	18.571843
2438.000000	18.666019
2437.000000	18.750799
2436.000000	18.852021
2435.000000	18.951566
2434.000000	19.043057
2433.000000	19.130522
2432.000000	19.224809
2431.000000	19.320215
2430.000000	19.407680
2429.000000	19.508007
2428.000000	19.588202
2427.000000	19.665824
2426.000000	19.727117
2425.000000	19.812568
2424.000000	19.875986
2423.000000	19.941417
2422.000000	20.027987
2421.000000	20.102813
2420.000000	20.158289
2419.000000	20.222713
2418.000000	20.298658
2417.000000	20.374602
2416.000000	20.426500
2415.000000	20.484213
2414.000000	20.553335
2413.000000	20.606351
2412.000000	20.642813
2411.000000	20.700526
2410.000000	20.755108
2409.000000	20.797051
2408.000000	20.832730
2407.000000	20.866955
2406.000000	20.920866
2405.000000	20.974553
2404.000000	21.007771
2403.000000	21.033608
2402.000000	21.064366
2401.000000	21.100046
2400.000000	21.131922
2399.000000	21.164582
2398.000000	21.192656
2397.000000	21.206301
2396.000000	21.243322
2395.000000	21.263679
2394.000000	21.275311
2393.000000	21.296897
2392.000000	21.335373
2391.000000	21.358190
2390.000000	21.382908
2389.000000	21.396442
2388.000000	21.399126
2387.000000	21.404495
2386.000000	21.424963
2385.000000	21.442523
2384.000000	21.436260
2383.000000	21.460195
2382.000000	21.474400
2381.000000	21.469702
2380.000000	21.452925
2379.000000	21.461425
2378.000000	21.474288
2377.000000	21.453931
2376.000000	21.451918
2375.000000	21.454267
2374.000000	21.446661
2373.000000	21.432904
2372.000000	21.456280
2371.000000	21.467801
2370.000000	21.449793
2369.000000	21.448675
2368.000000	21.467577
2367.000000	21.482341
2366.000000	21.470485
2365.000000	21.485361
2364.000000	21.494868
2363.000000	21.474400
2362.000000	21.475182
2361.000000	21.489163
2360.000000	21.499342
2359.000000	21.509408
2358.000000	21.498335
2357.000000	21.494756
2356.000000	21.502250
2355.000000	21.500684
2354.000000	21.479321
2353.000000	21.491065
2352.000000	21.492071
2351.000000	21.465452
2350.000000	21.465340
2349.000000	21.475965
2348.000000	21.485920
2347.000000	21.477308
2346.000000	21.479656
2345.000000	21.494868
2344.000000	21.479321
2343.000000	21.485025
2342.000000	21.508849
2341.000000	21.508289
2340.000000	21.523612
2339.000000	21.545758
2338.000000	21.565220
2337.000000	21.573832
2336.000000	21.577859
2335.000000	21.600564
2334.000000	21.629197
2333.000000	21.661632
2332.000000	21.674942
2331.000000	21.686239
2330.000000	21.724155
2329.000000	21.728182
2328.000000	21.771802
2327.000000	21.823923
2326.000000	21.831529
2325.000000	21.877498
2324.000000	21.907138
2323.000000	21.906690
2322.000000	21.929507
2321.000000	21.935323
2320.000000	21.936777
2319.000000	21.930850
2318.000000	21.914855
2317.000000	21.902664
2316.000000	21.907026
2315.000000	21.900427
2314.000000	21.885216
2313.000000	21.855912
2312.000000	21.809830
2311.000000	21.766098
2310.000000	21.761848
2309.000000	21.733327
2308.000000	21.703799
2307.000000	21.691160
2306.000000	21.640941
2305.000000	21.618795
2304.000000	21.616558
2303.000000	21.623269
2302.000000	21.581661
2301.000000	21.567792
2300.000000	21.593182
2299.000000	21.576740
2298.000000	21.576293
2297.000000	21.581550
2296.000000	21.598103
2295.000000	21.603807
2294.000000	21.625058
2293.000000	21.689482
2292.000000	21.714424
2291.000000	21.725833
2290.000000	21.736123
2289.000000	21.762631
2288.000000	21.817883
2287.000000	21.857589
2286.000000	21.867656
2285.000000	21.937113
2284.000000	21.965970
2283.000000	22.006123
2282.000000	22.078265
2281.000000	22.117076
2280.000000	22.144478
2279.000000	22.156334
2278.000000	22.181612
2277.000000	22.240779
2276.000000	22.272768
2275.000000	22.303414
2274.000000	22.335514
2273.000000	22.376115
2272.000000	22.394681
2271.000000	22.425775
2270.000000	22.452059
2269.000000	22.517602
2268.000000	22.560328
2267.000000	22.596343
2266.000000	22.687275
2265.000000	22.758857
2264.000000	22.834019
2263.000000	22.909851
2262.000000	23.023712
2261.000000	23.123368
2260.000000	23.249980
2259.000000	23.382519
2258.000000	23.519980
2257.000000	23.651736
2256.000000	23.812573
2255.000000	23.930125
2254.000000	24.081119
2253.000000	24.245423
2252.000000	24.379640
2251.000000	24.522022
2250.000000	24.646621
2249.000000	24.805109
2248.000000	24.928253
2247.000000	25.022876
2246.000000	25.170962
2245.000000	25.277217
2244.000000	25.370386
2243.000000	25.445100
2242.000000	25.534467
2241.000000	25.637255
2240.000000	25.696086
2239.000000	25.728522
2238.000000	25.763866
2237.000000	25.854910
2236.000000	25.860167
2235.000000	25.852561
2234.000000	25.882536
2233.000000	25.873477
2232.000000	25.862292
2231.000000	25.841936
2230.000000	25.840370
2229.000000	25.824487
2228.000000	25.776729
2227.000000	25.716107
2226.000000	25.665999
2225.000000	25.617122
2224.000000	25.556836
2223.000000	25.509189
2222.000000	25.441745
2221.000000	25.393762
2220.000000	25.308199
2219.000000	25.239525
2218.000000	25.151165
2217.000000	25.075444
2216.000000	25.018737
2215.000000	24.931161
2214.000000	24.874678
2213.000000	24.799069
2212.000000	24.743033
2211.000000	24.679616
2210.000000	24.600204
2209.000000	24.545510
2208.000000	24.506364
2207.000000	24.474935
2206.000000	24.409616
2205.000000	24.381654
2204.000000	24.349889
2203.000000	24.297768
2202.000000	24.270365
2201.000000	24.212764
2200.000000	24.179098
2199.000000	24.153596
2198.000000	24.125746
2197.000000	24.104943
2196.000000	24.060987
2195.000000	24.035709
2194.000000	24.020162
2193.000000	24.001819
2192.000000	23.968712
2191.000000	23.934487
2190.000000	23.915249
2189.000000	23.899367
2188.000000	23.870734
2187.000000	23.867490
2186.000000	23.823534
2185.000000	23.809441
2184.000000	23.788414
2183.000000	23.750498
2182.000000	23.756426
2181.000000	23.721417
2180.000000	23.702291
2179.000000	23.689653
2178.000000	23.662474
2177.000000	23.639098
2176.000000	23.642789
2175.000000	23.644466
2174.000000	23.648605
2173.000000	23.649835
2172.000000	23.647822
2171.000000	23.649835
2170.000000	23.675001
2169.000000	23.702180
2168.000000	23.727793
2167.000000	23.728016
2166.000000	23.778460
2165.000000	23.816823
2164.000000	23.838298
2163.000000	23.898137
2162.000000	23.966811
2161.000000	24.021728
2160.000000	24.095436
2159.000000	24.145879
2158.000000	24.225067
2157.000000	24.302577
2156.000000	24.407826
2155.000000	24.494508
2154.000000	24.590697
2153.000000	24.662838
2152.000000	24.752876
2151.000000	24.856894
2150.000000	24.960465
2149.000000	25.062582
2148.000000	25.157205
2147.000000	25.261223
2146.000000	25.360096
2145.000000	25.450134
2144.000000	25.550796
2143.000000	25.660631
2142.000000	25.747984
2141.000000	25.832876
2140.000000	25.924927
2139.000000	26.018655
2138.000000	26.096724
2137.000000	26.186203
2136.000000	26.280937
2135.000000	26.364935
2134.000000	26.445018
2133.000000	26.519396
2132.000000	26.598137
2131.000000	26.657640
2130.000000	26.720387
2129.000000	26.786265
2128.000000	26.844426
2127.000000	26.879993
2126.000000	26.941286
2125.000000	26.988038
2124.000000	27.022822
2123.000000	27.080424
2122.000000	27.127735
2121.000000	27.147532
2120.000000	27.179633
2119.000000	27.214529
2118.000000	27.251886
2117.000000	27.272578
2116.000000	27.288908
2115.000000	27.305126
2114.000000	27.321791
2113.000000	27.336555
2112.000000	27.359931
2111.000000	27.375142
2110.000000	27.372793
2109.000000	27.382636
2108.000000	27.390913
2107.000000	27.397400
2106.000000	27.405677
2105.000000	27.415072
2104.000000	27.406571
2103.000000	27.389906
2102.000000	27.392926
2101.000000	27.396505
2100.000000	27.402098
2099.000000	27.416414
2098.000000	27.425362
2097.000000	27.419210
2096.000000	27.438224
2095.000000	27.449968
2094.000000	27.442251
2093.000000	27.449856
2092.000000	27.468311
2091.000000	27.478937
2090.000000	27.498063
2089.000000	27.517301
2088.000000	27.517189
2087.000000	27.521551
2086.000000	27.517412
2085.000000	27.506451
2084.000000	27.483634
2083.000000	27.456008
2082.000000	27.429724
2081.000000	27.407802
2080.000000	27.389123
2079.000000	27.327048
2078.000000	27.269111
2077.000000	27.203456
2076.000000	27.132209
2075.000000	27.061186
2074.000000	26.986025
2073.000000	26.901468
2072.000000	26.803713
2071.000000	26.721281
2070.000000	26.626099
2069.000000	26.524094
2068.000000	26.431261
2067.000000	26.317847
2066.000000	26.214053
2065.000000	26.113278
2064.000000	26.011720
2063.000000	25.933651
2062.000000	25.845067
2061.000000	25.757155
2060.000000	25.680316
2059.000000	25.623833
2058.000000	25.556277
2057.000000	25.491070
2056.000000	25.460312
2055.000000	25.466463
2054.000000	25.463779
2053.000000	25.495544
2052.000000	25.540618
2051.000000	25.589608
2050.000000	25.671927
2049.000000	25.735345
2048.000000	25.839363
2047.000000	25.954007
2046.000000	26.059815
2045.000000	26.184972
2044.000000	26.322433
2043.000000	26.466940
2042.000000	26.575991
2041.000000	26.693879
2040.000000	26.809976
2039.000000	26.945536
2038.000000	27.048324
2037.000000	27.142499
2036.000000	27.264078
2035.000000	27.360490
2034.000000	27.451982
2033.000000	27.539670
2032.000000	27.634852
2031.000000	27.704533
2030.000000	27.775780
2029.000000	27.831145
2028.000000	27.915478
2027.000000	27.972520
2026.000000	28.031799
2025.000000	28.074413
2024.000000	28.115573
2023.000000	28.189952
2022.000000	28.216348
2021.000000	28.236928
2020.000000	28.265113
2019.000000	28.285917
2018.000000	28.331327
2017.000000	28.332558
2016.000000	28.362421
2015.000000	28.364322
2014.000000	28.367790
2013.000000	28.374500
2012.000000	28.363427
2011.000000	28.341953
2010.000000	28.307727
2009.000000	28.293635
2008.000000	28.255718
2007.000000	28.225855
2006.000000	28.206505
2005.000000	28.148233
2004.000000	28.117475
2003.000000	28.065242
2002.000000	28.011555
2001.000000	27.929235
2000.000000	27.882483
1999.000000	27.797031
1998.000000	27.707553
1997.000000	27.654761
1996.000000	27.583402
1995.000000	27.511149
1994.000000	27.402209
1993.000000	27.320561
1992.000000	27.237793
1991.000000	27.154691
1990.000000	27.064765
1989.000000	26.967122
1988.000000	26.874401
1987.000000	26.777093
1986.000000	26.676319
1985.000000	26.586281
1984.000000	26.488415
1983.000000	26.378357
1982.000000	26.283063
1981.000000	26.181952
1980.000000	26.081066
1979.000000	25.994943
1978.000000	25.904570
1977.000000	25.824487
1976.000000	25.711186
1975.000000	25.625175
1974.000000	25.517801
1973.000000	25.432574
1972.000000	25.370051
1971.000000	25.243775
1970.000000	25.165817
1969.000000	25.068845
1968.000000	24.962590
1967.000000	24.890448
1966.000000	24.808911
1965.000000	24.719881
1964.000000	24.643601
1963.000000	24.540254
1962.000000	24.448315
1961.000000	24.361633
1960.000000	24.270253
1959.000000	24.173282
1958.000000	24.077428
1957.000000	24.009537
1956.000000	23.912341
1955.000000	23.799375
1954.000000	23.727345
1953.000000	23.654644
1952.000000	23.554541
1951.000000	23.484412
1950.000000	23.377486
1949.000000	23.324470
1948.000000	23.255684
1947.000000	23.178845
1946.000000	23.112184
1945.000000	23.054023
1944.000000	23.005257
1943.000000	22.928865
1942.000000	22.912759
1941.000000	22.844868
1940.000000	22.838716
1939.000000	22.825854
1938.000000	22.822387
1937.000000	22.827867
1936.000000	22.810307
1935.000000	22.837262
1934.000000	22.839835
1933.000000	22.868020
1932.000000	22.891620
1931.000000	22.927300
1930.000000	22.979421
1929.000000	23.074827
1928.000000	23.159383
1927.000000	23.268547
1926.000000	23.369209
1925.000000	23.506558
1924.000000	23.573219
1923.000000	23.696811
1922.000000	23.887511
1921.000000	24.104384
1920.000000	24.317453
1919.000000	24.477619
1918.000000	24.673017
1917.000000	24.864164
1916.000000	25.045469
1915.000000	25.270395
1914.000000	25.611082
1913.000000	25.964744
1912.000000	26.289773
1911.000000	26.575544
1910.000000	26.821720
1909.000000	27.061522
1908.000000	27.390577
1907.000000	27.786406
1906.000000	28.262317
1905.000000	28.777823
1904.000000	29.200159
1903.000000	29.617574
1902.000000	30.038904
1901.000000	30.523428
1900.000000	31.110404
1899.000000	31.677583
1898.000000	32.264000
1897.000000	32.752326
1896.000000	33.158892
1895.000000	33.592190
1894.000000	34.084990
1893.000000	34.639419
1892.000000	35.270015
1891.000000	35.854084
1890.000000	36.350799
1889.000000	36.827269
1888.000000	37.299154
1887.000000	37.739274
1886.000000	38.185882
1885.000000	38.685841
1884.000000	39.158061
1883.000000	39.539238
1882.000000	39.912361
1881.000000	40.248463
1880.000000	40.521259
1879.000000	40.808484
1878.000000	41.101301
1877.000000	41.355083
1876.000000	41.612892
1875.000000	41.887254
1874.000000	42.155464
1873.000000	42.418530
1872.000000	42.676115
1871.000000	42.935937
1870.000000	43.176185
1869.000000	43.394512
1868.000000	43.529959
1867.000000	43.605233
1866.000000	43.658472
1865.000000	43.721666
1864.000000	43.756339
1863.000000	43.815059
1862.000000	43.917064
1861.000000	44.019740
1860.000000	44.113692
1859.000000	44.212341
1858.000000	44.301596
1857.000000	44.331235
1856.000000	44.343091
1855.000000	44.426865
1854.000000	44.492519
1853.000000	44.491513
1852.000000	44.502586
1851.000000	44.475183
1850.000000	44.461426
1849.000000	44.548891
1848.000000	44.663422
1847.000000	44.708721
1846.000000	44.663982
1845.000000	44.560187
1844.000000	44.453596
1843.000000	44.488381
1842.000000	44.581774
1841.000000	44.603584
1840.000000	44.571372
1839.000000	44.503704
1838.000000	44.480328
1837.000000	44.501579
1836.000000	44.523054
1835.000000	44.485920
1834.000000	44.385369
1833.000000	44.297793
1832.000000	44.256409
1831.000000	44.261330
1830.000000	44.263791
1829.000000	44.224085
1828.000000	44.189748
1827.000000	44.200821
1826.000000	44.183820
1825.000000	44.149483
1824.000000	44.103290
1823.000000	44.103737
1822.000000	44.136397
1821.000000	44.193998
1820.000000	44.213236
1819.000000	44.166260
1818.000000	44.114363
1817.000000	44.088190
1816.000000	44.099599
1815.000000	44.094789
1814.000000	44.071861
1813.000000	44.040655
1812.000000	44.047925
1811.000000	44.039872
1810.000000	44.016943
1809.000000	43.987416
1808.000000	43.948381
1807.000000	43.957105
1806.000000	43.956881
1805.000000	43.932051
1804.000000	43.900734
1803.000000	43.892793
1802.000000	43.891227
1801.000000	43.865390
1800.000000	43.848837
1799.000000	43.831724
1798.000000	43.824230
1797.000000	43.811256
1796.000000	43.780162
1795.000000	43.756227
1794.000000	43.760253
1793.000000	43.753878
1792.000000	43.741798
1791.000000	43.740568
1790.000000	43.733634
1789.000000	43.735088
1788.000000	43.723567
1787.000000	43.723232
1786.000000	43.743476
1785.000000	43.757905
1784.000000	43.753095
1783.000000	43.755891
1782.000000	43.750634
1781.000000	43.747615
1780.000000	43.741127
1779.000000	43.727818
1778.000000	43.685875
1777.000000	43.663729
1776.000000	43.637333
1775.000000	43.609818
1774.000000	43.589909
1773.000000	43.555908
1772.000000	43.527946
1771.000000	43.516314
1770.000000	43.494727
1769.000000	43.459719
1768.000000	43.412855
1767.000000	43.372478
1766.000000	43.351562
1765.000000	43.333778
1764.000000	43.323824
1763.000000	43.294856
1762.000000	43.295079
1761.000000	43.305705
1760.000000	43.301119
1759.000000	43.314653
1758.000000	43.319350
1757.000000	43.312192
1756.000000	43.313758
1755.000000	43.342726
1754.000000	43.318120
1753.000000	43.305257
1752.000000	43.296869
1751.000000	43.275730
1750.000000	43.270473
1749.000000	43.250788
1748.000000	43.223385
1747.000000	43.175290
1746.000000	43.149789
1745.000000	43.102366
1744.000000	43.042527
1743.000000	43.009532
1742.000000	42.968932
1741.000000	42.935825
1740.000000	42.880908
1739.000000	42.836952
1738.000000	42.808542
1737.000000	42.774876
1736.000000	42.754296
1735.000000	42.727341
1734.000000	42.678240
1733.000000	42.664930
1732.000000	42.656541
1731.000000	42.622763
1730.000000	42.572208
1729.000000	42.555767
1728.000000	42.553865
1727.000000	42.536417
1726.000000	42.547043
1725.000000	42.564043
1724.000000	42.594354
1723.000000	42.623323
1722.000000	42.710676
1721.000000	42.833932
1720.000000	42.969491
1719.000000	43.134802
1718.000000	43.282664
1717.000000	43.472469
1716.000000	43.634201
1715.000000	43.803315
1714.000000	43.967059
1713.000000	44.080361
1712.000000	44.189077
1711.000000	44.319939
1710.000000	44.407403
1709.000000	44.485697
1708.000000	44.569359
1707.000000	44.627743
1706.000000	44.679976
1705.000000	44.714984
1704.000000	44.753683
1703.000000	44.772474
1702.000000	44.800995
1701.000000	44.797640
1700.000000	44.804462
1699.000000	44.814417
1698.000000	44.817101
1697.000000	44.817437
1696.000000	44.781086
1695.000000	44.777731
1694.000000	44.728182
1693.000000	44.671923
1692.000000	44.662528
1691.000000	44.634230
1690.000000	44.598104
1689.000000	44.643737
1688.000000	44.670581
1687.000000	44.742051
1686.000000	44.877834
1685.000000	45.009814
1684.000000	45.170092
1683.000000	45.337416
1682.000000	45.521182
1681.000000	45.691973
1680.000000	45.848783
1679.000000	46.024496
1678.000000	46.190254
1677.000000	46.348854
1676.000000	46.495374
1675.000000	46.601182
1674.000000	46.746807
1673.000000	46.901604
1672.000000	47.026762
1671.000000	47.150130
1670.000000	47.296091
1669.000000	47.435565
1668.000000	47.570453
1667.000000	47.768647
1666.000000	47.838328
1665.000000	47.935076
1664.000000	48.044463
1663.000000	48.155863
1662.000000	48.240755
1661.000000	48.323411
1660.000000	48.397342
1659.000000	48.465793
1658.000000	48.532901
1657.000000	48.579877
1656.000000	48.616563
1655.000000	48.629985
1654.000000	48.659513
1653.000000	48.676290
1652.000000	48.683113
1651.000000	48.692172
1650.000000	48.698771
1649.000000	48.682553
1648.000000	48.677520
1647.000000	48.652466
1646.000000	48.641393
1645.000000	48.628419
1644.000000	48.614774
1643.000000	48.595648
1642.000000	48.578088
1641.000000	48.561646
1640.000000	48.545540
1639.000000	48.552810
1638.000000	48.527644
1637.000000	48.511650
1636.000000	48.496775
1635.000000	48.465457
1634.000000	48.413336
1633.000000	48.382578
1632.000000	48.357524
1631.000000	48.316812
1630.000000	48.276882
1629.000000	48.250262
1628.000000	48.199260
1627.000000	48.162238
1626.000000	48.120855
1625.000000	48.088643
1624.000000	48.057325
1623.000000	48.022876
1622.000000	47.981940
1621.000000	47.938208
1620.000000	47.914832
1619.000000	47.877810
1618.000000	47.857342
1617.000000	47.819985
1616.000000	47.805668
1615.000000	47.783075
1614.000000	47.725362
1613.000000	47.681406
1612.000000	47.638456
1611.000000	47.598974
1610.000000	47.553340
1609.000000	47.523253
1608.000000	47.465987
1607.000000	47.403017
1606.000000	47.339488
1605.000000	47.274504
1604.000000	47.213771
1603.000000	47.151248
1602.000000	47.111542
1601.000000	47.051368
1600.000000	46.982582
1599.000000	46.910888
1598.000000	46.851049
1597.000000	46.812238
1596.000000	46.754301
1595.000000	46.705424
1594.000000	46.657553
1593.000000	46.614380
1592.000000	46.558680
1591.000000	46.517744
1590.000000	46.478932
1589.000000	46.430055
1588.000000	46.386434
1587.000000	46.346505
1586.000000	46.297851
1585.000000	46.260382
1584.000000	46.227499
1583.000000	46.166542
1582.000000	46.139251
1581.000000	46.121803
1580.000000	46.094736
1579.000000	46.061965
1578.000000	46.040154
1577.000000	46.021140
1576.000000	46.004922
1575.000000	45.990718
1574.000000	45.974947
1573.000000	45.971592
1572.000000	45.970250
1571.000000	45.975171
1570.000000	45.987586
1569.000000	46.006488
1568.000000	46.009173
1567.000000	46.032101
1566.000000	46.063530
1565.000000	46.049102
1564.000000	46.040825
1563.000000	46.056372
1562.000000	46.059168
1561.000000	46.049214
1560.000000	46.031095
1559.000000	46.000337
1558.000000	45.975618
1557.000000	45.950341
1556.000000	45.922826
1555.000000	45.887594
1554.000000	45.829322
1553.000000	45.766911
1552.000000	45.699019
1551.000000	45.627884
1550.000000	45.562677
1549.000000	45.508095
1548.000000	45.457428
1547.000000	45.402959
1546.000000	45.342785
1545.000000	45.284177
1544.000000	45.247379
1543.000000	45.222101
1542.000000	45.187540
1541.000000	45.134077
1540.000000	45.097056
1539.000000	45.068534
1538.000000	45.037329
1537.000000	45.002656
1536.000000	44.980734
1535.000000	44.940133
1534.000000	44.903336
1533.000000	44.870229
1532.000000	44.833207
1531.000000	44.786343
1530.000000	44.737354
1529.000000	44.683443
1528.000000	44.641165
1527.000000	44.586024
1526.000000	44.553924
1525.000000	44.510079
1524.000000	44.452590
1523.000000	44.404384
1522.000000	44.352374
1521.000000	44.305175
1520.000000	44.254843
1519.000000	44.197689
1518.000000	44.132258
1517.000000	44.048708
1516.000000	44.006430
1515.000000	43.958559
1514.000000	43.906326
1513.000000	43.842126
1512.000000	43.786761
1511.000000	43.719653
1510.000000	43.674131
1509.000000	43.622233
1508.000000	43.553112
1507.000000	43.491931
1506.000000	43.445962
1505.000000	43.405920
1504.000000	43.359056
1503.000000	43.297652
1502.000000	43.250452
1501.000000	43.199673
1500.000000	43.172718
1499.000000	43.168580
1498.000000	43.134131
1497.000000	43.108629
1496.000000	43.086260
1495.000000	43.094201
1494.000000	43.077536
1493.000000	43.073285
1492.000000	43.088609
1491.000000	43.084135
1490.000000	43.084582
1489.000000	43.132005
1488.000000	43.135920
1487.000000	43.166455
1486.000000	43.169363
1485.000000	43.188265
1484.000000	43.204035
1483.000000	43.243853
1482.000000	43.268459
1481.000000	43.278861
1480.000000	43.297652
1479.000000	43.314093
1478.000000	43.329081
1477.000000	43.357602
1476.000000	43.382097
1475.000000	43.398762
1474.000000	43.440257
1473.000000	43.491595
1472.000000	43.543045
1471.000000	43.590916
1470.000000	43.619773
1469.000000	43.649972
1468.000000	43.699073
1467.000000	43.772445
1466.000000	43.820092
1465.000000	43.854988
1464.000000	43.920531
1463.000000	43.975784
1462.000000	44.052958
1461.000000	44.111231
1460.000000	44.185610
1459.000000	44.230684
1458.000000	44.295332
1457.000000	44.383132
1456.000000	44.471268
1455.000000	44.504823
1454.000000	44.580543
1453.000000	44.676285
1452.000000	44.741380
1451.000000	44.839471
1450.000000	44.880183
1449.000000	44.925146
1448.000000	44.999189
1447.000000	45.095825
1446.000000	45.207561
1445.000000	45.258787
1444.000000	45.292565
1443.000000	45.391327
1442.000000	45.464251
1441.000000	45.538853
1440.000000	45.650477
1439.000000	45.745772
1438.000000	45.844309
1437.000000	45.947545
1436.000000	46.025838
1435.000000	46.145627
1434.000000	46.257139
1433.000000	46.391691
1432.000000	46.508908
1431.000000	46.634289
1430.000000	46.742222
1429.000000	46.918270
1428.000000	47.071948
1427.000000	47.189053
1426.000000	47.429637
1425.000000	47.635101
1424.000000	47.806675
1423.000000	48.004533
1422.000000	48.165146
1421.000000	48.383137
1420.000000	48.664099
1419.000000	48.900880
1418.000000	49.095942
1417.000000	49.328361
1416.000000	49.603618
1415.000000	49.983117
1414.000000	50.282980
1413.000000	50.513051
1412.000000	50.744464
1411.000000	51.089849
1410.000000	51.509389
1409.000000	51.858689
1408.000000	52.182040
1407.000000	52.458528
1406.000000	52.820466
1405.000000	53.140574
1404.000000	53.538640
1403.000000	53.764907
1402.000000	54.144294
1401.000000	54.611146
1400.000000	54.993106
1399.000000	55.146672
1398.000000	55.329991
1397.000000	55.708483
1396.000000	56.179473
1395.000000	56.484705
1394.000000	56.633350
1393.000000	56.885455
1392.000000	57.208023
1391.000000	57.469635
1390.000000	57.663467
1389.000000	58.011201
1388.000000	58.311064
1387.000000	58.509482
1386.000000	58.719531
1385.000000	59.013914
1384.000000	59.184817
1383.000000	59.453811
1382.000000	59.675045
1381.000000	59.815190
1380.000000	59.901201
1379.000000	59.992469
1378.000000	60.051636
1377.000000	60.185518
1376.000000	60.280812
1375.000000	60.369171
1374.000000	60.468045
1373.000000	60.570609
1372.000000	60.721939
1371.000000	60.855596
1370.000000	60.922593
1369.000000	61.052448
1368.000000	61.195278
1367.000000	61.252096
1366.000000	61.300302
1365.000000	61.438322
1364.000000	61.487088
1363.000000	61.587639
1362.000000	61.720066
1361.000000	61.793998
1360.000000	61.725882
1359.000000	61.799031
1358.000000	61.872179
1357.000000	61.928886
1356.000000	62.064110
1355.000000	62.171819
1354.000000	62.243625
1353.000000	62.273712
1352.000000	62.417883
1351.000000	62.548186
1350.000000	62.684864
1349.000000	62.806218
1348.000000	62.948824
1347.000000	63.038638
1346.000000	63.133820
1345.000000	63.275083
1344.000000	63.381562
1343.000000	63.487258
1342.000000	63.603580
1341.000000	63.708604
1340.000000	63.812846
1339.000000	63.910601
1338.000000	64.004665
1337.000000	64.099064
1336.000000	64.176687
1335.000000	64.258223
1334.000000	64.341103
1333.000000	64.425883
1332.000000	64.511558
1331.000000	64.593990
1330.000000	64.650808
1329.000000	64.700804
1328.000000	64.770709
1327.000000	64.832896
1326.000000	64.869582
1325.000000	64.912644
1324.000000	64.966107
1323.000000	65.034669
1322.000000	65.077731
1321.000000	65.111397
1320.000000	65.144951
1319.000000	65.171906
1318.000000	65.201546
1317.000000	65.232751
1316.000000	65.273017
1315.000000	65.314288
1314.000000	65.333526
1313.000000	65.353659
1312.000000	65.393253
1311.000000	65.421438
1310.000000	65.437656
1309.000000	65.448617
1308.000000	65.472776
1307.000000	65.490560
1306.000000	65.510805
1305.000000	65.519976
1304.000000	65.525568
1303.000000	65.524785
1302.000000	65.525568
1301.000000	65.524785
1300.000000	65.518410
1299.000000	65.515167
1298.000000	65.517851
1297.000000	65.527694
1296.000000	65.525792
1295.000000	65.518634
1294.000000	65.511364
1293.000000	65.503087
1292.000000	65.490784
1291.000000	65.488323
1290.000000	65.481500
1289.000000	65.474454
1288.000000	65.464723
1287.000000	65.444926
1286.000000	65.437209
1285.000000	65.434972
1284.000000	65.421326
1283.000000	65.405444
1282.000000	65.401865
1281.000000	65.392582
1280.000000	65.372896
1279.000000	65.358468
1278.000000	65.358580
1277.000000	65.356231
1276.000000	65.348178
1275.000000	65.355896
1274.000000	65.377930
1273.000000	65.384976
1272.000000	65.390568
1271.000000	65.398845
1270.000000	65.401418
1269.000000	65.420655
1268.000000	65.450742
1267.000000	65.466848
1266.000000	65.475013
1265.000000	65.473559
1264.000000	65.467296
1263.000000	65.473671
1262.000000	65.488882
1261.000000	65.508903
1260.000000	65.516844
1259.000000	65.534069
1258.000000	65.537983
1257.000000	65.548833
1256.000000	65.553978
1255.000000	65.559794
1254.000000	65.552859
1253.000000	65.525680
1252.000000	65.503534
1251.000000	65.501186
1250.000000	65.501409
1249.000000	65.479823
1248.000000	65.463381
1247.000000	65.436314
1246.000000	65.425800
1245.000000	65.434860
1244.000000	65.412043
1243.000000	65.393253
1242.000000	65.371331
1241.000000	65.361041
1240.000000	65.349632
1239.000000	65.331737
1238.000000	65.340349
1237.000000	65.334533
1236.000000	65.324355
1235.000000	65.330283
1234.000000	65.315407
1233.000000	65.306795
1232.000000	65.300867
1231.000000	65.290800
1230.000000	65.266529
1229.000000	65.288116
1228.000000	65.287445
1227.000000	65.259819
1226.000000	65.238456
1225.000000	65.220225
1224.000000	65.210158
1223.000000	65.205013
1222.000000	65.183762
1221.000000	65.159939
1220.000000	65.108377
1219.000000	65.099429
1218.000000	65.065427
1217.000000	65.024156
1216.000000	64.979529
1215.000000	64.969350
1214.000000	64.944520
1213.000000	64.906380
1212.000000	64.854818
1211.000000	64.809520
1210.000000	64.775183
1209.000000	64.738385
1208.000000	64.698232
1207.000000	64.638841
1206.000000	64.625531
1205.000000	64.570726
1204.000000	64.530684
1203.000000	64.487064
1202.000000	64.428344
1201.000000	64.396467
1200.000000	64.332043
1199.000000	64.298377
1198.000000	64.254756
1197.000000	64.206997
1196.000000	64.142349
1195.000000	64.110361
1194.000000	64.027817
1193.000000	63.981401
1192.000000	63.930510
1191.000000	63.853671
1190.000000	63.820564
1189.000000	63.785444
1188.000000	63.751554
1187.000000	63.725382
1186.000000	63.714309
1185.000000	63.709387
1184.000000	63.740369
1183.000000	63.764528
1182.000000	63.803228
1181.000000	63.815531
1180.000000	63.863625
1179.000000	63.897515
1178.000000	63.940241
1177.000000	63.996388
1176.000000	64.009810
1175.000000	64.065175
1174.000000	64.117296
1173.000000	64.149508
1172.000000	64.187200
1171.000000	64.271198
1170.000000	64.346248
1169.000000	64.399599
1168.000000	64.494669
1167.000000	64.570055
1166.000000	64.664566
1165.000000	64.765900
1164.000000	64.859292
1163.000000	64.961521
1162.000000	65.053124
1161.000000	65.122022
1160.000000	65.235659
1159.000000	65.332296
1158.000000	65.426024
1157.000000	65.508791
1156.000000	65.588762
1155.000000	65.659786
1154.000000	65.700722
1153.000000	65.787404
1152.000000	65.830241
1151.000000	65.871737
1150.000000	65.928891
1149.000000	65.995440
1148.000000	66.035929
1147.000000	66.123506
1146.000000	66.147665
1145.000000	66.204036
1144.000000	66.267342
1143.000000	66.321923
1142.000000	66.364313
1141.000000	66.447864
1140.000000	66.531749
1139.000000	66.590805
1138.000000	66.674243
1137.000000	66.775465
1136.000000	66.848949
1135.000000	66.971869
1134.000000	67.034840
1133.000000	67.074546
1132.000000	67.127785
1131.000000	67.191091
1130.000000	67.256410
1129.000000	67.322176
1128.000000	67.356290
1127.000000	67.384028
1126.000000	67.421832
1125.000000	67.446886
1124.000000	67.485921
1123.000000	67.501691
1122.000000	67.520817
1121.000000	67.520594
1120.000000	67.516567
1119.000000	67.528647
1118.000000	67.525962
1117.000000	67.520258
1116.000000	67.505830
1115.000000	67.501132
1114.000000	67.490507
1113.000000	67.497218
1112.000000	67.493303
1111.000000	67.479210
1110.000000	67.466683
1109.000000	67.453821
1108.000000	67.453261
1107.000000	67.423174
1106.000000	67.426754
1105.000000	67.401588
1104.000000	67.386712
1103.000000	67.371836
1102.000000	67.369599
1101.000000	67.348796
1100.000000	67.304392
1099.000000	67.288622
1098.000000	67.261555
1097.000000	67.235942
1096.000000	67.212342
1095.000000	67.195341
1094.000000	67.167379
1093.000000	67.144674
1092.000000	67.110672
1091.000000	67.063025
1090.000000	67.045465
1089.000000	67.022089
1088.000000	66.995693
1087.000000	66.946256
1086.000000	66.910689
1085.000000	66.880154
1084.000000	66.838995
1083.000000	66.787992
1082.000000	66.754438
1081.000000	66.724686
1080.000000	66.675921
1079.000000	66.624918
1078.000000	66.582752
1077.000000	66.527052
1076.000000	66.516762
1075.000000	66.490701
1074.000000	66.443501
1073.000000	66.393282
1072.000000	66.339707
1071.000000	66.298994
1070.000000	66.266223
1069.000000	66.230320
1068.000000	66.179765
1067.000000	66.132230
1066.000000	66.086820
1065.000000	66.031455
1064.000000	66.001592
1063.000000	65.957636
1062.000000	65.910324
1061.000000	65.885047
1060.000000	65.854400
1059.000000	65.818945
1058.000000	65.776554
1057.000000	65.749040
1056.000000	65.710788
1055.000000	65.675444
1054.000000	65.625672
1053.000000	65.583617
1052.000000	65.565498
1051.000000	65.533621
1050.000000	65.496041
1049.000000	65.472553
1048.000000	65.453650
1047.000000	65.422221
1046.000000	65.389338
1045.000000	65.354889
1044.000000	65.323795
1043.000000	65.307801
1042.000000	65.281741
1041.000000	65.237002
1040.000000	65.223244
1039.000000	65.211836
1038.000000	65.182308
1037.000000	65.167097
1036.000000	65.162735
1035.000000	65.134885
1034.000000	65.089698
1033.000000	65.053795
1032.000000	65.027176
1031.000000	64.983555
1030.000000	64.959732
1029.000000	64.940941
1028.000000	64.893965
1027.000000	64.872490
1026.000000	64.852693
1025.000000	64.813323
1024.000000	64.796434
1023.000000	64.772722
1022.000000	64.729549
1021.000000	64.692416
1020.000000	64.666243
1019.000000	64.629110
1018.000000	64.607188
1017.000000	64.581239
1016.000000	64.521289
1015.000000	64.494781
1014.000000	64.472859
1013.000000	64.416600
1012.000000	64.387967
1011.000000	64.358327
1010.000000	64.339537
1009.000000	64.322648
1008.000000	64.286745
1007.000000	64.240104
1006.000000	64.210465
1005.000000	64.166173
1004.000000	64.104098
1003.000000	64.057122
1002.000000	64.025245
1001.000000	63.979387
1000.000000	63.920332
999.000000	63.880962
998.000000	63.827163
997.000000	63.793609
996.000000	63.748758
995.000000	63.708493
994.000000	63.653128
993.000000	63.616889
992.000000	63.563762
991.000000	63.511194
990.000000	63.465000
989.000000	63.429209
988.000000	63.353600
987.000000	63.312888
986.000000	63.285373
985.000000	63.223857
984.000000	63.217594
983.000000	63.188066
982.000000	63.130800
981.000000	63.094338
980.000000	63.079574
979.000000	63.046131
978.000000	62.995800
977.000000	62.963140
976.000000	62.973766
975.000000	62.936633
974.000000	62.904420
973.000000	62.900841
972.000000	62.904644
971.000000	62.874557
970.000000	62.834068
969.000000	62.832502
968.000000	62.814607
967.000000	62.822101
966.000000	62.801409
965.000000	62.790336
964.000000	62.815054
963.000000	62.807560
962.000000	62.836417
961.000000	62.816061
960.000000	62.829483
959.000000	62.843016
958.000000	62.831160
957.000000	62.839325
956.000000	62.859234
955.000000	62.827693
954.000000	62.855319
953.000000	62.845924
952.000000	62.842233
951.000000	62.851293
950.000000	62.836417
949.000000	62.813153
948.000000	62.840108
947.000000	62.816061
946.000000	62.787428
945.000000	62.773447
944.000000	62.765841
943.000000	62.735083
942.000000	62.750406
941.000000	62.690232
940.000000	62.632407
939.000000	62.607577
938.000000	62.649632
937.000000	62.609143
936.000000	62.566305
935.000000	62.573575
934.000000	62.532639
933.000000	62.530067
932.000000	62.495506
931.000000	62.466649
930.000000	62.470340
929.000000	62.420568
928.000000	62.389698
927.000000	62.360841
926.000000	62.367440
925.000000	62.328405
924.000000	62.285568
923.000000	62.295970
922.000000	62.251678
921.000000	62.302121
920.000000	62.272146
919.000000	62.279081
918.000000	62.242842
917.000000	62.236131
916.000000	62.263757
915.000000	62.268231
914.000000	62.293285
913.000000	62.306707
912.000000	62.305477
911.000000	62.315655
910.000000	62.345183
909.000000	62.409607
908.000000	62.426608
907.000000	62.392158
906.000000	62.400883
905.000000	62.448642
904.000000	62.465083
903.000000	62.472577
902.000000	62.486110
901.000000	62.473919
900.000000	62.479064
899.000000	62.508144
898.000000	62.491479
897.000000	62.537113
896.000000	62.512730
895.000000	62.481413
894.000000	62.398758
893.000000	62.406587
892.000000	62.408376
891.000000	62.383882
890.000000	62.362295
889.000000	62.331984
888.000000	62.307378
887.000000	62.243289
886.000000	62.149449
885.000000	62.069478
884.000000	62.036148
883.000000	61.956960
882.000000	61.847573
881.000000	61.757759
880.000000	61.717718
879.000000	61.562361
878.000000	61.488542
877.000000	61.405887
876.000000	61.276255
875.000000	61.182415
874.000000	61.036342
873.000000	60.956819
872.000000	60.880762
871.000000	60.750348
870.000000	60.643981
869.000000	60.520613
868.000000	60.422858
867.000000	60.269291
866.000000	60.151404
865.000000	59.926926
864.000000	59.733206
863.000000	59.592166
862.000000	59.446093
861.000000	59.233024
860.000000	59.064357
859.000000	58.998815
858.000000	60.336400
857.000000	60.434800
856.000000	60.311800
855.000000	60.262600
854.000000	60.132100
853.000000	60.382000
852.000000	60.487600
851.000000	60.761900
850.000000	60.704700
849.000000	60.611000
848.000000	60.859400
847.000000	60.880800
846.000000	60.920600
845.000000	61.140500
844.000000	61.560100
843.000000	61.778600
842.000000	61.710200
841.000000	61.738600
840.000000	62.169700
839.000000	61.952900
838.000000	61.988100
837.000000	62.152000
836.000000	62.065600
835.000000	62.066300
834.000000	62.182500
833.000000	62.124000
832.000000	62.165200
831.000000	62.267200
830.000000	62.141300
829.000000	62.173200
828.000000	62.224900
827.000000	62.350200
826.000000	62.375300
825.000000	62.263900
824.000000	62.202100
823.000000	62.262300
822.000000	62.265100
821.000000	62.313400
820.000000	62.245500
819.000000	62.307300
818.000000	62.148200
817.000000	62.229300
816.000000	62.155500
815.000000	61.931100
814.000000	62.040500
813.000000	62.152300
812.000000	62.063500
811.000000	62.048900
810.000000	62.055100
809.000000	61.948400
808.000000	61.806500
807.000000	61.801200
806.000000	61.818300
805.000000	61.876400
804.000000	61.900000
803.000000	61.790300
802.000000	61.732300
801.000000	61.718900
800.000000	61.697700
799.000000	61.709100
798.000000	61.717400
797.000000	61.622700
796.000000	61.515200
795.000000	61.514300
794.000000	61.489900
793.000000	61.496700
792.000000	61.420700
791.000000	61.335800
790.000000	61.308000
789.000000	61.146100
788.000000	61.102300
787.000000	61.070400
786.000000	60.983000
785.000000	60.877900
784.000000	60.742400
783.000000	60.736400
782.000000	60.716300
781.000000	60.580900
780.000000	60.502900
779.000000	60.401000
778.000000	60.311000
777.000000	60.235100
776.000000	60.156600
775.000000	60.054900
774.000000	59.955300
773.000000	59.826200
772.000000	59.693600
771.000000	59.622700
770.000000	59.432000
769.000000	59.216200
768.000000	59.155300
767.000000	59.109400
766.000000	58.984000
765.000000	58.859800
764.000000	58.819800
763.000000	58.765000
762.000000	58.576700
761.000000	58.447800
760.000000	58.366700
759.000000	58.265400
758.000000	58.165400
757.000000	58.065900
756.000000	57.963500
755.000000	57.887400
754.000000	57.781000
753.000000	57.688400
752.000000	57.638500
751.000000	57.522600
750.000000	57.428500
749.000000	57.312900
748.000000	57.224700
747.000000	57.179500
746.000000	57.099800
745.000000	57.077400
744.000000	56.968000
743.000000	56.854300
742.000000	56.816200
741.000000	56.785400
740.000000	56.703800
739.000000	56.633400
738.000000	56.582300
737.000000	56.518300
736.000000	56.417500
735.000000	56.333100
734.000000	56.307800
733.000000	56.238500
732.000000	56.164600
731.000000	56.118200
730.000000	56.107400
729.000000	56.014900
728.000000	55.918200
727.000000	55.836000
726.000000	55.743700
725.000000	55.688200
724.000000	55.607400
723.000000	55.521500
722.000000	55.437300
721.000000	55.328000
720.000000	55.182000
719.000000	55.138900
718.000000	55.051400
717.000000	54.930400
716.000000	54.829900
715.000000	54.730500
714.000000	54.585800
713.000000	54.453000
712.000000	54.347600
711.000000	54.221400
710.000000	54.109600
709.000000	53.968700
708.000000	53.886500
707.000000	53.754300
706.000000	53.650000
705.000000	53.487500
704.000000	53.348500
703.000000	53.185200
702.000000	53.087400
701.000000	52.963300
700.000000	52.869300
699.000000	52.731900
698.000000	52.627800
697.000000	52.539900
696.000000	52.454500
695.000000	52.366000
694.000000	52.254900
693.000000	52.201000
692.000000	52.095300
691.000000	52.031800
690.000000	52.008000
689.000000	51.957100
688.000000	51.844500
687.000000	51.784200
686.000000	51.759200
685.000000	51.750000
684.000000	51.657400
683.000000	51.671000
682.000000	51.637700
681.000000	51.568200
680.000000	51.553200
679.000000	51.513700
678.000000	51.495400
677.000000	51.441700
676.000000	51.412900
675.000000	51.352400
674.000000	51.295000
673.000000	51.282500
672.000000	51.241600
671.000000	51.180100
670.000000	51.070500
669.000000	51.006800
668.000000	50.906000
667.000000	50.809400
666.000000	50.713000
665.000000	50.577800
664.000000	50.431200
663.000000	50.252900
662.000000	50.125100
661.000000	49.960700
660.000000	49.734500
659.000000	49.469700
658.000000	49.292200
657.000000	49.035900
656.000000	48.831800
655.000000	48.576800
654.000000	48.370100
653.000000	48.119800
652.000000	47.870700
651.000000	47.656300
650.000000	47.447900
649.000000	47.218700
648.000000	47.001200
647.000000	46.820500
646.000000	46.564700
645.000000	46.311300
644.000000	46.110700
643.000000	45.884800
642.000000	45.661000
641.000000	45.438600
640.000000	45.238500
639.000000	45.045500
638.000000	44.891900
637.000000	44.707300
636.000000	44.605000
635.000000	44.524400
634.000000	44.409000
633.000000	44.369400
632.000000	44.382500
631.000000	44.379900
630.000000	44.435800
629.000000	44.548500
628.000000	44.668400
627.000000	44.816300
626.000000	44.932000
625.000000	45.100900
624.000000	45.309900
623.000000	45.555300
622.000000	45.769500
621.000000	45.991400
620.000000	46.204400
619.000000	46.445400
618.000000	46.701200
617.000000	46.924800
616.000000	47.199200
615.000000	47.499700
614.000000	47.804600
613.000000	48.090700
612.000000	48.432200
611.000000	48.792900
610.000000	49.169400
609.000000	49.564300
608.000000	49.883500
607.000000	50.311700
606.000000	50.694500
605.000000	51.039100
604.000000	51.410900
603.000000	51.771900
602.000000	52.141400
601.000000	52.515600
600.000000	52.819000
599.000000	53.167700
598.000000	53.411300
597.000000	53.702000
596.000000	53.992500
595.000000	54.241400
594.000000	54.494300
593.000000	54.678700
592.000000	54.951900
591.000000	55.145900
590.000000	55.338200
589.000000	55.630700
588.000000	55.868900
587.000000	56.077500
586.000000	56.246200
585.000000	56.531700
584.000000	56.752800
583.000000	57.001500
582.000000	57.240500
581.000000	57.442400
580.000000	57.655500
579.000000	57.848300
578.000000	58.046400
577.000000	58.184600
576.000000	58.330200
575.000000	58.500700
574.000000	58.596400
573.000000	58.717100
572.000000	58.817500
571.000000	58.907200
570.000000	58.970700
569.000000	59.054200
568.000000	59.133500
567.000000	59.153600
566.000000	59.192900
565.000000	59.180500
564.000000	59.214700
563.000000	59.201700
562.000000	59.199900
561.000000	59.218600
560.000000	59.220200
559.000000	59.370700
558.000000	59.392100
557.000000	59.378000
556.000000	59.293400
555.000000	59.217100
554.000000	59.103800
553.000000	59.026600
552.000000	58.908700
551.000000	58.736300
550.000000	58.512800
549.000000	58.281100
548.000000	58.037900
547.000000	57.736500
546.000000	57.347500
545.000000	56.977400
544.000000	56.552300
543.000000	56.064000
542.000000	55.546900
541.000000	54.994100
540.000000	54.455100
539.000000	53.828800
538.000000	53.233700
537.000000	52.572900
536.000000	51.925700
535.000000	51.237300
534.000000	50.530900
533.000000	49.804100
532.000000	49.076100
531.000000	48.349900
530.000000	47.627700
529.000000	46.895400
528.000000	46.200500
527.000000	45.499700
526.000000	44.773700
525.000000	44.060600
524.000000	43.357100
523.000000	42.668100
522.000000	41.948700
521.000000	41.235500
520.000000	40.519300
519.000000	39.844900
518.000000	39.153300
517.000000	38.492100
516.000000	37.808500
515.000000	37.160300
514.000000	36.516100
513.000000	35.882400
512.000000	35.254600
511.000000	34.611400
510.000000	34.042400
509.000000	33.462200
508.000000	32.903300
507.000000	32.375300
506.000000	31.854000
505.000000	31.370600
504.000000	30.895400
503.000000	30.444500
502.000000	29.992600
501.000000	29.558600
500.000000	29.103100
499.000000	28.680300
498.000000	28.253200
497.000000	27.867300
496.000000	27.479300
495.000000	27.070100
494.000000	26.682100
493.000000	26.304500
492.000000	25.931200
491.000000	25.561400
490.000000	25.185200
489.000000	24.809900
488.000000	24.458300
487.000000	24.137800
486.000000	23.787600
485.000000	23.467300
484.000000	23.138500
483.000000	22.805300
482.000000	22.489000
481.000000	22.166800
480.000000	21.852100
479.000000	21.566300
478.000000	21.319500
477.000000	21.067300
476.000000	20.827700
475.000000	20.592700
474.000000	20.367400
473.000000	20.151100
472.000000	19.960000
471.000000	19.772200
470.000000	19.582000
469.000000	19.424000
468.000000	19.260100
467.000000	19.090100
466.000000	18.931800
465.000000	18.785800
464.000000	18.623100
463.000000	18.468700
462.000000	18.312800
461.000000	18.144800
460.000000	17.974000
459.000000	17.795500
458.000000	17.609600
457.000000	17.394400
456.000000	17.169000
455.000000	16.949400
454.000000	16.716900
453.000000	16.463100
452.000000	16.200800
451.000000	15.929400
450.000000	15.665000
449.000000	15.373100
448.000000	15.067800
447.000000	14.791200
446.000000	14.529400
445.000000	14.269700
444.000000	14.003100
443.000000	13.736300
442.000000	13.491600
441.000000	13.266400
440.000000	13.080600
439.000000	12.912700
438.000000	12.754100
437.000000	12.613400
436.000000	12.492700
435.000000	12.393800
434.000000	12.328300
433.000000	12.283000
432.000000	12.251200
431.000000	12.231700
430.000000	12.231900
429.000000	12.239900
428.000000	12.252500
427.000000	12.283100
426.000000	12.319900
425.000000	12.364700
424.000000	12.387500
423.000000	12.436000
422.000000	12.465900
421.000000	12.470400
420.000000	12.503300
419.000000	12.524000
418.000000	12.528700
417.000000	12.530400
416.000000	12.519200
415.000000	12.505300
414.000000	12.485200
413.000000	12.461100
412.000000	12.417400
411.000000	12.364800
410.000000	12.322800
409.000000	12.251400
408.000000	12.184500
407.000000	12.110200
406.000000	12.019800
405.000000	11.920500
404.000000	11.817600
403.000000	11.684900
402.000000	11.553700
401.000000	11.420900
400.000000	11.275900
399.000000	11.126300
398.000000	10.954300
397.000000	10.792600
396.000000	10.615000
395.000000	10.455600
394.000000	10.247300
393.000000	10.049900
392.000000	9.863400
391.000000	9.658000
390.000000	9.453000
389.000000	9.228100
388.000000	9.011100
387.000000	8.799100
386.000000	8.588000
385.000000	8.382600
384.000000	8.164000
383.000000	7.959000
382.000000	7.765200
381.000000	7.567200
380.000000	7.367600
379.000000	7.203600
378.000000	7.024100
377.000000	6.859600
376.000000	6.839700
375.000000	6.383000
374.000000	6.217300
373.000000	6.157700
372.000000	6.094400
371.000000	6.071800
370.000000	6.018600
369.000000	5.976800
368.000000	5.860000
367.000000	5.771700
366.000000	5.752200
365.000000	5.716400
364.000000	5.647900
363.000000	5.574900
362.000000	5.606000
361.000000	5.430500
360.000000	5.609900
359.000000	5.409300
358.000000	5.287300
357.000000	5.238700
356.000000	5.301700
355.000000	5.271900
354.000000	5.183800
353.000000	5.293600
352.000000	5.186700
351.000000	5.132700
350.000000	5.025400
349.000000	5.072600
348.000000	5.113600
347.000000	5.078100
346.000000	5.041700
345.000000	5.129100
344.000000	5.220400
343.000000	5.228800
342.000000	5.217300
341.000000	5.149200
340.000000	5.180700
339.000000	5.223100
338.000000	5.258700
337.000000	5.232400
336.000000	5.181500
335.000000	5.169200
334.000000	5.078700
333.000000	4.801700
332.000000	4.867500
331.000000	5.171400
330.000000	5.402300
329.000000	5.494000
328.000000	5.179900
327.000000	5.247700
326.000000	5.415200
325.000000	5.300500
324.000000	5.380400
323.000000	5.319200
322.000000	5.683600
321.000000	5.404200
320.000000	5.121800
319.000000	5.378200
318.000000	5.843600
317.000000	5.810500
316.000000	5.008600
315.000000	4.964700
314.000000	4.855100
313.000000	4.891500
312.000000	4.964600
311.000000	4.863500
310.000000	4.942700
309.000000	4.913600
308.000000	4.873000
307.000000	4.898000
306.000000	4.873700
305.000000	4.887200
304.000000	4.899600
303.000000	4.846300
302.000000	4.860800
301.000000	4.796700
300.000000	4.862600
299.000000	4.928400
298.000000	4.808000
297.000000	4.869300
296.000000	4.907000
295.000000	4.764000
294.000000	4.978200
293.000000	4.856900
292.000000	4.920800
291.000000	4.851100
290.000000	4.839000
289.000000	4.868600
288.000000	4.898100
287.000000	4.877300
286.000000	4.893700
285.000000	4.913100
284.000000	4.875000
283.000000	4.846900
282.000000	4.846500
281.000000	4.923200
280.000000	4.884200
279.000000	4.924700
278.000000	4.892100
277.000000	4.903400
276.000000	4.975300
275.000000	5.003000
274.000000	5.027500
273.000000	4.971500
272.000000	5.013200
271.000000	5.069200
270.000000	4.991300
269.000000	5.000600
268.000000	5.031400
267.000000	5.074900
266.000000	5.067800
265.000000	5.134300
264.000000	5.130000
263.000000	5.167100
262.000000	5.191200
261.000000	5.166200
260.000000	5.181000
259.000000	5.222400
258.000000	5.265900
257.000000	5.285600
256.000000	5.303700
255.000000	5.318000
254.000000	5.281900
253.000000	5.340600
252.000000	5.287100
251.000000	5.360500
250.000000	5.375200
