PE UV       SUBTECH     SPECTRUM    ASCII       PEDS        4.00        
   -1
CICIMAUCR0238-3.ASC
24/06/20
15:10:05.00
24/06/20
15:10:05.00
Vinicio Soto Monge
C. cupreomarginata. Sex M. Ventral 
250,000000
1
Lambda 1050
1050L1511233
PerkinElmer UV WinLab 6.3.2.0749 / 2.02.05 Lambda 900 UV/VIS/NIR, Aug  7 2015 09:38:08

0
0
3350/servo 860,8/2
0
0
UV/VIS
1
1
1
DoubleDePol,CommonBeamDepol,RBeamAtt,SBeamAtt,60mm sphere, WB InGaAs Detector
0
0
0
0
Program
Program
3350/servo 860,8/2
3350/0,2 860,8/0,2
3350/0,2 860,8/0,2
0
15.00
 
 
 
0
 
860,8
319,2
860,8
Front
100
on
S:100 R:100
0
0
0
0
 
0
 
 
 
0
 
 
0
0
0
0
0
 
 
 
 
0
0


0
0
#HDR
-1
-1
#GR
nm
%R
1.0
0.0
2500,000000
-1,000000
2251
8
58,836000
3,946800
#DATA
2482.000000	6.220970
2481.000000	6.299036
2480.000000	6.256597
2479.000000	6.260617
2478.000000	6.203883
2477.000000	6.205446
2476.000000	6.269776
2475.000000	6.222869
2474.000000	6.171159
2473.000000	6.181658
2472.000000	6.195060
2471.000000	6.214157
2470.000000	6.153848
2469.000000	6.146031
2468.000000	6.148599
2467.000000	6.179536
2466.000000	6.152285
2465.000000	6.164458
2464.000000	6.153960
2463.000000	6.191374
2462.000000	6.178865
2461.000000	6.167921
2460.000000	6.144690
2459.000000	6.172835
2458.000000	6.197293
2457.000000	6.192714
2456.000000	6.223539
2455.000000	6.243977
2454.000000	6.212259
2453.000000	6.207680
2452.000000	6.238951
2451.000000	6.294904
2450.000000	6.316124
2449.000000	6.357782
2448.000000	6.331536
2447.000000	6.352868
2446.000000	6.357670
2445.000000	6.373752
2444.000000	6.424233
2443.000000	6.460195
2442.000000	6.464216
2441.000000	6.451149
2440.000000	6.475942
2439.000000	6.481638
2438.000000	6.486441
2437.000000	6.534018
2436.000000	6.549318
2435.000000	6.572102
2434.000000	6.582823
2433.000000	6.574670
2432.000000	6.611079
2431.000000	6.616105
2430.000000	6.611526
2429.000000	6.661783
2428.000000	6.679206
2427.000000	6.687135
2426.000000	6.690486
2425.000000	6.700984
2424.000000	6.706791
2423.000000	6.725666
2422.000000	6.733595
2421.000000	6.732255
2420.000000	6.758612
2419.000000	6.771568
2418.000000	6.765983
2417.000000	6.767547
2416.000000	6.793569
2415.000000	6.790442
2414.000000	6.804514
2413.000000	6.823947
2412.000000	6.816911
2411.000000	6.833440
2410.000000	6.851198
2409.000000	6.865493
2408.000000	6.866051
2407.000000	6.873422
2406.000000	6.893637
2405.000000	6.898104
2404.000000	6.897546
2403.000000	6.907709
2402.000000	6.911618
2401.000000	6.920218
2400.000000	6.931721
2399.000000	6.944900
2398.000000	6.953052
2397.000000	6.972597
2396.000000	6.987674
2395.000000	6.993035
2394.000000	6.999624
2393.000000	7.025088
2392.000000	7.035028
2391.000000	7.041617
2390.000000	7.053009
2389.000000	7.053456
2388.000000	7.069650
2387.000000	7.067863
2386.000000	7.065852
2385.000000	7.078808
2384.000000	7.078473
2383.000000	7.087966
2382.000000	7.096230
2381.000000	7.094555
2380.000000	7.088412
2379.000000	7.089082
2378.000000	7.087631
2377.000000	7.085732
2376.000000	7.080148
2375.000000	7.071548
2374.000000	7.060268
2373.000000	7.053344
2372.000000	7.038937
2371.000000	7.037262
2370.000000	7.033464
2369.000000	7.021738
2368.000000	7.012468
2367.000000	6.995269
2366.000000	6.968241
2365.000000	6.966231
2364.000000	6.961875
2363.000000	6.950707
2362.000000	6.942889
2361.000000	6.910725
2360.000000	6.870742
2359.000000	6.864823
2358.000000	6.865270
2357.000000	6.854883
2356.000000	6.836902
2355.000000	6.820150
2354.000000	6.815794
2353.000000	6.815012
2352.000000	6.806524
2351.000000	6.802392
2350.000000	6.801499
2349.000000	6.814119
2348.000000	6.824394
2347.000000	6.825845
2346.000000	6.849299
2345.000000	6.859685
2344.000000	6.874204
2343.000000	6.880123
2342.000000	6.887606
2341.000000	6.894196
2340.000000	6.898775
2339.000000	6.924797
2338.000000	6.929711
2337.000000	6.920888
2336.000000	6.917537
2335.000000	6.928147
2334.000000	6.932168
2333.000000	6.925355
2332.000000	6.924462
2331.000000	6.912288
2330.000000	6.893860
2329.000000	6.886713
2328.000000	6.872641
2327.000000	6.853878
2326.000000	6.837796
2325.000000	6.821825
2324.000000	6.797478
2323.000000	6.762856
2322.000000	6.737839
2321.000000	6.723991
2320.000000	6.690151
2319.000000	6.672393
2318.000000	6.633751
2317.000000	6.608510
2316.000000	6.584722
2315.000000	6.544404
2314.000000	6.514138
2313.000000	6.470023
2312.000000	6.449027
2311.000000	6.427807
2310.000000	6.409491
2309.000000	6.391510
2308.000000	6.367275
2307.000000	6.366158
2306.000000	6.351304
2305.000000	6.344827
2304.000000	6.345385
2303.000000	6.353649
2302.000000	6.365488
2301.000000	6.399551
2300.000000	6.401115
2299.000000	6.421664
2298.000000	6.428365
2297.000000	6.451707
2296.000000	6.467343
2295.000000	6.486106
2294.000000	6.510676
2293.000000	6.529662
2292.000000	6.556578
2291.000000	6.578579
2290.000000	6.579473
2289.000000	6.587402
2288.000000	6.597677
2287.000000	6.602703
2286.000000	6.598235
2285.000000	6.589077
2284.000000	6.587402
2283.000000	6.575899
2282.000000	6.576234
2281.000000	6.569198
2280.000000	6.543622
2279.000000	6.538373
2278.000000	6.519611
2277.000000	6.508889
2276.000000	6.498949
2275.000000	6.476948
2274.000000	6.478176
2273.000000	6.463434
2272.000000	6.463099
2271.000000	6.470917
2270.000000	6.480745
2269.000000	6.482532
2268.000000	6.509112
2267.000000	6.510117
2266.000000	6.520951
2265.000000	6.543622
2264.000000	6.594326
2263.000000	6.653407
2262.000000	6.690151
2261.000000	6.743200
2260.000000	6.807865
2259.000000	6.869290
2258.000000	6.922451
2257.000000	7.027322
2256.000000	7.089641
2255.000000	7.185353
2254.000000	7.269562
2253.000000	7.345283
2252.000000	7.439991
2251.000000	7.527327
2250.000000	7.616003
2249.000000	7.715401
2248.000000	7.769344
2247.000000	7.847522
2246.000000	7.914979
2245.000000	8.032469
2244.000000	8.065863
2243.000000	8.126953
2242.000000	8.203233
2241.000000	8.255277
2240.000000	8.311565
2239.000000	8.343283
2238.000000	8.401135
2237.000000	8.441341
2236.000000	8.490035
2235.000000	8.497518
2234.000000	8.549785
2233.000000	8.582620
2232.000000	8.628745
2231.000000	8.636005
2230.000000	8.659681
2229.000000	8.673753
2228.000000	8.693745
2227.000000	8.713736
2226.000000	8.721330
2225.000000	8.708264
2224.000000	8.725351
2223.000000	8.720437
2222.000000	8.727473
2221.000000	8.745342
2220.000000	8.726356
2219.000000	8.699329
2218.000000	8.712284
2217.000000	8.674312
2216.000000	8.679561
2215.000000	8.665489
2214.000000	8.660687
2213.000000	8.668058
2212.000000	8.632096
2211.000000	8.657001
2210.000000	8.639913
2209.000000	8.633436
2208.000000	8.622826
2207.000000	8.617800
2206.000000	8.634999
2205.000000	8.605627
2204.000000	8.584742
2203.000000	8.583402
2202.000000	8.585859
2201.000000	8.579493
2200.000000	8.599708
2199.000000	8.567543
2198.000000	8.559948
2197.000000	8.564639
2196.000000	8.548222
2195.000000	8.573797
2194.000000	8.544089
2193.000000	8.578264
2192.000000	8.544871
2191.000000	8.546546
2190.000000	8.527114
2189.000000	8.523205
2188.000000	8.513600
2187.000000	8.524657
2186.000000	8.512818
2185.000000	8.527560
2184.000000	8.526779
2183.000000	8.499416
2182.000000	8.480653
2181.000000	8.482217
2180.000000	8.501873
2179.000000	8.484339
2178.000000	8.465576
2177.000000	8.475404
2176.000000	8.478755
2175.000000	8.477303
2174.000000	8.469932
2173.000000	8.471830
2172.000000	8.474176
2171.000000	8.480542
2170.000000	8.464571
2169.000000	8.473282
2168.000000	8.491710
2167.000000	8.478643
2166.000000	8.495172
2165.000000	8.507457
2164.000000	8.515834
2163.000000	8.510249
2162.000000	8.536607
2161.000000	8.546658
2160.000000	8.561512
2159.000000	8.567655
2158.000000	8.589098
2157.000000	8.596357
2156.000000	8.585077
2155.000000	8.622044
2154.000000	8.649071
2153.000000	8.649295
2152.000000	8.671520
2151.000000	8.685257
2150.000000	8.716193
2149.000000	8.745566
2148.000000	8.756064
2147.000000	8.771364
2146.000000	8.771476
2145.000000	8.784766
2144.000000	8.809002
2143.000000	8.825642
2142.000000	8.839714
2141.000000	8.857025
2140.000000	8.864396
2139.000000	8.873219
2138.000000	8.881707
2137.000000	8.905049
2136.000000	8.923812
2135.000000	8.931853
2134.000000	8.939001
2133.000000	8.940899
2132.000000	8.947154
2131.000000	8.950392
2130.000000	8.947712
2129.000000	8.963683
2128.000000	8.963459
2127.000000	8.966586
2126.000000	8.966921
2125.000000	8.956200
2124.000000	8.972059
2123.000000	8.959215
2122.000000	8.960221
2121.000000	8.949611
2120.000000	8.933305
2119.000000	8.935092
2118.000000	8.928614
2117.000000	8.914207
2116.000000	8.898571
2115.000000	8.884276
2114.000000	8.873666
2113.000000	8.870874
2112.000000	8.854345
2111.000000	8.836811
2110.000000	8.824637
2109.000000	8.805875
2108.000000	8.789680
2107.000000	8.771923
2106.000000	8.767679
2105.000000	8.752937
2104.000000	8.748693
2103.000000	8.738306
2102.000000	8.724234
2101.000000	8.703908
2100.000000	8.694080
2099.000000	8.690059
2098.000000	8.673195
2097.000000	8.662585
2096.000000	8.661580
2095.000000	8.648066
2094.000000	8.628075
2093.000000	8.617912
2092.000000	8.608642
2091.000000	8.608642
2090.000000	8.606185
2089.000000	8.576254
2088.000000	8.565644
2087.000000	8.568436
2086.000000	8.557491
2085.000000	8.538282
2084.000000	8.530799
2083.000000	8.530017
2082.000000	8.513265
2081.000000	8.491933
2080.000000	8.474511
2079.000000	8.474846
2078.000000	8.472054
2077.000000	8.449382
2076.000000	8.435198
2075.000000	8.414425
2074.000000	8.389743
2073.000000	8.383042
2072.000000	8.375671
2071.000000	8.342166
2070.000000	8.315921
2069.000000	8.310560
2068.000000	8.301737
2067.000000	8.272923
2066.000000	8.259074
2065.000000	8.252597
2064.000000	8.237184
2063.000000	8.214513
2062.000000	8.199547
2061.000000	8.187597
2060.000000	8.179668
2059.000000	8.168834
2058.000000	8.157554
2057.000000	8.153869
2056.000000	8.155321
2055.000000	8.158448
2054.000000	8.169728
2053.000000	8.186480
2052.000000	8.207588
2051.000000	8.213284
2050.000000	8.238860
2049.000000	8.273370
2048.000000	8.300397
2047.000000	8.329323
2046.000000	8.352106
2045.000000	8.387621
2044.000000	8.438661
2043.000000	8.489141
2042.000000	8.535825
2041.000000	8.572122
2040.000000	8.612886
2039.000000	8.648066
2038.000000	8.682800
2037.000000	8.713289
2036.000000	8.739870
2035.000000	8.790462
2034.000000	8.833684
2033.000000	8.852223
2032.000000	8.879697
2031.000000	8.929284
2030.000000	8.965246
2029.000000	8.986913
2028.000000	9.013270
2027.000000	9.016956
2026.000000	9.024662
2025.000000	9.049120
2024.000000	9.070005
2023.000000	9.086646
2022.000000	9.080168
2021.000000	9.092677
2020.000000	9.102393
2019.000000	9.137797
2018.000000	9.137908
2017.000000	9.142599
2016.000000	9.150528
2015.000000	9.157676
2014.000000	9.161920
2013.000000	9.156224
2012.000000	9.166722
2011.000000	9.174875
2010.000000	9.162032
2009.000000	9.156001
2008.000000	9.155554
2007.000000	9.115907
2006.000000	9.105855
2005.000000	9.109988
2004.000000	9.099154
2003.000000	9.069670
2002.000000	9.038510
2001.000000	9.007686
2000.000000	8.992832
1999.000000	8.982222
1998.000000	8.962678
1997.000000	8.941569
1996.000000	8.912085
1995.000000	8.885393
1994.000000	8.847644
1993.000000	8.828434
1992.000000	8.796046
1991.000000	8.771029
1990.000000	8.734509
1989.000000	8.708487
1988.000000	8.677886
1987.000000	8.633994
1986.000000	8.609871
1985.000000	8.576142
1984.000000	8.552131
1983.000000	8.496512
1982.000000	8.464013
1981.000000	8.426934
1980.000000	8.394322
1979.000000	8.374443
1978.000000	8.329658
1977.000000	8.277949
1976.000000	8.251480
1975.000000	8.229478
1974.000000	8.188826
1973.000000	8.166712
1972.000000	8.128740
1971.000000	8.108749
1970.000000	8.071112
1969.000000	8.046318
1968.000000	8.002985
1967.000000	8.000751
1966.000000	7.963449
1965.000000	7.924472
1964.000000	7.894094
1963.000000	7.878012
1962.000000	7.856904
1961.000000	7.808098
1960.000000	7.788889
1959.000000	7.756836
1958.000000	7.773588
1957.000000	7.723554
1956.000000	7.685917
1955.000000	7.668271
1954.000000	7.643924
1953.000000	7.619689
1952.000000	7.603830
1951.000000	7.614328
1950.000000	7.569320
1949.000000	7.551785
1948.000000	7.508676
1947.000000	7.496949
1946.000000	7.499741
1945.000000	7.483994
1944.000000	7.483435
1943.000000	7.440996
1942.000000	7.434965
1941.000000	7.407379
1940.000000	7.412740
1939.000000	7.409389
1938.000000	7.395988
1937.000000	7.395429
1936.000000	7.419329
1935.000000	7.396546
1934.000000	7.402577
1933.000000	7.428264
1932.000000	7.425919
1931.000000	7.456631
1930.000000	7.441666
1929.000000	7.469475
1928.000000	7.509346
1927.000000	7.518727
1926.000000	7.534586
1925.000000	7.567644
1924.000000	7.620024
1923.000000	7.644147
1922.000000	7.701217
1921.000000	7.738184
1920.000000	7.761191
1919.000000	7.815246
1918.000000	7.880022
1917.000000	7.938991
1916.000000	7.990476
1915.000000	8.059720
1914.000000	8.117907
1913.000000	8.171180
1912.000000	8.283421
1911.000000	8.374555
1910.000000	8.429279
1909.000000	8.494502
1908.000000	8.593677
1907.000000	8.672302
1906.000000	8.770806
1905.000000	8.864508
1904.000000	8.988811
1903.000000	9.111439
1902.000000	9.228483
1901.000000	9.360269
1900.000000	9.493842
1899.000000	9.634004
1898.000000	9.798179
1897.000000	9.936777
1896.000000	10.109216
1895.000000	10.260211
1894.000000	10.385408
1893.000000	10.545897
1892.000000	10.747596
1891.000000	10.939021
1890.000000	11.189526
1889.000000	11.401277
1888.000000	11.629781
1887.000000	11.873697
1886.000000	12.131126
1885.000000	12.424741
1884.000000	12.760460
1883.000000	13.126781
1882.000000	13.549613
1881.000000	13.942737
1880.000000	14.373834
1879.000000	14.733900
1878.000000	15.135624
1877.000000	15.575878
1876.000000	15.968668
1875.000000	16.365366
1874.000000	16.744083
1873.000000	17.136873
1872.000000	17.540384
1871.000000	17.896206
1870.000000	18.239743
1869.000000	18.575127
1868.000000	18.910735
1867.000000	19.164255
1866.000000	19.357355
1865.000000	19.541409
1864.000000	19.707705
1863.000000	19.852335
1862.000000	19.958322
1861.000000	20.100159
1860.000000	20.224128
1859.000000	20.358817
1858.000000	20.465363
1857.000000	20.557948
1856.000000	20.615242
1855.000000	20.669296
1854.000000	20.677337
1853.000000	20.707604
1852.000000	20.709279
1851.000000	20.713634
1850.000000	20.698446
1849.000000	20.695542
1848.000000	20.676556
1847.000000	20.657011
1846.000000	20.663824
1845.000000	20.626187
1844.000000	20.558283
1843.000000	20.528799
1842.000000	20.499091
1841.000000	20.485578
1840.000000	20.479770
1839.000000	20.464023
1838.000000	20.428954
1837.000000	20.410415
1836.000000	20.357030
1835.000000	20.321627
1834.000000	20.273045
1833.000000	20.197435
1832.000000	20.117247
1831.000000	20.070340
1830.000000	20.013382
1829.000000	19.933305
1828.000000	19.872549
1827.000000	19.812464
1826.000000	19.739200
1825.000000	19.669621
1824.000000	19.608084
1823.000000	19.547217
1822.000000	19.486349
1821.000000	19.461667
1820.000000	19.460550
1819.000000	19.449941
1818.000000	19.410963
1817.000000	19.375560
1816.000000	19.342278
1815.000000	19.318155
1814.000000	19.321282
1813.000000	19.302519
1812.000000	19.294589
1811.000000	19.277502
1810.000000	19.243997
1809.000000	19.218087
1808.000000	19.174307
1807.000000	19.125278
1806.000000	19.076919
1805.000000	19.033921
1804.000000	18.986233
1803.000000	18.940331
1802.000000	18.887170
1801.000000	18.830993
1800.000000	18.795143
1799.000000	18.749241
1798.000000	18.687815
1797.000000	18.646381
1796.000000	18.583503
1795.000000	18.533134
1794.000000	18.490918
1793.000000	18.436975
1792.000000	18.389845
1791.000000	18.343273
1790.000000	18.294468
1789.000000	18.215731
1788.000000	18.160783
1787.000000	18.109185
1786.000000	18.038825
1785.000000	17.971815
1784.000000	17.901455
1783.000000	17.821602
1782.000000	17.754927
1781.000000	17.685683
1780.000000	17.606053
1779.000000	17.535581
1778.000000	17.452154
1777.000000	17.375539
1776.000000	17.294346
1775.000000	17.197740
1774.000000	17.107388
1773.000000	17.004975
1772.000000	16.899658
1771.000000	16.790320
1770.000000	16.678079
1769.000000	16.569746
1768.000000	16.460855
1767.000000	16.352299
1766.000000	16.261277
1765.000000	16.182429
1764.000000	16.126699
1763.000000	16.085153
1762.000000	16.060583
1761.000000	16.053212
1760.000000	16.092524
1759.000000	16.138091
1758.000000	16.192816
1757.000000	16.267085
1756.000000	16.324602
1755.000000	16.372849
1754.000000	16.427015
1753.000000	16.462977
1752.000000	16.476602
1751.000000	16.477496
1750.000000	16.467556
1749.000000	16.437067
1748.000000	16.414507
1747.000000	16.350289
1746.000000	16.287523
1745.000000	16.207335
1744.000000	16.109165
1743.000000	15.996254
1742.000000	15.850507
1741.000000	15.683318
1740.000000	15.506412
1739.000000	15.316550
1738.000000	15.136629
1737.000000	14.973125
1736.000000	14.807722
1735.000000	14.669570
1734.000000	14.599322
1733.000000	14.546161
1732.000000	14.538901
1731.000000	14.555207
1730.000000	14.592844
1729.000000	14.670687
1728.000000	14.781477
1727.000000	14.855411
1726.000000	14.953245
1725.000000	15.056999
1724.000000	15.107033
1723.000000	15.178175
1722.000000	15.213802
1721.000000	15.236362
1720.000000	15.279248
1719.000000	15.296224
1718.000000	15.294102
1717.000000	15.317220
1716.000000	15.363569
1715.000000	15.430132
1714.000000	15.501274
1713.000000	15.555217
1712.000000	15.604469
1711.000000	15.652046
1710.000000	15.685216
1709.000000	15.705543
1708.000000	15.728438
1707.000000	15.696831
1706.000000	15.669581
1705.000000	15.641883
1704.000000	15.594865
1703.000000	15.544272
1702.000000	15.487314
1701.000000	15.388474
1700.000000	15.282375
1699.000000	15.137076
1698.000000	15.018468
1697.000000	14.909019
1696.000000	14.800575
1695.000000	14.719046
1694.000000	14.715360
1693.000000	14.735128
1692.000000	14.812748
1691.000000	14.950565
1690.000000	15.095306
1689.000000	15.237926
1688.000000	15.341344
1687.000000	15.415613
1686.000000	15.479273
1685.000000	15.517692
1684.000000	15.544049
1683.000000	15.619882
1682.000000	15.783944
1681.000000	16.015128
1680.000000	16.406354
1679.000000	16.850964
1678.000000	17.301493
1677.000000	17.827744
1676.000000	18.313119
1675.000000	18.787437
1674.000000	19.200887
1673.000000	19.563076
1672.000000	19.852893
1671.000000	20.142599
1670.000000	20.397795
1669.000000	20.601281
1668.000000	20.770258
1667.000000	20.934990
1666.000000	21.066665
1665.000000	21.180023
1664.000000	21.277969
1663.000000	21.364300
1662.000000	21.443372
1661.000000	21.506361
1660.000000	21.554943
1659.000000	21.614135
1658.000000	21.656128
1657.000000	21.698791
1656.000000	21.697562
1655.000000	21.705715
1654.000000	21.701359
1653.000000	21.688963
1652.000000	21.690303
1651.000000	21.677459
1650.000000	21.627202
1649.000000	21.592468
1648.000000	21.580853
1647.000000	21.523560
1646.000000	21.485253
1645.000000	21.397023
1644.000000	21.355924
1643.000000	21.319403
1642.000000	21.252394
1641.000000	21.190856
1640.000000	21.129542
1639.000000	21.050806
1638.000000	20.993512
1637.000000	20.929629
1636.000000	20.856924
1635.000000	20.794828
1634.000000	20.713523
1633.000000	20.622054
1632.000000	20.558953
1631.000000	20.475638
1630.000000	20.406841
1629.000000	20.333577
1628.000000	20.254170
1627.000000	20.156448
1626.000000	20.062522
1625.000000	19.984344
1624.000000	19.908065
1623.000000	19.825642
1622.000000	19.749140
1621.000000	19.660463
1620.000000	19.584630
1619.000000	19.510473
1618.000000	19.437767
1617.000000	19.353558
1616.000000	19.282639
1615.000000	19.198765
1614.000000	19.161352
1613.000000	19.083620
1612.000000	19.002985
1611.000000	18.918776
1610.000000	18.863269
1609.000000	18.808880
1608.000000	18.739860
1607.000000	18.665590
1606.000000	18.589869
1605.000000	18.545643
1604.000000	18.463891
1603.000000	18.395988
1602.000000	18.321942
1601.000000	18.272913
1600.000000	18.184013
1599.000000	18.103713
1598.000000	18.054796
1597.000000	18.001523
1596.000000	17.919324
1595.000000	17.865158
1594.000000	17.814342
1593.000000	17.752470
1592.000000	17.702547
1591.000000	17.638665
1590.000000	17.601698
1589.000000	17.557248
1588.000000	17.505427
1587.000000	17.458185
1586.000000	17.407257
1585.000000	17.366381
1584.000000	17.328074
1583.000000	17.294569
1582.000000	17.263633
1581.000000	17.218513
1580.000000	17.200755
1579.000000	17.156082
1578.000000	17.140558
1577.000000	17.124364
1576.000000	17.110180
1575.000000	17.091083
1574.000000	17.072655
1573.000000	17.070645
1572.000000	17.071426
1571.000000	17.060705
1570.000000	17.048420
1569.000000	17.053557
1568.000000	17.045293
1567.000000	17.062045
1566.000000	17.058359
1565.000000	17.062268
1564.000000	17.073660
1563.000000	17.088626
1562.000000	17.096890
1561.000000	17.108282
1560.000000	17.098342
1559.000000	17.097784
1558.000000	17.115876
1557.000000	17.114983
1556.000000	17.098900
1555.000000	17.089407
1554.000000	17.088849
1553.000000	17.065284
1552.000000	17.037140
1551.000000	17.034683
1550.000000	17.025078
1549.000000	16.985095
1548.000000	16.968231
1547.000000	16.943996
1546.000000	16.918644
1545.000000	16.904684
1544.000000	16.896642
1543.000000	16.873971
1542.000000	16.863473
1541.000000	16.856772
1540.000000	16.832760
1539.000000	16.826282
1538.000000	16.818688
1537.000000	16.801712
1536.000000	16.783396
1535.000000	16.768207
1534.000000	16.744530
1533.000000	16.721188
1532.000000	16.715046
1531.000000	16.676515
1530.000000	16.644797
1529.000000	16.627598
1528.000000	16.596997
1527.000000	16.560476
1526.000000	16.530992
1525.000000	16.499051
1524.000000	16.466663
1523.000000	16.439635
1522.000000	16.396749
1521.000000	16.357548
1520.000000	16.326054
1519.000000	16.304052
1518.000000	16.257033
1517.000000	16.206999
1516.000000	16.170479
1515.000000	16.124689
1514.000000	16.091966
1513.000000	16.050755
1512.000000	16.003736
1511.000000	15.973023
1510.000000	15.936503
1509.000000	15.881332
1508.000000	15.834536
1507.000000	15.800250
1506.000000	15.750439
1505.000000	15.704649
1504.000000	15.664667
1503.000000	15.619435
1502.000000	15.578335
1501.000000	15.543825
1500.000000	15.502838
1499.000000	15.452022
1498.000000	15.414831
1497.000000	15.385124
1496.000000	15.355416
1495.000000	15.319566
1494.000000	15.296001
1493.000000	15.278802
1492.000000	15.247977
1491.000000	15.215924
1490.000000	15.187110
1489.000000	15.170916
1488.000000	15.145229
1487.000000	15.117755
1486.000000	15.113511
1485.000000	15.118201
1484.000000	15.093408
1483.000000	15.063030
1482.000000	15.063588
1481.000000	15.047618
1480.000000	15.029078
1479.000000	15.021372
1478.000000	15.007077
1477.000000	15.007635
1476.000000	15.012549
1475.000000	15.013889
1474.000000	15.014113
1473.000000	15.014559
1472.000000	15.022936
1471.000000	15.034662
1470.000000	15.038571
1469.000000	15.037678
1468.000000	15.030195
1467.000000	15.043709
1466.000000	15.073416
1465.000000	15.062025
1464.000000	15.064705
1463.000000	15.078219
1462.000000	15.111165
1461.000000	15.139421
1460.000000	15.159524
1459.000000	15.192806
1458.000000	15.231001
1457.000000	15.279472
1456.000000	15.316997
1455.000000	15.365356
1454.000000	15.434711
1453.000000	15.483628
1452.000000	15.540252
1451.000000	15.599779
1450.000000	15.676058
1449.000000	15.743738
1448.000000	15.800808
1447.000000	15.873067
1446.000000	15.977156
1445.000000	16.050643
1444.000000	16.125583
1443.000000	16.190247
1442.000000	16.305727
1441.000000	16.400881
1440.000000	16.489558
1439.000000	16.563045
1438.000000	16.642005
1437.000000	16.752124
1436.000000	16.859229
1435.000000	16.946453
1434.000000	17.047415
1433.000000	17.155747
1432.000000	17.269329
1431.000000	17.377661
1430.000000	17.500959
1429.000000	17.624481
1428.000000	17.759394
1427.000000	17.915304
1426.000000	18.077914
1425.000000	18.239184
1424.000000	18.414304
1423.000000	18.597352
1422.000000	18.782299
1421.000000	18.987796
1420.000000	19.178662
1419.000000	19.411522
1418.000000	19.643041
1417.000000	19.889525
1416.000000	20.078940
1415.000000	20.321292
1414.000000	20.566213
1413.000000	20.849664
1412.000000	21.133004
1411.000000	21.347771
1410.000000	21.630887
1409.000000	21.993299
1408.000000	22.356604
1407.000000	22.761567
1406.000000	23.155696
1405.000000	23.555298
1404.000000	24.007168
1403.000000	24.437818
1402.000000	24.867128
1401.000000	25.259694
1400.000000	25.731778
1399.000000	26.247865
1398.000000	26.614074
1397.000000	26.892835
1396.000000	27.238494
1395.000000	27.642787
1394.000000	28.030550
1393.000000	28.315789
1392.000000	28.604490
1391.000000	28.946240
1390.000000	29.336014
1389.000000	29.647498
1388.000000	30.073010
1387.000000	30.545541
1386.000000	31.074361
1385.000000	31.611668
1384.000000	32.185049
1383.000000	32.846101
1382.000000	33.523682
1381.000000	34.164743
1380.000000	34.710761
1379.000000	35.104779
1378.000000	35.410344
1377.000000	35.644990
1376.000000	35.864559
1375.000000	36.113724
1374.000000	36.378524
1373.000000	36.683419
1372.000000	37.076767
1371.000000	37.537683
1370.000000	38.012001
1369.000000	38.414618
1368.000000	38.816789
1367.000000	39.207121
1366.000000	39.570091
1365.000000	39.867056
1364.000000	40.137330
1363.000000	40.381022
1362.000000	40.614440
1361.000000	40.853330
1360.000000	41.086077
1359.000000	41.210269
1358.000000	41.293696
1357.000000	41.418446
1356.000000	41.614450
1355.000000	41.869199
1354.000000	42.328886
1353.000000	42.863625
1352.000000	43.470064
1351.000000	44.061537
1350.000000	44.705502
1349.000000	45.295077
1348.000000	45.826688
1347.000000	46.351487
1346.000000	46.848253
1345.000000	47.278568
1344.000000	47.714802
1343.000000	48.178175
1342.000000	48.595088
1341.000000	48.986314
1340.000000	49.411156
1339.000000	49.784289
1338.000000	50.166357
1337.000000	50.554679
1336.000000	50.949032
1335.000000	51.312560
1334.000000	51.658666
1333.000000	52.006782
1332.000000	52.357690
1331.000000	52.691288
1330.000000	53.016397
1329.000000	53.327323
1328.000000	53.602845
1327.000000	53.916116
1326.000000	54.195659
1325.000000	54.446499
1324.000000	54.685389
1323.000000	54.927964
1322.000000	55.178246
1321.000000	55.405968
1320.000000	55.620511
1319.000000	55.819530
1318.000000	56.010620
1317.000000	56.233428
1316.000000	56.393470
1315.000000	56.570599
1314.000000	56.758115
1313.000000	56.910339
1312.000000	57.066248
1311.000000	57.219031
1310.000000	57.352380
1309.000000	57.479476
1308.000000	57.606683
1307.000000	57.714345
1306.000000	57.805590
1305.000000	57.902531
1304.000000	57.982943
1303.000000	58.047831
1302.000000	58.114282
1301.000000	58.178277
1300.000000	58.221945
1299.000000	58.256455
1298.000000	58.280578
1297.000000	58.309281
1296.000000	58.345131
1295.000000	58.368696
1294.000000	58.386901
1293.000000	58.389358
1292.000000	58.398739
1291.000000	58.387794
1290.000000	58.384779
1289.000000	58.362107
1288.000000	58.343791
1287.000000	58.300681
1286.000000	58.242718
1285.000000	58.188998
1284.000000	58.129024
1283.000000	58.067040
1282.000000	57.985177
1281.000000	57.921294
1280.000000	57.864671
1279.000000	57.783365
1278.000000	57.702283
1277.000000	57.632258
1276.000000	57.568710
1275.000000	57.503599
1274.000000	57.438488
1273.000000	57.385662
1272.000000	57.319881
1271.000000	57.269400
1270.000000	57.223721
1269.000000	57.170337
1268.000000	57.107236
1267.000000	57.049272
1266.000000	56.984943
1265.000000	56.924187
1264.000000	56.865442
1263.000000	56.801448
1262.000000	56.726843
1261.000000	56.653691
1260.000000	56.587798
1259.000000	56.523915
1258.000000	56.455565
1257.000000	56.372473
1256.000000	56.315626
1255.000000	56.239124
1254.000000	56.143188
1253.000000	56.036195
1252.000000	55.916248
1251.000000	55.825114
1250.000000	55.738672
1249.000000	55.630004
1248.000000	55.506036
1247.000000	55.364869
1246.000000	55.223031
1245.000000	55.086889
1244.000000	54.941925
1243.000000	54.784452
1242.000000	54.610226
1241.000000	54.422375
1240.000000	54.241449
1239.000000	54.061304
1238.000000	53.881829
1237.000000	53.694202
1236.000000	53.484349
1235.000000	53.271928
1234.000000	53.059507
1233.000000	52.846304
1232.000000	52.626958
1231.000000	52.405937
1230.000000	52.178216
1229.000000	51.927152
1228.000000	51.682566
1227.000000	51.445128
1226.000000	51.191719
1225.000000	50.929934
1224.000000	50.674738
1223.000000	50.429036
1222.000000	50.171494
1221.000000	49.920319
1220.000000	49.668586
1219.000000	49.418527
1218.000000	49.182988
1217.000000	48.963084
1216.000000	48.747535
1215.000000	48.525509
1214.000000	48.327830
1213.000000	48.148021
1212.000000	47.949895
1211.000000	47.765394
1210.000000	47.595301
1209.000000	47.425543
1208.000000	47.274324
1207.000000	47.128019
1206.000000	47.006955
1205.000000	46.912359
1204.000000	46.824465
1203.000000	46.746286
1202.000000	46.703512
1201.000000	46.653031
1200.000000	46.598753
1199.000000	46.533977
1198.000000	46.437483
1197.000000	46.323008
1196.000000	46.165646
1195.000000	45.943732
1194.000000	45.652016
1193.000000	45.290498
1192.000000	44.857056
1191.000000	44.347334
1190.000000	43.786909
1189.000000	43.242342
1188.000000	42.745576
1187.000000	42.357700
1186.000000	42.117023
1185.000000	41.996182
1184.000000	42.021311
1183.000000	42.256292
1182.000000	42.620826
1181.000000	43.130101
1180.000000	43.734864
1179.000000	44.374697
1178.000000	44.981136
1177.000000	45.555857
1176.000000	46.099530
1175.000000	46.543247
1174.000000	46.946758
1173.000000	47.346471
1172.000000	47.736469
1171.000000	48.139756
1170.000000	48.541257
1169.000000	48.963084
1168.000000	49.399094
1167.000000	49.854650
1166.000000	50.280385
1165.000000	50.733930
1164.000000	51.186805
1163.000000	51.648391
1162.000000	52.132202
1161.000000	52.596692
1160.000000	53.064756
1159.000000	53.537399
1158.000000	53.972292
1157.000000	54.403166
1156.000000	54.813042
1155.000000	55.183272
1154.000000	55.500563
1153.000000	55.763689
1152.000000	55.952545
1151.000000	56.085894
1150.000000	56.188978
1149.000000	56.257328
1148.000000	56.318083
1147.000000	56.395145
1146.000000	56.527824
1145.000000	56.723381
1144.000000	56.972211
1143.000000	57.330155
1142.000000	57.728082
1141.000000	58.182297
1140.000000	58.658625
1139.000000	59.152041
1138.000000	59.629933
1137.000000	60.130050
1136.000000	60.667022
1135.000000	61.248444
1134.000000	61.816352
1133.000000	62.380910
1132.000000	62.855117
1131.000000	63.330663
1130.000000	63.716975
1129.000000	64.102840
1128.000000	64.438001
1127.000000	64.706822
1126.000000	64.903272
1125.000000	65.091682
1124.000000	65.218665
1123.000000	65.348329
1122.000000	65.437229
1121.000000	65.515854
1120.000000	65.566000
1119.000000	65.628542
1118.000000	65.662382
1117.000000	65.680363
1116.000000	65.709847
1115.000000	65.681815
1114.000000	65.664392
1113.000000	65.629994
1112.000000	65.603413
1111.000000	65.593920
1110.000000	65.580295
1109.000000	65.537855
1108.000000	65.522667
1107.000000	65.501670
1106.000000	65.461129
1105.000000	65.441473
1104.000000	65.415674
1103.000000	65.379824
1102.000000	65.359163
1101.000000	65.322642
1100.000000	65.273390
1099.000000	65.241560
1098.000000	65.221234
1097.000000	65.174550
1096.000000	65.116364
1095.000000	65.061527
1094.000000	65.016966
1093.000000	64.964028
1092.000000	64.881829
1091.000000	64.808900
1090.000000	64.731504
1089.000000	64.689623
1088.000000	64.607312
1087.000000	64.528017
1086.000000	64.438447
1085.000000	64.364848
1084.000000	64.283096
1083.000000	64.191963
1082.000000	64.103845
1081.000000	64.007462
1080.000000	63.931853
1079.000000	63.847756
1078.000000	63.753830
1077.000000	63.655102
1076.000000	63.603058
1075.000000	63.518402
1074.000000	63.428832
1073.000000	63.329658
1072.000000	63.241205
1071.000000	63.159453
1070.000000	63.051679
1069.000000	62.976404
1068.000000	62.899231
1067.000000	62.798493
1066.000000	62.711492
1065.000000	62.602824
1064.000000	62.503762
1063.000000	62.398444
1062.000000	62.318033
1061.000000	62.232930
1060.000000	62.116110
1059.000000	61.991918
1058.000000	61.878113
1057.000000	61.792229
1056.000000	61.682891
1055.000000	61.563279
1054.000000	61.452824
1053.000000	61.351527
1052.000000	61.254140
1051.000000	61.134639
1050.000000	61.043506
1049.000000	60.931376
1048.000000	60.821815
1047.000000	60.735372
1046.000000	60.649711
1045.000000	60.557796
1044.000000	60.448123
1043.000000	60.368940
1042.000000	60.275461
1041.000000	60.186896
1040.000000	60.071304
1039.000000	59.979054
1038.000000	59.899424
1037.000000	59.787071
1036.000000	59.671256
1035.000000	59.555105
1034.000000	59.460845
1033.000000	59.365356
1032.000000	59.243063
1031.000000	59.122780
1030.000000	59.010315
1029.000000	58.887911
1028.000000	58.755231
1027.000000	58.654046
1026.000000	58.528180
1025.000000	58.384779
1024.000000	58.267288
1023.000000	58.130476
1022.000000	57.981268
1021.000000	57.860427
1020.000000	57.732214
1019.000000	57.600987
1018.000000	57.471881
1017.000000	57.352269
1016.000000	57.238464
1015.000000	57.121085
1014.000000	57.013311
1013.000000	56.902856
1012.000000	56.825683
1011.000000	56.769953
1010.000000	56.682059
1009.000000	56.610581
1008.000000	56.534525
1007.000000	56.486502
1006.000000	56.436691
1005.000000	56.396038
1004.000000	56.336846
1003.000000	56.277766
1002.000000	56.227285
1001.000000	56.180267
1000.000000	56.113145
999.000000	56.058420
998.000000	56.008275
997.000000	55.942047
996.000000	55.891789
995.000000	55.823663
994.000000	55.768826
993.000000	55.721249
992.000000	55.678586
991.000000	55.638939
990.000000	55.580640
989.000000	55.532505
988.000000	55.502574
987.000000	55.467059
986.000000	55.421492
985.000000	55.399044
984.000000	55.360625
983.000000	55.315170
982.000000	55.284122
981.000000	55.249500
980.000000	55.216888
979.000000	55.184947
978.000000	55.153676
977.000000	55.110790
976.000000	55.094484
975.000000	55.064441
974.000000	55.021778
973.000000	54.974536
972.000000	54.949184
971.000000	54.932208
970.000000	54.895576
969.000000	54.857492
968.000000	54.835602
967.000000	54.796960
966.000000	54.752064
965.000000	54.717889
964.000000	54.711076
963.000000	54.687734
962.000000	54.647863
961.000000	54.629994
960.000000	54.645183
959.000000	54.633903
958.000000	54.602855
957.000000	54.607322
956.000000	54.591687
955.000000	54.583869
954.000000	54.562537
953.000000	54.510158
952.000000	54.486370
951.000000	54.468054
950.000000	54.427401
949.000000	54.406404
948.000000	54.384850
947.000000	54.342075
946.000000	54.319962
945.000000	54.281543
944.000000	54.239885
943.000000	54.197892
942.000000	54.171312
941.000000	54.131887
940.000000	54.073031
939.000000	54.020539
938.000000	53.986364
937.000000	53.953306
936.000000	53.895343
935.000000	53.858264
934.000000	53.827663
933.000000	53.793376
932.000000	53.763557
931.000000	53.735189
930.000000	53.686607
929.000000	53.652655
928.000000	53.629649
927.000000	53.591900
926.000000	53.547003
925.000000	53.495294
924.000000	53.470500
923.000000	53.436549
922.000000	53.391540
921.000000	53.346197
920.000000	53.311464
919.000000	53.264222
918.000000	53.208939
917.000000	53.173535
916.000000	53.117135
915.000000	53.050460
914.000000	53.032479
913.000000	52.990040
912.000000	52.927162
911.000000	52.853675
910.000000	52.803752
909.000000	52.751932
908.000000	52.734844
907.000000	52.706030
906.000000	52.693633
905.000000	52.700669
904.000000	52.706253
903.000000	52.708040
902.000000	52.726244
901.000000	52.751932
900.000000	52.779964
899.000000	52.823185
898.000000	52.833125
897.000000	52.836811
896.000000	52.871767
895.000000	52.906613
894.000000	52.933863
893.000000	52.905049
892.000000	52.905384
891.000000	52.922695
890.000000	52.936544
889.000000	52.913984
888.000000	52.903039
887.000000	52.881149
886.000000	52.851665
885.000000	52.802747
884.000000	52.763658
883.000000	52.722671
882.000000	52.661580
881.000000	52.609536
880.000000	52.538617
879.000000	52.484227
878.000000	52.416212
877.000000	52.307433
876.000000	52.204796
875.000000	52.065527
874.000000	51.905039
873.000000	51.716741
872.000000	51.543744
871.000000	51.406151
870.000000	51.387276
869.000000	51.430721
868.000000	51.490248
867.000000	51.530119
866.000000	51.565076
865.000000	51.571107
864.000000	51.607962
863.000000	51.642695
862.000000	51.671845
861.000000	51.691836
860.000000	51.712721
859.000000	51.747342
858.000000	51.765100
857.000000	50.843800
856.000000	51.972200
855.000000	52.479300
854.000000	52.129700
853.000000	51.983600
852.000000	52.051100
851.000000	52.020200
850.000000	52.032300
849.000000	52.230100
848.000000	52.326100
847.000000	52.515900
846.000000	52.212300
845.000000	52.337600
844.000000	52.076400
843.000000	52.093300
842.000000	52.293900
841.000000	52.340300
840.000000	52.378900
839.000000	52.295900
838.000000	52.202300
837.000000	52.447600
836.000000	52.304300
835.000000	52.283500
834.000000	52.438600
833.000000	52.223800
832.000000	52.118200
831.000000	52.143900
830.000000	51.998400
829.000000	52.115200
828.000000	52.028000
827.000000	51.806400
826.000000	51.920400
825.000000	51.791000
824.000000	52.012200
823.000000	51.848100
822.000000	51.752800
821.000000	51.578600
820.000000	51.695200
819.000000	51.496000
818.000000	51.328800
817.000000	51.462400
816.000000	51.280200
815.000000	51.315700
814.000000	51.194400
813.000000	51.226500
812.000000	51.033100
811.000000	51.058200
810.000000	51.088100
809.000000	50.749400
808.000000	50.735700
807.000000	50.618500
806.000000	50.617200
805.000000	50.523800
804.000000	50.334100
803.000000	50.221500
802.000000	50.149300
801.000000	49.989500
800.000000	50.120700
799.000000	49.846800
798.000000	49.806900
797.000000	49.657100
796.000000	49.545600
795.000000	49.612200
794.000000	49.404800
793.000000	49.308500
792.000000	49.158300
791.000000	49.152200
790.000000	48.854300
789.000000	48.778300
788.000000	48.618600
787.000000	48.587400
786.000000	48.614600
785.000000	48.511900
784.000000	48.273700
783.000000	48.238000
782.000000	48.148200
781.000000	47.886300
780.000000	47.888400
779.000000	47.769300
778.000000	47.598800
777.000000	47.363800
776.000000	47.301400
775.000000	47.224100
774.000000	47.293100
773.000000	47.024200
772.000000	46.827300
771.000000	46.805200
770.000000	46.709500
769.000000	46.538500
768.000000	46.407700
767.000000	46.404800
766.000000	46.248500
765.000000	46.122600
764.000000	45.920100
763.000000	45.868200
762.000000	45.721400
761.000000	45.565500
760.000000	45.480500
759.000000	45.380300
758.000000	45.247100
757.000000	45.102600
756.000000	44.971700
755.000000	44.859900
754.000000	44.740700
753.000000	44.587100
752.000000	44.458000
751.000000	44.335000
750.000000	44.255800
749.000000	44.099800
748.000000	43.973500
747.000000	43.821700
746.000000	43.721800
745.000000	43.483000
744.000000	43.360400
743.000000	43.232300
742.000000	43.047100
741.000000	42.920600
740.000000	42.796000
739.000000	42.623000
738.000000	42.488100
737.000000	42.352600
736.000000	42.148100
735.000000	42.012100
734.000000	41.855500
733.000000	41.645000
732.000000	41.552300
731.000000	41.427400
730.000000	41.214800
729.000000	41.061400
728.000000	40.875300
727.000000	40.771500
726.000000	40.548400
725.000000	40.428000
724.000000	40.306700
723.000000	40.100400
722.000000	39.910800
721.000000	39.779400
720.000000	39.553800
719.000000	39.362200
718.000000	39.188100
717.000000	39.010400
716.000000	38.836700
715.000000	38.694700
714.000000	38.514600
713.000000	38.300700
712.000000	38.111000
711.000000	37.910400
710.000000	37.767900
709.000000	37.511100
708.000000	37.352400
707.000000	37.179900
706.000000	36.937100
705.000000	36.767700
704.000000	36.555700
703.000000	36.366100
702.000000	36.199600
701.000000	35.984700
700.000000	35.766900
699.000000	35.566700
698.000000	35.367000
697.000000	35.126000
696.000000	34.939200
695.000000	34.747900
694.000000	34.538900
693.000000	34.330600
692.000000	34.150100
691.000000	33.936000
690.000000	33.706700
689.000000	33.464100
688.000000	33.245800
687.000000	33.014700
686.000000	32.801700
685.000000	32.570000
684.000000	32.338100
683.000000	32.072500
682.000000	31.878000
681.000000	31.677500
680.000000	31.399800
679.000000	31.199100
678.000000	31.024600
677.000000	30.800000
676.000000	30.600200
675.000000	30.395800
674.000000	30.184500
673.000000	29.967100
672.000000	29.740300
671.000000	29.523600
670.000000	29.343100
669.000000	29.150700
668.000000	28.937600
667.000000	28.741700
666.000000	28.522000
665.000000	28.310000
664.000000	28.140500
663.000000	27.979600
662.000000	27.794500
661.000000	27.585800
660.000000	27.414100
659.000000	27.250500
658.000000	27.057400
657.000000	26.864000
656.000000	26.675900
655.000000	26.515000
654.000000	26.333200
653.000000	26.135700
652.000000	25.972400
651.000000	25.813300
650.000000	25.655100
649.000000	25.505100
648.000000	25.357900
647.000000	25.216200
646.000000	25.090300
645.000000	24.955700
644.000000	24.831900
643.000000	24.723300
642.000000	24.610100
641.000000	24.508900
640.000000	24.417700
639.000000	24.362900
638.000000	24.310800
637.000000	24.242200
636.000000	24.204200
635.000000	24.165800
634.000000	24.150800
633.000000	24.139300
632.000000	24.092800
631.000000	24.057500
630.000000	24.074400
629.000000	24.103400
628.000000	24.111200
627.000000	24.121800
626.000000	24.144200
625.000000	24.184600
624.000000	24.225900
623.000000	24.267500
622.000000	24.327400
621.000000	24.410700
620.000000	24.491000
619.000000	24.570600
618.000000	24.656500
617.000000	24.770200
616.000000	24.897400
615.000000	25.018400
614.000000	25.165700
613.000000	25.326100
612.000000	25.484100
611.000000	25.654700
610.000000	25.823100
609.000000	25.985500
608.000000	26.139200
607.000000	26.307200
606.000000	26.483900
605.000000	26.662000
604.000000	26.816700
603.000000	26.976900
602.000000	27.129400
601.000000	27.264100
600.000000	27.448700
599.000000	27.593000
598.000000	27.723400
597.000000	27.888900
596.000000	28.032700
595.000000	28.143700
594.000000	28.276500
593.000000	28.419700
592.000000	28.555100
591.000000	28.679500
590.000000	28.821000
589.000000	28.946200
588.000000	29.062700
587.000000	29.184000
586.000000	29.290000
585.000000	29.408800
584.000000	29.508200
583.000000	29.593900
582.000000	29.684200
581.000000	29.772400
580.000000	29.853900
579.000000	29.907600
578.000000	29.969000
577.000000	30.016800
576.000000	30.069300
575.000000	30.105300
574.000000	30.171000
573.000000	30.199100
572.000000	30.215200
571.000000	30.236300
570.000000	30.218900
569.000000	30.223900
568.000000	30.201300
567.000000	30.170500
566.000000	30.178500
565.000000	30.171400
564.000000	30.120300
563.000000	30.061100
562.000000	30.015300
561.000000	29.963300
560.000000	29.887800
559.000000	29.775600
558.000000	29.681100
557.000000	29.598200
556.000000	29.490700
555.000000	29.381000
554.000000	29.250000
553.000000	29.142300
552.000000	28.987800
551.000000	28.840400
550.000000	28.682300
549.000000	28.503400
548.000000	28.320300
547.000000	28.153400
546.000000	27.962700
545.000000	27.751600
544.000000	27.547100
543.000000	27.317200
542.000000	27.065200
541.000000	26.822700
540.000000	26.565700
539.000000	26.298400
538.000000	26.047800
537.000000	25.777900
536.000000	25.487300
535.000000	25.165800
534.000000	24.833500
533.000000	24.502600
532.000000	24.175000
531.000000	23.851800
530.000000	23.480800
529.000000	23.118900
528.000000	22.765700
527.000000	22.391900
526.000000	21.992500
525.000000	21.600200
524.000000	21.203500
523.000000	20.763300
522.000000	20.376200
521.000000	19.968500
520.000000	19.548900
519.000000	19.125800
518.000000	18.700800
517.000000	18.260200
516.000000	17.835900
515.000000	17.421600
514.000000	17.003400
513.000000	16.581500
512.000000	16.210300
511.000000	15.809400
510.000000	15.409800
509.000000	15.027000
508.000000	14.666900
507.000000	14.322600
506.000000	13.982200
505.000000	13.677400
504.000000	13.356200
503.000000	13.046700
502.000000	12.739600
501.000000	12.467400
500.000000	12.207900
499.000000	11.958000
498.000000	11.727800
497.000000	11.504600
496.000000	11.303600
495.000000	11.110200
494.000000	10.896200
493.000000	10.715200
492.000000	10.556000
491.000000	10.407800
490.000000	10.244900
489.000000	10.096100
488.000000	9.979100
487.000000	9.845500
486.000000	9.714600
485.000000	9.624900
484.000000	9.501000
483.000000	9.409200
482.000000	9.280500
481.000000	9.171700
480.000000	9.077400
479.000000	8.955500
478.000000	8.862900
477.000000	8.762900
476.000000	8.684900
475.000000	8.599000
474.000000	8.503600
473.000000	8.436600
472.000000	8.355000
471.000000	8.261800
470.000000	8.192000
469.000000	8.118300
468.000000	8.048800
467.000000	7.985500
466.000000	7.920500
465.000000	7.872700
464.000000	7.800300
463.000000	7.730500
462.000000	7.681600
461.000000	7.630200
460.000000	7.566900
459.000000	7.519600
458.000000	7.463600
457.000000	7.429400
456.000000	7.369300
455.000000	7.316700
454.000000	7.280600
453.000000	7.234400
452.000000	7.178200
451.000000	7.127100
450.000000	7.072100
449.000000	7.021600
448.000000	6.965600
447.000000	6.915500
446.000000	6.866600
445.000000	6.793500
444.000000	6.734600
443.000000	6.693900
442.000000	6.638900
441.000000	6.582500
440.000000	6.547000
439.000000	6.473800
438.000000	6.403800
437.000000	6.373700
436.000000	6.306600
435.000000	6.250100
434.000000	6.186300
433.000000	6.140400
432.000000	6.105500
431.000000	6.041500
430.000000	5.982500
429.000000	5.927800
428.000000	5.883200
427.000000	5.854900
426.000000	5.812200
425.000000	5.775300
424.000000	5.724900
423.000000	5.665600
422.000000	5.628300
421.000000	5.587300
420.000000	5.541800
419.000000	5.508900
418.000000	5.474100
417.000000	5.422500
416.000000	5.389700
415.000000	5.358900
414.000000	5.313500
413.000000	5.267600
412.000000	5.231700
411.000000	5.203400
410.000000	5.173600
409.000000	5.133300
408.000000	5.088100
407.000000	5.069400
406.000000	5.036900
405.000000	5.005500
404.000000	4.965700
403.000000	4.928800
402.000000	4.914900
401.000000	4.889200
400.000000	4.864600
399.000000	4.830400
398.000000	4.804600
397.000000	4.772500
396.000000	4.740400
395.000000	4.745500
394.000000	4.720800
393.000000	4.686300
392.000000	4.644700
391.000000	4.618200
390.000000	4.616100
389.000000	4.609900
388.000000	4.585000
387.000000	4.572200
386.000000	4.544400
385.000000	4.524700
384.000000	4.522300
383.000000	4.492200
382.000000	4.490400
381.000000	4.484400
380.000000	4.465700
379.000000	4.442200
378.000000	4.446100
377.000000	4.432100
376.000000	4.428300
375.000000	4.328900
374.000000	4.078500
373.000000	3.946800
372.000000	4.082000
371.000000	4.188800
370.000000	4.073400
369.000000	4.104600
368.000000	4.201900
367.000000	4.254000
366.000000	4.270800
365.000000	4.224900
364.000000	4.240600
363.000000	4.361300
362.000000	4.346600
361.000000	4.319600
360.000000	4.232600
359.000000	4.079000
358.000000	4.157800
357.000000	4.219300
356.000000	4.195300
355.000000	4.241600
354.000000	4.259200
353.000000	4.459900
352.000000	4.672600
351.000000	4.602700
350.000000	4.342100
349.000000	4.285400
348.000000	4.389200
347.000000	4.359700
346.000000	4.433700
345.000000	4.468400
344.000000	4.359300
343.000000	4.405200
342.000000	4.191500
341.000000	4.124300
340.000000	4.461200
339.000000	4.518600
338.000000	4.411600
337.000000	4.431400
336.000000	4.562400
335.000000	4.739600
334.000000	4.651400
333.000000	4.525200
332.000000	4.724000
331.000000	4.650600
330.000000	4.538900
329.000000	4.634100
328.000000	4.883300
327.000000	4.689000
326.000000	4.618300
325.000000	5.049800
324.000000	5.203700
323.000000	4.928200
322.000000	4.997100
321.000000	4.846900
320.000000	4.691300
319.000000	5.286300
318.000000	5.689800
317.000000	5.318800
316.000000	4.586900
315.000000	4.243400
314.000000	4.291100
313.000000	4.284900
312.000000	4.232000
311.000000	4.234000
310.000000	4.239600
309.000000	4.258700
308.000000	4.251900
307.000000	4.223900
306.000000	4.207500
305.000000	4.267000
304.000000	4.313300
303.000000	4.286200
302.000000	4.219200
301.000000	4.238200
300.000000	4.293200
299.000000	4.273000
298.000000	4.273100
297.000000	4.267800
296.000000	4.206200
295.000000	4.222700
294.000000	4.256600
293.000000	4.293400
292.000000	4.268900
291.000000	4.273400
290.000000	4.279600
289.000000	4.319000
288.000000	4.324000
287.000000	4.296000
286.000000	4.320500
285.000000	4.317300
284.000000	4.341100
283.000000	4.369600
282.000000	4.372400
281.000000	4.325300
280.000000	4.307600
279.000000	4.346900
278.000000	4.385300
277.000000	4.362700
276.000000	4.377700
275.000000	4.389500
274.000000	4.435500
273.000000	4.417300
272.000000	4.411900
271.000000	4.441800
270.000000	4.504400
269.000000	4.483100
268.000000	4.502800
267.000000	4.489800
266.000000	4.506400
265.000000	4.529000
264.000000	4.542400
263.000000	4.563400
262.000000	4.618300
261.000000	4.613600
260.000000	4.640000
259.000000	4.624600
258.000000	4.640300
257.000000	4.653400
256.000000	4.649100
255.000000	4.655000
254.000000	4.665500
253.000000	4.713700
252.000000	4.746600
251.000000	4.730500
250.000000	4.709300
