PE UV       SUBTECH     SPECTRUM    ASCII       PEDS        4.00        
   -1
CICIMAUCR0212-1.Sample.ASC
24/06/12
11:41:40.00
24/06/12
11:41:40.00
Vinicio Soto Monge
C. resplendens. Sex F. Ventral
250,000000
1
Lambda 1050
1050L1511233
PerkinElmer UV WinLab 6.3.2.0749 / 2.02.05 Lambda 900 UV/VIS/NIR, Aug  7 2015 09:38:08

0
0
3350/servo 860,8/2
0
0
UV/VIS
1
1
1
DoubleDePol,CommonBeamDepol,RBeamAtt,SBeamAtt,60mm sphere, WB InGaAs Detector
0
0
0
0
Program
Program
3350/servo 860,8/2
3350/0,2 860,8/0,2
3350/0,2 860,8/0,2
0
15.00
 
 
 
0
 
860,8
319,2
860,8
Front
100
on
S:100 R:100
0
0
0
0
 
0
 
 
 
0
 
 
0
0
0
0
0
 
 
 
 
0
0


0
0
#HDR
-1
-1
#GR
nm
%R
1.0
0.0
2500,000000
-1,000000
2251
8
64,687900
3,751900
#DATA
2482.000000	5.616222
2481.000000	5.534607
2480.000000	5.471616
2479.000000	5.439967
2478.000000	5.384303
2477.000000	5.458895
2476.000000	5.571446
2475.000000	5.447192
2474.000000	5.439051
2473.000000	5.454723
2472.000000	5.407505
2471.000000	5.421548
2470.000000	5.378807
2469.000000	5.403638
2468.000000	5.445666
2467.000000	5.399160
2466.000000	5.366494
2465.000000	5.386745
2464.000000	5.446582
2463.000000	5.456962
2462.000000	5.448312
2461.000000	5.492681
2460.000000	5.473040
2459.000000	5.416663
2458.000000	5.480978
2457.000000	5.487593
2456.000000	5.385422
2455.000000	5.526568
2454.000000	5.537355
2453.000000	5.536032
2452.000000	5.551907
2451.000000	5.539492
2450.000000	5.576737
2449.000000	5.636981
2448.000000	5.621004
2447.000000	5.704756
2446.000000	5.725923
2445.000000	5.733860
2444.000000	5.784640
2443.000000	5.760624
2442.000000	5.783114
2441.000000	5.847530
2440.000000	5.828704
2439.000000	5.851295
2438.000000	5.915813
2437.000000	5.925481
2436.000000	6.015236
2435.000000	5.999361
2434.000000	5.956722
2433.000000	5.986437
2432.000000	6.030093
2431.000000	6.078227
2430.000000	6.109876
2429.000000	6.114557
2428.000000	6.122698
2427.000000	6.139387
2426.000000	6.169611
2425.000000	6.182433
2424.000000	6.200751
2423.000000	6.255805
2422.000000	6.269339
2421.000000	6.248681
2420.000000	6.273308
2419.000000	6.312385
2418.000000	6.315234
2417.000000	6.314420
2416.000000	6.343118
2415.000000	6.354006
2414.000000	6.357975
2413.000000	6.393084
2412.000000	6.400512
2411.000000	6.421170
2410.000000	6.424528
2409.000000	6.432364
2408.000000	6.470933
2407.000000	6.470627
2406.000000	6.451699
2405.000000	6.476224
2404.000000	6.497187
2403.000000	6.504922
2402.000000	6.520390
2401.000000	6.559568
2400.000000	6.576970
2399.000000	6.595796
2398.000000	6.603937
2397.000000	6.606380
2396.000000	6.627750
2395.000000	6.643014
2394.000000	6.660721
2393.000000	6.664894
2392.000000	6.676800
2391.000000	6.695423
2390.000000	6.695524
2389.000000	6.711501
2388.000000	6.720253
2387.000000	6.708652
2386.000000	6.729819
2385.000000	6.760246
2384.000000	6.773475
2383.000000	6.764724
2382.000000	6.766759
2381.000000	6.784771
2380.000000	6.766962
2379.000000	6.760144
2378.000000	6.784364
2377.000000	6.763095
2376.000000	6.766046
2375.000000	6.764011
2374.000000	6.761467
2373.000000	6.782329
2372.000000	6.781311
2371.000000	6.786806
2370.000000	6.777953
2369.000000	6.761467
2368.000000	6.752919
2367.000000	6.751596
2366.000000	6.756684
2365.000000	6.750375
2364.000000	6.722899
2363.000000	6.704276
2362.000000	6.706210
2361.000000	6.700714
2360.000000	6.679751
2359.000000	6.654819
2358.000000	6.638944
2357.000000	6.611163
2356.000000	6.610145
2355.000000	6.617167
2354.000000	6.574121
2353.000000	6.574426
2352.000000	6.593965
2351.000000	6.593252
2350.000000	6.592235
2349.000000	6.595593
2348.000000	6.594575
2347.000000	6.599460
2346.000000	6.615844
2345.000000	6.633245
2344.000000	6.655430
2343.000000	6.678021
2342.000000	6.704276
2341.000000	6.714249
2340.000000	6.747322
2339.000000	6.764520
2338.000000	6.759534
2337.000000	6.757193
2336.000000	6.777139
2335.000000	6.805429
2334.000000	6.802681
2333.000000	6.794337
2332.000000	6.794337
2331.000000	6.799018
2330.000000	6.794235
2329.000000	6.775103
2328.000000	6.753733
2327.000000	6.736739
2326.000000	6.737146
2325.000000	6.729005
2324.000000	6.691047
2323.000000	6.658991
2322.000000	6.635077
2321.000000	6.623476
2320.000000	6.591929
2319.000000	6.566183
2318.000000	6.524664
2317.000000	6.484772
2316.000000	6.449867
2315.000000	6.396951
2314.000000	6.369881
2313.000000	6.346476
2312.000000	6.308925
2311.000000	6.274427
2310.000000	6.228939
2309.000000	6.220696
2308.000000	6.210113
2307.000000	6.172460
2306.000000	6.171239
2305.000000	6.170832
2304.000000	6.158112
2303.000000	6.160758
2302.000000	6.177447
2301.000000	6.170527
2300.000000	6.173682
2299.000000	6.214082
2298.000000	6.246544
2297.000000	6.254278
2296.000000	6.287657
2295.000000	6.319101
2294.000000	6.362249
2293.000000	6.400614
2292.000000	6.425037
2291.000000	6.444678
2290.000000	6.473273
2289.000000	6.488843
2288.000000	6.486299
2287.000000	6.511740
2286.000000	6.509297
2285.000000	6.504006
2284.000000	6.523850
2283.000000	6.491183
2282.000000	6.494440
2281.000000	6.474494
2280.000000	6.448850
2279.000000	6.437758
2278.000000	6.432059
2277.000000	6.406109
2276.000000	6.376089
2275.000000	6.358077
2274.000000	6.339556
2273.000000	6.337419
2272.000000	6.317372
2271.000000	6.307908
2270.000000	6.296510
2269.000000	6.316150
2268.000000	6.318491
2267.000000	6.341795
2266.000000	6.363877
2265.000000	6.405804
2264.000000	6.431143
2263.000000	6.500037
2262.000000	6.536366
2261.000000	6.610552
2260.000000	6.686569
2259.000000	6.772865
2258.000000	6.852444
2257.000000	6.951663
2256.000000	7.070319
2255.000000	7.177476
2254.000000	7.275576
2253.000000	7.379578
2252.000000	7.492332
2251.000000	7.608037
2250.000000	7.711632
2249.000000	7.798538
2248.000000	7.917703
2247.000000	8.005016
2246.000000	8.077777
2245.000000	8.194296
2244.000000	8.226250
2243.000000	8.310510
2242.000000	8.376961
2241.000000	8.437002
2240.000000	8.505794
2239.000000	8.544668
2238.000000	8.607863
2237.000000	8.658744
2236.000000	8.670549
2235.000000	8.727231
2234.000000	8.758065
2233.000000	8.779639
2232.000000	8.802231
2231.000000	8.845684
2230.000000	8.865629
2229.000000	8.889544
2228.000000	8.888730
2227.000000	8.893106
2226.000000	8.900229
2225.000000	8.886389
2224.000000	8.894835
2223.000000	8.881912
2222.000000	8.867461
2221.000000	8.891274
2220.000000	8.865629
2219.000000	8.847007
2218.000000	8.840494
2217.000000	8.845887
2216.000000	8.803045
2215.000000	8.779843
2214.000000	8.788900
2213.000000	8.750128
2212.000000	8.733235
2211.000000	8.714205
2210.000000	8.696906
2209.000000	8.692326
2208.000000	8.715834
2207.000000	8.657116
2206.000000	8.663425
2205.000000	8.647143
2204.000000	8.615698
2203.000000	8.622110
2202.000000	8.617937
2201.000000	8.603589
2200.000000	8.608575
2199.000000	8.576316
2198.000000	8.559525
2197.000000	8.579369
2196.000000	8.564918
2195.000000	8.549756
2194.000000	8.553724
2193.000000	8.555658
2192.000000	8.546398
2191.000000	8.538867
2190.000000	8.540902
2189.000000	8.524213
2188.000000	8.511391
2187.000000	8.495007
2186.000000	8.506099
2185.000000	8.490631
2184.000000	8.477300
2183.000000	8.453488
2182.000000	8.455116
2181.000000	8.459085
2180.000000	8.441378
2179.000000	8.441072
2178.000000	8.427945
2177.000000	8.415428
2176.000000	8.415326
2175.000000	8.413698
2174.000000	8.402911
2173.000000	8.399960
2172.000000	8.405150
2171.000000	8.406168
2170.000000	8.414512
2169.000000	8.408508
2168.000000	8.411765
2167.000000	8.402199
2166.000000	8.417667
2165.000000	8.417870
2164.000000	8.425706
2163.000000	8.448399
2162.000000	8.467633
2161.000000	8.458779
2160.000000	8.454607
2159.000000	8.471296
2158.000000	8.494091
2157.000000	8.495414
2156.000000	8.505082
2155.000000	8.547212
2154.000000	8.549959
2153.000000	8.554946
2152.000000	8.589443
2151.000000	8.589036
2150.000000	8.609389
2149.000000	8.637069
2148.000000	8.643073
2147.000000	8.677062
2146.000000	8.682150
2145.000000	8.688052
2144.000000	8.700060
2143.000000	8.707286
2142.000000	8.733439
2141.000000	8.734863
2140.000000	8.761729
2139.000000	8.767631
2138.000000	8.782692
2137.000000	8.795820
2136.000000	8.804368
2135.000000	8.797957
2134.000000	8.794090
2133.000000	8.811898
2132.000000	8.811593
2131.000000	8.807319
2130.000000	8.799280
2129.000000	8.790324
2128.000000	8.780962
2127.000000	8.787577
2126.000000	8.787780
2125.000000	8.772312
2124.000000	8.778622
2123.000000	8.759083
2122.000000	8.743208
2121.000000	8.742292
2120.000000	8.738629
2119.000000	8.725399
2118.000000	8.712984
2117.000000	8.710135
2116.000000	8.691410
2115.000000	8.663629
2114.000000	8.643683
2113.000000	8.628928
2112.000000	8.607964
2111.000000	8.609491
2110.000000	8.581099
2109.000000	8.552096
2108.000000	8.536934
2107.000000	8.520855
2106.000000	8.503453
2105.000000	8.485441
2104.000000	8.461323
2103.000000	8.450842
2102.000000	8.431507
2101.000000	8.414919
2100.000000	8.391107
2099.000000	8.368006
2098.000000	8.342769
2097.000000	8.320279
2096.000000	8.300842
2095.000000	8.286188
2094.000000	8.274893
2093.000000	8.265938
2092.000000	8.244669
2091.000000	8.222078
2090.000000	8.211494
2089.000000	8.180049
2088.000000	8.145348
2087.000000	8.139954
2086.000000	8.126929
2085.000000	8.119398
2084.000000	8.108611
2083.000000	8.067601
2082.000000	8.042262
2081.000000	8.036563
2080.000000	8.020179
2079.000000	7.992194
2078.000000	7.957289
2077.000000	7.925844
2076.000000	7.910783
2075.000000	7.884325
2074.000000	7.856034
2073.000000	7.829067
2072.000000	7.795485
2071.000000	7.770248
2070.000000	7.761903
2069.000000	7.729034
2068.000000	7.686191
2067.000000	7.654645
2066.000000	7.632562
2065.000000	7.600608
2064.000000	7.565703
2063.000000	7.546674
2062.000000	7.524591
2061.000000	7.500168
2060.000000	7.478899
2059.000000	7.466789
2058.000000	7.441552
2057.000000	7.419775
2056.000000	7.416315
2055.000000	7.407563
2054.000000	7.395860
2053.000000	7.386396
2052.000000	7.412448
2051.000000	7.410514
2050.000000	7.404408
2049.000000	7.416009
2048.000000	7.425168
2047.000000	7.446335
2046.000000	7.464856
2045.000000	7.492027
2044.000000	7.494062
2043.000000	7.507291
2042.000000	7.538227
2041.000000	7.563770
2040.000000	7.563973
2039.000000	7.580256
2038.000000	7.611293
2037.000000	7.621368
2036.000000	7.629916
2035.000000	7.634801
2034.000000	7.636938
2033.000000	7.650778
2032.000000	7.647521
2031.000000	7.650574
2030.000000	7.660750
2029.000000	7.670113
2028.000000	7.672657
2027.000000	7.658206
2026.000000	7.646504
2025.000000	7.650472
2024.000000	7.655662
2023.000000	7.654950
2022.000000	7.649455
2021.000000	7.641619
2020.000000	7.619943
2019.000000	7.605696
2018.000000	7.608342
2017.000000	7.598980
2016.000000	7.576897
2015.000000	7.576694
2014.000000	7.556138
2013.000000	7.534055
2012.000000	7.507800
2011.000000	7.488261
2010.000000	7.464042
2009.000000	7.456715
2008.000000	7.433818
2007.000000	7.422726
2006.000000	7.379578
2005.000000	7.359836
2004.000000	7.348133
2003.000000	7.313737
2002.000000	7.287075
2001.000000	7.247998
2000.000000	7.222150
1999.000000	7.195793
1998.000000	7.175339
1997.000000	7.142673
1996.000000	7.112653
1995.000000	7.079376
1994.000000	7.054953
1993.000000	7.021676
1992.000000	6.984634
1991.000000	6.959499
1990.000000	6.920523
1989.000000	6.891317
1988.000000	6.857328
1987.000000	6.824255
1986.000000	6.777953
1985.000000	6.746203
1984.000000	6.716793
1983.000000	6.682804
1982.000000	6.632228
1981.000000	6.623679
1980.000000	6.603327
1979.000000	6.558754
1978.000000	6.520898
1977.000000	6.499528
1976.000000	6.455872
1975.000000	6.431957
1974.000000	6.401632
1973.000000	6.377208
1972.000000	6.345967
1971.000000	6.323172
1970.000000	6.287453
1969.000000	6.242677
1968.000000	6.226904
1967.000000	6.207162
1966.000000	6.178973
1965.000000	6.154245
1964.000000	6.138878
1963.000000	6.112827
1962.000000	6.082502
1961.000000	6.053397
1960.000000	6.044137
1959.000000	5.981858
1958.000000	5.980535
1957.000000	5.973818
1956.000000	5.952855
1955.000000	5.917136
1954.000000	5.918866
1953.000000	5.864830
1952.000000	5.841729
1951.000000	5.827482
1950.000000	5.825854
1949.000000	5.784742
1948.000000	5.762863
1947.000000	5.777720
1946.000000	5.762456
1945.000000	5.748107
1944.000000	5.736506
1943.000000	5.740983
1942.000000	5.751669
1941.000000	5.709030
1940.000000	5.707809
1939.000000	5.717476
1938.000000	5.722055
1937.000000	5.699464
1936.000000	5.694681
1935.000000	5.705468
1934.000000	5.710556
1933.000000	5.720122
1932.000000	5.721343
1931.000000	5.763270
1930.000000	5.746072
1929.000000	5.774158
1928.000000	5.781485
1927.000000	5.803059
1926.000000	5.830535
1925.000000	5.865237
1924.000000	5.878466
1923.000000	5.926600
1922.000000	5.964659
1921.000000	5.969239
1920.000000	6.025005
1919.000000	6.030195
1918.000000	6.077922
1917.000000	6.152922
1916.000000	6.195764
1915.000000	6.259366
1914.000000	6.325106
1913.000000	6.352073
1912.000000	6.393999
1911.000000	6.473171
1910.000000	6.547967
1909.000000	6.624290
1908.000000	6.708245
1907.000000	6.789249
1906.000000	6.885110
1905.000000	6.972931
1904.000000	7.069098
1903.000000	7.150814
1902.000000	7.271811
1901.000000	7.385684
1900.000000	7.510141
1899.000000	7.636429
1898.000000	7.776150
1897.000000	7.908239
1896.000000	8.062614
1895.000000	8.237138
1894.000000	8.428148
1893.000000	8.655793
1892.000000	8.840799
1891.000000	9.088491
1890.000000	9.320817
1889.000000	9.591813
1888.000000	9.892117
1887.000000	10.191709
1886.000000	10.547677
1885.000000	10.873625
1884.000000	11.260530
1883.000000	11.668296
1882.000000	12.076469
1881.000000	12.530537
1880.000000	12.975243
1879.000000	13.402446
1878.000000	13.849595
1877.000000	14.307835
1876.000000	14.752135
1875.000000	15.203557
1874.000000	15.662714
1873.000000	16.103248
1872.000000	16.515491
1871.000000	16.920611
1870.000000	17.285230
1869.000000	17.623390
1868.000000	17.972133
1867.000000	18.261751
1866.000000	18.533765
1865.000000	18.798452
1864.000000	19.042175
1863.000000	19.290376
1862.000000	19.511406
1861.000000	19.730299
1860.000000	19.942171
1859.000000	20.140813
1858.000000	20.305263
1857.000000	20.442440
1856.000000	20.575445
1855.000000	20.694711
1854.000000	20.791488
1853.000000	20.873815
1852.000000	20.939554
1851.000000	21.024221
1850.000000	21.095252
1849.000000	21.170354
1848.000000	21.195693
1847.000000	21.181039
1846.000000	21.165876
1845.000000	21.176358
1844.000000	21.185618
1843.000000	21.230292
1842.000000	21.289417
1841.000000	21.299695
1840.000000	21.283616
1839.000000	21.264383
1838.000000	21.245760
1837.000000	21.227239
1836.000000	21.210550
1835.000000	21.168217
1834.000000	21.128224
1833.000000	21.102884
1832.000000	21.059839
1831.000000	21.030124
1830.000000	20.992573
1829.000000	20.957668
1828.000000	20.896712
1827.000000	20.821203
1826.000000	20.747527
1825.000000	20.709467
1824.000000	20.672120
1823.000000	20.653497
1822.000000	20.658992
1821.000000	20.633246
1820.000000	20.571171
1819.000000	20.515201
1818.000000	20.484773
1817.000000	20.461673
1816.000000	20.444170
1815.000000	20.421884
1814.000000	20.412114
1813.000000	20.397359
1812.000000	20.370798
1811.000000	20.340269
1810.000000	20.298750
1809.000000	20.248072
1808.000000	20.222020
1807.000000	20.194544
1806.000000	20.150175
1805.000000	20.086777
1804.000000	20.044545
1803.000000	20.007707
1802.000000	19.964661
1801.000000	19.924057
1800.000000	19.859335
1799.000000	19.794309
1798.000000	19.747803
1797.000000	19.705876
1796.000000	19.660083
1795.000000	19.608183
1794.000000	19.556793
1793.000000	19.512220
1792.000000	19.460830
1791.000000	19.415749
1790.000000	19.372703
1789.000000	19.322330
1788.000000	19.272975
1787.000000	19.220770
1786.000000	19.177521
1785.000000	19.115547
1784.000000	19.064767
1783.000000	19.019278
1782.000000	18.958729
1781.000000	18.901436
1780.000000	18.840175
1779.000000	18.787665
1778.000000	18.730474
1777.000000	18.664938
1776.000000	18.609884
1775.000000	18.557272
1774.000000	18.488379
1773.000000	18.411140
1772.000000	18.340720
1771.000000	18.267043
1770.000000	18.175354
1769.000000	18.116026
1768.000000	18.028713
1767.000000	17.950661
1766.000000	17.883802
1765.000000	17.838314
1764.000000	17.807683
1763.000000	17.771761
1762.000000	17.762500
1761.000000	17.781225
1760.000000	17.827731
1759.000000	17.873321
1758.000000	17.935701
1757.000000	18.010498
1756.000000	18.086006
1755.000000	18.162023
1754.000000	18.215754
1753.000000	18.261039
1752.000000	18.287905
1751.000000	18.325862
1750.000000	18.354865
1749.000000	18.350794
1748.000000	18.341839
1747.000000	18.310089
1746.000000	18.291975
1745.000000	18.228882
1744.000000	18.153272
1743.000000	18.085599
1742.000000	17.990348
1741.000000	17.860804
1740.000000	17.728206
1739.000000	17.591843
1738.000000	17.442556
1737.000000	17.276173
1736.000000	17.153853
1735.000000	17.042524
1734.000000	16.962538
1733.000000	16.912470
1732.000000	16.908502
1731.000000	16.920917
1730.000000	16.972612
1729.000000	17.027870
1728.000000	17.110807
1727.000000	17.212367
1726.000000	17.310772
1725.000000	17.397068
1724.000000	17.473390
1723.000000	17.555819
1722.000000	17.622067
1721.000000	17.666435
1720.000000	17.717317
1719.000000	17.770743
1718.000000	17.816231
1717.000000	17.878918
1716.000000	17.936414
1715.000000	18.010905
1714.000000	18.080409
1713.000000	18.152254
1712.000000	18.216670
1711.000000	18.269282
1710.000000	18.322810
1709.000000	18.346113
1708.000000	18.351202
1707.000000	18.328610
1706.000000	18.312023
1705.000000	18.283020
1704.000000	18.217688
1703.000000	18.154289
1702.000000	18.081834
1701.000000	17.985159
1700.000000	17.849915
1699.000000	17.715587
1698.000000	17.592657
1697.000000	17.461077
1696.000000	17.353106
1695.000000	17.269863
1694.000000	17.275155
1693.000000	17.293981
1692.000000	17.360738
1691.000000	17.477054
1690.000000	17.588994
1689.000000	17.725560
1688.000000	17.858768
1687.000000	17.957682
1686.000000	18.042350
1685.000000	18.118469
1684.000000	18.198251
1683.000000	18.289838
1682.000000	18.451235
1681.000000	18.685901
1680.000000	19.004523
1679.000000	19.398245
1678.000000	19.799092
1677.000000	20.238404
1676.000000	20.655736
1675.000000	21.049968
1674.000000	21.386906
1673.000000	21.692502
1672.000000	21.948640
1671.000000	22.188700
1670.000000	22.397010
1669.000000	22.551487
1668.000000	22.722348
1667.000000	22.852198
1666.000000	22.929843
1665.000000	23.048296
1664.000000	23.121871
1663.000000	23.173465
1662.000000	23.232488
1661.000000	23.274516
1660.000000	23.331911
1659.000000	23.353790
1658.000000	23.388695
1657.000000	23.370581
1656.000000	23.358878
1655.000000	23.388287
1654.000000	23.373634
1653.000000	23.347989
1652.000000	23.321327
1651.000000	23.280622
1650.000000	23.271870
1649.000000	23.209998
1648.000000	23.181199
1647.000000	23.136932
1646.000000	23.067936
1645.000000	23.004436
1644.000000	22.956709
1643.000000	22.907252
1642.000000	22.853724
1641.000000	22.787985
1640.000000	22.727436
1639.000000	22.653556
1638.000000	22.597484
1637.000000	22.545279
1636.000000	22.444635
1635.000000	22.387342
1634.000000	22.306644
1633.000000	22.248435
1632.000000	22.173741
1631.000000	22.078592
1630.000000	22.020791
1629.000000	21.920045
1628.000000	21.835072
1627.000000	21.760683
1626.000000	21.685073
1625.000000	21.596234
1624.000000	21.498948
1623.000000	21.417232
1622.000000	21.329105
1621.000000	21.271303
1620.000000	21.189892
1619.000000	21.087111
1618.000000	21.017607
1617.000000	20.949120
1616.000000	20.880735
1615.000000	20.804718
1614.000000	20.741116
1613.000000	20.658382
1612.000000	20.570458
1611.000000	20.503600
1610.000000	20.411504
1609.000000	20.339150
1608.000000	20.281247
1607.000000	20.190067
1606.000000	20.110081
1605.000000	20.047089
1604.000000	19.976160
1603.000000	19.900244
1602.000000	19.808759
1601.000000	19.738339
1600.000000	19.656114
1599.000000	19.575110
1598.000000	19.512017
1597.000000	19.406590
1596.000000	19.348483
1595.000000	19.278673
1594.000000	19.195227
1593.000000	19.117277
1592.000000	19.068837
1591.000000	19.006660
1590.000000	18.936748
1589.000000	18.868872
1588.000000	18.792550
1587.000000	18.726098
1586.000000	18.651709
1585.000000	18.598588
1584.000000	18.538141
1583.000000	18.471079
1582.000000	18.425692
1581.000000	18.353237
1580.000000	18.308563
1579.000000	18.269994
1578.000000	18.202423
1577.000000	18.154391
1576.000000	18.108089
1575.000000	18.079188
1574.000000	18.032275
1573.000000	17.991570
1572.000000	17.960837
1571.000000	17.925627
1570.000000	17.896217
1569.000000	17.856733
1568.000000	17.817961
1567.000000	17.800967
1566.000000	17.773796
1565.000000	17.760160
1564.000000	17.737161
1563.000000	17.707955
1562.000000	17.672338
1561.000000	17.632446
1560.000000	17.593980
1559.000000	17.585737
1558.000000	17.566504
1557.000000	17.508092
1556.000000	17.465962
1555.000000	17.427597
1554.000000	17.380786
1553.000000	17.332753
1552.000000	17.295915
1551.000000	17.244830
1550.000000	17.202496
1549.000000	17.159348
1548.000000	17.093202
1547.000000	17.036927
1546.000000	17.004261
1545.000000	16.967524
1544.000000	16.914302
1543.000000	16.857620
1542.000000	16.821290
1541.000000	16.790761
1540.000000	16.735402
1539.000000	16.691542
1538.000000	16.643510
1537.000000	16.590898
1536.000000	16.569324
1535.000000	16.533402
1534.000000	16.464406
1533.000000	16.411794
1532.000000	16.367832
1531.000000	16.318782
1530.000000	16.263423
1529.000000	16.203383
1528.000000	16.150364
1527.000000	16.084218
1526.000000	16.012169
1525.000000	15.948771
1524.000000	15.897380
1523.000000	15.831030
1522.000000	15.772313
1521.000000	15.724179
1520.000000	15.656099
1519.000000	15.590055
1518.000000	15.532457
1517.000000	15.456337
1516.000000	15.375334
1515.000000	15.321603
1514.000000	15.252709
1513.000000	15.176590
1512.000000	15.120925
1511.000000	15.056713
1510.000000	14.972758
1509.000000	14.897860
1508.000000	14.823776
1507.000000	14.751219
1506.000000	14.689448
1505.000000	14.636633
1504.000000	14.565399
1503.000000	14.476254
1502.000000	14.404002
1501.000000	14.332259
1500.000000	14.261838
1499.000000	14.205461
1498.000000	14.149186
1497.000000	14.070421
1496.000000	14.004886
1495.000000	13.965300
1494.000000	13.906684
1493.000000	13.854378
1492.000000	13.804819
1491.000000	13.751291
1490.000000	13.697662
1489.000000	13.658687
1488.000000	13.610654
1487.000000	13.548782
1486.000000	13.498104
1485.000000	13.456991
1484.000000	13.421680
1483.000000	13.375988
1482.000000	13.329584
1481.000000	13.291422
1480.000000	13.255398
1479.000000	13.234537
1478.000000	13.215202
1477.000000	13.177040
1476.000000	13.137963
1475.000000	13.109978
1474.000000	13.091661
1473.000000	13.085453
1472.000000	13.073750
1471.000000	13.061539
1470.000000	13.037421
1469.000000	13.016254
1468.000000	13.003635
1467.000000	13.003432
1466.000000	13.008825
1465.000000	13.004144
1464.000000	12.991627
1463.000000	12.995698
1462.000000	13.001600
1461.000000	13.018595
1460.000000	13.033554
1459.000000	13.028873
1458.000000	13.048513
1457.000000	13.092780
1456.000000	13.124530
1455.000000	13.162997
1454.000000	13.221511
1453.000000	13.262216
1452.000000	13.302718
1451.000000	13.364590
1450.000000	13.399597
1449.000000	13.433179
1448.000000	13.488843
1447.000000	13.579006
1446.000000	13.637418
1445.000000	13.676699
1444.000000	13.732465
1443.000000	13.803699
1442.000000	13.873306
1441.000000	13.959092
1440.000000	14.020354
1439.000000	14.115910
1438.000000	14.212076
1437.000000	14.301323
1436.000000	14.387822
1435.000000	14.482054
1434.000000	14.586769
1433.000000	14.686701
1432.000000	14.798437
1431.000000	14.917500
1430.000000	15.037479
1429.000000	15.173028
1428.000000	15.311732
1427.000000	15.456337
1426.000000	15.611120
1425.000000	15.777198
1424.000000	15.949279
1423.000000	16.121768
1422.000000	16.300160
1421.000000	16.503381
1420.000000	16.741101
1419.000000	16.952972
1418.000000	17.180719
1417.000000	17.394625
1416.000000	17.659109
1415.000000	17.938653
1414.000000	18.201406
1413.000000	18.512700
1412.000000	18.780134
1411.000000	19.095499
1410.000000	19.451976
1409.000000	19.823820
1408.000000	20.205942
1407.000000	20.603531
1406.000000	21.007736
1405.000000	21.441960
1404.000000	21.906307
1403.000000	22.349588
1402.000000	22.766920
1401.000000	23.269021
1400.000000	23.785775
1399.000000	24.258975
1398.000000	24.646083
1397.000000	25.110226
1396.000000	25.652422
1395.000000	26.184136
1394.000000	26.665477
1393.000000	27.143256
1392.000000	27.695526
1391.000000	28.217471
1390.000000	28.761905
1389.000000	29.333001
1388.000000	30.000264
1387.000000	30.676991
1386.000000	31.345068
1385.000000	32.007141
1384.000000	32.722436
1383.000000	33.447195
1382.000000	34.154451
1381.000000	34.766049
1380.000000	35.210755
1379.000000	35.708073
1378.000000	36.068417
1377.000000	36.382357
1376.000000	36.686121
1375.000000	36.982456
1374.000000	37.277366
1373.000000	37.605655
1372.000000	37.975667
1371.000000	38.363894
1370.000000	38.726274
1369.000000	39.044895
1368.000000	39.410328
1367.000000	39.745129
1366.000000	39.976031
1365.000000	40.253743
1364.000000	40.485357
1363.000000	40.678605
1362.000000	40.924160
1361.000000	41.125652
1360.000000	41.292137
1359.000000	41.376092
1358.000000	41.502787
1357.000000	41.643933
1356.000000	41.827006
1355.000000	42.100851
1354.000000	42.389859
1353.000000	42.743996
1352.000000	43.123573
1351.000000	43.547418
1350.000000	43.994872
1349.000000	44.389816
1348.000000	44.793511
1347.000000	45.168611
1346.000000	45.508196
1345.000000	45.853377
1344.000000	46.232242
1343.000000	46.560633
1342.000000	46.890957
1341.000000	47.241227
1340.000000	47.577453
1339.000000	47.905538
1338.000000	48.243902
1337.000000	48.572598
1336.000000	48.905567
1335.000000	49.206278
1334.000000	49.527546
1333.000000	49.860414
1332.000000	50.160310
1331.000000	50.473233
1330.000000	50.765905
1329.000000	51.051147
1328.000000	51.338934
1327.000000	51.620819
1326.000000	51.884590
1325.000000	52.136963
1324.000000	52.401752
1323.000000	52.637436
1322.000000	52.878106
1321.000000	53.090486
1320.000000	53.319759
1319.000000	53.533564
1318.000000	53.756528
1317.000000	53.949064
1316.000000	54.156560
1315.000000	54.340548
1314.000000	54.508967
1313.000000	54.681558
1312.000000	54.868701
1311.000000	55.020735
1310.000000	55.173584
1309.000000	55.340679
1308.000000	55.447938
1307.000000	55.583589
1306.000000	55.699497
1305.000000	55.813472
1304.000000	55.925310
1303.000000	56.021477
1302.000000	56.108179
1301.000000	56.185723
1300.000000	56.264284
1299.000000	56.342031
1298.000000	56.398815
1297.000000	56.464555
1296.000000	56.510959
1295.000000	56.565402
1294.000000	56.607532
1293.000000	56.655361
1292.000000	56.695252
1291.000000	56.716622
1290.000000	56.733210
1289.000000	56.746439
1288.000000	56.758040
1287.000000	56.756107
1286.000000	56.747966
1285.000000	56.733312
1284.000000	56.706548
1283.000000	56.688434
1282.000000	56.659940
1281.000000	56.633584
1280.000000	56.604174
1279.000000	56.581379
1278.000000	56.539351
1277.000000	56.520931
1276.000000	56.488469
1275.000000	56.457940
1274.000000	56.436061
1273.000000	56.413469
1272.000000	56.384060
1271.000000	56.353327
1270.000000	56.336027
1269.000000	56.313334
1268.000000	56.279243
1267.000000	56.255125
1266.000000	56.226225
1265.000000	56.192643
1264.000000	56.159773
1263.000000	56.123749
1262.000000	56.086300
1261.000000	56.048546
1260.000000	56.001734
1259.000000	55.965914
1258.000000	55.927142
1257.000000	55.881247
1256.000000	55.838302
1255.000000	55.774090
1254.000000	55.723208
1253.000000	55.667747
1252.000000	55.593561
1251.000000	55.519478
1250.000000	55.443562
1249.000000	55.386269
1248.000000	55.308420
1247.000000	55.215205
1246.000000	55.117410
1245.000000	55.020735
1244.000000	54.925077
1243.000000	54.835424
1242.000000	54.727453
1241.000000	54.599842
1240.000000	54.487596
1239.000000	54.387258
1238.000000	54.280813
1237.000000	54.172130
1236.000000	54.055916
1235.000000	53.926066
1234.000000	53.803746
1233.000000	53.669622
1232.000000	53.534277
1231.000000	53.410736
1230.000000	53.270608
1229.000000	53.128750
1228.000000	52.977529
1227.000000	52.812571
1226.000000	52.662673
1225.000000	52.509926
1224.000000	52.354025
1223.000000	52.200260
1222.000000	52.033775
1221.000000	51.868918
1220.000000	51.712406
1219.000000	51.548872
1218.000000	51.382591
1217.000000	51.233813
1216.000000	51.093888
1215.000000	50.939411
1214.000000	50.785341
1213.000000	50.651421
1212.000000	50.504678
1211.000000	50.367704
1210.000000	50.233071
1209.000000	50.096505
1208.000000	49.966553
1207.000000	49.850950
1206.000000	49.730462
1205.000000	49.633888
1204.000000	49.560415
1203.000000	49.473306
1202.000000	49.394439
1201.000000	49.350986
1200.000000	49.300817
1199.000000	49.218185
1198.000000	49.137385
1197.000000	49.051089
1196.000000	48.927752
1195.000000	48.772563
1194.000000	48.573106
1193.000000	48.335489
1192.000000	48.055334
1191.000000	47.726638
1190.000000	47.365785
1189.000000	47.025081
1188.000000	46.719282
1187.000000	46.487770
1186.000000	46.339094
1185.000000	46.280071
1184.000000	46.325763
1183.000000	46.498964
1182.000000	46.788685
1181.000000	47.153507
1180.000000	47.569007
1179.000000	48.011576
1178.000000	48.455570
1177.000000	48.876463
1176.000000	49.231312
1175.000000	49.577511
1174.000000	49.872422
1173.000000	50.156851
1172.000000	50.442399
1171.000000	50.734053
1170.000000	51.034865
1169.000000	51.337306
1168.000000	51.649109
1167.000000	51.963151
1166.000000	52.285029
1165.000000	52.616574
1164.000000	52.963995
1163.000000	53.311415
1162.000000	53.670640
1161.000000	54.024878
1160.000000	54.387563
1159.000000	54.728063
1158.000000	55.077824
1157.000000	55.408657
1156.000000	55.735623
1155.000000	56.037555
1154.000000	56.314962
1153.000000	56.572322
1152.000000	56.788976
1151.000000	56.968589
1150.000000	57.153798
1149.000000	57.311837
1148.000000	57.479645
1147.000000	57.670248
1146.000000	57.868788
1145.000000	58.119533
1144.000000	58.401316
1143.000000	58.726043
1142.000000	59.088117
1141.000000	59.486318
1140.000000	59.896526
1139.000000	60.347643
1138.000000	60.755002
1137.000000	61.207239
1136.000000	61.692650
1135.000000	62.183048
1134.000000	62.661031
1133.000000	63.082637
1132.000000	63.459060
1131.000000	63.828156
1130.000000	64.144538
1129.000000	64.433546
1128.000000	64.703626
1127.000000	64.897079
1126.000000	65.052879
1125.000000	65.182220
1124.000000	65.323060
1123.000000	65.425434
1122.000000	65.518650
1121.000000	65.573195
1120.000000	65.620617
1119.000000	65.673330
1118.000000	65.723500
1117.000000	65.738968
1116.000000	65.767054
1115.000000	65.779571
1114.000000	65.777536
1113.000000	65.798194
1112.000000	65.797380
1111.000000	65.798296
1110.000000	65.799008
1109.000000	65.804605
1108.000000	65.801349
1107.000000	65.811220
1106.000000	65.817122
1105.000000	65.809795
1104.000000	65.822719
1103.000000	65.825670
1102.000000	65.827095
1101.000000	65.828621
1100.000000	65.820277
1099.000000	65.808981
1098.000000	65.826891
1097.000000	65.815188
1096.000000	65.786288
1095.000000	65.788221
1094.000000	65.753621
1093.000000	65.743547
1092.000000	65.737136
1091.000000	65.693581
1090.000000	65.662645
1089.000000	65.668344
1088.000000	65.644531
1087.000000	65.603520
1086.000000	65.567089
1085.000000	65.534627
1084.000000	65.508779
1083.000000	65.438664
1082.000000	65.417700
1081.000000	65.357660
1080.000000	65.319702
1079.000000	65.289071
1078.000000	65.237986
1077.000000	65.181711
1076.000000	65.144873
1075.000000	65.103760
1074.000000	65.052064
1073.000000	65.003014
1072.000000	64.943890
1071.000000	64.899419
1070.000000	64.850675
1069.000000	64.800607
1068.000000	64.734563
1067.000000	64.700472
1066.000000	64.624760
1065.000000	64.562786
1064.000000	64.515975
1063.000000	64.464279
1062.000000	64.394673
1061.000000	64.331478
1060.000000	64.275915
1059.000000	64.194402
1058.000000	64.128154
1057.000000	64.056208
1056.000000	64.009295
1055.000000	63.924017
1054.000000	63.854004
1053.000000	63.790096
1052.000000	63.721202
1051.000000	63.646610
1050.000000	63.588605
1049.000000	63.527547
1048.000000	63.459874
1047.000000	63.377344
1046.000000	63.342541
1045.000000	63.265506
1044.000000	63.179719
1043.000000	63.123851
1042.000000	63.048241
1041.000000	62.994408
1040.000000	62.913303
1039.000000	62.850108
1038.000000	62.803805
1037.000000	62.726974
1036.000000	62.653399
1035.000000	62.551839
1034.000000	62.490577
1033.000000	62.419445
1032.000000	62.340883
1031.000000	62.253469
1030.000000	62.160966
1029.000000	62.070803
1028.000000	61.993361
1027.000000	61.926096
1026.000000	61.834610
1025.000000	61.731524
1024.000000	61.648892
1023.000000	61.532271
1022.000000	61.449232
1021.000000	61.367211
1020.000000	61.275929
1019.000000	61.178033
1018.000000	61.096826
1017.000000	61.032409
1016.000000	60.943773
1015.000000	60.871521
1014.000000	60.810565
1013.000000	60.732105
1012.000000	60.676950
1011.000000	60.632581
1010.000000	60.576000
1009.000000	60.526849
1008.000000	60.497134
1007.000000	60.452052
1006.000000	60.415214
1005.000000	60.392114
1004.000000	60.371354
1003.000000	60.342250
1002.000000	60.305004
1001.000000	60.251782
1000.000000	60.229598
999.000000	60.210975
998.000000	60.185432
997.000000	60.153682
996.000000	60.136789
995.000000	60.116131
994.000000	60.094151
993.000000	60.077054
992.000000	60.055175
991.000000	60.038893
990.000000	60.024748
989.000000	60.008466
988.000000	59.996865
987.000000	59.992082
986.000000	59.990962
985.000000	59.993506
984.000000	59.992387
983.000000	60.009178
982.000000	60.004802
981.000000	59.995338
980.000000	60.013249
979.000000	60.029938
978.000000	60.030752
977.000000	60.037977
976.000000	60.043472
975.000000	60.073900
974.000000	60.106464
973.000000	60.111959
972.000000	60.110636
971.000000	60.135263
970.000000	60.168743
969.000000	60.178207
968.000000	60.194184
967.000000	60.220134
966.000000	60.258498
965.000000	60.300425
964.000000	60.318844
963.000000	60.349984
962.000000	60.388145
961.000000	60.426815
960.000000	60.481157
959.000000	60.515451
958.000000	60.547507
957.000000	60.592486
956.000000	60.643266
955.000000	60.695471
954.000000	60.740857
953.000000	60.801203
952.000000	60.844554
951.000000	60.878441
950.000000	60.941331
949.000000	60.982545
948.000000	61.015109
947.000000	61.068739
946.000000	61.113108
945.000000	61.140177
944.000000	61.151371
943.000000	61.194213
942.000000	61.219959
941.000000	61.219247
940.000000	61.227184
939.000000	61.245502
938.000000	61.259952
937.000000	61.261580
936.000000	61.271859
935.000000	61.283358
934.000000	61.282442
933.000000	61.290990
932.000000	61.295977
931.000000	61.285597
930.000000	61.277456
929.000000	61.285698
928.000000	61.274097
927.000000	61.249674
926.000000	61.242754
925.000000	61.247028
924.000000	61.235122
923.000000	61.208256
922.000000	61.200828
921.000000	61.191669
920.000000	61.164295
919.000000	61.146588
918.000000	61.125625
917.000000	61.090720
916.000000	61.058562
915.000000	61.037192
914.000000	61.000252
913.000000	60.966874
912.000000	60.934716
911.000000	60.902152
910.000000	60.864703
909.000000	60.844859
908.000000	60.835599
907.000000	60.825728
906.000000	60.813821
905.000000	60.806494
904.000000	60.804357
903.000000	60.816671
902.000000	60.814127
901.000000	60.820640
900.000000	60.861243
899.000000	60.878238
898.000000	60.886989
897.000000	60.904900
896.000000	60.954764
895.000000	61.000354
894.000000	61.026202
893.000000	61.066602
892.000000	61.101303
891.000000	61.111886
890.000000	61.133664
889.000000	61.150150
888.000000	61.171113
887.000000	61.185868
886.000000	61.196961
885.000000	61.203575
884.000000	61.209071
883.000000	61.216092
882.000000	61.231560
881.000000	61.225251
880.000000	61.237564
879.000000	61.207748
878.000000	61.202151
877.000000	61.200522
876.000000	61.186988
875.000000	61.193603
874.000000	61.197470
873.000000	61.145163
872.000000	61.133257
871.000000	61.167653
870.000000	61.135597
869.000000	61.118806
868.000000	61.110869
867.000000	61.105068
866.000000	61.094383
865.000000	61.040347
864.000000	61.031392
863.000000	60.997810
862.000000	60.990992
861.000000	60.946826
860.000000	60.939499
859.000000	60.884649
858.000000	60.849133
857.000000	60.758900
856.000000	60.472700
855.000000	61.315800
854.000000	61.243500
853.000000	61.097100
852.000000	61.833000
851.000000	61.620500
850.000000	61.137800
849.000000	60.582600
848.000000	60.755600
847.000000	61.082000
846.000000	61.321600
845.000000	60.741200
844.000000	60.606200
843.000000	60.571300
842.000000	61.024300
841.000000	60.501300
840.000000	60.539300
839.000000	59.997000
838.000000	60.482300
837.000000	60.289900
836.000000	60.043300
835.000000	59.760900
834.000000	59.885800
833.000000	60.220300
832.000000	60.205300
831.000000	59.774300
830.000000	59.962100
829.000000	60.003400
828.000000	59.592800
827.000000	59.216200
826.000000	59.363600
825.000000	59.467900
824.000000	59.374500
823.000000	58.912300
822.000000	58.870900
821.000000	58.693000
820.000000	58.823600
819.000000	58.777300
818.000000	58.441800
817.000000	58.357600
816.000000	58.192600
815.000000	57.945300
814.000000	57.978200
813.000000	57.851700
812.000000	57.864700
811.000000	57.718800
810.000000	57.672700
809.000000	57.539000
808.000000	57.469900
807.000000	57.366700
806.000000	57.133700
805.000000	57.095200
804.000000	57.103200
803.000000	57.010400
802.000000	56.616200
801.000000	56.677200
800.000000	56.545500
799.000000	56.353800
798.000000	55.979400
797.000000	55.964200
796.000000	55.801300
795.000000	55.653900
794.000000	55.678900
793.000000	55.701600
792.000000	55.153100
791.000000	55.398700
790.000000	55.147400
789.000000	55.025500
788.000000	55.107700
787.000000	54.888000
786.000000	54.684000
785.000000	54.536600
784.000000	54.399700
783.000000	54.454600
782.000000	54.110200
781.000000	53.899400
780.000000	53.783500
779.000000	53.722100
778.000000	53.436000
777.000000	53.248300
776.000000	53.154500
775.000000	53.118200
774.000000	52.919400
773.000000	52.911400
772.000000	52.510100
771.000000	52.679200
770.000000	52.475000
769.000000	51.983400
768.000000	52.156700
767.000000	51.888800
766.000000	51.799700
765.000000	51.508500
764.000000	51.547400
763.000000	51.372700
762.000000	51.232600
761.000000	50.918300
760.000000	50.864600
759.000000	50.482900
758.000000	50.301300
757.000000	50.255100
756.000000	50.057100
755.000000	49.781000
754.000000	49.631100
753.000000	49.660300
752.000000	49.329100
751.000000	49.192300
750.000000	49.080500
749.000000	48.875400
748.000000	48.806500
747.000000	48.517100
746.000000	48.417600
745.000000	48.144300
744.000000	48.018000
743.000000	47.776000
742.000000	47.509400
741.000000	47.214800
740.000000	47.127100
739.000000	46.911500
738.000000	46.688400
737.000000	46.547600
736.000000	46.413900
735.000000	46.189300
734.000000	45.993500
733.000000	45.751400
732.000000	45.640400
731.000000	45.455600
730.000000	45.224100
729.000000	44.982400
728.000000	44.736200
727.000000	44.534100
726.000000	44.268400
725.000000	44.012000
724.000000	43.765200
723.000000	43.590900
722.000000	43.299700
721.000000	43.101500
720.000000	42.864300
719.000000	42.510300
718.000000	42.369000
717.000000	42.172800
716.000000	41.929800
715.000000	41.694900
714.000000	41.409600
713.000000	41.134500
712.000000	40.873600
711.000000	40.666600
710.000000	40.465600
709.000000	40.179500
708.000000	39.877300
707.000000	39.685200
706.000000	39.383700
705.000000	39.115800
704.000000	38.848800
703.000000	38.560800
702.000000	38.246000
701.000000	38.033800
700.000000	37.790600
699.000000	37.520100
698.000000	37.246000
697.000000	36.998900
696.000000	36.714300
695.000000	36.451500
694.000000	36.241000
693.000000	35.988400
692.000000	35.675700
691.000000	35.412000
690.000000	35.183100
689.000000	34.913400
688.000000	34.690300
687.000000	34.425400
686.000000	34.173700
685.000000	33.941500
684.000000	33.703800
683.000000	33.495600
682.000000	33.243900
681.000000	33.055400
680.000000	32.815700
679.000000	32.551100
678.000000	32.358200
677.000000	32.150900
676.000000	31.890200
675.000000	31.685700
674.000000	31.518200
673.000000	31.283600
672.000000	31.083700
671.000000	30.868500
670.000000	30.644200
669.000000	30.466400
668.000000	30.299800
667.000000	30.069900
666.000000	29.929600
665.000000	29.757300
664.000000	29.610700
663.000000	29.396500
662.000000	29.205300
661.000000	29.062800
660.000000	28.904400
659.000000	28.738600
658.000000	28.576100
657.000000	28.419300
656.000000	28.267300
655.000000	28.107100
654.000000	27.949000
653.000000	27.764600
652.000000	27.604400
651.000000	27.474200
650.000000	27.340100
649.000000	27.212900
648.000000	27.067200
647.000000	26.923900
646.000000	26.765100
645.000000	26.648200
644.000000	26.548400
643.000000	26.405800
642.000000	26.248800
641.000000	26.098200
640.000000	25.965500
639.000000	25.896800
638.000000	25.792000
637.000000	25.675600
636.000000	25.557000
635.000000	25.444700
634.000000	25.371600
633.000000	25.262700
632.000000	25.129300
631.000000	24.990900
630.000000	24.899900
629.000000	24.837900
628.000000	24.724000
627.000000	24.596800
626.000000	24.508200
625.000000	24.446300
624.000000	24.386900
623.000000	24.315000
622.000000	24.218200
621.000000	24.115300
620.000000	24.039800
619.000000	23.982500
618.000000	23.887700
617.000000	23.787800
616.000000	23.736600
615.000000	23.656400
614.000000	23.557100
613.000000	23.475900
612.000000	23.410300
611.000000	23.343300
610.000000	23.272500
609.000000	23.200900
608.000000	23.124600
607.000000	23.050500
606.000000	22.980600
605.000000	22.895200
604.000000	22.838500
603.000000	22.773500
602.000000	22.704100
601.000000	22.619200
600.000000	22.536200
599.000000	22.497900
598.000000	22.424100
597.000000	22.316400
596.000000	22.288000
595.000000	22.240800
594.000000	22.157400
593.000000	22.062200
592.000000	22.025300
591.000000	21.953400
590.000000	21.891900
589.000000	21.798600
588.000000	21.710700
587.000000	21.628200
586.000000	21.559900
585.000000	21.491300
584.000000	21.431800
583.000000	21.331300
582.000000	21.267600
581.000000	21.212400
580.000000	21.119700
579.000000	21.020400
578.000000	20.938300
577.000000	20.890500
576.000000	20.801900
575.000000	20.708300
574.000000	20.598700
573.000000	20.507200
572.000000	20.418600
571.000000	20.331500
570.000000	20.261100
569.000000	20.176300
568.000000	20.070700
567.000000	19.983200
566.000000	19.869500
565.000000	19.746700
564.000000	19.660200
563.000000	19.545500
562.000000	19.439400
561.000000	19.336600
560.000000	19.227400
559.000000	19.095400
558.000000	18.965500
557.000000	18.879100
556.000000	18.771500
555.000000	18.685600
554.000000	18.555800
553.000000	18.431700
552.000000	18.310100
551.000000	18.187400
550.000000	18.058700
549.000000	17.925200
548.000000	17.794800
547.000000	17.684200
546.000000	17.552700
545.000000	17.415000
544.000000	17.277300
543.000000	17.158000
542.000000	17.040300
541.000000	16.890200
540.000000	16.741000
539.000000	16.593000
538.000000	16.464100
537.000000	16.308300
536.000000	16.162200
535.000000	16.001700
534.000000	15.862200
533.000000	15.723200
532.000000	15.566200
531.000000	15.419400
530.000000	15.261400
529.000000	15.128100
528.000000	14.952700
527.000000	14.783900
526.000000	14.626700
525.000000	14.486600
524.000000	14.327100
523.000000	14.158500
522.000000	13.998200
521.000000	13.852500
520.000000	13.658100
519.000000	13.515500
518.000000	13.350300
517.000000	13.195000
516.000000	13.031600
515.000000	12.869500
514.000000	12.709300
513.000000	12.554100
512.000000	12.416100
511.000000	12.229100
510.000000	12.111700
509.000000	11.944400
508.000000	11.829700
507.000000	11.690200
506.000000	11.582900
505.000000	11.438700
504.000000	11.303800
503.000000	11.167700
502.000000	11.048400
501.000000	10.941300
500.000000	10.824100
499.000000	10.694600
498.000000	10.603300
497.000000	10.511200
496.000000	10.436100
495.000000	10.329400
494.000000	10.254200
493.000000	10.117700
492.000000	10.049700
491.000000	9.991900
490.000000	9.894900
489.000000	9.816200
488.000000	9.751700
487.000000	9.661500
486.000000	9.616100
485.000000	9.549200
484.000000	9.450100
483.000000	9.439800
482.000000	9.339600
481.000000	9.265600
480.000000	9.188700
479.000000	9.141700
478.000000	9.066700
477.000000	9.014500
476.000000	8.939200
475.000000	8.881100
474.000000	8.837900
473.000000	8.796200
472.000000	8.722500
471.000000	8.674300
470.000000	8.612000
469.000000	8.571400
468.000000	8.523000
467.000000	8.468500
466.000000	8.436900
465.000000	8.373300
464.000000	8.343300
463.000000	8.300600
462.000000	8.244400
461.000000	8.215500
460.000000	8.178900
459.000000	8.172500
458.000000	8.111500
457.000000	8.105900
456.000000	8.045900
455.000000	8.026500
454.000000	7.985500
453.000000	7.965500
452.000000	7.948400
451.000000	7.896800
450.000000	7.843300
449.000000	7.849500
448.000000	7.811000
447.000000	7.748200
446.000000	7.746100
445.000000	7.703400
444.000000	7.678500
443.000000	7.648900
442.000000	7.643500
441.000000	7.613200
440.000000	7.549400
439.000000	7.547600
438.000000	7.483200
437.000000	7.466100
436.000000	7.418700
435.000000	7.408400
434.000000	7.371700
433.000000	7.316600
432.000000	7.286800
431.000000	7.262300
430.000000	7.240400
429.000000	7.199200
428.000000	7.151200
427.000000	7.114000
426.000000	7.081300
425.000000	7.042300
424.000000	7.024600
423.000000	6.995700
422.000000	6.957300
421.000000	6.922100
420.000000	6.873500
419.000000	6.845600
418.000000	6.816400
417.000000	6.776000
416.000000	6.718600
415.000000	6.694500
414.000000	6.654700
413.000000	6.603700
412.000000	6.579600
411.000000	6.544500
410.000000	6.502100
409.000000	6.452100
408.000000	6.396300
407.000000	6.392700
406.000000	6.316200
405.000000	6.279100
404.000000	6.235200
403.000000	6.184700
402.000000	6.148600
401.000000	6.064100
400.000000	6.020800
399.000000	5.962900
398.000000	5.944600
397.000000	5.921900
396.000000	5.852200
395.000000	5.782200
394.000000	5.728400
393.000000	5.678000
392.000000	5.625500
391.000000	5.577100
390.000000	5.535400
389.000000	5.470300
388.000000	5.424000
387.000000	5.340700
386.000000	5.273100
385.000000	5.249300
384.000000	5.204000
383.000000	5.142200
382.000000	5.108600
381.000000	5.067500
380.000000	4.992800
379.000000	4.968600
378.000000	4.924100
377.000000	4.887900
376.000000	4.789200
375.000000	4.692900
374.000000	4.660100
373.000000	4.546800
372.000000	4.620800
371.000000	4.565400
370.000000	4.461600
369.000000	4.470400
368.000000	4.435500
367.000000	4.485000
366.000000	4.392500
365.000000	4.446800
364.000000	4.540400
363.000000	4.459800
362.000000	4.426500
361.000000	4.340300
360.000000	4.145400
359.000000	4.192300
358.000000	4.278000
357.000000	4.192300
356.000000	4.154700
355.000000	4.185300
354.000000	4.110000
353.000000	4.101400
352.000000	4.319300
351.000000	4.244100
350.000000	4.214300
349.000000	4.237500
348.000000	4.189100
347.000000	4.101200
346.000000	4.021000
345.000000	4.038100
344.000000	4.069900
343.000000	4.083600
342.000000	4.079900
341.000000	4.114500
340.000000	4.091800
339.000000	4.064100
338.000000	4.084200
337.000000	4.017600
336.000000	3.965300
335.000000	4.193200
334.000000	4.156500
333.000000	3.969200
332.000000	4.139600
331.000000	4.109000
330.000000	3.868100
329.000000	3.751900
328.000000	3.784100
327.000000	4.043000
326.000000	4.391800
325.000000	4.295500
324.000000	4.265900
323.000000	4.181400
322.000000	4.063700
321.000000	3.945500
320.000000	3.856700
319.000000	3.921300
318.000000	3.887000
317.000000	4.019800
316.000000	4.023900
315.000000	3.969400
314.000000	3.969600
313.000000	3.920100
312.000000	3.937000
311.000000	3.942400
310.000000	3.873100
309.000000	3.874000
308.000000	3.890300
307.000000	3.940800
306.000000	3.933700
305.000000	3.914000
304.000000	3.920500
303.000000	3.927700
302.000000	3.922600
301.000000	3.953100
300.000000	3.971600
299.000000	3.993200
298.000000	3.992400
297.000000	3.979900
296.000000	3.970200
295.000000	3.964000
294.000000	3.933800
293.000000	3.906100
292.000000	3.954300
291.000000	3.953400
290.000000	3.987000
289.000000	3.935600
288.000000	3.926000
287.000000	3.966700
286.000000	3.953500
285.000000	3.967500
284.000000	3.993500
283.000000	3.989500
282.000000	3.957100
281.000000	3.966400
280.000000	3.968000
279.000000	4.026400
278.000000	4.026800
277.000000	4.002500
276.000000	4.028300
275.000000	4.039000
274.000000	4.060800
273.000000	4.017700
272.000000	4.035900
271.000000	4.091400
270.000000	4.106700
269.000000	4.066900
268.000000	4.047700
267.000000	4.108400
266.000000	4.173100
265.000000	4.150600
264.000000	4.166100
263.000000	4.180100
262.000000	4.188100
261.000000	4.195800
260.000000	4.239000
259.000000	4.270400
258.000000	4.259300
257.000000	4.254400
256.000000	4.239100
255.000000	4.254800
254.000000	4.290800
253.000000	4.286800
252.000000	4.322000
251.000000	4.347500
250.000000	4.299900
