PE UV       SUBTECH     SPECTRUM    ASCII       PEDS        4.00        
   -1
CICIMAUCR0225-3.ASC
24/05/30
11:57:32.00
24/05/30
11:57:32.00
Vinicio Soto Monge
C. resplendens, F Ventral
250,000000
1
Lambda 1050
1050L1511233
PerkinElmer UV WinLab 6.3.2.0749 / 2.02.05 Lambda 900 UV/VIS/NIR, Aug  7 2015 09:38:08

0
0
3350/servo 860,8/2
0
0
UV/VIS
1
1
1
DoubleDePol,CommonBeamDepol,RBeamAtt,SBeamAtt,60mm sphere, WB InGaAs Detector
0
0
0
0
Program
Program
3350/servo 860,8/2
3350/0,2 860,8/0,2
3350/0,2 860,8/0,2
0
15.00
 
 
 
0
 
860,8
319,2
860,8
Front
100
on
S:100 R:100
0
0
0
0
 
0
 
 
 
0
 
 
0
0
0
0
0
 
 
 
 
0
0


0
0
#HDR
-1
-1
#GR
nm
%R
1.0
0.0
2500,000000
-1,000000
2251
8
54,354700
4,244400
#DATA
2482.000000	5.180826
2481.000000	5.147942
2480.000000	5.127783
2479.000000	5.109990
2478.000000	5.099967
2477.000000	5.014604
2476.000000	5.087354
2475.000000	5.052443
2474.000000	5.056722
2473.000000	5.011225
2472.000000	5.002216
2471.000000	4.984422
2470.000000	5.067759
2469.000000	5.018883
2468.000000	5.040843
2467.000000	5.065619
2466.000000	4.975075
2465.000000	4.956381
2464.000000	5.042307
2463.000000	5.041519
2462.000000	4.974850
2461.000000	5.006946
2460.000000	5.066182
2459.000000	5.039041
2458.000000	5.041406
2457.000000	5.036902
2456.000000	5.072489
2455.000000	5.071137
2454.000000	5.076655
2453.000000	5.085552
2452.000000	5.097152
2451.000000	5.105373
2450.000000	5.118774
2449.000000	5.131838
2448.000000	5.144338
2447.000000	5.179475
2446.000000	5.161005
2445.000000	5.153010
2444.000000	5.164947
2443.000000	5.191412
2442.000000	5.226323
2441.000000	5.251212
2440.000000	5.235558
2439.000000	5.248959
2438.000000	5.260446
2437.000000	5.298060
2436.000000	5.296709
2435.000000	5.308759
2434.000000	5.325426
2433.000000	5.315966
2432.000000	5.320921
2431.000000	5.341643
2430.000000	5.339391
2429.000000	5.361689
2428.000000	5.381509
2427.000000	5.392884
2426.000000	5.383874
2425.000000	5.401442
2424.000000	5.411128
2423.000000	5.424078
2422.000000	5.430272
2421.000000	5.431511
2420.000000	5.436804
2419.000000	5.462931
2418.000000	5.475544
2417.000000	5.473517
2416.000000	5.476445
2415.000000	5.484666
2414.000000	5.475770
2413.000000	5.481400
2412.000000	5.511582
2411.000000	5.519690
2410.000000	5.514622
2409.000000	5.535344
2408.000000	5.514510
2407.000000	5.521830
2406.000000	5.533880
2405.000000	5.534781
2404.000000	5.553813
2403.000000	5.553700
2402.000000	5.563723
2401.000000	5.577463
2400.000000	5.576449
2399.000000	5.590639
2398.000000	5.596382
2397.000000	5.598297
2396.000000	5.597959
2395.000000	5.597959
2394.000000	5.609784
2393.000000	5.606067
2392.000000	5.621158
2391.000000	5.640979
2390.000000	5.641767
2389.000000	5.624874
2388.000000	5.618343
2387.000000	5.621045
2386.000000	5.624086
2385.000000	5.640866
2384.000000	5.653141
2383.000000	5.645483
2382.000000	5.640979
2381.000000	5.646609
2380.000000	5.639177
2379.000000	5.627464
2378.000000	5.622397
2377.000000	5.624086
2376.000000	5.628028
2375.000000	5.608207
2374.000000	5.598972
2373.000000	5.602013
2372.000000	5.607644
2371.000000	5.606180
2370.000000	5.610797
2369.000000	5.605392
2368.000000	5.581517
2367.000000	5.564512
2366.000000	5.559106
2365.000000	5.542664
2364.000000	5.524871
2363.000000	5.522280
2362.000000	5.527123
2361.000000	5.516424
2360.000000	5.493000
2359.000000	5.489171
2358.000000	5.477346
2357.000000	5.451557
2356.000000	5.439394
2355.000000	5.453246
2354.000000	5.452796
2353.000000	5.453809
2352.000000	5.450769
2351.000000	5.443111
2350.000000	5.446489
2349.000000	5.446714
2348.000000	5.452796
2347.000000	5.452796
2346.000000	5.462030
2345.000000	5.482414
2344.000000	5.506514
2343.000000	5.493000
2342.000000	5.489734
2341.000000	5.500658
2340.000000	5.507753
2339.000000	5.518564
2338.000000	5.527686
2337.000000	5.529938
2336.000000	5.528812
2335.000000	5.530501
2334.000000	5.508766
2333.000000	5.502235
2332.000000	5.503023
2331.000000	5.504149
2330.000000	5.501108
2329.000000	5.476671
2328.000000	5.453246
2327.000000	5.450093
2326.000000	5.449305
2325.000000	5.447841
2324.000000	5.412366
2323.000000	5.397163
2322.000000	5.381847
2321.000000	5.355720
2320.000000	5.339616
2319.000000	5.325539
2318.000000	5.309209
2317.000000	5.302565
2316.000000	5.278690
2315.000000	5.243554
2314.000000	5.233756
2313.000000	5.213823
2312.000000	5.197043
2311.000000	5.194678
2310.000000	5.169902
2309.000000	5.143325
2308.000000	5.157627
2307.000000	5.164947
2306.000000	5.138820
2305.000000	5.135216
2304.000000	5.127783
2303.000000	5.137356
2302.000000	5.146253
2301.000000	5.151996
2300.000000	5.157289
2299.000000	5.181389
2298.000000	5.205827
2297.000000	5.200647
2296.000000	5.223057
2295.000000	5.240062
2294.000000	5.238148
2293.000000	5.249522
2292.000000	5.253239
2291.000000	5.273735
2290.000000	5.282406
2289.000000	5.267091
2288.000000	5.272834
2287.000000	5.285447
2286.000000	5.269906
2285.000000	5.275199
2284.000000	5.269455
2283.000000	5.242315
2282.000000	5.250423
2281.000000	5.263262
2280.000000	5.234206
2279.000000	5.237810
2278.000000	5.240626
2277.000000	5.231616
2276.000000	5.204588
2275.000000	5.211233
2274.000000	5.192651
2273.000000	5.190624
2272.000000	5.203687
2271.000000	5.207066
2270.000000	5.213147
2269.000000	5.209205
2268.000000	5.216075
2267.000000	5.235445
2266.000000	5.216300
2265.000000	5.244229
2264.000000	5.283195
2263.000000	5.315291
2262.000000	5.315854
2261.000000	5.370022
2260.000000	5.411578
2259.000000	5.455161
2258.000000	5.481851
2257.000000	5.552011
2256.000000	5.598409
2255.000000	5.648299
2254.000000	5.715756
2253.000000	5.784340
2252.000000	5.819476
2251.000000	5.853149
2250.000000	5.941666
2249.000000	6.000564
2248.000000	6.020835
2247.000000	6.093135
2246.000000	6.129623
2245.000000	6.165548
2244.000000	6.215550
2243.000000	6.261948
2242.000000	6.294945
2241.000000	6.364204
2240.000000	6.366569
2239.000000	6.393484
2238.000000	6.438869
2237.000000	6.457338
2236.000000	6.483127
2235.000000	6.517701
2234.000000	6.556779
2233.000000	6.559482
2232.000000	6.571081
2231.000000	6.594393
2230.000000	6.591127
2229.000000	6.604979
2228.000000	6.617817
2227.000000	6.622434
2226.000000	6.631669
2225.000000	6.631444
2224.000000	6.634034
2223.000000	6.615677
2222.000000	6.634710
2221.000000	6.621421
2220.000000	6.621871
2219.000000	6.614777
2218.000000	6.614101
2217.000000	6.597884
2216.000000	6.576712
2215.000000	6.582118
2214.000000	6.580766
2213.000000	6.569167
2212.000000	6.558130
2211.000000	6.553288
2210.000000	6.560833
2209.000000	6.555878
2208.000000	6.545855
2207.000000	6.524458
2206.000000	6.533580
2205.000000	6.537071
2204.000000	6.503173
2203.000000	6.514210
2202.000000	6.520291
2201.000000	6.507903
2200.000000	6.528625
2199.000000	6.502047
2198.000000	6.509255
2197.000000	6.492700
2196.000000	6.485718
2195.000000	6.497430
2194.000000	6.506101
2193.000000	6.495403
2192.000000	6.482226
2191.000000	6.483015
2190.000000	6.479974
2189.000000	6.472091
2188.000000	6.461392
2187.000000	6.460154
2186.000000	6.493376
2185.000000	6.461843
2184.000000	6.447090
2183.000000	6.443824
2182.000000	6.472992
2181.000000	6.451595
2180.000000	6.440446
2179.000000	6.456325
2178.000000	6.454973
2177.000000	6.427945
2176.000000	6.444950
2175.000000	6.446527
2174.000000	6.428621
2173.000000	6.449117
2172.000000	6.446076
2171.000000	6.435153
2170.000000	6.464095
2169.000000	6.464320
2168.000000	6.469951
2167.000000	6.480650
2166.000000	6.469951
2165.000000	6.495290
2164.000000	6.495740
2163.000000	6.493713
2162.000000	6.521079
2161.000000	6.519615
2160.000000	6.541688
2159.000000	6.543941
2158.000000	6.570743
2157.000000	6.567590
2156.000000	6.564099
2155.000000	6.581667
2154.000000	6.602501
2153.000000	6.635048
2152.000000	6.627727
2151.000000	6.641354
2150.000000	6.649125
2149.000000	6.672887
2148.000000	6.685838
2147.000000	6.695185
2146.000000	6.691581
2145.000000	6.711965
2144.000000	6.717145
2143.000000	6.751381
2142.000000	6.764670
2141.000000	6.775030
2140.000000	6.782576
2139.000000	6.783702
2138.000000	6.794175
2137.000000	6.815460
2136.000000	6.803748
2135.000000	6.828636
2134.000000	6.845416
2133.000000	6.833591
2132.000000	6.829762
2131.000000	6.840686
2130.000000	6.831113
2129.000000	6.828073
2128.000000	6.852736
2127.000000	6.864899
2126.000000	6.854988
2125.000000	6.837420
2124.000000	6.833929
2123.000000	6.839222
2122.000000	6.831001
2121.000000	6.834830
2120.000000	6.834942
2119.000000	6.817825
2118.000000	6.801045
2117.000000	6.793274
2116.000000	6.766697
2115.000000	6.765796
2114.000000	6.777620
2113.000000	6.751831
2112.000000	6.743272
2111.000000	6.746876
2110.000000	6.738768
2109.000000	6.721875
2108.000000	6.702280
2107.000000	6.693496
2106.000000	6.691581
2105.000000	6.673900
2104.000000	6.662639
2103.000000	6.651940
2102.000000	6.643269
2101.000000	6.635385
2100.000000	6.626376
2099.000000	6.625025
2098.000000	6.615114
2097.000000	6.602952
2096.000000	6.583694
2095.000000	6.581104
2094.000000	6.588312
2093.000000	6.575811
2092.000000	6.563536
2091.000000	6.558919
2090.000000	6.547094
2089.000000	6.533580
2088.000000	6.536733
2087.000000	6.551711
2086.000000	6.535156
2085.000000	6.513309
2084.000000	6.505426
2083.000000	6.498669
2082.000000	6.494502
2081.000000	6.485492
2080.000000	6.473442
2079.000000	6.461618
2078.000000	6.453397
2077.000000	6.448554
2076.000000	6.435265
2075.000000	6.418711
2074.000000	6.411390
2073.000000	6.399453
2072.000000	6.378056
2071.000000	6.367019
2070.000000	6.370173
2069.000000	6.354969
2068.000000	6.335261
2067.000000	6.313189
2066.000000	6.302152
2065.000000	6.292805
2064.000000	6.294044
2063.000000	6.291904
2062.000000	6.268367
2061.000000	6.260596
2060.000000	6.266002
2059.000000	6.259921
2058.000000	6.249110
2057.000000	6.253727
2056.000000	6.243591
2055.000000	6.235483
2054.000000	6.256655
2053.000000	6.274674
2052.000000	6.293481
2051.000000	6.305531
2050.000000	6.320621
2049.000000	6.335825
2048.000000	6.348325
2047.000000	6.384137
2046.000000	6.414769
2045.000000	6.431887
2044.000000	6.442135
2043.000000	6.485155
2042.000000	6.516912
2041.000000	6.539999
2040.000000	6.563874
2039.000000	6.600474
2038.000000	6.629642
2037.000000	6.647886
2036.000000	6.674013
2035.000000	6.696649
2034.000000	6.714780
2033.000000	6.733024
2032.000000	6.766584
2031.000000	6.793612
2030.000000	6.813095
2029.000000	6.811969
2028.000000	6.839560
2027.000000	6.872557
2026.000000	6.863097
2025.000000	6.884269
2024.000000	6.898233
2023.000000	6.913211
2022.000000	6.917941
2021.000000	6.924135
2020.000000	6.929203
2019.000000	6.930554
2018.000000	6.944293
2017.000000	6.959835
2016.000000	6.970083
2015.000000	6.961186
2014.000000	6.964339
2013.000000	6.968393
2012.000000	6.953303
2011.000000	6.955893
2010.000000	6.957470
2009.000000	6.944744
2008.000000	6.933482
2007.000000	6.936635
2006.000000	6.930104
2005.000000	6.906792
2004.000000	6.920644
2003.000000	6.924248
2002.000000	6.898571
2001.000000	6.855664
2000.000000	6.845528
1999.000000	6.849921
1998.000000	6.823681
1997.000000	6.795639
1996.000000	6.793837
1995.000000	6.782463
1994.000000	6.755322
1993.000000	6.717370
1992.000000	6.696424
1991.000000	6.654643
1990.000000	6.643944
1989.000000	6.658359
1988.000000	6.618380
1987.000000	6.579753
1986.000000	6.561171
1985.000000	6.537972
1984.000000	6.505200
1983.000000	6.479636
1982.000000	6.464320
1981.000000	6.434026
1980.000000	6.392921
1979.000000	6.370961
1978.000000	6.379745
1977.000000	6.356884
1976.000000	6.305868
1975.000000	6.254515
1974.000000	6.277714
1973.000000	6.250911
1972.000000	6.231879
1971.000000	6.189873
1970.000000	6.166899
1969.000000	6.146065
1968.000000	6.133114
1967.000000	6.143925
1966.000000	6.102370
1965.000000	6.067796
1964.000000	6.047075
1963.000000	6.031196
1962.000000	6.022412
1961.000000	6.011938
1960.000000	5.979167
1959.000000	5.968356
1958.000000	5.947972
1957.000000	5.931305
1956.000000	5.906304
1955.000000	5.899772
1954.000000	5.887722
1953.000000	5.895155
1952.000000	5.860469
1951.000000	5.846842
1950.000000	5.837044
1949.000000	5.818575
1948.000000	5.794363
1947.000000	5.775556
1946.000000	5.787043
1945.000000	5.793124
1944.000000	5.760803
1943.000000	5.778934
1942.000000	5.756523
1941.000000	5.736252
1940.000000	5.740532
1939.000000	5.733437
1938.000000	5.750217
1937.000000	5.758776
1936.000000	5.752807
1935.000000	5.753258
1934.000000	5.771839
1933.000000	5.753933
1932.000000	5.768236
1931.000000	5.764407
1930.000000	5.787606
1929.000000	5.816661
1928.000000	5.855964
1927.000000	5.864073
1926.000000	5.886258
1925.000000	5.916214
1924.000000	5.929503
1923.000000	5.931192
1922.000000	6.004844
1921.000000	6.014866
1920.000000	6.074666
1919.000000	6.090095
1918.000000	6.142799
1917.000000	6.173994
1916.000000	6.219266
1915.000000	6.233231
1914.000000	6.303278
1913.000000	6.375916
1912.000000	6.407224
1911.000000	6.494389
1910.000000	6.537859
1909.000000	6.604979
1908.000000	6.660386
1907.000000	6.695635
1906.000000	6.797216
1905.000000	6.885057
1904.000000	6.982358
1903.000000	7.068059
1902.000000	7.172343
1901.000000	7.270770
1900.000000	7.358723
1899.000000	7.444763
1898.000000	7.578214
1897.000000	7.687227
1896.000000	7.805700
1895.000000	7.922033
1894.000000	8.010550
1893.000000	8.120013
1892.000000	8.267091
1891.000000	8.445927
1890.000000	8.602802
1889.000000	8.792223
1888.000000	8.975001
1887.000000	9.153048
1886.000000	9.348213
1885.000000	9.587636
1884.000000	9.867827
1883.000000	10.176848
1882.000000	10.480012
1881.000000	10.810768
1880.000000	11.121928
1879.000000	11.441535
1878.000000	11.761705
1877.000000	12.095839
1876.000000	12.445177
1875.000000	12.764558
1874.000000	13.087656
1873.000000	13.390708
1872.000000	13.712567
1871.000000	14.001204
1870.000000	14.268331
1869.000000	14.532530
1868.000000	14.791324
1867.000000	14.981083
1866.000000	15.154063
1865.000000	15.273436
1864.000000	15.394612
1863.000000	15.488872
1862.000000	15.591129
1861.000000	15.700817
1860.000000	15.795979
1859.000000	15.892266
1858.000000	15.979657
1857.000000	16.037654
1856.000000	16.063444
1855.000000	16.069750
1854.000000	16.085404
1853.000000	16.117612
1852.000000	16.109729
1851.000000	16.091485
1850.000000	16.071777
1849.000000	16.051168
1848.000000	16.046439
1847.000000	16.031123
1846.000000	15.987315
1845.000000	15.950714
1844.000000	15.908032
1843.000000	15.848683
1842.000000	15.841588
1841.000000	15.870081
1840.000000	15.844967
1839.000000	15.814673
1838.000000	15.793051
1837.000000	15.749806
1836.000000	15.714219
1835.000000	15.684150
1834.000000	15.627279
1833.000000	15.569281
1832.000000	15.503175
1831.000000	15.440447
1830.000000	15.403509
1829.000000	15.360602
1828.000000	15.289878
1827.000000	15.206655
1826.000000	15.158680
1825.000000	15.122980
1824.000000	15.056987
1823.000000	15.003156
1822.000000	14.962839
1821.000000	14.944933
1820.000000	14.941442
1819.000000	14.925112
1818.000000	14.884007
1817.000000	14.852137
1816.000000	14.841438
1815.000000	14.837834
1814.000000	14.833780
1813.000000	14.810469
1812.000000	14.807766
1811.000000	14.801009
1810.000000	14.762944
1809.000000	14.729159
1808.000000	14.711929
1807.000000	14.679382
1806.000000	14.633097
1805.000000	14.591429
1804.000000	14.554603
1803.000000	14.504038
1802.000000	14.463045
1801.000000	14.442437
1800.000000	14.405386
1799.000000	14.344798
1798.000000	14.287476
1797.000000	14.246483
1796.000000	14.215851
1795.000000	14.182742
1794.000000	14.141637
1793.000000	14.094451
1792.000000	14.039606
1791.000000	13.989717
1790.000000	13.952778
1789.000000	13.905367
1788.000000	13.851761
1787.000000	13.798831
1786.000000	13.741622
1785.000000	13.685201
1784.000000	13.640154
1783.000000	13.572922
1782.000000	13.506140
1781.000000	13.453998
1780.000000	13.383388
1779.000000	13.321111
1778.000000	13.253653
1777.000000	13.187322
1776.000000	13.111080
1775.000000	13.029433
1774.000000	12.947786
1773.000000	12.856791
1772.000000	12.762306
1771.000000	12.662415
1770.000000	12.563312
1769.000000	12.460718
1768.000000	12.370061
1767.000000	12.297649
1766.000000	12.228051
1765.000000	12.158792
1764.000000	12.112394
1763.000000	12.083564
1762.000000	12.068586
1761.000000	12.096627
1760.000000	12.122980
1759.000000	12.164535
1758.000000	12.220393
1757.000000	12.263300
1756.000000	12.310036
1755.000000	12.357223
1754.000000	12.391120
1753.000000	12.392585
1752.000000	12.406211
1751.000000	12.413081
1750.000000	12.397202
1749.000000	12.372313
1748.000000	12.323888
1747.000000	12.295171
1746.000000	12.225799
1745.000000	12.142012
1744.000000	12.061266
1743.000000	11.955969
1742.000000	11.836708
1741.000000	11.691545
1740.000000	11.531966
1739.000000	11.378132
1738.000000	11.227225
1737.000000	11.084990
1736.000000	10.992532
1735.000000	10.884983
1734.000000	10.821467
1733.000000	10.802660
1732.000000	10.791060
1731.000000	10.837233
1730.000000	10.879802
1729.000000	10.924624
1728.000000	11.018771
1727.000000	11.081837
1726.000000	11.155150
1725.000000	11.214725
1724.000000	11.276326
1723.000000	11.302341
1722.000000	11.333648
1721.000000	11.365068
1720.000000	11.380609
1719.000000	11.398853
1718.000000	11.419350
1717.000000	11.421039
1716.000000	11.471266
1715.000000	11.528588
1714.000000	11.586586
1713.000000	11.625438
1712.000000	11.656746
1711.000000	11.698865
1710.000000	11.730623
1709.000000	11.753371
1708.000000	11.742898
1707.000000	11.726681
1706.000000	11.703595
1705.000000	11.690306
1704.000000	11.636024
1703.000000	11.594807
1702.000000	11.524759
1701.000000	11.433990
1700.000000	11.366082
1699.000000	11.283646
1698.000000	11.161119
1697.000000	11.039042
1696.000000	10.991856
1695.000000	10.956945
1694.000000	10.946134
1693.000000	10.987464
1692.000000	11.062467
1691.000000	11.151659
1690.000000	11.261799
1689.000000	11.357072
1688.000000	11.428359
1687.000000	11.502236
1686.000000	11.544805
1685.000000	11.579716
1684.000000	11.599199
1683.000000	11.685688
1682.000000	11.854051
1681.000000	12.078046
1680.000000	12.415446
1679.000000	12.793951
1678.000000	13.201399
1677.000000	13.613914
1676.000000	14.067986
1675.000000	14.416197
1674.000000	14.747403
1673.000000	15.025341
1672.000000	15.296410
1671.000000	15.512972
1670.000000	15.718048
1669.000000	15.896320
1668.000000	16.041483
1667.000000	16.191376
1666.000000	16.310750
1665.000000	16.397353
1664.000000	16.484518
1663.000000	16.560197
1662.000000	16.615379
1661.000000	16.667971
1660.000000	16.731149
1659.000000	16.769439
1658.000000	16.814936
1657.000000	16.819666
1656.000000	16.824508
1655.000000	16.849172
1654.000000	16.841288
1653.000000	16.840950
1652.000000	16.823382
1651.000000	16.791286
1650.000000	16.752546
1649.000000	16.749618
1648.000000	16.691958
1647.000000	16.650966
1646.000000	16.610536
1645.000000	16.574499
1644.000000	16.532268
1643.000000	16.488460
1642.000000	16.423705
1641.000000	16.373928
1640.000000	16.319084
1639.000000	16.273024
1638.000000	16.210521
1637.000000	16.142388
1636.000000	16.072340
1635.000000	16.027969
1634.000000	15.949363
1633.000000	15.885059
1632.000000	15.824809
1631.000000	15.775032
1630.000000	15.685164
1629.000000	15.636288
1628.000000	15.543492
1627.000000	15.484030
1626.000000	15.405423
1625.000000	15.327718
1624.000000	15.253616
1623.000000	15.196519
1622.000000	15.124219
1621.000000	15.062843
1620.000000	14.994935
1619.000000	14.927928
1618.000000	14.848083
1617.000000	14.806189
1616.000000	14.726794
1615.000000	14.686477
1614.000000	14.642782
1613.000000	14.540751
1612.000000	14.496267
1611.000000	14.430724
1610.000000	14.382524
1609.000000	14.330270
1608.000000	14.277453
1607.000000	14.217879
1606.000000	14.161683
1605.000000	14.097153
1604.000000	14.032061
1603.000000	13.982059
1602.000000	13.922034
1601.000000	13.866627
1600.000000	13.809980
1599.000000	13.759415
1598.000000	13.685539
1597.000000	13.629906
1596.000000	13.587112
1595.000000	13.551299
1594.000000	13.493302
1593.000000	13.468976
1592.000000	13.414132
1591.000000	13.368860
1590.000000	13.324714
1589.000000	13.276739
1588.000000	13.238450
1587.000000	13.204552
1586.000000	13.172907
1585.000000	13.154888
1584.000000	13.116373
1583.000000	13.091597
1582.000000	13.071552
1581.000000	13.019635
1580.000000	13.007135
1579.000000	12.992945
1578.000000	12.985850
1577.000000	12.955894
1576.000000	12.933371
1575.000000	12.949700
1574.000000	12.929880
1573.000000	12.922672
1572.000000	12.935173
1571.000000	12.921546
1570.000000	12.911523
1569.000000	12.923798
1568.000000	12.934947
1567.000000	12.940578
1566.000000	12.968620
1565.000000	12.970309
1564.000000	12.967606
1563.000000	12.980219
1562.000000	12.989454
1561.000000	13.012878
1560.000000	13.019410
1559.000000	13.003869
1558.000000	13.005333
1557.000000	13.009162
1556.000000	12.991143
1555.000000	12.988440
1554.000000	13.016482
1553.000000	13.001729
1552.000000	12.978868
1551.000000	12.958709
1550.000000	12.944520
1549.000000	12.934159
1548.000000	12.919519
1547.000000	12.910284
1546.000000	12.887423
1545.000000	12.872107
1544.000000	12.867828
1543.000000	12.844854
1542.000000	12.836745
1541.000000	12.835169
1540.000000	12.834493
1539.000000	12.824583
1538.000000	12.794289
1537.000000	12.786744
1536.000000	12.785617
1535.000000	12.774806
1534.000000	12.757576
1533.000000	12.747102
1532.000000	12.740796
1531.000000	12.713092
1530.000000	12.690681
1529.000000	12.678744
1528.000000	12.658248
1527.000000	12.624800
1526.000000	12.597660
1525.000000	12.581105
1524.000000	12.553064
1523.000000	12.535045
1522.000000	12.527274
1521.000000	12.496192
1520.000000	12.460718
1519.000000	12.423216
1518.000000	12.394612
1517.000000	12.370286
1516.000000	12.328055
1515.000000	12.298324
1514.000000	12.278841
1513.000000	12.253165
1512.000000	12.219380
1511.000000	12.188298
1510.000000	12.154512
1509.000000	12.111155
1508.000000	12.073316
1507.000000	12.046626
1506.000000	12.017458
1505.000000	11.979731
1504.000000	11.949325
1503.000000	11.909346
1502.000000	11.874997
1501.000000	11.853938
1500.000000	11.828261
1499.000000	11.799432
1498.000000	11.769813
1497.000000	11.756975
1496.000000	11.737492
1495.000000	11.702806
1494.000000	11.660012
1493.000000	11.650552
1492.000000	11.646160
1491.000000	11.633547
1490.000000	11.621835
1489.000000	11.612488
1488.000000	11.595257
1487.000000	11.597847
1486.000000	11.572171
1485.000000	11.541426
1484.000000	11.537710
1483.000000	11.524083
1482.000000	11.517439
1481.000000	11.524534
1480.000000	11.534557
1479.000000	11.525660
1478.000000	11.512033
1477.000000	11.515187
1476.000000	11.533430
1475.000000	11.522957
1474.000000	11.525322
1473.000000	11.537372
1472.000000	11.537372
1471.000000	11.553702
1470.000000	11.559670
1469.000000	11.571720
1468.000000	11.572171
1467.000000	11.577464
1466.000000	11.574198
1465.000000	11.595820
1464.000000	11.613839
1463.000000	11.640304
1462.000000	11.655845
1461.000000	11.681184
1460.000000	11.718235
1459.000000	11.759340
1458.000000	11.783778
1457.000000	11.822405
1456.000000	11.865312
1455.000000	11.913963
1454.000000	11.973425
1453.000000	12.027706
1452.000000	12.085253
1451.000000	12.159580
1450.000000	12.228277
1449.000000	12.281319
1448.000000	12.331434
1447.000000	12.401481
1446.000000	12.471867
1445.000000	12.557793
1444.000000	12.629418
1443.000000	12.703858
1442.000000	12.781338
1441.000000	12.844066
1440.000000	12.918393
1439.000000	13.021888
1438.000000	13.116035
1437.000000	13.205003
1436.000000	13.300389
1435.000000	13.378996
1434.000000	13.467963
1433.000000	13.585084
1432.000000	13.680246
1431.000000	13.762006
1430.000000	13.877550
1429.000000	13.990956
1428.000000	14.118213
1427.000000	14.249073
1426.000000	14.386579
1425.000000	14.530503
1424.000000	14.707311
1423.000000	14.891665
1422.000000	15.045613
1421.000000	15.235147
1420.000000	15.418487
1419.000000	15.618720
1418.000000	15.838548
1417.000000	16.047452
1416.000000	16.232369
1415.000000	16.442062
1414.000000	16.682499
1413.000000	16.942869
1412.000000	17.188148
1411.000000	17.387367
1410.000000	17.675892
1409.000000	17.996850
1408.000000	18.350917
1407.000000	18.723341
1406.000000	19.091373
1405.000000	19.451522
1404.000000	19.884759
1403.000000	20.304707
1402.000000	20.665532
1401.000000	21.050231
1400.000000	21.519843
1399.000000	21.966369
1398.000000	22.264804
1397.000000	22.513912
1396.000000	22.837235
1395.000000	23.238264
1394.000000	23.565416
1393.000000	23.810357
1392.000000	24.080413
1391.000000	24.418489
1390.000000	24.726496
1389.000000	25.013218
1388.000000	25.419202
1387.000000	25.921361
1386.000000	26.376558
1385.000000	26.904280
1384.000000	27.453513
1383.000000	28.093852
1382.000000	28.732165
1381.000000	29.338832
1380.000000	29.789524
1379.000000	30.131091
1378.000000	30.387295
1377.000000	30.582572
1376.000000	30.803189
1375.000000	31.022341
1374.000000	31.315596
1373.000000	31.670564
1372.000000	32.079926
1371.000000	32.525776
1370.000000	32.989195
1369.000000	33.401935
1368.000000	33.798797
1367.000000	34.176852
1366.000000	34.488238
1365.000000	34.769329
1364.000000	35.091864
1363.000000	35.308764
1362.000000	35.540192
1361.000000	35.777701
1360.000000	35.955973
1359.000000	36.045729
1358.000000	36.170734
1357.000000	36.312743
1356.000000	36.525815
1355.000000	36.888891
1354.000000	37.377085
1353.000000	37.919223
1352.000000	38.537264
1351.000000	39.242584
1350.000000	39.916708
1349.000000	40.523488
1348.000000	41.046931
1347.000000	41.619250
1346.000000	42.134472
1345.000000	42.542483
1344.000000	43.027862
1343.000000	43.485536
1342.000000	43.890507
1341.000000	44.315861
1340.000000	44.707429
1339.000000	45.109246
1338.000000	45.534262
1337.000000	45.887879
1336.000000	46.284629
1335.000000	46.641061
1334.000000	46.986907
1333.000000	47.322280
1332.000000	47.663059
1331.000000	47.995391
1330.000000	48.329863
1329.000000	48.623343
1328.000000	48.908151
1327.000000	49.180121
1326.000000	49.452879
1325.000000	49.708068
1324.000000	49.931613
1323.000000	50.173176
1322.000000	50.396833
1321.000000	50.596503
1320.000000	50.803831
1319.000000	51.015212
1318.000000	51.204521
1317.000000	51.389551
1316.000000	51.546088
1315.000000	51.713437
1314.000000	51.876168
1313.000000	52.027863
1312.000000	52.164805
1311.000000	52.313572
1310.000000	52.462902
1309.000000	52.560203
1308.000000	52.657842
1307.000000	52.775189
1306.000000	52.876656
1305.000000	52.944790
1304.000000	53.010783
1303.000000	53.079930
1302.000000	53.133648
1301.000000	53.188380
1300.000000	53.214057
1299.000000	53.237931
1298.000000	53.276784
1297.000000	53.300208
1296.000000	53.320029
1295.000000	53.343115
1294.000000	53.340863
1293.000000	53.347958
1292.000000	53.342778
1291.000000	53.328250
1290.000000	53.307979
1289.000000	53.282528
1288.000000	53.255950
1287.000000	53.200655
1286.000000	53.158311
1285.000000	53.082971
1284.000000	53.002224
1283.000000	52.938708
1282.000000	52.865620
1281.000000	52.795122
1280.000000	52.728340
1279.000000	52.646918
1278.000000	52.568987
1277.000000	52.492070
1276.000000	52.426527
1275.000000	52.352425
1274.000000	52.285305
1273.000000	52.234290
1272.000000	52.176743
1271.000000	52.134849
1270.000000	52.075162
1269.000000	52.024147
1268.000000	51.975609
1267.000000	51.914908
1266.000000	51.855334
1265.000000	51.798575
1264.000000	51.735510
1263.000000	51.670305
1262.000000	51.607802
1261.000000	51.546426
1260.000000	51.483248
1259.000000	51.399574
1258.000000	51.337860
1257.000000	51.274231
1256.000000	51.196075
1255.000000	51.105081
1254.000000	51.005527
1253.000000	50.915546
1252.000000	50.820498
1251.000000	50.710246
1250.000000	50.601345
1249.000000	50.488053
1248.000000	50.372283
1247.000000	50.253810
1246.000000	50.106169
1245.000000	49.947942
1244.000000	49.784310
1243.000000	49.624845
1242.000000	49.452090
1241.000000	49.259178
1240.000000	49.082482
1239.000000	48.899705
1238.000000	48.704202
1237.000000	48.509262
1236.000000	48.293713
1235.000000	48.069944
1234.000000	47.853044
1233.000000	47.640648
1232.000000	47.407869
1231.000000	47.170473
1230.000000	46.935441
1229.000000	46.688247
1228.000000	46.446234
1227.000000	46.195661
1226.000000	45.950044
1225.000000	45.694516
1224.000000	45.429304
1223.000000	45.184137
1222.000000	44.936492
1221.000000	44.686595
1220.000000	44.429041
1219.000000	44.174526
1218.000000	43.945914
1217.000000	43.737235
1216.000000	43.519659
1215.000000	43.301521
1214.000000	43.106693
1213.000000	42.919412
1212.000000	42.739900
1211.000000	42.551042
1210.000000	42.388536
1209.000000	42.236390
1208.000000	42.085258
1207.000000	41.959803
1206.000000	41.840542
1205.000000	41.737385
1204.000000	41.673306
1203.000000	41.624430
1202.000000	41.571500
1201.000000	41.526904
1200.000000	41.466767
1199.000000	41.376786
1198.000000	41.280498
1197.000000	41.145809
1196.000000	40.966185
1195.000000	40.727437
1194.000000	40.407943
1193.000000	40.009392
1192.000000	39.529531
1191.000000	38.982777
1190.000000	38.403701
1189.000000	37.855820
1188.000000	37.386320
1187.000000	37.016824
1186.000000	36.795307
1185.000000	36.756003
1184.000000	36.868395
1183.000000	37.142392
1182.000000	37.590044
1181.000000	38.156507
1180.000000	38.797860
1179.000000	39.449236
1178.000000	40.096107
1177.000000	40.656826
1176.000000	41.165517
1175.000000	41.618799
1174.000000	42.028612
1173.000000	42.463426
1172.000000	42.895875
1171.000000	43.312557
1170.000000	43.753790
1169.000000	44.198289
1168.000000	44.645715
1167.000000	45.094381
1166.000000	45.570075
1165.000000	46.056129
1164.000000	46.547138
1163.000000	47.021706
1162.000000	47.544586
1161.000000	48.071295
1160.000000	48.548340
1159.000000	49.014011
1158.000000	49.477654
1157.000000	49.919676
1156.000000	50.345142
1155.000000	50.703602
1154.000000	51.002825
1153.000000	51.238869
1152.000000	51.411736
1151.000000	51.521988
1150.000000	51.611631
1149.000000	51.674697
1148.000000	51.734496
1147.000000	51.821549
1146.000000	51.954324
1145.000000	52.162553
1144.000000	52.486664
1143.000000	52.848615
1142.000000	53.259329
1141.000000	53.710021
1140.000000	54.205648
1139.000000	54.696545
1138.000000	55.209965
1137.000000	55.727440
1136.000000	56.282979
1135.000000	56.846176
1134.000000	57.433022
1133.000000	57.966713
1132.000000	58.425740
1131.000000	58.884879
1130.000000	59.294917
1129.000000	59.655741
1128.000000	59.969266
1127.000000	60.230763
1126.000000	60.425477
1125.000000	60.608254
1124.000000	60.731570
1123.000000	60.839907
1122.000000	60.954213
1121.000000	61.038563
1120.000000	61.108273
1119.000000	61.146000
1118.000000	61.180911
1117.000000	61.204673
1116.000000	61.212556
1115.000000	61.191610
1114.000000	61.188231
1113.000000	61.188794
1112.000000	61.199718
1111.000000	61.187330
1110.000000	61.160190
1109.000000	61.155460
1108.000000	61.138680
1107.000000	61.116832
1106.000000	61.114242
1105.000000	61.077979
1104.000000	61.065366
1103.000000	61.046672
1102.000000	61.023923
1101.000000	60.979552
1100.000000	60.981354
1099.000000	60.937771
1098.000000	60.917726
1097.000000	60.898806
1096.000000	60.849480
1095.000000	60.826168
1094.000000	60.761301
1093.000000	60.711074
1092.000000	60.671320
1091.000000	60.604425
1090.000000	60.552396
1089.000000	60.483925
1088.000000	60.410161
1087.000000	60.356443
1086.000000	60.291013
1085.000000	60.210604
1084.000000	60.158350
1083.000000	60.060373
1082.000000	59.988524
1081.000000	59.907778
1080.000000	59.836716
1079.000000	59.783561
1078.000000	59.713513
1077.000000	59.632429
1076.000000	59.560129
1075.000000	59.475441
1074.000000	59.445485
1073.000000	59.353139
1072.000000	59.260568
1071.000000	59.199080
1070.000000	59.138830
1069.000000	59.044231
1068.000000	58.964949
1067.000000	58.878685
1066.000000	58.810439
1065.000000	58.716742
1064.000000	58.643541
1063.000000	58.582052
1062.000000	58.481823
1061.000000	58.389590
1060.000000	58.302086
1059.000000	58.223592
1058.000000	58.134963
1057.000000	58.018404
1056.000000	57.922905
1055.000000	57.855448
1054.000000	57.764791
1053.000000	57.668842
1052.000000	57.581564
1051.000000	57.489668
1050.000000	57.403066
1049.000000	57.327387
1048.000000	57.229411
1047.000000	57.179634
1046.000000	57.105870
1045.000000	57.018479
1044.000000	56.932440
1043.000000	56.871289
1042.000000	56.792570
1041.000000	56.727252
1040.000000	56.652137
1039.000000	56.577246
1038.000000	56.511366
1037.000000	56.406181
1036.000000	56.352238
1035.000000	56.249306
1034.000000	56.176443
1033.000000	56.073624
1032.000000	55.960219
1031.000000	55.889721
1030.000000	55.788028
1029.000000	55.666964
1028.000000	55.586781
1027.000000	55.491958
1026.000000	55.385760
1025.000000	55.262557
1024.000000	55.147801
1023.000000	55.055117
1022.000000	54.942951
1021.000000	54.821099
1020.000000	54.710172
1019.000000	54.586969
1018.000000	54.475365
1017.000000	54.393268
1016.000000	54.299683
1015.000000	54.204297
1014.000000	54.116681
1013.000000	54.047196
1012.000000	53.993928
1011.000000	53.935818
1010.000000	53.885028
1009.000000	53.855635
1008.000000	53.806646
1007.000000	53.774213
1006.000000	53.737387
1005.000000	53.722296
1004.000000	53.679727
1003.000000	53.661596
1002.000000	53.627811
1001.000000	53.580287
1000.000000	53.549092
999.000000	53.508550
998.000000	53.480170
997.000000	53.447624
996.000000	53.412262
995.000000	53.392104
994.000000	53.358769
993.000000	53.326786
992.000000	53.302799
991.000000	53.264171
990.000000	53.228922
989.000000	53.215408
988.000000	53.196263
987.000000	53.166645
986.000000	53.169573
985.000000	53.158199
984.000000	53.136689
983.000000	53.106733
982.000000	53.092656
981.000000	53.086574
980.000000	53.066641
979.000000	53.035446
978.000000	53.013711
977.000000	53.006954
976.000000	52.980264
975.000000	52.944227
974.000000	52.928573
973.000000	52.919901
972.000000	52.890283
971.000000	52.873165
970.000000	52.848840
969.000000	52.828794
968.000000	52.785437
967.000000	52.776202
966.000000	52.764941
965.000000	52.725862
964.000000	52.701762
963.000000	52.696357
962.000000	52.692978
961.000000	52.683406
960.000000	52.677212
959.000000	52.673158
958.000000	52.648720
957.000000	52.652098
956.000000	52.639936
955.000000	52.600745
954.000000	52.594776
953.000000	52.569325
952.000000	52.515494
951.000000	52.486101
950.000000	52.461551
949.000000	52.426414
948.000000	52.395219
947.000000	52.349272
946.000000	52.291387
945.000000	52.242286
944.000000	52.204897
943.000000	52.169197
942.000000	52.109848
941.000000	52.077978
940.000000	52.037210
939.000000	51.962433
938.000000	51.912881
937.000000	51.858938
936.000000	51.832698
935.000000	51.792832
934.000000	51.728640
933.000000	51.665124
932.000000	51.599469
931.000000	51.571427
930.000000	51.531448
929.000000	51.468946
928.000000	51.404191
927.000000	51.360834
926.000000	51.302385
925.000000	51.236617
924.000000	51.177831
923.000000	51.107783
922.000000	51.064313
921.000000	51.008118
920.000000	50.941336
919.000000	50.841782
918.000000	50.746171
917.000000	50.716327
916.000000	50.662496
915.000000	50.567110
914.000000	50.462714
913.000000	50.357192
912.000000	50.264846
911.000000	50.192771
910.000000	50.134436
909.000000	50.053577
908.000000	49.984543
907.000000	49.927108
906.000000	49.852331
905.000000	49.779805
904.000000	49.750750
903.000000	49.735997
902.000000	49.702888
901.000000	49.675635
900.000000	49.653337
899.000000	49.624845
898.000000	49.583852
897.000000	49.522926
896.000000	49.488691
895.000000	49.464140
894.000000	49.407945
893.000000	49.332379
892.000000	49.287107
891.000000	49.228095
890.000000	49.128993
889.000000	49.054328
888.000000	48.975158
887.000000	48.874704
886.000000	48.770984
885.000000	48.648344
884.000000	48.540232
883.000000	48.435273
882.000000	48.309930
881.000000	48.175691
880.000000	48.076701
879.000000	47.929736
878.000000	47.796059
877.000000	47.632990
876.000000	47.420032
875.000000	47.210452
874.000000	47.004926
873.000000	46.798499
872.000000	46.653336
871.000000	46.614145
870.000000	46.614821
869.000000	46.624619
868.000000	46.652548
867.000000	46.639710
866.000000	46.637457
865.000000	46.601420
864.000000	46.606037
863.000000	46.615272
862.000000	46.615046
861.000000	46.615947
860.000000	46.614934
859.000000	46.603334
858.000000	46.602433
857.000000	45.666800
856.000000	46.870900
855.000000	47.269600
854.000000	47.079400
853.000000	47.069000
852.000000	47.092700
851.000000	47.143600
850.000000	47.458400
849.000000	47.298300
848.000000	47.341600
847.000000	47.487600
846.000000	47.353500
845.000000	47.243400
844.000000	47.528400
843.000000	47.449400
842.000000	47.373600
841.000000	47.504800
840.000000	47.445400
839.000000	47.394800
838.000000	47.562600
837.000000	47.412900
836.000000	47.516300
835.000000	47.273600
834.000000	47.177600
833.000000	47.218400
832.000000	47.367400
831.000000	47.396200
830.000000	47.286500
829.000000	47.201800
828.000000	47.381900
827.000000	47.218700
826.000000	47.024100
825.000000	47.202500
824.000000	47.134500
823.000000	47.119900
822.000000	47.020400
821.000000	46.774600
820.000000	47.016300
819.000000	46.817400
818.000000	46.946400
817.000000	46.923100
816.000000	46.709900
815.000000	46.693700
814.000000	46.683100
813.000000	46.680600
812.000000	46.697100
811.000000	46.591100
810.000000	46.429500
809.000000	46.471700
808.000000	46.247700
807.000000	46.355500
806.000000	46.328000
805.000000	46.318500
804.000000	46.303900
803.000000	46.236200
802.000000	46.127900
801.000000	45.993900
800.000000	46.031300
799.000000	45.959600
798.000000	45.901600
797.000000	45.955300
796.000000	45.805200
795.000000	45.694800
794.000000	45.730100
793.000000	45.636500
792.000000	45.678300
791.000000	45.532600
790.000000	45.393100
789.000000	45.432000
788.000000	45.440000
787.000000	45.348500
786.000000	45.251500
785.000000	45.374600
784.000000	45.121500
783.000000	45.120600
782.000000	45.061900
781.000000	44.914900
780.000000	44.867700
779.000000	44.806300
778.000000	44.800000
777.000000	44.636400
776.000000	44.552000
775.000000	44.483100
774.000000	44.398000
773.000000	44.329800
772.000000	44.256800
771.000000	44.118100
770.000000	43.978700
769.000000	43.982300
768.000000	43.887100
767.000000	43.871300
766.000000	43.722300
765.000000	43.663700
764.000000	43.460900
763.000000	43.387400
762.000000	43.277500
761.000000	43.184000
760.000000	43.059800
759.000000	42.866000
758.000000	42.708700
757.000000	42.688600
756.000000	42.501000
755.000000	42.458400
754.000000	42.317100
753.000000	42.115300
752.000000	42.008100
751.000000	41.898000
750.000000	41.740800
749.000000	41.532000
748.000000	41.382700
747.000000	41.212700
746.000000	40.999200
745.000000	40.883900
744.000000	40.726300
743.000000	40.510400
742.000000	40.320600
741.000000	40.087000
740.000000	39.847800
739.000000	39.743500
738.000000	39.502500
737.000000	39.278700
736.000000	39.049600
735.000000	38.901200
734.000000	38.649500
733.000000	38.398100
732.000000	38.215700
731.000000	38.016700
730.000000	37.766200
729.000000	37.466500
728.000000	37.257100
727.000000	37.062200
726.000000	36.826500
725.000000	36.571700
724.000000	36.313900
723.000000	36.064000
722.000000	35.780100
721.000000	35.541300
720.000000	35.321500
719.000000	35.051900
718.000000	34.787100
717.000000	34.534300
716.000000	34.323200
715.000000	34.087500
714.000000	33.851300
713.000000	33.583900
712.000000	33.374800
711.000000	33.132600
710.000000	32.846700
709.000000	32.560400
708.000000	32.334200
707.000000	32.136900
706.000000	31.919800
705.000000	31.654400
704.000000	31.427200
703.000000	31.182800
702.000000	30.933200
701.000000	30.720200
700.000000	30.529500
699.000000	30.291900
698.000000	30.118500
697.000000	29.873200
696.000000	29.634000
695.000000	29.441900
694.000000	29.249800
693.000000	29.056400
692.000000	28.840700
691.000000	28.641700
690.000000	28.477700
689.000000	28.263800
688.000000	28.062700
687.000000	27.911300
686.000000	27.734500
685.000000	27.537200
684.000000	27.379100
683.000000	27.223900
682.000000	27.051100
681.000000	26.871300
680.000000	26.733700
679.000000	26.598700
678.000000	26.460000
677.000000	26.322400
676.000000	26.177900
675.000000	26.070000
674.000000	25.912200
673.000000	25.763700
672.000000	25.639800
671.000000	25.504500
670.000000	25.331000
669.000000	25.189700
668.000000	25.085200
667.000000	24.964000
666.000000	24.852900
665.000000	24.728700
664.000000	24.617200
663.000000	24.533500
662.000000	24.424900
661.000000	24.320600
660.000000	24.223600
659.000000	24.116400
658.000000	24.007500
657.000000	23.910900
656.000000	23.806400
655.000000	23.709400
654.000000	23.637100
653.000000	23.564400
652.000000	23.485600
651.000000	23.435600
650.000000	23.372400
649.000000	23.289700
648.000000	23.218900
647.000000	23.152900
646.000000	23.102100
645.000000	23.033800
644.000000	22.989700
643.000000	22.958900
642.000000	22.906600
641.000000	22.845600
640.000000	22.799800
639.000000	22.771900
638.000000	22.745600
637.000000	22.711900
636.000000	22.677100
635.000000	22.635400
634.000000	22.607900
633.000000	22.595500
632.000000	22.562400
631.000000	22.530300
630.000000	22.519000
629.000000	22.497200
628.000000	22.475700
627.000000	22.475500
626.000000	22.469100
625.000000	22.477700
624.000000	22.496400
623.000000	22.497100
622.000000	22.487900
621.000000	22.492500
620.000000	22.502700
619.000000	22.517000
618.000000	22.522500
617.000000	22.538100
616.000000	22.573600
615.000000	22.600600
614.000000	22.634700
613.000000	22.663500
612.000000	22.686800
611.000000	22.712800
610.000000	22.748400
609.000000	22.798800
608.000000	22.844500
607.000000	22.880400
606.000000	22.924400
605.000000	22.975200
604.000000	23.018800
603.000000	23.065800
602.000000	23.113000
601.000000	23.151100
600.000000	23.211800
599.000000	23.242700
598.000000	23.282900
597.000000	23.326300
596.000000	23.362200
595.000000	23.395600
594.000000	23.441200
593.000000	23.485500
592.000000	23.534100
591.000000	23.566700
590.000000	23.593600
589.000000	23.614300
588.000000	23.632500
587.000000	23.656500
586.000000	23.666800
585.000000	23.687900
584.000000	23.712400
583.000000	23.725900
582.000000	23.716400
581.000000	23.718900
580.000000	23.727600
579.000000	23.729100
578.000000	23.703800
577.000000	23.704900
576.000000	23.697200
575.000000	23.669000
574.000000	23.655100
573.000000	23.630400
572.000000	23.597900
571.000000	23.551700
570.000000	23.520700
569.000000	23.478600
568.000000	23.439400
567.000000	23.396700
566.000000	23.327400
565.000000	23.268100
564.000000	23.195200
563.000000	23.107400
562.000000	23.030300
561.000000	22.955400
560.000000	22.849700
559.000000	22.771300
558.000000	22.686400
557.000000	22.590300
556.000000	22.476800
555.000000	22.319900
554.000000	22.207700
553.000000	22.080200
552.000000	21.943700
551.000000	21.796300
550.000000	21.625100
549.000000	21.473400
548.000000	21.325000
547.000000	21.165000
546.000000	21.008700
545.000000	20.832100
544.000000	20.621700
543.000000	20.449300
542.000000	20.248900
541.000000	20.036700
540.000000	19.829400
539.000000	19.619700
538.000000	19.427700
537.000000	19.211800
536.000000	19.000200
535.000000	18.784300
534.000000	18.552400
533.000000	18.320500
532.000000	18.103800
531.000000	17.864700
530.000000	17.653700
529.000000	17.427000
528.000000	17.179400
527.000000	16.945200
526.000000	16.732200
525.000000	16.485900
524.000000	16.236800
523.000000	16.015100
522.000000	15.776300
521.000000	15.560300
520.000000	15.333200
519.000000	15.094200
518.000000	14.874000
517.000000	14.656000
516.000000	14.440400
515.000000	14.225400
514.000000	14.023800
513.000000	13.812900
512.000000	13.617900
511.000000	13.416700
510.000000	13.228400
509.000000	13.055900
508.000000	12.874300
507.000000	12.683600
506.000000	12.527000
505.000000	12.355600
504.000000	12.210300
503.000000	12.075300
502.000000	11.939300
501.000000	11.778100
500.000000	11.643400
499.000000	11.496800
498.000000	11.388500
497.000000	11.250600
496.000000	11.123200
495.000000	11.016200
494.000000	10.894200
493.000000	10.779000
492.000000	10.678700
491.000000	10.584400
490.000000	10.493200
489.000000	10.388700
488.000000	10.329700
487.000000	10.225600
486.000000	10.141100
485.000000	10.058300
484.000000	9.976500
483.000000	9.901100
482.000000	9.818800
481.000000	9.746600
480.000000	9.648300
479.000000	9.554600
478.000000	9.476600
477.000000	9.391700
476.000000	9.323700
475.000000	9.258300
474.000000	9.163900
473.000000	9.107500
472.000000	9.033900
471.000000	8.962000
470.000000	8.895600
469.000000	8.852900
468.000000	8.785200
467.000000	8.730700
466.000000	8.689800
465.000000	8.623300
464.000000	8.577100
463.000000	8.524700
462.000000	8.502200
461.000000	8.431000
460.000000	8.381100
459.000000	8.342400
458.000000	8.296400
457.000000	8.267000
456.000000	8.207300
455.000000	8.165500
454.000000	8.142900
453.000000	8.096800
452.000000	8.056200
451.000000	8.020300
450.000000	7.984100
449.000000	7.951200
448.000000	7.898400
447.000000	7.865000
446.000000	7.831000
445.000000	7.804700
444.000000	7.753900
443.000000	7.710600
442.000000	7.659700
441.000000	7.651200
440.000000	7.598100
439.000000	7.540700
438.000000	7.507000
437.000000	7.481500
436.000000	7.439700
435.000000	7.382300
434.000000	7.355500
433.000000	7.316200
432.000000	7.285600
431.000000	7.239900
430.000000	7.205700
429.000000	7.177300
428.000000	7.132400
427.000000	7.103900
426.000000	7.074300
425.000000	7.025600
424.000000	7.001800
423.000000	6.963800
422.000000	6.923300
421.000000	6.890000
420.000000	6.841600
419.000000	6.835700
418.000000	6.789200
417.000000	6.747400
416.000000	6.724600
415.000000	6.677000
414.000000	6.641900
413.000000	6.610900
412.000000	6.577500
411.000000	6.543900
410.000000	6.499700
409.000000	6.461700
408.000000	6.421000
407.000000	6.396100
406.000000	6.339300
405.000000	6.286100
404.000000	6.266700
403.000000	6.205800
402.000000	6.160000
401.000000	6.127200
400.000000	6.095000
399.000000	6.056400
398.000000	6.024000
397.000000	5.961600
396.000000	5.909600
395.000000	5.877500
394.000000	5.827200
393.000000	5.792600
392.000000	5.741000
391.000000	5.709900
390.000000	5.660900
389.000000	5.615100
388.000000	5.551500
387.000000	5.514500
386.000000	5.484700
385.000000	5.436700
384.000000	5.412500
383.000000	5.359200
382.000000	5.310900
381.000000	5.260100
380.000000	5.232100
379.000000	5.193600
378.000000	5.152000
377.000000	5.110900
376.000000	5.046300
375.000000	4.971600
374.000000	4.948900
373.000000	4.901200
372.000000	4.867100
371.000000	4.872300
370.000000	4.807500
369.000000	4.795400
368.000000	4.788200
367.000000	4.707100
366.000000	4.696600
365.000000	4.695900
364.000000	4.662000
363.000000	4.659500
362.000000	4.677700
361.000000	4.619700
360.000000	4.590600
359.000000	4.531400
358.000000	4.488100
357.000000	4.482000
356.000000	4.482000
355.000000	4.515200
354.000000	4.546500
353.000000	4.521600
352.000000	4.472500
351.000000	4.392200
350.000000	4.328800
349.000000	4.333600
348.000000	4.423000
347.000000	4.402300
346.000000	4.348900
345.000000	4.375000
344.000000	4.411000
343.000000	4.458500
342.000000	4.402100
341.000000	4.371100
340.000000	4.367400
339.000000	4.349900
338.000000	4.376000
337.000000	4.348600
336.000000	4.293200
335.000000	4.327400
334.000000	4.319500
333.000000	4.296500
332.000000	4.369200
331.000000	4.319500
330.000000	4.244400
329.000000	4.300500
328.000000	4.320400
327.000000	4.290300
326.000000	4.420100
325.000000	4.490400
324.000000	4.397200
323.000000	4.496600
322.000000	4.485100
321.000000	4.410000
320.000000	4.318800
319.000000	4.337100
318.000000	4.648300
317.000000	4.684800
316.000000	4.396000
315.000000	4.275900
314.000000	4.287100
313.000000	4.281100
312.000000	4.291900
311.000000	4.296700
310.000000	4.297100
309.000000	4.289300
308.000000	4.265500
307.000000	4.281100
306.000000	4.298300
305.000000	4.304200
304.000000	4.305300
303.000000	4.320400
302.000000	4.320400
301.000000	4.319700
300.000000	4.310300
299.000000	4.301600
298.000000	4.322000
297.000000	4.333900
296.000000	4.342400
295.000000	4.353500
294.000000	4.350000
293.000000	4.342200
292.000000	4.336800
291.000000	4.337900
290.000000	4.324800
289.000000	4.322300
288.000000	4.325800
287.000000	4.363200
286.000000	4.380500
285.000000	4.377500
284.000000	4.398900
283.000000	4.395500
282.000000	4.377600
281.000000	4.368900
280.000000	4.375200
279.000000	4.403400
278.000000	4.408500
277.000000	4.398200
276.000000	4.426500
275.000000	4.438400
274.000000	4.461000
273.000000	4.474800
272.000000	4.466400
271.000000	4.475100
270.000000	4.477300
269.000000	4.486000
268.000000	4.501100
267.000000	4.525600
266.000000	4.516300
265.000000	4.556400
264.000000	4.590700
263.000000	4.580600
262.000000	4.600900
261.000000	4.640700
260.000000	4.639400
259.000000	4.653900
258.000000	4.643300
257.000000	4.668000
256.000000	4.691900
255.000000	4.696800
254.000000	4.698100
253.000000	4.699100
252.000000	4.705400
251.000000	4.727000
250.000000	4.712300
