PE UV       SUBTECH     SPECTRUM    ASCII       PEDS        4.00        
   -1
INBUCR0127-3.Sample.ASC
24/04/29
11:41:18.00
24/04/29
11:41:18.00
Vinicio Soto Monge
C. resplendens
250,000000
1
Lambda 1050
1050L1511233
PerkinElmer UV WinLab 6.3.2.0749 / 2.02.05 Lambda 900 UV/VIS/NIR, Aug  7 2015 09:38:08

0
0
3350/servo 860,8/2
0
0
UV/VIS
1
1
1
DoubleDePol,CommonBeamDepol,RBeamAtt,SBeamAtt,60mm sphere, WB InGaAs Detector
0
0
0
0
Program
Program
3350/servo 860,8/2
3350/0,2 860,8/0,2
3350/0,2 860,8/0,2
0
15.00
 
 
 
0
 
860,8
319,2
860,8
Front
100
on
S:100 R:100
0
0
0
0
 
0
 
 
 
0
 
 
0
0
0
0
0
 
 
 
 
0
0


0
0
#HDR
-1
-1
#GR
nm
%R
1.0
0.0
2500,000000
-1,000000
2251
8
88,075900
5,824900
#DATA
2482.000000	12.521808
2481.000000	12.508542
2480.000000	12.511681
2479.000000	12.541656
2478.000000	12.540137
2477.000000	12.576289
2476.000000	12.639479
2475.000000	12.696896
2474.000000	12.677352
2473.000000	12.697099
2472.000000	12.751884
2471.000000	12.783276
2470.000000	12.804035
2469.000000	12.851225
2468.000000	12.939934
2467.000000	12.997959
2466.000000	13.003428
2465.000000	13.093048
2464.000000	13.149554
2463.000000	13.190870
2462.000000	13.250617
2461.000000	13.367883
2460.000000	13.393807
2459.000000	13.457807
2458.000000	13.530212
2457.000000	13.615984
2456.000000	13.689604
2455.000000	13.780237
2454.000000	13.887376
2453.000000	13.986211
2452.000000	14.053958
2451.000000	14.172743
2450.000000	14.288996
2449.000000	14.373856
2448.000000	14.475223
2447.000000	14.587021
2446.000000	14.691527
2445.000000	14.821046
2444.000000	14.915527
2443.000000	15.031375
2442.000000	15.162514
2441.000000	15.271779
2440.000000	15.358463
2439.000000	15.488691
2438.000000	15.622361
2437.000000	15.748336
2436.000000	15.859627
2435.000000	15.960589
2434.000000	16.064285
2433.000000	16.178310
2432.000000	16.299728
2431.000000	16.379424
2430.000000	16.499424
2429.000000	16.600689
2428.000000	16.694056
2427.000000	16.788537
2426.000000	16.893955
2425.000000	16.975170
2424.000000	17.067727
2423.000000	17.155119
2422.000000	17.240688
2421.000000	17.319372
2420.000000	17.404435
2419.000000	17.477346
2418.000000	17.543473
2417.000000	17.595929
2416.000000	17.661853
2415.000000	17.723523
2414.000000	17.792384
2413.000000	17.841194
2412.000000	17.890713
2411.000000	17.937802
2410.000000	17.982662
2409.000000	18.020738
2408.000000	18.062156
2407.000000	18.093143
2406.000000	18.116232
2405.000000	18.153903
2404.000000	18.185194
2403.000000	18.202105
2402.000000	18.215573
2401.000000	18.207472
2400.000000	18.215067
2399.000000	18.228738
2398.000000	18.247978
2397.000000	18.259624
2396.000000	18.282611
2395.000000	18.295978
2394.000000	18.299725
2393.000000	18.310662
2392.000000	18.309244
2391.000000	18.322510
2390.000000	18.327168
2389.000000	18.311472
2388.000000	18.301447
2387.000000	18.299624
2386.000000	18.285042
2385.000000	18.268738
2384.000000	18.256586
2383.000000	18.241801
2382.000000	18.223371
2381.000000	18.204434
2380.000000	18.180130
2379.000000	18.167067
2378.000000	18.139017
2377.000000	18.107219
2376.000000	18.090713
2375.000000	18.065599
2374.000000	18.046763
2373.000000	18.032181
2372.000000	17.999067
2371.000000	17.969093
2370.000000	17.964839
2369.000000	17.946915
2368.000000	17.919776
2367.000000	17.911371
2366.000000	17.909650
2365.000000	17.892637
2364.000000	17.861954
2363.000000	17.850207
2362.000000	17.850916
2361.000000	17.831270
2360.000000	17.804637
2359.000000	17.782156
2358.000000	17.762713
2357.000000	17.746004
2356.000000	17.722612
2355.000000	17.699726
2354.000000	17.670663
2353.000000	17.626612
2352.000000	17.590359
2351.000000	17.562410
2350.000000	17.528688
2349.000000	17.506308
2348.000000	17.468536
2347.000000	17.438157
2346.000000	17.407271
2345.000000	17.369498
2344.000000	17.335979
2343.000000	17.314815
2342.000000	17.290511
2341.000000	17.259828
2340.000000	17.240385
2339.000000	17.210916
2338.000000	17.186410
2337.000000	17.196840
2336.000000	17.179625
2335.000000	17.170309
2334.000000	17.166461
2333.000000	17.168081
2332.000000	17.174056
2331.000000	17.190663
2330.000000	17.208182
2329.000000	17.229650
2328.000000	17.246764
2327.000000	17.258815
2326.000000	17.261245
2325.000000	17.289093
2324.000000	17.309650
2323.000000	17.334663
2322.000000	17.336587
2321.000000	17.334258
2320.000000	17.337600
2319.000000	17.327169
2318.000000	17.327169
2317.000000	17.317853
2316.000000	17.297093
2315.000000	17.268435
2314.000000	17.240992
2313.000000	17.200283
2312.000000	17.172334
2311.000000	17.128385
2310.000000	17.090511
2309.000000	17.049803
2308.000000	17.009904
2307.000000	16.983474
2306.000000	16.951271
2305.000000	16.912689
2304.000000	16.877448
2303.000000	16.874107
2302.000000	16.848689
2301.000000	16.847778
2300.000000	16.835727
2299.000000	16.822664
2298.000000	16.840284
2297.000000	16.850107
2296.000000	16.872486
2295.000000	16.871069
2294.000000	16.884537
2293.000000	16.893651
2292.000000	16.923322
2291.000000	16.975980
2290.000000	16.980638
2289.000000	17.008891
2288.000000	17.042410
2287.000000	17.068435
2286.000000	17.119777
2285.000000	17.143170
2284.000000	17.175676
2283.000000	17.193397
2282.000000	17.240081
2281.000000	17.292942
2280.000000	17.328182
2279.000000	17.346612
2278.000000	17.371929
2277.000000	17.390055
2276.000000	17.423777
2275.000000	17.444536
2274.000000	17.474207
2273.000000	17.486055
2272.000000	17.513296
2271.000000	17.564334
2270.000000	17.584891
2269.000000	17.624485
2268.000000	17.660334
2267.000000	17.745295
2266.000000	17.800384
2265.000000	17.883726
2264.000000	17.958460
2263.000000	18.048890
2262.000000	18.167371
2261.000000	18.286054
2260.000000	18.449193
2259.000000	18.573750
2258.000000	18.715826
2257.000000	18.874914
2256.000000	19.080990
2255.000000	19.240078
2254.000000	19.426509
2253.000000	19.584179
2252.000000	19.767470
2251.000000	19.945900
2250.000000	20.131419
2249.000000	20.291622
2248.000000	20.459318
2247.000000	20.633697
2246.000000	20.764735
2245.000000	20.912482
2244.000000	21.060735
2243.000000	21.122304
2242.000000	21.245443
2241.000000	21.323114
2240.000000	21.422861
2239.000000	21.500329
2238.000000	21.549139
2237.000000	21.560785
2236.000000	21.599266
2235.000000	21.612531
2234.000000	21.639772
2233.000000	21.609190
2232.000000	21.615164
2231.000000	21.603215
2230.000000	21.584785
2229.000000	21.526456
2228.000000	21.492228
2227.000000	21.440785
2226.000000	21.377899
2225.000000	21.307924
2224.000000	21.232076
2223.000000	21.162304
2222.000000	21.066507
2221.000000	20.987722
2220.000000	20.892937
2219.000000	20.809494
2218.000000	20.722811
2217.000000	20.645241
2216.000000	20.551469
2215.000000	20.462761
2214.000000	20.379723
2213.000000	20.304887
2212.000000	20.226508
2211.000000	20.146305
2210.000000	20.068432
2209.000000	20.007774
2208.000000	19.964331
2207.000000	19.897799
2206.000000	19.829040
2205.000000	19.764939
2204.000000	19.707825
2203.000000	19.664382
2202.000000	19.634407
2201.000000	19.577395
2200.000000	19.522407
2199.000000	19.485749
2198.000000	19.438458
2197.000000	19.403420
2196.000000	19.352888
2195.000000	19.340332
2194.000000	19.308534
2193.000000	19.263268
2192.000000	19.242306
2191.000000	19.227522
2190.000000	19.200180
2189.000000	19.182560
2188.000000	19.159471
2187.000000	19.125851
2186.000000	19.119471
2185.000000	19.079775
2184.000000	19.047572
2183.000000	19.033496
2182.000000	18.997142
2181.000000	18.987218
2180.000000	18.975066
2179.000000	18.944686
2178.000000	18.927066
2177.000000	18.913902
2176.000000	18.907421
2175.000000	18.898611
2174.000000	18.903978
2173.000000	18.908737
2172.000000	18.915016
2171.000000	18.933446
2170.000000	18.951269
2169.000000	18.963927
2168.000000	18.986610
2167.000000	19.024990
2166.000000	19.055876
2165.000000	19.115015
2164.000000	19.154205
2163.000000	19.196636
2162.000000	19.244737
2161.000000	19.312382
2160.000000	19.377699
2159.000000	19.458812
2158.000000	19.543774
2157.000000	19.628534
2156.000000	19.739420
2155.000000	19.839369
2154.000000	19.936280
2153.000000	20.062255
2152.000000	20.170913
2151.000000	20.280786
2150.000000	20.401596
2149.000000	20.526355
2148.000000	20.656988
2147.000000	20.782153
2146.000000	20.898102
2145.000000	21.031773
2144.000000	21.151165
2143.000000	21.276228
2142.000000	21.405848
2141.000000	21.523823
2140.000000	21.638658
2139.000000	21.750050
2138.000000	21.857291
2137.000000	21.975468
2136.000000	22.084430
2135.000000	22.168683
2134.000000	22.265088
2133.000000	22.355923
2132.000000	22.448480
2131.000000	22.530910
2130.000000	22.600581
2129.000000	22.685442
2128.000000	22.757948
2127.000000	22.822353
2126.000000	22.883213
2125.000000	22.940631
2124.000000	22.996428
2123.000000	23.055568
2122.000000	23.105492
2121.000000	23.129087
2120.000000	23.169694
2119.000000	23.215466
2118.000000	23.249289
2117.000000	23.286960
2116.000000	23.308428
2115.000000	23.330099
2114.000000	23.334960
2113.000000	23.349643
2112.000000	23.371517
2111.000000	23.378605
2110.000000	23.396529
2109.000000	23.396631
2108.000000	23.392782
2107.000000	23.395618
2106.000000	23.393795
2105.000000	23.401998
2104.000000	23.409187
2103.000000	23.398555
2102.000000	23.395517
2101.000000	23.393390
2100.000000	23.386605
2099.000000	23.398150
2098.000000	23.421339
2097.000000	23.430960
2096.000000	23.440175
2095.000000	23.456479
2094.000000	23.484023
2093.000000	23.521997
2092.000000	23.544782
2091.000000	23.566251
2090.000000	23.590757
2089.000000	23.607263
2088.000000	23.636529
2087.000000	23.664073
2086.000000	23.670858
2085.000000	23.666504
2084.000000	23.672580
2083.000000	23.662453
2082.000000	23.630149
2081.000000	23.602808
2080.000000	23.579415
2079.000000	23.532124
2078.000000	23.476630
2077.000000	23.409694
2076.000000	23.329188
2075.000000	23.248681
2074.000000	23.152276
2073.000000	23.051213
2072.000000	22.940125
2071.000000	22.824479
2070.000000	22.706707
2069.000000	22.573847
2068.000000	22.436024
2067.000000	22.308024
2066.000000	22.187923
2065.000000	22.057493
2064.000000	21.935468
2063.000000	21.806151
2062.000000	21.673088
2061.000000	21.559468
2060.000000	21.446253
2059.000000	21.335063
2058.000000	21.250810
2057.000000	21.194000
2056.000000	21.142456
2055.000000	21.117241
2054.000000	21.134456
2053.000000	21.170709
2052.000000	21.198253
2051.000000	21.257393
2050.000000	21.367367
2049.000000	21.482000
2048.000000	21.619012
2047.000000	21.765240
2046.000000	21.908632
2045.000000	22.096075
2044.000000	22.280986
2043.000000	22.458404
2042.000000	22.644125
2041.000000	22.836834
2040.000000	23.020834
2039.000000	23.190555
2038.000000	23.387618
2037.000000	23.541643
2036.000000	23.707415
2035.000000	23.870149
2034.000000	24.023161
2033.000000	24.176478
2032.000000	24.321490
2031.000000	24.467617
2030.000000	24.572427
2029.000000	24.700832
2028.000000	24.830857
2027.000000	24.940224
2026.000000	25.023667
2025.000000	25.129692
2024.000000	25.233185
2023.000000	25.340324
2022.000000	25.421540
2021.000000	25.497691
2020.000000	25.570805
2019.000000	25.639160
2018.000000	25.723311
2017.000000	25.765539
2016.000000	25.820121
2015.000000	25.872577
2014.000000	25.901134
2013.000000	25.922096
2012.000000	25.947210
2011.000000	25.963210
2010.000000	25.979210
2009.000000	25.980526
2008.000000	25.965741
2007.000000	25.970703
2006.000000	25.953184
2005.000000	25.905488
2004.000000	25.872374
2003.000000	25.834400
2002.000000	25.794906
2001.000000	25.730096
2000.000000	25.677235
1999.000000	25.597337
1998.000000	25.532122
1997.000000	25.462248
1996.000000	25.395919
1995.000000	25.309641
1994.000000	25.213742
1993.000000	25.117540
1992.000000	25.007970
1991.000000	24.935464
1990.000000	24.840882
1989.000000	24.721388
1988.000000	24.638857
1987.000000	24.522806
1986.000000	24.417895
1985.000000	24.313591
1984.000000	24.205845
1983.000000	24.093946
1982.000000	23.992377
1981.000000	23.871162
1980.000000	23.761795
1979.000000	23.655364
1978.000000	23.557744
1977.000000	23.429643
1976.000000	23.346099
1975.000000	23.255162
1974.000000	23.137795
1973.000000	23.041796
1972.000000	22.931011
1971.000000	22.832479
1970.000000	22.737897
1969.000000	22.654454
1968.000000	22.552378
1967.000000	22.457391
1966.000000	22.359366
1965.000000	22.271366
1964.000000	22.181442
1963.000000	22.057695
1962.000000	21.956835
1961.000000	21.866607
1960.000000	21.738708
1959.000000	21.638962
1958.000000	21.545493
1957.000000	21.457392
1956.000000	21.327063
1955.000000	21.232582
1954.000000	21.135874
1953.000000	20.996836
1952.000000	20.943368
1951.000000	20.844532
1950.000000	20.763317
1949.000000	20.653646
1948.000000	20.564026
1947.000000	20.489900
1946.000000	20.385697
1945.000000	20.345090
1944.000000	20.281900
1943.000000	20.203925
1942.000000	20.179824
1941.000000	20.131115
1940.000000	20.082103
1939.000000	20.062559
1938.000000	20.042710
1937.000000	20.036837
1936.000000	20.005040
1935.000000	20.017698
1934.000000	20.049698
1933.000000	20.081191
1932.000000	20.092938
1931.000000	20.174558
1930.000000	20.226812
1929.000000	20.332128
1928.000000	20.427824
1927.000000	20.528482
1926.000000	20.627722
1925.000000	20.765545
1924.000000	20.877241
1923.000000	21.034102
1922.000000	21.224481
1921.000000	21.458405
1920.000000	21.679873
1919.000000	21.865999
1918.000000	22.081493
1917.000000	22.324834
1916.000000	22.540226
1915.000000	22.837745
1914.000000	23.204935
1913.000000	23.585592
1912.000000	23.936782
1911.000000	24.299718
1910.000000	24.616578
1909.000000	24.964325
1908.000000	25.408780
1907.000000	25.915615
1906.000000	26.499817
1905.000000	27.080677
1904.000000	27.625182
1903.000000	28.195511
1902.000000	28.788624
1901.000000	29.451813
1900.000000	30.178192
1899.000000	30.904672
1898.000000	31.561887
1897.000000	32.195101
1896.000000	32.772822
1895.000000	33.376163
1894.000000	34.014745
1893.000000	34.724820
1892.000000	35.498186
1891.000000	36.190945
1890.000000	36.834387
1889.000000	37.452411
1888.000000	38.017474
1887.000000	38.572208
1886.000000	39.097878
1885.000000	39.670029
1884.000000	40.200560
1883.000000	40.661521
1882.000000	41.091192
1881.000000	41.483596
1880.000000	41.838431
1879.000000	42.216355
1878.000000	42.573620
1877.000000	42.882886
1876.000000	43.197215
1875.000000	43.510835
1874.000000	43.809973
1873.000000	44.093011
1872.000000	44.348910
1871.000000	44.581112
1870.000000	44.783542
1869.000000	44.957314
1868.000000	45.075390
1867.000000	45.160453
1866.000000	45.228807
1865.000000	45.309921
1864.000000	45.378174
1863.000000	45.486933
1862.000000	45.612604
1861.000000	45.731186
1860.000000	45.831541
1859.000000	45.916199
1858.000000	45.973819
1857.000000	46.006224
1856.000000	46.035186
1855.000000	46.108199
1854.000000	46.145971
1853.000000	46.145161
1852.000000	46.163388
1851.000000	46.194781
1850.000000	46.235692
1849.000000	46.266477
1848.000000	46.291186
1847.000000	46.243793
1846.000000	46.176755
1845.000000	46.150528
1844.000000	46.119135
1843.000000	46.152755
1842.000000	46.168249
1841.000000	46.121059
1840.000000	46.083186
1839.000000	46.038224
1838.000000	45.996097
1837.000000	45.958629
1836.000000	45.914275
1835.000000	45.841060
1834.000000	45.761465
1833.000000	45.709009
1832.000000	45.683693
1831.000000	45.667592
1830.000000	45.639743
1829.000000	45.605212
1828.000000	45.564300
1827.000000	45.542427
1826.000000	45.531085
1825.000000	45.497971
1824.000000	45.483490
1823.000000	45.540807
1822.000000	45.598022
1821.000000	45.614731
1820.000000	45.607440
1819.000000	45.584452
1818.000000	45.558933
1817.000000	45.554073
1816.000000	45.562984
1815.000000	45.549516
1814.000000	45.541009
1813.000000	45.528655
1812.000000	45.499997
1811.000000	45.459389
1810.000000	45.421415
1809.000000	45.383946
1808.000000	45.374934
1807.000000	45.363896
1806.000000	45.326731
1805.000000	45.290984
1804.000000	45.275086
1803.000000	45.274681
1802.000000	45.255744
1801.000000	45.215541
1800.000000	45.166630
1799.000000	45.146782
1798.000000	45.134529
1797.000000	45.103845
1796.000000	45.075896
1795.000000	45.045618
1794.000000	45.025769
1793.000000	45.002276
1792.000000	44.978580
1791.000000	44.961567
1790.000000	44.959137
1789.000000	44.970782
1788.000000	44.985972
1787.000000	44.990225
1786.000000	44.998630
1785.000000	44.988200
1784.000000	44.981314
1783.000000	44.964099
1782.000000	44.952251
1781.000000	44.935744
1780.000000	44.902529
1779.000000	44.862934
1778.000000	44.823238
1777.000000	44.780808
1776.000000	44.724707
1775.000000	44.655542
1774.000000	44.593365
1773.000000	44.544150
1772.000000	44.490682
1771.000000	44.436808
1770.000000	44.380707
1769.000000	44.340201
1768.000000	44.281669
1767.000000	44.245011
1766.000000	44.224960
1765.000000	44.198530
1764.000000	44.162581
1763.000000	44.148100
1762.000000	44.141416
1761.000000	44.126530
1760.000000	44.120758
1759.000000	44.139695
1758.000000	44.126834
1757.000000	44.137771
1756.000000	44.152150
1755.000000	44.150226
1754.000000	44.137872
1753.000000	44.134429
1752.000000	44.129163
1751.000000	44.111340
1750.000000	44.078631
1749.000000	44.019593
1748.000000	43.960150
1747.000000	43.890176
1746.000000	43.806328
1745.000000	43.714176
1744.000000	43.597113
1743.000000	43.501012
1742.000000	43.387493
1741.000000	43.270025
1740.000000	43.152860
1739.000000	43.042987
1738.000000	42.946380
1737.000000	42.849873
1736.000000	42.756203
1735.000000	42.688456
1734.000000	42.590937
1733.000000	42.533621
1732.000000	42.457165
1731.000000	42.365519
1730.000000	42.272152
1729.000000	42.184254
1728.000000	42.102026
1727.000000	42.037216
1726.000000	41.990836
1725.000000	41.959647
1724.000000	41.976558
1723.000000	42.050482
1722.000000	42.174937
1721.000000	42.380406
1720.000000	42.600355
1719.000000	42.876607
1718.000000	43.181417
1717.000000	43.482581
1716.000000	43.788809
1715.000000	44.062328
1714.000000	44.320555
1713.000000	44.567846
1712.000000	44.776757
1711.000000	44.975238
1710.000000	45.133111
1709.000000	45.286630
1708.000000	45.421921
1707.000000	45.532908
1706.000000	45.642275
1705.000000	45.715895
1704.000000	45.778984
1703.000000	45.829617
1702.000000	45.876503
1701.000000	45.869313
1700.000000	45.893515
1699.000000	45.898579
1698.000000	45.865971
1697.000000	45.851085
1696.000000	45.788705
1695.000000	45.700199
1694.000000	45.573313
1693.000000	45.432858
1692.000000	45.304250
1691.000000	45.166225
1690.000000	45.073364
1689.000000	45.037618
1688.000000	45.060909
1687.000000	45.119339
1686.000000	45.301313
1685.000000	45.479440
1684.000000	45.728756
1683.000000	45.975541
1682.000000	46.237515
1681.000000	46.515996
1680.000000	46.739185
1679.000000	46.985970
1678.000000	47.203995
1677.000000	47.414931
1676.000000	47.590222
1675.000000	47.774830
1674.000000	47.956601
1673.000000	48.152146
1672.000000	48.359436
1671.000000	48.555993
1670.000000	48.774018
1669.000000	48.991031
1668.000000	49.199132
1667.000000	49.415840
1666.000000	49.605106
1665.000000	49.794473
1664.000000	49.964093
1663.000000	50.127738
1662.000000	50.303130
1661.000000	50.445510
1660.000000	50.581712
1659.000000	50.710927
1658.000000	50.831636
1657.000000	50.907282
1656.000000	50.992243
1655.000000	51.080547
1654.000000	51.135433
1653.000000	51.183433
1652.000000	51.227484
1651.000000	51.263028
1650.000000	51.288749
1649.000000	51.307079
1648.000000	51.296648
1647.000000	51.296243
1646.000000	51.288041
1645.000000	51.277408
1644.000000	51.282775
1643.000000	51.271939
1642.000000	51.253205
1641.000000	51.249357
1640.000000	51.257256
1639.000000	51.232142
1638.000000	51.224041
1637.000000	51.209256
1636.000000	51.184446
1635.000000	51.158623
1634.000000	51.125408
1633.000000	51.080851
1632.000000	51.054927
1631.000000	51.019889
1630.000000	50.951838
1629.000000	50.902623
1628.000000	50.861104
1627.000000	50.800446
1626.000000	50.756092
1625.000000	50.707889
1624.000000	50.651991
1623.000000	50.608649
1622.000000	50.574522
1621.000000	50.518826
1620.000000	50.468092
1619.000000	50.430523
1618.000000	50.398219
1617.000000	50.349611
1616.000000	50.302016
1615.000000	50.250978
1614.000000	50.193561
1613.000000	50.149308
1612.000000	50.077004
1611.000000	50.014118
1610.000000	49.947789
1609.000000	49.880447
1608.000000	49.804397
1607.000000	49.729258
1606.000000	49.645815
1605.000000	49.538169
1604.000000	49.461815
1603.000000	49.379385
1602.000000	49.284701
1601.000000	49.193157
1600.000000	49.107891
1599.000000	49.022626
1598.000000	48.949410
1597.000000	48.880651
1596.000000	48.809461
1595.000000	48.736752
1594.000000	48.675385
1593.000000	48.614525
1592.000000	48.562069
1591.000000	48.501917
1590.000000	48.449360
1589.000000	48.404398
1588.000000	48.357411
1587.000000	48.295133
1586.000000	48.242576
1585.000000	48.194070
1584.000000	48.154070
1583.000000	48.123994
1582.000000	48.080044
1581.000000	48.045513
1580.000000	48.016855
1579.000000	47.999943
1578.000000	47.980095
1577.000000	47.962374
1576.000000	47.956500
1575.000000	47.953665
1574.000000	47.958120
1573.000000	47.965817
1572.000000	47.976044
1571.000000	47.997006
1570.000000	48.023437
1569.000000	48.050981
1568.000000	48.086019
1567.000000	48.114373
1566.000000	48.137361
1565.000000	48.161462
1564.000000	48.179285
1563.000000	48.183842
1562.000000	48.195690
1561.000000	48.191842
1560.000000	48.174120
1559.000000	48.147386
1558.000000	48.114171
1557.000000	48.074880
1556.000000	48.013108
1555.000000	47.948905
1554.000000	47.871640
1553.000000	47.788500
1552.000000	47.708095
1551.000000	47.619488
1550.000000	47.512349
1549.000000	47.407944
1548.000000	47.318324
1547.000000	47.234577
1546.000000	47.161969
1545.000000	47.095640
1544.000000	47.023641
1543.000000	46.970982
1542.000000	46.921767
1541.000000	46.878020
1540.000000	46.841058
1539.000000	46.793362
1538.000000	46.729059
1537.000000	46.669211
1536.000000	46.613109
1535.000000	46.564704
1534.000000	46.499793
1533.000000	46.425160
1532.000000	46.357413
1531.000000	46.277009
1530.000000	46.199642
1529.000000	46.131085
1528.000000	46.052908
1527.000000	45.968249
1526.000000	45.889768
1525.000000	45.805819
1524.000000	45.733313
1523.000000	45.646933
1522.000000	45.545870
1521.000000	45.463845
1520.000000	45.372301
1519.000000	45.290276
1518.000000	45.211592
1517.000000	45.107896
1516.000000	45.017567
1515.000000	44.924099
1514.000000	44.819896
1513.000000	44.719643
1512.000000	44.621010
1511.000000	44.522074
1510.000000	44.425466
1509.000000	44.338884
1508.000000	44.245315
1507.000000	44.136049
1506.000000	44.056758
1505.000000	43.982935
1504.000000	43.895442
1503.000000	43.807948
1502.000000	43.736151
1501.000000	43.672657
1500.000000	43.628100
1499.000000	43.588100
1498.000000	43.537265
1497.000000	43.534531
1496.000000	43.523290
1495.000000	43.510430
1494.000000	43.513062
1493.000000	43.523695
1492.000000	43.554581
1491.000000	43.574531
1490.000000	43.594176
1489.000000	43.615240
1488.000000	43.648556
1487.000000	43.669923
1486.000000	43.705265
1485.000000	43.729568
1484.000000	43.773113
1483.000000	43.822227
1482.000000	43.865062
1481.000000	43.916606
1480.000000	43.950632
1479.000000	44.015543
1478.000000	44.074277
1477.000000	44.142530
1476.000000	44.232758
1475.000000	44.315391
1474.000000	44.410175
1473.000000	44.536859
1472.000000	44.633567
1471.000000	44.745365
1470.000000	44.831137
1469.000000	44.937365
1468.000000	45.061314
1467.000000	45.183136
1466.000000	45.294326
1465.000000	45.408756
1464.000000	45.518832
1463.000000	45.643490
1462.000000	45.770477
1461.000000	45.875287
1460.000000	45.993667
1459.000000	46.110629
1458.000000	46.233869
1457.000000	46.381819
1456.000000	46.522477
1455.000000	46.626173
1454.000000	46.735945
1453.000000	46.877312
1452.000000	47.017767
1451.000000	47.131590
1450.000000	47.216045
1449.000000	47.270729
1448.000000	47.414526
1447.000000	47.575336
1446.000000	47.730981
1445.000000	47.816146
1444.000000	47.899488
1443.000000	48.032044
1442.000000	48.157310
1441.000000	48.281057
1440.000000	48.420297
1439.000000	48.557310
1438.000000	48.706069
1437.000000	48.831942
1436.000000	48.981917
1435.000000	49.176144
1434.000000	49.329056
1433.000000	49.534827
1432.000000	49.703941
1431.000000	49.855030
1430.000000	50.064143
1429.000000	50.263941
1428.000000	50.479940
1427.000000	50.699180
1426.000000	50.965104
1425.000000	51.217458
1424.000000	51.497255
1423.000000	51.774521
1422.000000	52.026774
1421.000000	52.363685
1420.000000	52.729558
1419.000000	53.034874
1418.000000	53.284393
1417.000000	53.630215
1416.000000	54.023835
1415.000000	54.474568
1414.000000	54.868188
1413.000000	55.215935
1412.000000	55.579479
1411.000000	56.067680
1410.000000	56.594667
1409.000000	57.026160
1408.000000	57.485400
1407.000000	57.863932
1406.000000	58.353956
1405.000000	58.758513
1404.000000	59.219373
1403.000000	59.611474
1402.000000	60.109498
1401.000000	60.619675
1400.000000	60.999421
1399.000000	61.227674
1398.000000	61.550206
1397.000000	61.999116
1396.000000	62.456331
1395.000000	62.763065
1394.000000	63.017748
1393.000000	63.308685
1392.000000	63.625849
1391.000000	63.911823
1390.000000	64.203671
1389.000000	64.593037
1388.000000	64.900075
1387.000000	65.186252
1386.000000	65.477391
1385.000000	65.820378
1384.000000	66.058555
1383.000000	66.334099
1382.000000	66.501795
1381.000000	66.607010
1380.000000	66.739972
1379.000000	66.855820
1378.000000	66.951313
1377.000000	67.079212
1376.000000	67.175515
1375.000000	67.297439
1374.000000	67.421389
1373.000000	67.590097
1372.000000	67.760325
1371.000000	67.891970
1370.000000	68.029590
1369.000000	68.194957
1368.000000	68.309286
1367.000000	68.391717
1366.000000	68.507970
1365.000000	68.634147
1364.000000	68.728526
1363.000000	68.874551
1362.000000	68.956779
1361.000000	68.982501
1360.000000	68.947159
1359.000000	69.026754
1358.000000	69.090855
1357.000000	69.189994
1356.000000	69.338855
1355.000000	69.455614
1354.000000	69.572880
1353.000000	69.703512
1352.000000	69.884474
1351.000000	70.080828
1350.000000	70.285183
1349.000000	70.495511
1348.000000	70.731359
1347.000000	70.917283
1346.000000	71.076777
1345.000000	71.288422
1344.000000	71.474751
1343.000000	71.638396
1342.000000	71.798497
1341.000000	71.956877
1340.000000	72.103611
1339.000000	72.238193
1338.000000	72.368421
1337.000000	72.511205
1336.000000	72.637990
1335.000000	72.736623
1334.000000	72.851559
1333.000000	72.948977
1332.000000	73.046496
1331.000000	73.138850
1330.000000	73.229685
1329.000000	73.303002
1328.000000	73.380774
1327.000000	73.460875
1326.000000	73.516267
1325.000000	73.564875
1324.000000	73.638293
1323.000000	73.690849
1322.000000	73.757077
1321.000000	73.821989
1320.000000	73.871406
1319.000000	73.923558
1318.000000	73.966596
1317.000000	74.015001
1316.000000	74.064216
1315.000000	74.116267
1314.000000	74.167710
1313.000000	74.204165
1312.000000	74.243254
1311.000000	74.288418
1310.000000	74.318494
1309.000000	74.355963
1308.000000	74.395051
1307.000000	74.414393
1306.000000	74.435152
1305.000000	74.467456
1304.000000	74.494190
1303.000000	74.512519
1302.000000	74.531152
1301.000000	74.552621
1300.000000	74.568216
1299.000000	74.572367
1298.000000	74.577127
1297.000000	74.583000
1296.000000	74.583304
1295.000000	74.582393
1294.000000	74.577431
1293.000000	74.577836
1292.000000	74.573178
1291.000000	74.557279
1290.000000	74.544823
1289.000000	74.535608
1288.000000	74.515254
1287.000000	74.486292
1286.000000	74.452469
1285.000000	74.434950
1284.000000	74.410849
1283.000000	74.386950
1282.000000	74.377228
1281.000000	74.343709
1280.000000	74.314342
1279.000000	74.294292
1278.000000	74.276773
1277.000000	74.260672
1276.000000	74.254089
1275.000000	74.257735
1274.000000	74.248925
1273.000000	74.241431
1272.000000	74.243254
1271.000000	74.251861
1270.000000	74.257532
1269.000000	74.280216
1268.000000	74.276368
1267.000000	74.278596
1266.000000	74.270596
1265.000000	74.256317
1264.000000	74.260469
1263.000000	74.262697
1262.000000	74.259254
1261.000000	74.249836
1260.000000	74.259051
1259.000000	74.260064
1258.000000	74.250950
1257.000000	74.245988
1256.000000	74.247406
1255.000000	74.249431
1254.000000	74.225937
1253.000000	74.208013
1252.000000	74.205279
1251.000000	74.175507
1250.000000	74.125077
1249.000000	74.092368
1248.000000	74.049634
1247.000000	74.009330
1246.000000	73.940469
1245.000000	73.892166
1244.000000	73.854191
1243.000000	73.795862
1242.000000	73.738748
1241.000000	73.694799
1240.000000	73.654596
1239.000000	73.617331
1238.000000	73.571356
1237.000000	73.533685
1236.000000	73.505229
1235.000000	73.471913
1234.000000	73.446192
1233.000000	73.399711
1232.000000	73.379559
1231.000000	73.350495
1230.000000	73.316875
1229.000000	73.291458
1228.000000	73.265230
1227.000000	73.239508
1226.000000	73.203660
1225.000000	73.187053
1224.000000	73.161027
1223.000000	73.145129
1222.000000	73.132673
1221.000000	73.114040
1220.000000	73.099762
1219.000000	73.067053
1218.000000	73.042546
1217.000000	73.020876
1216.000000	73.009635
1215.000000	72.991407
1214.000000	72.959205
1213.000000	72.927104
1212.000000	72.895104
1211.000000	72.860471
1210.000000	72.817028
1209.000000	72.786952
1208.000000	72.747357
1207.000000	72.698749
1206.000000	72.642243
1205.000000	72.607712
1204.000000	72.555458
1203.000000	72.489737
1202.000000	72.450345
1201.000000	72.393433
1200.000000	72.336218
1199.000000	72.282142
1198.000000	72.205889
1197.000000	72.133585
1196.000000	72.066750
1195.000000	71.992522
1194.000000	71.907662
1193.000000	71.836067
1192.000000	71.760320
1191.000000	71.680725
1190.000000	71.617941
1189.000000	71.592624
1188.000000	71.537232
1187.000000	71.525687
1186.000000	71.530852
1185.000000	71.542194
1184.000000	71.559409
1183.000000	71.579865
1182.000000	71.634548
1181.000000	71.679105
1180.000000	71.726194
1179.000000	71.795561
1178.000000	71.857535
1177.000000	71.926193
1176.000000	71.976826
1175.000000	72.029788
1174.000000	72.109586
1173.000000	72.175307
1172.000000	72.265839
1171.000000	72.378649
1170.000000	72.477281
1169.000000	72.592420
1168.000000	72.710294
1167.000000	72.887610
1166.000000	73.018952
1165.000000	73.159103
1164.000000	73.313837
1163.000000	73.465837
1162.000000	73.613989
1161.000000	73.767609
1160.000000	73.920318
1159.000000	74.061381
1158.000000	74.196469
1157.000000	74.331355
1156.000000	74.458444
1155.000000	74.581583
1154.000000	74.687101
1153.000000	74.784418
1152.000000	74.879203
1151.000000	74.945633
1150.000000	75.003759
1149.000000	75.073936
1148.000000	75.161835
1147.000000	75.248519
1146.000000	75.301278
1145.000000	75.353430
1144.000000	75.401126
1143.000000	75.459556
1142.000000	75.546746
1141.000000	75.619252
1140.000000	75.716974
1139.000000	75.815505
1138.000000	75.944011
1137.000000	76.088720
1136.000000	76.211353
1135.000000	76.337530
1134.000000	76.414593
1133.000000	76.475960
1132.000000	76.562441
1131.000000	76.661378
1130.000000	76.761428
1129.000000	76.828871
1128.000000	76.910491
1127.000000	76.964668
1126.000000	77.015909
1125.000000	77.067959
1124.000000	77.097428
1123.000000	77.139149
1122.000000	77.177225
1121.000000	77.164769
1120.000000	77.174390
1119.000000	77.186440
1118.000000	77.210643
1117.000000	77.212668
1116.000000	77.197073
1115.000000	77.206187
1114.000000	77.222795
1113.000000	77.220769
1112.000000	77.225225
1111.000000	77.220466
1110.000000	77.233225
1109.000000	77.241022
1108.000000	77.239200
1107.000000	77.245579
1106.000000	77.229073
1105.000000	77.236668
1104.000000	77.243048
1103.000000	77.243959
1102.000000	77.249731
1101.000000	77.259959
1100.000000	77.250035
1099.000000	77.248212
1098.000000	77.222997
1097.000000	77.212364
1096.000000	77.216415
1095.000000	77.219655
1094.000000	77.215301
1093.000000	77.204263
1092.000000	77.209124
1091.000000	77.187048
1090.000000	77.180668
1089.000000	77.176314
1088.000000	77.155352
1087.000000	77.149681
1086.000000	77.138643
1085.000000	77.110795
1084.000000	77.096111
1083.000000	77.084668
1082.000000	77.065225
1081.000000	77.046086
1080.000000	77.033327
1079.000000	77.015909
1078.000000	76.980365
1077.000000	76.961630
1076.000000	76.953124
1075.000000	76.919605
1074.000000	76.905327
1073.000000	76.878593
1072.000000	76.840719
1071.000000	76.832213
1070.000000	76.807301
1069.000000	76.793124
1068.000000	76.766188
1067.000000	76.741985
1066.000000	76.723251
1065.000000	76.701985
1064.000000	76.676770
1063.000000	76.658441
1062.000000	76.639302
1061.000000	76.637681
1060.000000	76.633124
1059.000000	76.618441
1058.000000	76.616517
1057.000000	76.608719
1056.000000	76.592719
1055.000000	76.569125
1054.000000	76.579150
1053.000000	76.580568
1052.000000	76.571859
1051.000000	76.582188
1050.000000	76.594137
1049.000000	76.579352
1048.000000	76.577732
1047.000000	76.585226
1046.000000	76.602947
1045.000000	76.612264
1044.000000	76.624719
1043.000000	76.639099
1042.000000	76.649023
1041.000000	76.665327
1040.000000	76.675352
1039.000000	76.685378
1038.000000	76.701074
1037.000000	76.717378
1036.000000	76.730542
1035.000000	76.754745
1034.000000	76.768314
1033.000000	76.772972
1032.000000	76.794137
1031.000000	76.799504
1030.000000	76.791504
1029.000000	76.804365
1028.000000	76.821782
1027.000000	76.826238
1026.000000	76.823707
1025.000000	76.838795
1024.000000	76.850238
1023.000000	76.848415
1022.000000	76.851453
1021.000000	76.859150
1020.000000	76.862086
1019.000000	76.878593
1018.000000	76.893175
1017.000000	76.899757
1016.000000	76.924770
1015.000000	76.933884
1014.000000	76.936517
1013.000000	76.954643
1012.000000	76.976010
1011.000000	76.999099
1010.000000	77.001529
1009.000000	77.009225
1008.000000	77.034440
1007.000000	77.046086
1006.000000	77.070086
1005.000000	77.088921
1004.000000	77.104921
1003.000000	77.129124
1002.000000	77.170440
1001.000000	77.191402
1000.000000	77.214086
999.000000	77.253478
998.000000	77.283655
997.000000	77.331250
996.000000	77.379858
995.000000	77.421984
994.000000	77.462491
993.000000	77.521630
992.000000	77.571351
991.000000	77.621782
990.000000	77.672212
989.000000	77.735503
988.000000	77.803857
987.000000	77.867958
986.000000	77.935199
985.000000	77.997680
984.000000	78.069984
983.000000	78.143907
982.000000	78.230895
981.000000	78.311502
980.000000	78.407907
979.000000	78.502287
978.000000	78.576413
977.000000	78.651755
976.000000	78.742489
975.000000	78.829679
974.000000	78.934995
973.000000	79.002641
972.000000	79.066944
971.000000	79.163856
970.000000	79.250742
969.000000	79.297121
968.000000	79.374387
967.000000	79.445071
966.000000	79.533678
965.000000	79.616412
964.000000	79.666640
963.000000	79.713121
962.000000	79.771247
961.000000	79.862893
960.000000	79.897931
959.000000	79.979551
958.000000	80.027652
957.000000	80.077171
956.000000	80.151196
955.000000	80.197475
954.000000	80.232614
953.000000	80.300462
952.000000	80.326183
951.000000	80.355348
950.000000	80.415702
949.000000	80.443449
948.000000	80.468968
947.000000	80.511500
946.000000	80.553221
945.000000	80.580867
944.000000	80.621677
943.000000	80.659348
942.000000	80.690942
941.000000	80.721221
940.000000	80.769930
939.000000	80.795044
938.000000	80.887803
937.000000	80.905626
936.000000	80.949474
935.000000	80.996967
934.000000	81.064005
933.000000	81.110588
932.000000	81.147853
931.000000	81.191803
930.000000	81.235246
929.000000	81.306942
928.000000	81.328208
927.000000	81.381068
926.000000	81.409828
925.000000	81.511093
924.000000	81.524157
923.000000	81.571954
922.000000	81.612764
921.000000	81.643245
920.000000	81.679600
919.000000	81.690941
918.000000	81.722840
917.000000	81.746536
916.000000	81.771954
915.000000	81.783701
914.000000	81.786941
913.000000	81.892156
912.000000	81.872814
911.000000	81.833928
910.000000	81.843852
909.000000	81.827650
908.000000	81.837169
907.000000	81.843954
906.000000	81.837270
905.000000	81.833422
904.000000	81.869473
903.000000	81.877068
902.000000	81.903599
901.000000	81.908764
900.000000	81.919194
899.000000	81.968612
898.000000	81.969624
897.000000	82.000105
896.000000	82.037473
895.000000	82.037878
894.000000	82.096510
893.000000	82.117169
892.000000	82.156764
891.000000	82.196966
890.000000	82.259751
889.000000	82.294181
888.000000	82.356865
887.000000	82.423396
886.000000	82.483244
885.000000	82.573978
884.000000	82.675649
883.000000	82.730130
882.000000	82.814079
881.000000	82.902484
880.000000	82.995649
879.000000	83.082130
878.000000	83.192610
877.000000	83.258939
876.000000	83.345218
875.000000	83.378433
874.000000	83.414382
873.000000	83.407597
872.000000	83.390889
871.000000	83.421268
870.000000	83.465927
869.000000	83.538230
868.000000	83.582585
867.000000	83.592610
866.000000	83.666534
865.000000	83.679901
864.000000	83.721622
863.000000	83.721622
862.000000	83.764762
861.000000	83.766584
860.000000	83.790281
859.000000	83.827850
858.000000	84.122533
857.000000	84.495000
856.000000	83.852600
855.000000	84.020000
854.000000	84.687200
853.000000	85.064200
852.000000	84.361800
851.000000	84.210000
850.000000	84.453800
849.000000	84.391400
848.000000	84.273800
847.000000	83.864000
846.000000	84.395500
845.000000	83.925600
844.000000	84.158100
843.000000	84.156100
842.000000	83.821600
841.000000	83.977900
840.000000	83.794500
839.000000	83.914600
838.000000	83.752900
837.000000	83.772100
836.000000	83.755000
835.000000	83.630100
834.000000	83.536900
833.000000	83.592900
832.000000	83.779600
831.000000	83.688700
830.000000	83.327900
829.000000	83.298900
828.000000	83.393400
827.000000	83.548300
826.000000	83.204100
825.000000	83.301200
824.000000	83.227100
823.000000	83.231600
822.000000	83.332900
821.000000	83.483000
820.000000	83.428600
819.000000	83.460800
818.000000	83.458000
817.000000	83.579400
816.000000	83.832200
815.000000	83.885500
814.000000	83.931500
813.000000	84.034500
812.000000	84.086100
811.000000	84.189700
810.000000	84.375000
809.000000	84.445800
808.000000	84.556400
807.000000	84.667700
806.000000	84.814400
805.000000	85.076600
804.000000	85.291000
803.000000	85.503400
802.000000	85.743800
801.000000	85.766000
800.000000	85.824700
799.000000	85.942000
798.000000	86.213800
797.000000	86.197200
796.000000	86.285300
795.000000	86.317400
794.000000	86.466000
793.000000	86.341200
792.000000	86.297400
791.000000	86.397000
790.000000	86.325200
789.000000	86.282900
788.000000	86.208500
787.000000	86.044500
786.000000	85.782600
785.000000	85.792600
784.000000	85.767600
783.000000	85.510700
782.000000	85.383100
781.000000	85.242800
780.000000	85.157200
779.000000	85.192700
778.000000	85.038200
777.000000	84.866800
776.000000	84.816400
775.000000	84.791900
774.000000	84.721000
773.000000	84.753400
772.000000	84.775200
771.000000	84.644800
770.000000	84.735300
769.000000	84.992800
768.000000	85.092100
767.000000	85.116200
766.000000	85.198200
765.000000	85.357000
764.000000	85.560700
763.000000	85.725600
762.000000	85.840800
761.000000	85.975800
760.000000	86.108000
759.000000	86.246600
758.000000	86.324700
757.000000	86.286300
756.000000	86.263300
755.000000	86.274100
754.000000	86.260900
753.000000	86.312100
752.000000	86.384000
751.000000	86.384900
750.000000	86.397100
749.000000	86.419100
748.000000	86.379600
747.000000	86.288000
746.000000	86.179100
745.000000	86.091900
744.000000	86.080000
743.000000	86.006700
742.000000	85.794400
741.000000	85.649200
740.000000	85.626500
739.000000	85.514000
738.000000	85.406400
737.000000	85.378800
736.000000	85.205400
735.000000	85.114600
734.000000	85.102800
733.000000	85.037900
732.000000	84.887300
731.000000	84.851600
730.000000	84.798000
729.000000	84.706000
728.000000	84.583500
727.000000	84.393800
726.000000	84.293100
725.000000	84.174000
724.000000	83.988400
723.000000	83.831300
722.000000	83.548000
721.000000	83.301700
720.000000	83.055800
719.000000	82.762100
718.000000	82.491800
717.000000	82.083000
716.000000	81.795600
715.000000	81.429400
714.000000	81.044200
713.000000	80.686400
712.000000	80.271700
711.000000	79.906000
710.000000	79.541600
709.000000	79.065100
708.000000	78.685300
707.000000	78.322700
706.000000	77.922600
705.000000	77.544800
704.000000	77.145800
703.000000	76.766500
702.000000	76.484600
701.000000	76.193600
700.000000	75.932200
699.000000	75.738200
698.000000	75.548000
697.000000	75.425100
696.000000	75.299200
695.000000	75.172500
694.000000	75.083200
693.000000	75.079500
692.000000	75.132000
691.000000	75.098800
690.000000	75.032900
689.000000	75.011600
688.000000	74.929900
687.000000	74.977800
686.000000	74.986800
685.000000	74.994100
684.000000	74.940600
683.000000	74.946200
682.000000	74.948600
681.000000	74.920100
680.000000	74.934000
679.000000	74.910100
678.000000	74.909100
677.000000	74.928200
676.000000	74.918900
675.000000	74.814400
674.000000	74.824700
673.000000	74.817100
672.000000	74.717600
671.000000	74.629500
670.000000	74.542400
669.000000	74.347300
668.000000	74.186700
667.000000	74.000300
666.000000	73.821700
665.000000	73.605600
664.000000	73.275400
663.000000	72.968400
662.000000	72.634000
661.000000	72.307200
660.000000	71.954700
659.000000	71.531600
658.000000	71.171200
657.000000	70.711300
656.000000	70.204700
655.000000	69.675200
654.000000	69.077600
653.000000	68.508200
652.000000	67.792200
651.000000	67.071300
650.000000	66.276200
649.000000	65.471100
648.000000	64.634600
647.000000	63.706800
646.000000	62.830700
645.000000	61.849500
644.000000	60.916200
643.000000	59.945500
642.000000	58.934800
641.000000	57.993800
640.000000	57.044100
639.000000	56.171300
638.000000	55.372900
637.000000	54.593700
636.000000	53.947800
635.000000	53.409100
634.000000	52.976600
633.000000	52.678900
632.000000	52.536700
631.000000	52.511400
630.000000	52.677800
629.000000	52.951700
628.000000	53.393200
627.000000	54.040400
626.000000	54.772200
625.000000	55.666200
624.000000	56.637100
623.000000	57.742400
622.000000	58.973900
621.000000	60.229800
620.000000	61.549300
619.000000	62.864000
618.000000	64.078600
617.000000	65.348000
616.000000	66.581500
615.000000	67.881900
614.000000	69.006200
613.000000	70.118400
612.000000	71.241200
611.000000	72.296500
610.000000	73.329000
609.000000	74.301000
608.000000	75.273200
607.000000	76.217600
606.000000	77.123300
605.000000	77.934100
604.000000	78.764500
603.000000	79.573100
602.000000	80.319100
601.000000	81.042200
600.000000	81.751800
599.000000	82.289200
598.000000	82.919700
597.000000	83.399700
596.000000	83.904000
595.000000	84.334800
594.000000	84.764300
593.000000	85.134900
592.000000	85.482700
591.000000	85.804200
590.000000	86.013300
589.000000	86.303200
588.000000	86.631700
587.000000	86.768100
586.000000	86.971200
585.000000	87.150100
584.000000	87.367800
583.000000	87.457000
582.000000	87.618500
581.000000	87.767800
580.000000	87.844000
579.000000	87.892800
578.000000	87.940000
577.000000	87.992300
576.000000	88.055700
575.000000	88.075900
574.000000	87.996100
573.000000	87.972700
572.000000	87.966100
571.000000	87.884900
570.000000	87.789100
569.000000	87.688400
568.000000	87.574700
567.000000	87.486600
566.000000	87.371300
565.000000	87.202600
564.000000	86.964200
563.000000	86.837300
562.000000	86.615200
561.000000	86.426500
560.000000	86.188000
559.000000	86.014300
558.000000	85.765900
557.000000	85.555900
556.000000	85.317700
555.000000	85.054300
554.000000	84.770600
553.000000	84.471200
552.000000	84.129300
551.000000	83.774100
550.000000	83.425400
549.000000	83.062400
548.000000	82.659500
547.000000	82.277300
546.000000	81.870200
545.000000	81.368800
544.000000	80.848400
543.000000	80.282000
542.000000	79.676300
541.000000	78.977800
540.000000	78.272600
539.000000	77.507600
538.000000	76.665300
537.000000	75.820500
536.000000	74.971400
535.000000	74.033700
534.000000	73.019500
533.000000	71.998800
532.000000	70.947700
531.000000	69.806900
530.000000	68.666400
529.000000	67.521800
528.000000	66.355100
527.000000	65.155000
526.000000	63.947000
525.000000	62.716800
524.000000	61.493200
523.000000	60.200500
522.000000	58.939900
521.000000	57.690400
520.000000	56.390700
519.000000	55.111400
518.000000	53.829300
517.000000	52.568700
516.000000	51.288800
515.000000	49.998900
514.000000	48.729500
513.000000	47.430600
512.000000	46.133800
511.000000	44.848800
510.000000	43.622900
509.000000	42.404100
508.000000	41.218900
507.000000	40.034900
506.000000	38.905100
505.000000	37.803600
504.000000	36.703000
503.000000	35.662900
502.000000	34.677200
501.000000	33.697500
500.000000	32.817600
499.000000	31.984300
498.000000	31.165100
497.000000	30.428700
496.000000	29.738200
495.000000	29.133000
494.000000	28.579100
493.000000	28.102900
492.000000	27.707900
491.000000	27.407200
490.000000	27.145100
489.000000	26.919900
488.000000	26.760100
487.000000	26.688600
486.000000	26.652700
485.000000	26.663200
484.000000	26.700900
483.000000	26.740000
482.000000	26.802800
481.000000	26.883000
480.000000	26.980800
479.000000	27.095700
478.000000	27.176400
477.000000	27.260300
476.000000	27.348300
475.000000	27.407900
474.000000	27.443100
473.000000	27.461200
472.000000	27.436700
471.000000	27.402100
470.000000	27.338200
469.000000	27.251900
468.000000	27.164400
467.000000	27.037700
466.000000	26.904600
465.000000	26.757800
464.000000	26.604800
463.000000	26.426600
462.000000	26.227200
461.000000	26.050900
460.000000	25.849200
459.000000	25.615300
458.000000	25.393400
457.000000	25.169700
456.000000	24.978400
455.000000	24.749200
454.000000	24.492100
453.000000	24.237200
452.000000	23.980500
451.000000	23.741800
450.000000	23.485000
449.000000	23.199800
448.000000	22.933100
447.000000	22.674700
446.000000	22.403100
445.000000	22.115200
444.000000	21.810400
443.000000	21.484900
442.000000	21.144100
441.000000	20.838500
440.000000	20.480000
439.000000	20.124000
438.000000	19.780900
437.000000	19.396800
436.000000	19.035400
435.000000	18.638100
434.000000	18.216900
433.000000	17.801900
432.000000	17.405000
431.000000	17.001900
430.000000	16.583100
429.000000	16.141000
428.000000	15.687000
427.000000	15.246300
426.000000	14.814900
425.000000	14.382800
424.000000	13.925000
423.000000	13.474900
422.000000	13.029700
421.000000	12.606400
420.000000	12.207100
419.000000	11.785000
418.000000	11.398900
417.000000	11.051000
416.000000	10.692800
415.000000	10.338900
414.000000	9.995400
413.000000	9.689000
412.000000	9.412000
411.000000	9.127000
410.000000	8.864900
409.000000	8.637600
408.000000	8.425700
407.000000	8.230800
406.000000	8.051600
405.000000	7.870800
404.000000	7.733500
403.000000	7.617500
402.000000	7.490000
401.000000	7.364100
400.000000	7.274200
399.000000	7.178600
398.000000	7.099700
397.000000	7.040700
396.000000	6.969200
395.000000	6.905300
394.000000	6.853900
393.000000	6.798000
392.000000	6.747200
391.000000	6.711300
390.000000	6.669400
389.000000	6.618100
388.000000	6.560700
387.000000	6.534700
386.000000	6.513800
385.000000	6.503300
384.000000	6.467100
383.000000	6.452500
382.000000	6.416700
381.000000	6.387100
380.000000	6.377500
379.000000	6.380900
378.000000	6.360000
377.000000	6.324000
376.000000	6.236200
375.000000	5.877200
374.000000	5.824900
373.000000	5.838600
372.000000	6.053500
371.000000	6.059400
370.000000	6.022900
369.000000	6.139200
368.000000	6.268400
367.000000	6.328500
366.000000	6.396900
365.000000	6.290200
364.000000	6.271100
363.000000	6.184800
362.000000	6.126300
361.000000	6.067500
360.000000	6.199400
359.000000	6.161100
358.000000	6.223200
357.000000	6.049600
356.000000	6.062500
355.000000	6.061600
354.000000	6.189900
353.000000	6.258600
352.000000	6.294900
351.000000	6.213400
350.000000	6.259000
349.000000	6.146200
348.000000	6.287500
347.000000	6.279800
346.000000	6.281700
345.000000	6.053200
344.000000	6.293500
343.000000	6.181300
342.000000	6.184200
341.000000	6.479200
340.000000	6.446100
339.000000	6.299500
338.000000	6.337600
337.000000	6.264200
336.000000	6.441300
335.000000	6.187200
334.000000	6.097700
333.000000	6.261200
332.000000	6.170700
331.000000	6.361400
330.000000	6.385300
329.000000	5.968800
328.000000	6.171200
327.000000	6.357900
326.000000	6.598000
325.000000	6.485200
324.000000	6.622200
323.000000	6.802000
322.000000	6.460300
321.000000	6.853300
320.000000	6.915100
319.000000	7.840300
318.000000	7.121300
317.000000	7.318200
316.000000	6.114100
315.000000	5.980700
314.000000	6.018300
313.000000	6.047500
312.000000	6.007700
311.000000	6.002200
310.000000	6.032400
309.000000	5.996500
308.000000	6.001700
307.000000	6.045200
306.000000	6.025200
305.000000	6.048800
304.000000	6.036000
303.000000	6.023800
302.000000	6.021500
301.000000	5.985500
300.000000	6.058500
299.000000	6.016600
298.000000	6.036200
297.000000	6.018700
296.000000	5.993600
295.000000	6.064600
294.000000	6.003300
293.000000	6.039900
292.000000	6.046000
291.000000	6.057000
290.000000	6.068700
289.000000	6.076900
288.000000	6.063500
287.000000	6.033500
286.000000	6.099900
285.000000	6.082400
284.000000	6.094900
283.000000	6.069500
282.000000	6.052700
281.000000	6.086100
280.000000	6.078500
279.000000	6.143400
278.000000	6.192700
277.000000	6.144500
276.000000	6.125000
275.000000	6.148500
274.000000	6.159100
273.000000	6.116700
272.000000	6.160100
271.000000	6.119300
270.000000	6.237000
269.000000	6.220600
268.000000	6.219300
267.000000	6.286800
266.000000	6.285800
265.000000	6.227800
264.000000	6.327200
263.000000	6.337300
262.000000	6.409000
261.000000	6.437900
260.000000	6.396100
259.000000	6.469000
258.000000	6.523000
257.000000	6.538500
256.000000	6.593700
255.000000	6.547400
254.000000	6.556500
253.000000	6.566600
252.000000	6.599800
251.000000	6.570100
250.000000	6.582100
