PE UV       SUBTECH     SPECTRUM    ASCII       PEDS        4.00        
   -1
CICIMAUCR0245-2.Sample.ASC
24/06/21
14:52:02.00
24/06/21
14:52:02.00
Vinicio Soto Monge
C. resplendens. Ventral. Sex M
250,000000
1
Lambda 1050
1050L1511233
PerkinElmer UV WinLab 6.3.2.0749 / 2.02.05 Lambda 900 UV/VIS/NIR, Aug  7 2015 09:38:08

0
0
3350/servo 860,8/2
0
0
UV/VIS
1
1
1
DoubleDePol,CommonBeamDepol,RBeamAtt,SBeamAtt,60mm sphere, WB InGaAs Detector
0
0
0
0
Program
Program
3350/servo 860,8/2
3350/0,2 860,8/0,2
3350/0,2 860,8/0,2
0
15.00
 
 
 
0
 
860,8
319,2
860,8
Front
100
on
S:100 R:100
0
0
0
0
 
0
 
 
 
0
 
 
0
0
0
0
0
 
 
 
 
0
0


0
0
#HDR
-1
-1
#GR
nm
%R
1.0
0.0
2500,000000
-1,000000
2251
8
56,779300
4,473100
#DATA
2482.000000	6.245372
2481.000000	6.217787
2480.000000	6.226177
2479.000000	6.184339
2478.000000	6.214683
2477.000000	6.179167
2476.000000	6.179512
2475.000000	6.148593
2474.000000	6.120662
2473.000000	6.191350
2472.000000	6.130892
2471.000000	6.195029
2470.000000	6.160202
2469.000000	6.132731
2468.000000	6.133306
2467.000000	6.177788
2466.000000	6.133306
2465.000000	6.119513
2464.000000	6.105950
2463.000000	6.124685
2462.000000	6.090548
2461.000000	6.144455
2460.000000	6.162041
2459.000000	6.147903
2458.000000	6.198592
2457.000000	6.180316
2456.000000	6.183879
2455.000000	6.173765
2454.000000	6.182385
2453.000000	6.207557
2452.000000	6.240315
2451.000000	6.233993
2450.000000	6.240545
2449.000000	6.275027
2448.000000	6.302842
2447.000000	6.299394
2446.000000	6.345830
2445.000000	6.357554
2444.000000	6.383415
2443.000000	6.382495
2442.000000	6.417207
2441.000000	6.432035
2440.000000	6.420655
2439.000000	6.475827
2438.000000	6.516400
2437.000000	6.507205
2436.000000	6.517205
2435.000000	6.536860
2434.000000	6.553871
2433.000000	6.571457
2432.000000	6.595364
2431.000000	6.610881
2430.000000	6.641915
2429.000000	6.660190
2428.000000	6.667087
2427.000000	6.664788
2426.000000	6.677201
2425.000000	6.698120
2424.000000	6.707316
2423.000000	6.720649
2422.000000	6.717315
2421.000000	6.720304
2420.000000	6.747315
2419.000000	6.783406
2418.000000	6.787199
2417.000000	6.788923
2416.000000	6.791222
2415.000000	6.789727
2414.000000	6.799612
2413.000000	6.810187
2412.000000	6.825474
2411.000000	6.842370
2410.000000	6.864208
2409.000000	6.861450
2408.000000	6.850186
2407.000000	6.865358
2406.000000	6.890070
2405.000000	6.896277
2404.000000	6.901219
2403.000000	6.904552
2402.000000	6.904667
2401.000000	6.932138
2400.000000	6.939264
2399.000000	6.944666
2398.000000	6.967195
2397.000000	6.993516
2396.000000	7.022251
2395.000000	7.048342
2394.000000	7.077077
2393.000000	7.073514
2392.000000	7.067997
2391.000000	7.076962
2390.000000	7.091674
2389.000000	7.108915
2388.000000	7.123283
2387.000000	7.138685
2386.000000	7.161098
2385.000000	7.165006
2384.000000	7.149719
2383.000000	7.152133
2382.000000	7.172707
2381.000000	7.162018
2380.000000	7.144892
2379.000000	7.150179
2378.000000	7.154432
2377.000000	7.161213
2376.000000	7.169834
2375.000000	7.168914
2374.000000	7.165696
2373.000000	7.161328
2372.000000	7.154661
2371.000000	7.149604
2370.000000	7.139030
2369.000000	7.119490
2368.000000	7.116042
2367.000000	7.123743
2366.000000	7.115697
2365.000000	7.103513
2364.000000	7.083514
2363.000000	7.073744
2362.000000	7.055468
2361.000000	7.031446
2360.000000	7.027653
2359.000000	7.002596
2358.000000	6.987884
2357.000000	6.992022
2356.000000	6.961448
2355.000000	6.943172
2354.000000	6.939954
2353.000000	6.936161
2352.000000	6.936391
2351.000000	6.937540
2350.000000	6.947540
2349.000000	6.944896
2348.000000	6.940988
2347.000000	6.971217
2346.000000	6.992022
2345.000000	6.981102
2344.000000	7.011906
2343.000000	7.032710
2342.000000	7.027308
2341.000000	7.036733
2340.000000	7.063399
2339.000000	7.069721
2338.000000	7.072479
2337.000000	7.081100
2336.000000	7.082364
2335.000000	7.100640
2334.000000	7.093628
2333.000000	7.064089
2332.000000	7.059951
2331.000000	7.048687
2330.000000	7.050411
2329.000000	7.050756
2328.000000	7.032136
2327.000000	7.005010
2326.000000	6.987999
2325.000000	6.963976
2324.000000	6.938115
2323.000000	6.934092
2322.000000	6.885587
2321.000000	6.847657
2320.000000	6.831680
2319.000000	6.818577
2318.000000	6.799267
2317.000000	6.765590
2316.000000	6.733522
2315.000000	6.709844
2314.000000	6.653639
2313.000000	6.630651
2312.000000	6.616053
2311.000000	6.593640
2310.000000	6.560767
2309.000000	6.531343
2308.000000	6.506171
2307.000000	6.487895
2306.000000	6.499504
2305.000000	6.487091
2304.000000	6.485367
2303.000000	6.508699
2302.000000	6.514561
2301.000000	6.506401
2300.000000	6.525825
2299.000000	6.553411
2298.000000	6.572261
2297.000000	6.583066
2296.000000	6.590077
2295.000000	6.597778
2294.000000	6.656167
2293.000000	6.686856
2292.000000	6.688006
2291.000000	6.695707
2290.000000	6.714442
2289.000000	6.736050
2288.000000	6.740648
2287.000000	6.742487
2286.000000	6.739843
2285.000000	6.705476
2284.000000	6.720189
2283.000000	6.717430
2282.000000	6.701913
2281.000000	6.668696
2280.000000	6.672259
2279.000000	6.675822
2278.000000	6.670190
2277.000000	6.646168
2276.000000	6.628467
2275.000000	6.602490
2274.000000	6.620766
2273.000000	6.597778
2272.000000	6.579847
2271.000000	6.578928
2270.000000	6.578238
2269.000000	6.596513
2268.000000	6.620651
2267.000000	6.625478
2266.000000	6.636168
2265.000000	6.676742
2264.000000	6.712718
2263.000000	6.747315
2262.000000	6.791222
2261.000000	6.850875
2260.000000	6.926736
2259.000000	6.992251
2258.000000	7.078226
2257.000000	7.138455
2256.000000	7.220407
2255.000000	7.303164
2254.000000	7.376610
2253.000000	7.462700
2252.000000	7.546721
2251.000000	7.635915
2250.000000	7.714304
2249.000000	7.789015
2248.000000	7.866139
2247.000000	7.938206
2246.000000	8.022113
2245.000000	8.076134
2244.000000	8.157397
2243.000000	8.214637
2242.000000	8.251877
2241.000000	8.325094
2240.000000	8.339576
2239.000000	8.418195
2238.000000	8.464746
2237.000000	8.489918
2236.000000	8.535204
2235.000000	8.576123
2234.000000	8.584858
2233.000000	8.621409
2232.000000	8.646581
2231.000000	8.675661
2230.000000	8.690258
2229.000000	8.699683
2228.000000	8.730027
2227.000000	8.739222
2226.000000	8.745659
2225.000000	8.765429
2224.000000	8.746464
2223.000000	8.749567
2222.000000	8.770831
2221.000000	8.747958
2220.000000	8.764969
2219.000000	8.729452
2218.000000	8.708993
2217.000000	8.728533
2216.000000	8.731751
2215.000000	8.696005
2214.000000	8.701637
2213.000000	8.666350
2212.000000	8.678534
2211.000000	8.652903
2210.000000	8.657615
2209.000000	8.653362
2208.000000	8.653937
2207.000000	8.626466
2206.000000	8.621524
2205.000000	8.606237
2204.000000	8.592904
2203.000000	8.620949
2202.000000	8.602789
2201.000000	8.580146
2200.000000	8.579686
2199.000000	8.584283
2198.000000	8.579916
2197.000000	8.570835
2196.000000	8.566468
2195.000000	8.543020
2194.000000	8.574284
2193.000000	8.554054
2192.000000	8.555663
2191.000000	8.572330
2190.000000	8.540147
2189.000000	8.557502
2188.000000	8.542560
2187.000000	8.549916
2186.000000	8.548882
2185.000000	8.545089
2184.000000	8.537503
2183.000000	8.516354
2182.000000	8.503021
2181.000000	8.529227
2180.000000	8.515434
2179.000000	8.497849
2178.000000	8.494171
2177.000000	8.482906
2176.000000	8.488539
2175.000000	8.498653
2174.000000	8.496239
2173.000000	8.481527
2172.000000	8.485320
2171.000000	8.487734
2170.000000	8.504975
2169.000000	8.511067
2168.000000	8.521066
2167.000000	8.520837
2166.000000	8.530032
2165.000000	8.522791
2164.000000	8.518423
2163.000000	8.532446
2162.000000	8.566238
2161.000000	8.566238
2160.000000	8.583824
2159.000000	8.598421
2158.000000	8.610375
2157.000000	8.626811
2156.000000	8.647385
2155.000000	8.666006
2154.000000	8.663592
2153.000000	8.660144
2152.000000	8.685430
2151.000000	8.720027
2150.000000	8.723591
2149.000000	8.748188
2148.000000	8.756923
2147.000000	8.775773
2146.000000	8.779106
2145.000000	8.806232
2144.000000	8.835772
2143.000000	8.853243
2142.000000	8.848530
2141.000000	8.859679
2140.000000	8.862093
2139.000000	8.889334
2138.000000	8.888989
2137.000000	8.896575
2136.000000	8.926459
2135.000000	8.943011
2134.000000	8.951171
2133.000000	8.958987
2132.000000	8.959102
2131.000000	8.971056
2130.000000	8.983814
2129.000000	8.958872
2128.000000	8.968527
2127.000000	8.971516
2126.000000	8.961861
2125.000000	8.974044
2124.000000	8.979677
2123.000000	8.976113
2122.000000	8.973355
2121.000000	8.957263
2120.000000	8.944620
2119.000000	8.941861
2118.000000	8.944620
2117.000000	8.924850
2116.000000	8.903931
2115.000000	8.897609
2114.000000	8.900253
2113.000000	8.878070
2112.000000	8.863932
2111.000000	8.847611
2110.000000	8.836576
2109.000000	8.820715
2108.000000	8.806002
2107.000000	8.805773
2106.000000	8.799566
2105.000000	8.783014
2104.000000	8.763819
2103.000000	8.755429
2102.000000	8.727269
2101.000000	8.717958
2100.000000	8.717614
2099.000000	8.697614
2098.000000	8.688994
2097.000000	8.679683
2096.000000	8.673247
2095.000000	8.667155
2094.000000	8.661753
2093.000000	8.638765
2092.000000	8.622558
2091.000000	8.632213
2090.000000	8.629340
2089.000000	8.627271
2088.000000	8.610605
2087.000000	8.599800
2086.000000	8.595777
2085.000000	8.576123
2084.000000	8.555893
2083.000000	8.541066
2082.000000	8.537963
2081.000000	8.546353
2080.000000	8.541871
2079.000000	8.529917
2078.000000	8.508768
2077.000000	8.500377
2076.000000	8.480723
2075.000000	8.470723
2074.000000	8.471757
2073.000000	8.434632
2072.000000	8.418885
2071.000000	8.418655
2070.000000	8.396817
2069.000000	8.369921
2068.000000	8.359461
2067.000000	8.359691
2066.000000	8.336588
2065.000000	8.308658
2064.000000	8.301072
2063.000000	8.288428
2062.000000	8.261762
2061.000000	8.256820
2060.000000	8.266245
2059.000000	8.254061
2058.000000	8.236360
2057.000000	8.243142
2056.000000	8.244981
2055.000000	8.237510
2054.000000	8.254751
2053.000000	8.266820
2052.000000	8.272567
2051.000000	8.281992
2050.000000	8.297853
2049.000000	8.337393
2048.000000	8.361300
2047.000000	8.395782
2046.000000	8.434517
2045.000000	8.469229
2044.000000	8.510147
2043.000000	8.540147
2042.000000	8.578881
2041.000000	8.632673
2040.000000	8.672097
2039.000000	8.685775
2038.000000	8.731177
2037.000000	8.771520
2036.000000	8.806922
2035.000000	8.837036
2034.000000	8.883472
2033.000000	8.917954
2032.000000	8.941287
2031.000000	8.950252
2030.000000	8.974159
2029.000000	9.009561
2028.000000	9.026802
2027.000000	9.039215
2026.000000	9.071169
2025.000000	9.079329
2024.000000	9.073812
2023.000000	9.093812
2022.000000	9.096226
2021.000000	9.124846
2020.000000	9.139558
2019.000000	9.140822
2018.000000	9.144960
2017.000000	9.159328
2016.000000	9.164960
2015.000000	9.183120
2014.000000	9.171051
2013.000000	9.163235
2012.000000	9.168523
2011.000000	9.179097
2010.000000	9.168638
2009.000000	9.154960
2008.000000	9.136110
2007.000000	9.131972
2006.000000	9.115880
2005.000000	9.099099
2004.000000	9.088754
2003.000000	9.074042
2002.000000	9.068065
2001.000000	9.024733
2000.000000	9.014618
1999.000000	8.991975
1998.000000	8.965539
1997.000000	8.933011
1996.000000	8.884736
1995.000000	8.876116
1994.000000	8.865771
1993.000000	8.831059
1992.000000	8.784509
1991.000000	8.774164
1990.000000	8.727728
1989.000000	8.688534
1988.000000	8.660489
1987.000000	8.663477
1986.000000	8.620375
1985.000000	8.573134
1984.000000	8.528308
1983.000000	8.499573
1982.000000	8.467160
1981.000000	8.438425
1980.000000	8.402793
1979.000000	8.354634
1978.000000	8.331761
1977.000000	8.286359
1976.000000	8.286704
1975.000000	8.215556
1974.000000	8.204407
1973.000000	8.168661
1972.000000	8.139926
1971.000000	8.119122
1970.000000	8.086824
1969.000000	8.046825
1968.000000	8.017400
1967.000000	7.995217
1966.000000	7.964528
1965.000000	7.930161
1964.000000	7.919701
1963.000000	7.881426
1962.000000	7.849128
1961.000000	7.817175
1960.000000	7.817060
1959.000000	7.778900
1958.000000	7.776831
1957.000000	7.745222
1956.000000	7.715683
1955.000000	7.700281
1954.000000	7.659477
1953.000000	7.640512
1952.000000	7.641662
1951.000000	7.595801
1950.000000	7.564882
1949.000000	7.544537
1948.000000	7.529825
1947.000000	7.520515
1946.000000	7.490401
1945.000000	7.495573
1944.000000	7.509711
1943.000000	7.466034
1942.000000	7.464194
1941.000000	7.440517
1940.000000	7.451781
1939.000000	7.434195
1938.000000	7.444195
1937.000000	7.430517
1936.000000	7.455229
1935.000000	7.430172
1934.000000	7.462011
1933.000000	7.474884
1932.000000	7.473849
1931.000000	7.489251
1930.000000	7.515113
1929.000000	7.535227
1928.000000	7.557641
1927.000000	7.550744
1926.000000	7.595571
1925.000000	7.653271
1924.000000	7.645914
1923.000000	7.724533
1922.000000	7.710626
1921.000000	7.787520
1920.000000	7.839588
1919.000000	7.889472
1918.000000	7.948091
1917.000000	7.982803
1916.000000	8.051307
1915.000000	8.104180
1914.000000	8.159696
1913.000000	8.269233
1912.000000	8.347507
1911.000000	8.418080
1910.000000	8.493251
1909.000000	8.544859
1908.000000	8.634397
1907.000000	8.731062
1906.000000	8.820485
1905.000000	8.937149
1904.000000	9.072778
1903.000000	9.179442
1902.000000	9.284957
1901.000000	9.399437
1900.000000	9.539319
1899.000000	9.668856
1898.000000	9.835404
1897.000000	9.969539
1896.000000	10.128271
1895.000000	10.253670
1894.000000	10.384127
1893.000000	10.533434
1892.000000	10.728716
1891.000000	10.907678
1890.000000	11.113305
1889.000000	11.364334
1888.000000	11.549042
1887.000000	11.799611
1886.000000	12.010985
1885.000000	12.292703
1884.000000	12.584880
1883.000000	12.908781
1882.000000	13.301415
1881.000000	13.636465
1880.000000	14.024617
1879.000000	14.382310
1878.000000	14.722647
1877.000000	15.092868
1876.000000	15.477342
1875.000000	15.829747
1874.000000	16.193532
1873.000000	16.553179
1872.000000	16.916274
1871.000000	17.233623
1870.000000	17.549937
1869.000000	17.854758
1868.000000	18.138659
1867.000000	18.342103
1866.000000	18.528305
1865.000000	18.650831
1864.000000	18.787265
1863.000000	18.887148
1862.000000	18.977260
1861.000000	19.089212
1860.000000	19.195991
1859.000000	19.324149
1858.000000	19.423457
1857.000000	19.495409
1856.000000	19.549661
1855.000000	19.572534
1854.000000	19.582879
1853.000000	19.611499
1852.000000	19.633337
1851.000000	19.608970
1850.000000	19.570695
1849.000000	19.552190
1848.000000	19.550006
1847.000000	19.551960
1846.000000	19.561385
1845.000000	19.519662
1844.000000	19.460353
1843.000000	19.391159
1842.000000	19.350010
1841.000000	19.353114
1840.000000	19.383573
1839.000000	19.365297
1838.000000	19.332425
1837.000000	19.296678
1836.000000	19.271621
1835.000000	19.236450
1834.000000	19.178405
1833.000000	19.114269
1832.000000	19.042316
1831.000000	18.968065
1830.000000	18.907377
1829.000000	18.874159
1828.000000	18.809793
1827.000000	18.744507
1826.000000	18.682555
1825.000000	18.630372
1824.000000	18.568994
1823.000000	18.497846
1822.000000	18.446008
1821.000000	18.430262
1820.000000	18.440261
1819.000000	18.407963
1818.000000	18.365665
1817.000000	18.333367
1816.000000	18.315437
1815.000000	18.318195
1814.000000	18.310379
1813.000000	18.307851
1812.000000	18.283254
1811.000000	18.253369
1810.000000	18.234749
1809.000000	18.212106
1808.000000	18.179693
1807.000000	18.139349
1806.000000	18.086706
1805.000000	18.047512
1804.000000	18.013490
1803.000000	17.966709
1802.000000	17.916480
1801.000000	17.872573
1800.000000	17.837862
1799.000000	17.794874
1798.000000	17.746714
1797.000000	17.702118
1796.000000	17.650165
1795.000000	17.594534
1794.000000	17.549707
1793.000000	17.516260
1792.000000	17.473732
1791.000000	17.421894
1790.000000	17.375344
1789.000000	17.323966
1788.000000	17.267760
1787.000000	17.231324
1786.000000	17.170406
1785.000000	17.109143
1784.000000	17.058454
1783.000000	16.981560
1782.000000	16.916619
1781.000000	16.859494
1780.000000	16.794667
1779.000000	16.719037
1778.000000	16.646510
1777.000000	16.574558
1776.000000	16.501456
1775.000000	16.415941
1774.000000	16.332379
1773.000000	16.248358
1772.000000	16.158016
1771.000000	16.056294
1770.000000	15.944687
1769.000000	15.850781
1768.000000	15.762967
1767.000000	15.661935
1766.000000	15.582627
1765.000000	15.529295
1764.000000	15.465618
1763.000000	15.423435
1762.000000	15.402516
1761.000000	15.408033
1760.000000	15.444814
1759.000000	15.492744
1758.000000	15.540214
1757.000000	15.589753
1756.000000	15.649752
1755.000000	15.694808
1754.000000	15.748945
1753.000000	15.786530
1752.000000	15.806070
1751.000000	15.793771
1750.000000	15.768599
1749.000000	15.757220
1748.000000	15.718945
1747.000000	15.677222
1746.000000	15.631591
1745.000000	15.548030
1744.000000	15.447802
1743.000000	15.350218
1742.000000	15.220221
1741.000000	15.087006
1740.000000	14.921837
1739.000000	14.767703
1738.000000	14.600466
1737.000000	14.440354
1736.000000	14.295070
1735.000000	14.186682
1734.000000	14.097029
1733.000000	14.058754
1732.000000	14.045076
1731.000000	14.067949
1730.000000	14.105075
1729.000000	14.155878
1728.000000	14.240934
1727.000000	14.321047
1726.000000	14.413918
1725.000000	14.484146
1724.000000	14.557478
1723.000000	14.601270
1722.000000	14.640005
1721.000000	14.655177
1720.000000	14.682418
1719.000000	14.698394
1718.000000	14.702302
1717.000000	14.743566
1716.000000	14.788507
1715.000000	14.845632
1714.000000	14.904711
1713.000000	14.951722
1712.000000	15.001491
1711.000000	15.049651
1710.000000	15.080799
1709.000000	15.119879
1708.000000	15.111373
1707.000000	15.088500
1706.000000	15.100684
1705.000000	15.082178
1704.000000	15.042524
1703.000000	14.996203
1702.000000	14.934941
1701.000000	14.854598
1700.000000	14.738049
1699.000000	14.646901
1698.000000	14.509318
1697.000000	14.400355
1696.000000	14.328863
1695.000000	14.269209
1694.000000	14.266910
1693.000000	14.288059
1692.000000	14.363230
1691.000000	14.472193
1690.000000	14.561271
1689.000000	14.681268
1688.000000	14.795633
1687.000000	14.879654
1686.000000	14.897930
1685.000000	14.910688
1684.000000	14.956779
1683.000000	15.043674
1682.000000	15.177579
1681.000000	15.411136
1680.000000	15.739634
1679.000000	16.095948
1678.000000	16.538696
1677.000000	16.990985
1676.000000	17.422929
1675.000000	17.829816
1674.000000	18.215669
1673.000000	18.509800
1672.000000	18.778529
1671.000000	19.012432
1670.000000	19.223347
1669.000000	19.415871
1668.000000	19.560580
1667.000000	19.721381
1666.000000	19.844712
1665.000000	19.933330
1664.000000	20.023443
1663.000000	20.134130
1662.000000	20.191255
1661.000000	20.249875
1660.000000	20.320563
1659.000000	20.357803
1658.000000	20.402745
1657.000000	20.426192
1656.000000	20.459065
1655.000000	20.459525
1654.000000	20.469065
1653.000000	20.489524
1652.000000	20.475157
1651.000000	20.475387
1650.000000	20.438836
1649.000000	20.412974
1648.000000	20.381021
1647.000000	20.338033
1646.000000	20.290448
1645.000000	20.259989
1644.000000	20.214128
1643.000000	20.152750
1642.000000	20.115165
1641.000000	20.038500
1640.000000	20.007466
1639.000000	19.938388
1638.000000	19.897699
1637.000000	19.836896
1636.000000	19.771955
1635.000000	19.716439
1634.000000	19.629199
1633.000000	19.581040
1632.000000	19.517708
1631.000000	19.454031
1630.000000	19.384377
1629.000000	19.292885
1628.000000	19.222657
1627.000000	19.154038
1626.000000	19.069902
1625.000000	19.011283
1624.000000	18.926112
1623.000000	18.856918
1622.000000	18.771863
1621.000000	18.724967
1620.000000	18.649452
1619.000000	18.550489
1618.000000	18.513478
1617.000000	18.426584
1616.000000	18.356585
1615.000000	18.299805
1614.000000	18.235324
1613.000000	18.184980
1612.000000	18.104177
1611.000000	18.031765
1610.000000	17.983720
1609.000000	17.930043
1608.000000	17.865792
1607.000000	17.794184
1606.000000	17.742002
1605.000000	17.670509
1604.000000	17.622464
1603.000000	17.558903
1602.000000	17.494191
1601.000000	17.439595
1600.000000	17.382930
1599.000000	17.321092
1598.000000	17.266496
1597.000000	17.193164
1596.000000	17.136728
1595.000000	17.096959
1594.000000	17.063742
1593.000000	16.983973
1592.000000	16.936503
1591.000000	16.912021
1590.000000	16.865126
1589.000000	16.828920
1588.000000	16.788576
1587.000000	16.749036
1586.000000	16.705474
1585.000000	16.665705
1584.000000	16.626051
1583.000000	16.588695
1582.000000	16.561569
1581.000000	16.531685
1580.000000	16.513065
1579.000000	16.506168
1578.000000	16.476054
1577.000000	16.447894
1576.000000	16.423297
1575.000000	16.412377
1574.000000	16.385711
1573.000000	16.391114
1572.000000	16.393412
1571.000000	16.400769
1570.000000	16.391803
1569.000000	16.398355
1568.000000	16.392723
1567.000000	16.400654
1566.000000	16.400769
1565.000000	16.424561
1564.000000	16.428929
1563.000000	16.435136
1562.000000	16.435710
1561.000000	16.441687
1560.000000	16.449043
1559.000000	16.455480
1558.000000	16.460422
1557.000000	16.459963
1556.000000	16.451687
1555.000000	16.437205
1554.000000	16.432607
1553.000000	16.433756
1552.000000	16.423412
1551.000000	16.407665
1550.000000	16.377781
1549.000000	16.354333
1548.000000	16.350770
1547.000000	16.339161
1546.000000	16.313874
1545.000000	16.307208
1544.000000	16.295254
1543.000000	16.275599
1542.000000	16.266059
1541.000000	16.249163
1540.000000	16.232612
1539.000000	16.233991
1538.000000	16.220198
1537.000000	16.210198
1536.000000	16.191808
1535.000000	16.178245
1534.000000	16.163992
1533.000000	16.140315
1532.000000	16.116982
1531.000000	16.102040
1530.000000	16.088937
1529.000000	16.059742
1528.000000	16.038133
1527.000000	16.019053
1526.000000	15.997330
1525.000000	15.975261
1524.000000	15.952963
1523.000000	15.917217
1522.000000	15.876183
1521.000000	15.829288
1520.000000	15.808139
1519.000000	15.789059
1518.000000	15.746646
1517.000000	15.704348
1516.000000	15.677222
1515.000000	15.634924
1514.000000	15.600212
1513.000000	15.575156
1512.000000	15.518145
1511.000000	15.470675
1510.000000	15.433090
1509.000000	15.400217
1508.000000	15.375620
1507.000000	15.332403
1506.000000	15.278956
1505.000000	15.236888
1504.000000	15.197578
1503.000000	15.166774
1502.000000	15.145280
1501.000000	15.105511
1500.000000	15.061145
1499.000000	15.029191
1498.000000	14.999537
1497.000000	14.966204
1496.000000	14.921263
1495.000000	14.888160
1494.000000	14.868620
1493.000000	14.850920
1492.000000	14.820805
1491.000000	14.805058
1490.000000	14.783450
1489.000000	14.774255
1488.000000	14.754945
1487.000000	14.733221
1486.000000	14.712992
1485.000000	14.696670
1484.000000	14.684602
1483.000000	14.664487
1482.000000	14.652418
1481.000000	14.656441
1480.000000	14.648166
1479.000000	14.630235
1478.000000	14.622994
1477.000000	14.630925
1476.000000	14.618856
1475.000000	14.623683
1474.000000	14.628281
1473.000000	14.639775
1472.000000	14.655981
1471.000000	14.659660
1470.000000	14.664027
1469.000000	14.679084
1468.000000	14.673797
1467.000000	14.668050
1466.000000	14.694946
1465.000000	14.720118
1464.000000	14.731037
1463.000000	14.742416
1462.000000	14.763910
1461.000000	14.773220
1460.000000	14.815173
1459.000000	14.858850
1458.000000	14.880344
1457.000000	14.914596
1456.000000	14.978158
1455.000000	15.027812
1454.000000	15.068501
1453.000000	15.130223
1452.000000	15.181716
1451.000000	15.245968
1450.000000	15.320104
1449.000000	15.392861
1448.000000	15.445044
1447.000000	15.524582
1446.000000	15.582971
1445.000000	15.664694
1444.000000	15.751933
1443.000000	15.830207
1442.000000	15.877447
1441.000000	15.970089
1440.000000	16.080546
1439.000000	16.184337
1438.000000	16.255370
1437.000000	16.343529
1436.000000	16.405021
1435.000000	16.516168
1434.000000	16.614902
1433.000000	16.709037
1432.000000	16.820644
1431.000000	16.959606
1430.000000	17.047420
1429.000000	17.170521
1428.000000	17.315460
1427.000000	17.435227
1426.000000	17.561891
1425.000000	17.737979
1424.000000	17.916366
1423.000000	18.090385
1422.000000	18.277507
1421.000000	18.476123
1420.000000	18.637153
1419.000000	18.840252
1418.000000	19.107602
1417.000000	19.308517
1416.000000	19.489662
1415.000000	19.717013
1414.000000	19.970456
1413.000000	20.225967
1412.000000	20.479754
1411.000000	20.716301
1410.000000	20.985145
1409.000000	21.294333
1408.000000	21.678002
1407.000000	22.045235
1406.000000	22.411663
1405.000000	22.782459
1404.000000	23.233943
1403.000000	23.646922
1402.000000	24.030591
1401.000000	24.388054
1400.000000	24.886663
1399.000000	25.329872
1398.000000	25.693311
1397.000000	25.951466
1396.000000	26.260769
1395.000000	26.646623
1394.000000	27.036958
1393.000000	27.296722
1392.000000	27.563958
1391.000000	27.914984
1390.000000	28.280723
1389.000000	28.564164
1388.000000	28.940937
1387.000000	29.447592
1386.000000	29.924707
1385.000000	30.432742
1384.000000	30.961810
1383.000000	31.596048
1382.000000	32.229022
1381.000000	32.842571
1380.000000	33.375547
1379.000000	33.668988
1378.000000	33.994268
1377.000000	34.208861
1376.000000	34.429086
1375.000000	34.664252
1374.000000	34.920913
1373.000000	35.207113
1372.000000	35.592507
1371.000000	36.008934
1370.000000	36.502830
1369.000000	36.890293
1368.000000	37.258905
1367.000000	37.645907
1366.000000	37.999577
1365.000000	38.246353
1364.000000	38.531289
1363.000000	38.760364
1362.000000	38.951509
1361.000000	39.218170
1360.000000	39.432762
1359.000000	39.586437
1358.000000	39.650459
1357.000000	39.779306
1356.000000	39.957348
1355.000000	40.287570
1354.000000	40.681929
1353.000000	41.263639
1352.000000	41.848568
1351.000000	42.434992
1350.000000	43.094631
1349.000000	43.695652
1348.000000	44.224031
1347.000000	44.740685
1346.000000	45.226766
1345.000000	45.686066
1344.000000	46.123182
1343.000000	46.582826
1342.000000	47.025575
1341.000000	47.426600
1340.000000	47.838199
1339.000000	48.248420
1338.000000	48.622779
1337.000000	49.022195
1336.000000	49.370578
1335.000000	49.781947
1334.000000	50.116078
1333.000000	50.477563
1332.000000	50.817670
1331.000000	51.148467
1330.000000	51.483057
1329.000000	51.809027
1328.000000	52.096491
1327.000000	52.372692
1326.000000	52.643260
1325.000000	52.916128
1324.000000	53.178650
1323.000000	53.406001
1322.000000	53.626686
1321.000000	53.850359
1320.000000	54.077480
1319.000000	54.266326
1318.000000	54.483218
1317.000000	54.692293
1316.000000	54.855968
1315.000000	55.010102
1314.000000	55.200902
1313.000000	55.356990
1312.000000	55.511699
1311.000000	55.654800
1310.000000	55.797900
1309.000000	55.927322
1308.000000	56.056170
1307.000000	56.168351
1306.000000	56.271682
1305.000000	56.351335
1304.000000	56.437195
1303.000000	56.504895
1302.000000	56.554319
1301.000000	56.607191
1300.000000	56.646845
1299.000000	56.683166
1298.000000	56.722246
1297.000000	56.748797
1296.000000	56.776383
1295.000000	56.790750
1294.000000	56.820749
1293.000000	56.835117
1292.000000	56.837761
1291.000000	56.829830
1290.000000	56.817646
1289.000000	56.792704
1288.000000	56.763394
1287.000000	56.726499
1286.000000	56.665811
1285.000000	56.613513
1284.000000	56.565468
1283.000000	56.494665
1282.000000	56.427195
1281.000000	56.357772
1280.000000	56.276394
1279.000000	56.185937
1278.000000	56.117547
1277.000000	56.042377
1276.000000	55.958356
1275.000000	55.898472
1274.000000	55.849852
1273.000000	55.782728
1272.000000	55.730315
1271.000000	55.687442
1270.000000	55.647903
1269.000000	55.581008
1268.000000	55.515722
1267.000000	55.470436
1266.000000	55.396070
1265.000000	55.342048
1264.000000	55.285383
1263.000000	55.223890
1262.000000	55.156650
1261.000000	55.081824
1260.000000	55.018378
1259.000000	54.943207
1258.000000	54.872404
1257.000000	54.801601
1256.000000	54.716660
1255.000000	54.638386
1254.000000	54.552641
1253.000000	54.463678
1252.000000	54.366669
1251.000000	54.251269
1250.000000	54.165869
1249.000000	54.062882
1248.000000	53.929552
1247.000000	53.803118
1246.000000	53.685650
1245.000000	53.536113
1244.000000	53.373818
1243.000000	53.215201
1242.000000	53.034401
1241.000000	52.856474
1240.000000	52.676363
1239.000000	52.488206
1238.000000	52.306142
1237.000000	52.117525
1236.000000	51.916496
1235.000000	51.714891
1234.000000	51.494436
1233.000000	51.264442
1232.000000	51.043642
1231.000000	50.805372
1230.000000	50.554688
1229.000000	50.322854
1228.000000	50.103319
1227.000000	49.858727
1226.000000	49.604825
1225.000000	49.361153
1224.000000	49.096676
1223.000000	48.835188
1222.000000	48.589216
1221.000000	48.336004
1220.000000	48.095435
1219.000000	47.856015
1218.000000	47.615676
1217.000000	47.390164
1216.000000	47.175801
1215.000000	46.964197
1214.000000	46.761558
1213.000000	46.571792
1212.000000	46.393635
1211.000000	46.211226
1210.000000	46.038701
1209.000000	45.880544
1208.000000	45.720318
1207.000000	45.580896
1206.000000	45.475151
1205.000000	45.367567
1204.000000	45.280558
1203.000000	45.210559
1202.000000	45.168721
1201.000000	45.127343
1200.000000	45.078723
1199.000000	45.023322
1198.000000	44.934704
1197.000000	44.805396
1196.000000	44.630918
1195.000000	44.426669
1194.000000	44.136102
1193.000000	43.753812
1192.000000	43.319569
1191.000000	42.821419
1190.000000	42.272352
1189.000000	41.731215
1188.000000	41.250306
1187.000000	40.867442
1186.000000	40.622850
1185.000000	40.516415
1184.000000	40.568368
1183.000000	40.798593
1182.000000	41.172032
1181.000000	41.673515
1180.000000	42.272582
1179.000000	42.920842
1178.000000	43.522438
1177.000000	44.087137
1176.000000	44.598390
1175.000000	45.055735
1174.000000	45.470208
1173.000000	45.882728
1172.000000	46.268351
1171.000000	46.673629
1170.000000	47.096263
1169.000000	47.534643
1168.000000	47.964518
1167.000000	48.396807
1166.000000	48.853003
1165.000000	49.303108
1164.000000	49.798269
1163.000000	50.293200
1162.000000	50.782499
1161.000000	51.287889
1160.000000	51.755810
1159.000000	52.230626
1158.000000	52.713374
1157.000000	53.168076
1156.000000	53.602663
1155.000000	53.983229
1154.000000	54.326095
1153.000000	54.586204
1152.000000	54.798268
1151.000000	54.950793
1150.000000	55.062170
1149.000000	55.142742
1148.000000	55.219407
1147.000000	55.324347
1146.000000	55.457218
1145.000000	55.649167
1144.000000	55.952494
1143.000000	56.312485
1142.000000	56.728913
1141.000000	57.182120
1140.000000	57.683833
1139.000000	58.176350
1138.000000	58.699327
1137.000000	59.243222
1136.000000	59.794588
1135.000000	60.377219
1134.000000	60.994790
1133.000000	61.617650
1132.000000	62.108213
1131.000000	62.598661
1130.000000	63.032444
1129.000000	63.412091
1128.000000	63.770128
1127.000000	64.064604
1126.000000	64.292875
1125.000000	64.483905
1124.000000	64.639189
1123.000000	64.782174
1122.000000	64.897458
1121.000000	65.002054
1120.000000	65.078489
1119.000000	65.146418
1118.000000	65.184578
1117.000000	65.220899
1116.000000	65.231474
1115.000000	65.245496
1114.000000	65.262048
1113.000000	65.231819
1112.000000	65.228830
1111.000000	65.221474
1110.000000	65.204808
1109.000000	65.195153
1108.000000	65.178486
1107.000000	65.145154
1106.000000	65.138487
1105.000000	65.135269
1104.000000	65.106879
1103.000000	65.096534
1102.000000	65.057570
1101.000000	65.031478
1100.000000	64.994353
1099.000000	64.962629
1098.000000	64.956652
1097.000000	64.892976
1096.000000	64.878493
1095.000000	64.839989
1094.000000	64.786197
1093.000000	64.730911
1092.000000	64.687463
1091.000000	64.620913
1090.000000	64.573673
1089.000000	64.501261
1088.000000	64.428964
1087.000000	64.364252
1086.000000	64.302645
1085.000000	64.187705
1084.000000	64.145637
1083.000000	64.071616
1082.000000	63.971388
1081.000000	63.912424
1080.000000	63.818518
1079.000000	63.754037
1078.000000	63.664614
1077.000000	63.591052
1076.000000	63.525651
1075.000000	63.439906
1074.000000	63.360827
1073.000000	63.265657
1072.000000	63.211980
1071.000000	63.114281
1070.000000	63.044053
1069.000000	62.957044
1068.000000	62.880264
1067.000000	62.782450
1066.000000	62.694061
1065.000000	62.628661
1064.000000	62.529238
1063.000000	62.452458
1062.000000	62.356138
1061.000000	62.246600
1060.000000	62.151315
1059.000000	62.069708
1058.000000	61.972814
1057.000000	61.885689
1056.000000	61.779485
1055.000000	61.685234
1054.000000	61.568570
1053.000000	61.476044
1052.000000	61.362368
1051.000000	61.296623
1050.000000	61.194211
1049.000000	61.077777
1048.000000	60.997319
1047.000000	60.912953
1046.000000	60.839047
1045.000000	60.761233
1044.000000	60.657327
1043.000000	60.588133
1042.000000	60.528135
1041.000000	60.431585
1040.000000	60.338254
1039.000000	60.266532
1038.000000	60.188257
1037.000000	60.092053
1036.000000	59.989412
1035.000000	59.918494
1034.000000	59.825277
1033.000000	59.707119
1032.000000	59.636661
1031.000000	59.535629
1030.000000	59.407356
1029.000000	59.304370
1028.000000	59.194258
1027.000000	59.081272
1026.000000	58.977136
1025.000000	58.871277
1024.000000	58.747716
1023.000000	58.626455
1022.000000	58.504044
1021.000000	58.393127
1020.000000	58.257498
1019.000000	58.140949
1018.000000	58.024630
1017.000000	57.937620
1016.000000	57.844174
1015.000000	57.728774
1014.000000	57.630271
1013.000000	57.578433
1012.000000	57.499354
1011.000000	57.432574
1010.000000	57.376599
1009.000000	57.340393
1008.000000	57.320623
1007.000000	57.268900
1006.000000	57.227407
1005.000000	57.197292
1004.000000	57.165684
1003.000000	57.132466
1002.000000	57.103157
1001.000000	57.095341
1000.000000	57.044078
999.000000	56.997642
998.000000	56.970746
997.000000	56.942011
996.000000	56.923851
995.000000	56.899943
994.000000	56.857645
993.000000	56.828336
992.000000	56.823278
991.000000	56.789371
990.000000	56.759716
989.000000	56.754544
988.000000	56.734085
987.000000	56.724315
986.000000	56.715694
985.000000	56.691902
984.000000	56.684661
983.000000	56.688339
982.000000	56.673741
981.000000	56.647765
980.000000	56.650753
979.000000	56.663167
978.000000	56.654661
977.000000	56.642478
976.000000	56.625352
975.000000	56.628340
974.000000	56.627536
973.000000	56.612249
972.000000	56.586272
971.000000	56.589950
970.000000	56.596847
969.000000	56.591559
968.000000	56.560411
967.000000	56.550526
966.000000	56.558342
965.000000	56.557422
964.000000	56.555813
963.000000	56.547537
962.000000	56.559146
961.000000	56.561790
960.000000	56.563859
959.000000	56.587996
958.000000	56.586157
957.000000	56.601904
956.000000	56.603168
955.000000	56.585583
954.000000	56.580640
953.000000	56.583514
952.000000	56.562365
951.000000	56.549032
950.000000	56.521906
949.000000	56.482596
948.000000	56.483746
947.000000	56.466045
946.000000	56.429954
945.000000	56.409150
944.000000	56.408460
943.000000	56.387426
942.000000	56.336508
941.000000	56.318807
940.000000	56.269498
939.000000	56.213407
938.000000	56.173983
937.000000	56.113639
936.000000	56.087318
935.000000	56.056514
934.000000	56.018124
933.000000	55.979964
932.000000	55.928241
931.000000	55.913644
930.000000	55.868128
929.000000	55.806980
928.000000	55.746751
927.000000	55.691121
926.000000	55.639857
925.000000	55.574572
924.000000	55.495378
923.000000	55.435724
922.000000	55.418943
921.000000	55.357565
920.000000	55.278716
919.000000	55.207339
918.000000	55.129984
917.000000	55.054469
916.000000	54.955620
915.000000	54.880680
914.000000	54.804589
913.000000	54.727005
912.000000	54.622525
911.000000	54.542527
910.000000	54.469310
909.000000	54.387013
908.000000	54.306670
907.000000	54.237706
906.000000	54.187937
905.000000	54.139317
904.000000	54.104261
903.000000	54.083687
902.000000	54.061158
901.000000	53.996332
900.000000	53.957942
899.000000	53.932426
898.000000	53.917828
897.000000	53.925529
896.000000	53.901967
895.000000	53.864726
894.000000	53.803808
893.000000	53.745419
892.000000	53.707373
891.000000	53.640938
890.000000	53.582319
889.000000	53.544504
888.000000	53.484620
887.000000	53.386346
886.000000	53.276579
885.000000	53.184972
884.000000	53.089572
883.000000	52.966356
882.000000	52.844980
881.000000	52.735212
880.000000	52.600043
879.000000	52.479816
878.000000	52.324532
877.000000	52.118675
876.000000	51.875117
875.000000	51.639031
874.000000	51.419036
873.000000	51.226167
872.000000	50.971920
871.000000	50.789395
870.000000	50.770085
869.000000	50.822038
868.000000	50.847555
867.000000	50.879163
866.000000	50.907209
865.000000	50.926519
864.000000	50.952955
863.000000	50.967667
862.000000	50.995942
861.000000	51.029735
860.000000	51.053872
859.000000	51.100997
858.000000	51.130767
857.000000	50.250300
856.000000	51.377400
855.000000	51.764600
854.000000	51.671700
853.000000	51.866800
852.000000	51.923400
851.000000	52.053300
850.000000	51.684200
849.000000	51.821600
848.000000	52.061600
847.000000	51.909300
846.000000	52.111400
845.000000	51.720400
844.000000	51.940500
843.000000	51.936700
842.000000	51.953900
841.000000	51.883500
840.000000	51.946400
839.000000	51.831900
838.000000	51.786600
837.000000	51.826300
836.000000	51.925200
835.000000	51.653100
834.000000	51.811300
833.000000	51.806600
832.000000	51.710200
831.000000	51.750600
830.000000	51.673800
829.000000	51.701400
828.000000	51.648400
827.000000	51.670400
826.000000	51.586600
825.000000	51.596100
824.000000	51.439300
823.000000	51.650500
822.000000	51.453900
821.000000	51.367700
820.000000	51.329000
819.000000	51.259100
818.000000	51.323700
817.000000	51.267000
816.000000	51.382900
815.000000	51.131300
814.000000	51.183600
813.000000	51.031200
812.000000	50.995200
811.000000	51.061200
810.000000	50.791400
809.000000	50.678600
808.000000	50.803600
807.000000	50.753700
806.000000	50.523300
805.000000	50.583200
804.000000	50.492500
803.000000	50.470000
802.000000	50.337000
801.000000	50.123800
800.000000	50.067900
799.000000	50.074400
798.000000	49.952800
797.000000	49.862700
796.000000	49.888400
795.000000	49.782200
794.000000	49.700600
793.000000	49.478300
792.000000	49.410100
791.000000	49.327600
790.000000	49.228200
789.000000	49.118800
788.000000	49.087000
787.000000	48.957100
786.000000	49.037200
785.000000	48.834400
784.000000	48.713400
783.000000	48.566600
782.000000	48.421400
781.000000	48.472000
780.000000	48.343300
779.000000	48.113700
778.000000	47.935200
777.000000	47.943100
776.000000	47.806800
775.000000	47.732700
774.000000	47.516300
773.000000	47.406600
772.000000	47.345200
771.000000	47.313300
770.000000	47.093000
769.000000	46.974600
768.000000	46.866000
767.000000	46.742200
766.000000	46.626700
765.000000	46.566700
764.000000	46.303400
763.000000	46.219700
762.000000	46.095400
761.000000	45.955600
760.000000	45.774300
759.000000	45.654900
758.000000	45.432300
757.000000	45.281000
756.000000	45.217200
755.000000	44.953800
754.000000	44.883200
753.000000	44.643600
752.000000	44.490300
751.000000	44.342800
750.000000	44.175600
749.000000	43.990500
748.000000	43.844400
747.000000	43.662600
746.000000	43.422800
745.000000	43.270900
744.000000	43.055900
743.000000	42.949200
742.000000	42.654900
741.000000	42.402800
740.000000	42.193500
739.000000	41.970700
738.000000	41.787800
737.000000	41.584400
736.000000	41.350800
735.000000	41.037900
734.000000	40.863300
733.000000	40.650500
732.000000	40.391300
731.000000	40.127400
730.000000	39.960900
729.000000	39.704500
728.000000	39.487900
727.000000	39.269200
726.000000	38.970100
725.000000	38.747400
724.000000	38.447200
723.000000	38.185000
722.000000	37.960300
721.000000	37.664300
720.000000	37.434500
719.000000	37.179900
718.000000	36.960300
717.000000	36.692800
716.000000	36.444600
715.000000	36.196800
714.000000	35.950700
713.000000	35.705700
712.000000	35.435000
711.000000	35.185500
710.000000	34.980400
709.000000	34.750600
708.000000	34.483300
707.000000	34.192500
706.000000	33.980500
705.000000	33.768200
704.000000	33.516700
703.000000	33.273300
702.000000	33.071300
701.000000	32.817900
700.000000	32.597300
699.000000	32.381300
698.000000	32.179800
697.000000	31.980200
696.000000	31.759400
695.000000	31.507000
694.000000	31.350800
693.000000	31.194100
692.000000	31.007500
691.000000	30.801600
690.000000	30.566500
689.000000	30.354600
688.000000	30.205300
687.000000	30.036500
686.000000	29.871700
685.000000	29.704400
684.000000	29.555200
683.000000	29.369300
682.000000	29.212800
681.000000	29.056600
680.000000	28.892400
679.000000	28.740900
678.000000	28.580800
677.000000	28.469200
676.000000	28.334100
675.000000	28.175800
674.000000	28.017800
673.000000	27.876700
672.000000	27.752600
671.000000	27.620900
670.000000	27.493300
669.000000	27.361500
668.000000	27.232900
667.000000	27.104300
666.000000	27.003500
665.000000	26.908700
664.000000	26.787300
663.000000	26.690000
662.000000	26.599100
661.000000	26.473800
660.000000	26.368000
659.000000	26.292800
658.000000	26.201600
657.000000	26.111500
656.000000	26.041200
655.000000	25.950700
654.000000	25.857500
653.000000	25.782000
652.000000	25.724700
651.000000	25.681900
650.000000	25.626400
649.000000	25.580500
648.000000	25.549100
647.000000	25.486000
646.000000	25.416700
645.000000	25.375700
644.000000	25.358200
643.000000	25.340900
642.000000	25.311200
641.000000	25.293300
640.000000	25.288600
639.000000	25.272800
638.000000	25.252400
637.000000	25.259000
636.000000	25.266800
635.000000	25.283100
634.000000	25.297800
633.000000	25.309600
632.000000	25.335600
631.000000	25.384600
630.000000	25.418900
629.000000	25.452100
628.000000	25.497000
627.000000	25.555800
626.000000	25.637800
625.000000	25.698400
624.000000	25.762700
623.000000	25.848800
622.000000	25.950800
621.000000	26.044800
620.000000	26.114300
619.000000	26.206300
618.000000	26.303900
617.000000	26.404500
616.000000	26.534700
615.000000	26.652900
614.000000	26.756800
613.000000	26.873400
612.000000	27.002300
611.000000	27.117600
610.000000	27.236400
609.000000	27.360100
608.000000	27.498100
607.000000	27.649800
606.000000	27.758400
605.000000	27.888100
604.000000	28.009800
603.000000	28.147000
602.000000	28.275100
601.000000	28.392700
600.000000	28.529200
599.000000	28.659300
598.000000	28.786700
597.000000	28.912200
596.000000	29.005400
595.000000	29.113400
594.000000	29.235700
593.000000	29.336400
592.000000	29.411100
591.000000	29.514500
590.000000	29.622600
589.000000	29.691900
588.000000	29.743100
587.000000	29.799200
586.000000	29.852100
585.000000	29.907000
584.000000	29.975600
583.000000	30.005800
582.000000	30.023300
581.000000	30.028700
580.000000	30.052400
579.000000	30.033500
578.000000	30.040300
577.000000	30.027300
576.000000	29.997000
575.000000	29.989700
574.000000	29.949100
573.000000	29.899600
572.000000	29.858500
571.000000	29.784700
570.000000	29.718500
569.000000	29.655400
568.000000	29.579300
567.000000	29.479700
566.000000	29.381700
565.000000	29.282400
564.000000	29.148200
563.000000	29.030500
562.000000	28.901700
561.000000	28.753000
560.000000	28.593100
559.000000	28.431800
558.000000	28.265000
557.000000	28.111900
556.000000	27.906700
555.000000	27.692600
554.000000	27.502600
553.000000	27.273200
552.000000	27.036100
551.000000	26.790200
550.000000	26.539100
549.000000	26.285900
548.000000	26.046100
547.000000	25.772000
546.000000	25.479300
545.000000	25.208000
544.000000	24.912200
543.000000	24.619900
542.000000	24.321100
541.000000	23.984700
540.000000	23.688800
539.000000	23.376500
538.000000	23.066900
537.000000	22.769600
536.000000	22.443600
535.000000	22.132100
534.000000	21.807200
533.000000	21.492000
532.000000	21.177400
531.000000	20.848100
530.000000	20.533800
529.000000	20.251300
528.000000	19.936600
527.000000	19.625600
526.000000	19.322700
525.000000	19.036200
524.000000	18.770600
523.000000	18.457900
522.000000	18.191700
521.000000	17.896200
520.000000	17.648400
519.000000	17.380900
518.000000	17.120400
517.000000	16.859000
516.000000	16.638500
515.000000	16.444800
514.000000	16.184000
513.000000	15.987000
512.000000	15.784100
511.000000	15.575600
510.000000	15.406500
509.000000	15.219800
508.000000	15.047500
507.000000	14.899000
506.000000	14.733700
505.000000	14.574300
504.000000	14.433400
503.000000	14.317700
502.000000	14.189500
501.000000	14.058900
500.000000	13.944600
499.000000	13.828600
498.000000	13.751500
497.000000	13.646500
496.000000	13.567900
495.000000	13.470000
494.000000	13.383900
493.000000	13.336700
492.000000	13.231200
491.000000	13.164000
490.000000	13.083500
489.000000	13.043500
488.000000	12.974600
487.000000	12.921500
486.000000	12.874200
485.000000	12.818800
484.000000	12.745800
483.000000	12.688800
482.000000	12.618200
481.000000	12.519900
480.000000	12.473100
479.000000	12.371000
478.000000	12.287100
477.000000	12.213800
476.000000	12.122600
475.000000	12.044600
474.000000	11.973300
473.000000	11.891900
472.000000	11.807500
471.000000	11.722900
470.000000	11.655900
469.000000	11.567400
468.000000	11.484500
467.000000	11.402300
466.000000	11.331000
465.000000	11.232800
464.000000	11.159000
463.000000	11.088500
462.000000	10.996400
461.000000	10.907500
460.000000	10.842200
459.000000	10.740200
458.000000	10.659000
457.000000	10.586500
456.000000	10.502900
455.000000	10.409700
454.000000	10.320400
453.000000	10.250100
452.000000	10.142100
451.000000	10.038600
450.000000	9.956300
449.000000	9.843800
448.000000	9.773800
447.000000	9.686800
446.000000	9.582300
445.000000	9.493100
444.000000	9.386900
443.000000	9.294500
442.000000	9.180600
441.000000	9.091600
440.000000	8.978300
439.000000	8.892000
438.000000	8.774500
437.000000	8.671900
436.000000	8.575900
435.000000	8.496200
434.000000	8.381200
433.000000	8.281200
432.000000	8.171800
431.000000	8.090100
430.000000	7.996800
429.000000	7.883300
428.000000	7.788700
427.000000	7.713400
426.000000	7.616200
425.000000	7.531100
424.000000	7.449500
423.000000	7.348100
422.000000	7.273300
421.000000	7.198700
420.000000	7.125700
419.000000	7.030000
418.000000	6.949300
417.000000	6.888300
416.000000	6.804100
415.000000	6.734800
414.000000	6.659800
413.000000	6.574100
412.000000	6.510000
411.000000	6.447400
410.000000	6.386800
409.000000	6.336900
408.000000	6.262500
407.000000	6.193600
406.000000	6.141400
405.000000	6.092200
404.000000	6.030400
403.000000	5.978700
402.000000	5.911400
401.000000	5.868300
400.000000	5.817400
399.000000	5.764200
398.000000	5.727700
397.000000	5.680500
396.000000	5.628500
395.000000	5.603300
394.000000	5.554200
393.000000	5.506400
392.000000	5.462100
391.000000	5.436000
390.000000	5.412200
389.000000	5.363800
388.000000	5.326900
387.000000	5.306800
386.000000	5.271800
385.000000	5.237200
384.000000	5.208300
383.000000	5.175000
382.000000	5.166300
381.000000	5.154300
380.000000	5.146600
379.000000	5.120800
378.000000	5.103600
377.000000	5.061100
376.000000	4.967200
375.000000	4.795200
374.000000	4.740600
373.000000	4.820700
372.000000	4.846100
371.000000	4.745700
370.000000	4.733300
369.000000	4.770200
368.000000	4.777800
367.000000	4.751500
366.000000	4.796100
365.000000	4.786300
364.000000	4.722600
363.000000	4.712600
362.000000	4.684900
361.000000	4.619200
360.000000	4.706600
359.000000	4.827800
358.000000	4.813600
357.000000	4.715400
356.000000	4.662900
355.000000	4.749400
354.000000	4.731100
353.000000	4.669300
352.000000	4.659700
351.000000	4.716100
350.000000	4.791300
349.000000	4.701200
348.000000	4.674700
347.000000	4.804500
346.000000	4.749000
345.000000	4.609000
344.000000	4.763700
343.000000	4.833300
342.000000	4.632400
341.000000	4.655200
340.000000	4.751800
339.000000	4.765800
338.000000	4.670100
337.000000	4.650200
336.000000	4.753400
335.000000	4.665700
334.000000	4.580000
333.000000	4.716100
332.000000	4.778000
331.000000	4.651300
330.000000	4.663800
329.000000	4.742700
328.000000	4.817900
327.000000	4.711200
326.000000	4.513600
325.000000	4.473100
324.000000	4.697500
323.000000	4.962800
322.000000	4.958900
321.000000	4.940900
320.000000	4.583800
319.000000	4.944500
318.000000	5.094800
317.000000	5.306000
316.000000	5.143600
315.000000	4.647800
314.000000	4.639300
313.000000	4.653100
312.000000	4.663900
311.000000	4.662600
310.000000	4.658100
309.000000	4.639300
308.000000	4.646500
307.000000	4.678500
306.000000	4.687800
305.000000	4.660000
304.000000	4.660800
303.000000	4.667700
302.000000	4.685200
301.000000	4.711600
300.000000	4.690200
299.000000	4.663600
298.000000	4.656700
297.000000	4.672600
296.000000	4.685400
295.000000	4.707500
294.000000	4.705000
293.000000	4.696700
292.000000	4.696700
291.000000	4.695200
290.000000	4.683200
289.000000	4.688600
288.000000	4.690100
287.000000	4.693700
286.000000	4.711400
285.000000	4.725000
284.000000	4.726500
283.000000	4.720900
282.000000	4.736500
281.000000	4.758100
280.000000	4.723500
279.000000	4.685000
278.000000	4.739000
277.000000	4.726600
276.000000	4.707600
275.000000	4.772200
274.000000	4.757400
273.000000	4.755600
272.000000	4.796100
271.000000	4.833900
270.000000	4.851700
269.000000	4.872600
268.000000	4.869000
267.000000	4.856200
266.000000	4.897600
265.000000	4.900300
264.000000	4.913000
263.000000	4.965900
262.000000	4.950500
261.000000	5.011700
260.000000	5.061700
259.000000	5.061800
258.000000	5.072700
257.000000	5.083100
256.000000	5.082200
255.000000	5.103200
254.000000	5.118200
253.000000	5.145100
252.000000	5.119100
251.000000	5.124900
250.000000	5.134800
