PE UV       SUBTECH     SPECTRUM    ASCII       PEDS        4.00        
   -1
CICIMAUCR0215-3.Sample.ASC
24/06/13
14:57:01.00
24/06/13
14:57:01.00
Vinicio Soto Monge
C. cupreomarginata. Sex M. Ventral 
250,000000
1
Lambda 1050
1050L1511233
PerkinElmer UV WinLab 6.3.2.0749 / 2.02.05 Lambda 900 UV/VIS/NIR, Aug  7 2015 09:38:08

0
0
3350/servo 860,8/2
0
0
UV/VIS
1
1
1
DoubleDePol,CommonBeamDepol,RBeamAtt,SBeamAtt,60mm sphere, WB InGaAs Detector
0
0
0
0
Program
Program
3350/servo 860,8/2
3350/0,2 860,8/0,2
3350/0,2 860,8/0,2
0
15.00
 
 
 
0
 
860,8
319,2
860,8
Front
100
on
S:100 R:100
0
0
0
0
 
0
 
 
 
0
 
 
0
0
0
0
0
 
 
 
 
0
0


0
0
#HDR
-1
-1
#GR
nm
%R
1.0
0.0
2500,000000
-1,000000
2251
8
61,258900
4,228600
#DATA
2482.000000	6.927568
2481.000000	6.892701
2480.000000	6.808730
2479.000000	6.860862
2478.000000	6.853911
2477.000000	6.827565
2476.000000	6.826780
2475.000000	6.834516
2474.000000	6.800770
2473.000000	6.840009
2472.000000	6.851108
2471.000000	6.825547
2470.000000	6.879248
2469.000000	6.837543
2468.000000	6.820726
2467.000000	6.848978
2466.000000	6.828013
2465.000000	6.861759
2464.000000	6.847184
2463.000000	6.829695
2462.000000	6.884854
2461.000000	6.921850
2460.000000	6.929474
2459.000000	6.891468
2458.000000	6.937322
2457.000000	7.002570
2456.000000	7.037213
2455.000000	7.035979
2454.000000	7.082393
2453.000000	7.091811
2452.000000	7.096968
2451.000000	7.147754
2450.000000	7.182957
2449.000000	7.211097
2448.000000	7.239573
2447.000000	7.280269
2446.000000	7.319732
2445.000000	7.355384
2444.000000	7.427247
2443.000000	7.432965
2442.000000	7.457965
2441.000000	7.509537
2440.000000	7.554045
2439.000000	7.582185
2438.000000	7.599898
2437.000000	7.650348
2436.000000	7.689251
2435.000000	7.706964
2434.000000	7.764029
2433.000000	7.790151
2432.000000	7.831520
2431.000000	7.841946
2430.000000	7.873561
2429.000000	7.893741
2428.000000	7.915379
2427.000000	7.942958
2426.000000	7.983879
2425.000000	8.031189
2424.000000	8.047894
2423.000000	8.063814
2422.000000	8.075810
2421.000000	8.099353
2420.000000	8.141507
2419.000000	8.154848
2418.000000	8.179176
2417.000000	8.202944
2416.000000	8.221890
2415.000000	8.244425
2414.000000	8.282542
2413.000000	8.292632
2412.000000	8.318082
2411.000000	8.334001
2410.000000	8.348464
2409.000000	8.374474
2408.000000	8.384003
2407.000000	8.389945
2406.000000	8.425820
2405.000000	8.462593
2404.000000	8.456427
2403.000000	8.461696
2402.000000	8.480082
2401.000000	8.503962
2400.000000	8.517639
2399.000000	8.553066
2398.000000	8.598135
2397.000000	8.615064
2396.000000	8.643204
2395.000000	8.666523
2394.000000	8.699708
2393.000000	8.709798
2392.000000	8.698362
2391.000000	8.728408
2390.000000	8.756884
2389.000000	8.764844
2388.000000	8.774037
2387.000000	8.778970
2386.000000	8.807334
2385.000000	8.831438
2384.000000	8.837604
2383.000000	8.840071
2382.000000	8.825048
2381.000000	8.831102
2380.000000	8.853300
2379.000000	8.862157
2378.000000	8.850721
2377.000000	8.844219
2376.000000	8.841192
2375.000000	8.827514
2374.000000	8.822021
2373.000000	8.819106
2372.000000	8.815519
2371.000000	8.806438
2370.000000	8.794554
2369.000000	8.777177
2368.000000	8.763051
2367.000000	8.753857
2366.000000	8.732444
2365.000000	8.706098
2364.000000	8.691412
2363.000000	8.663384
2362.000000	8.638607
2361.000000	8.615961
2360.000000	8.598247
2359.000000	8.572910
2358.000000	8.544770
2357.000000	8.521900
2356.000000	8.498805
2355.000000	8.487033
2354.000000	8.478513
2353.000000	8.473692
2352.000000	8.469095
2351.000000	8.476270
2350.000000	8.469880
2349.000000	8.469768
2348.000000	8.482549
2347.000000	8.508895
2346.000000	8.528850
2345.000000	8.555869
2344.000000	8.577955
2343.000000	8.598584
2342.000000	8.643316
2341.000000	8.662487
2340.000000	8.671456
2339.000000	8.694887
2338.000000	8.705425
2337.000000	8.729866
2336.000000	8.733677
2335.000000	8.737041
2334.000000	8.740965
2333.000000	8.743767
2332.000000	8.733341
2331.000000	8.727960
2330.000000	8.723924
2329.000000	8.707107
2328.000000	8.673362
2327.000000	8.653070
2326.000000	8.615512
2325.000000	8.584570
2324.000000	8.555869
2323.000000	8.522348
2322.000000	8.468759
2321.000000	8.424363
2320.000000	8.388712
2319.000000	8.332880
2318.000000	8.285569
2317.000000	8.235456
2316.000000	8.194535
2315.000000	8.142516
2314.000000	8.085900
2313.000000	8.031526
2312.000000	7.988699
2311.000000	7.934998
2310.000000	7.897329
2309.000000	7.866274
2308.000000	7.831632
2307.000000	7.824120
2306.000000	7.797326
2305.000000	7.793065
2304.000000	7.794187
2303.000000	7.796765
2302.000000	7.824344
2301.000000	7.845758
2300.000000	7.868740
2299.000000	7.928159
2298.000000	7.975134
2297.000000	8.016951
2296.000000	8.031077
2295.000000	8.079285
2294.000000	8.139825
2293.000000	8.173795
2292.000000	8.203840
2291.000000	8.244200
2290.000000	8.245322
2289.000000	8.271219
2288.000000	8.282655
2287.000000	8.289830
2286.000000	8.302386
2285.000000	8.291623
2284.000000	8.284897
2283.000000	8.252385
2282.000000	8.272901
2281.000000	8.240501
2280.000000	8.226151
2279.000000	8.213594
2278.000000	8.179288
2277.000000	8.154512
2276.000000	8.135677
2275.000000	8.106864
2274.000000	8.095877
2273.000000	8.079173
2272.000000	8.079285
2271.000000	8.074464
2270.000000	8.078724
2269.000000	8.083994
2268.000000	8.106864
2267.000000	8.145767
2266.000000	8.200253
2265.000000	8.214043
2264.000000	8.295099
2263.000000	8.386694
2262.000000	8.478513
2261.000000	8.606543
2260.000000	8.695560
2259.000000	8.816864
2258.000000	8.954424
2257.000000	9.091760
2256.000000	9.261721
2255.000000	9.371141
2254.000000	9.547043
2253.000000	9.692900
2252.000000	9.845931
2251.000000	10.012080
2250.000000	10.136635
2249.000000	10.288322
2248.000000	10.432160
2247.000000	10.576559
2246.000000	10.678580
2245.000000	10.800557
2244.000000	10.930382
2243.000000	11.038233
2242.000000	11.113123
2241.000000	11.209763
2240.000000	11.290707
2239.000000	11.370866
2238.000000	11.454838
2237.000000	11.513135
2236.000000	11.573003
2235.000000	11.623901
2234.000000	11.679172
2233.000000	11.729285
2232.000000	11.761125
2231.000000	11.790610
2230.000000	11.814378
2229.000000	11.857877
2228.000000	11.859559
2227.000000	11.868415
2226.000000	11.860680
2225.000000	11.874918
2224.000000	11.875478
2223.000000	11.873797
2222.000000	11.848123
2221.000000	11.859110
2220.000000	11.799803
2219.000000	11.784893
2218.000000	11.778726
2217.000000	11.737021
2216.000000	11.717065
2215.000000	11.701930
2214.000000	11.691280
2213.000000	11.653386
2212.000000	11.626816
2211.000000	11.626592
2210.000000	11.592174
2209.000000	11.583205
2208.000000	11.569079
2207.000000	11.529840
2206.000000	11.526701
2205.000000	11.519526
2204.000000	11.514817
2203.000000	11.470533
2202.000000	11.478157
2201.000000	11.483538
2200.000000	11.456071
2199.000000	11.450241
2198.000000	11.422325
2197.000000	11.414478
2196.000000	11.421092
2195.000000	11.405733
2194.000000	11.406742
2193.000000	11.401024
2192.000000	11.398446
2191.000000	11.382526
2190.000000	11.379499
2189.000000	11.364700
2188.000000	11.352929
2187.000000	11.367167
2186.000000	11.338803
2185.000000	11.316717
2184.000000	11.321313
2183.000000	11.301470
2182.000000	11.289474
2181.000000	11.291155
2180.000000	11.276245
2179.000000	11.269070
2178.000000	11.255168
2177.000000	11.266043
2176.000000	11.256962
2175.000000	11.234651
2174.000000	11.234203
2173.000000	11.234315
2172.000000	11.217835
2171.000000	11.245078
2170.000000	11.227476
2169.000000	11.229158
2168.000000	11.270751
2167.000000	11.251917
2166.000000	11.263016
2165.000000	11.277142
2164.000000	11.264809
2163.000000	11.273330
2162.000000	11.299900
2161.000000	11.325237
2160.000000	11.343399
2159.000000	11.332973
2158.000000	11.369409
2157.000000	11.426137
2156.000000	11.431182
2155.000000	11.454053
2154.000000	11.498112
2153.000000	11.517508
2152.000000	11.565267
2151.000000	11.589819
2150.000000	11.611233
2149.000000	11.655404
2148.000000	11.690495
2147.000000	11.707760
2146.000000	11.737806
2145.000000	11.765834
2144.000000	11.807875
2143.000000	11.844872
2142.000000	11.870658
2141.000000	11.904739
2140.000000	11.934673
2139.000000	11.971333
2138.000000	11.974921
2137.000000	11.993980
2136.000000	12.020550
2135.000000	12.045551
2134.000000	12.060574
2133.000000	12.080754
2132.000000	12.095440
2131.000000	12.087480
2130.000000	12.108782
2129.000000	12.130531
2128.000000	12.150038
2127.000000	12.152393
2126.000000	12.142415
2125.000000	12.140733
2124.000000	12.138491
2123.000000	12.151272
2122.000000	12.134455
2121.000000	12.129298
2120.000000	12.136249
2119.000000	12.119320
2118.000000	12.111136
2117.000000	12.098804
2116.000000	12.075260
2115.000000	12.067413
2114.000000	12.061022
2113.000000	12.046111
2112.000000	12.012254
2111.000000	11.998576
2110.000000	11.989495
2109.000000	11.976042
2108.000000	11.957207
2107.000000	11.937252
2106.000000	11.918417
2105.000000	11.877160
2104.000000	11.876487
2103.000000	11.864043
2102.000000	11.836239
2101.000000	11.806642
2100.000000	11.789265
2099.000000	11.774690
2098.000000	11.741730
2097.000000	11.730743
2096.000000	11.720204
2095.000000	11.696101
2094.000000	11.673903
2093.000000	11.661683
2092.000000	11.644417
2091.000000	11.622780
2090.000000	11.603161
2089.000000	11.584550
2088.000000	11.575469
2087.000000	11.563249
2086.000000	11.536454
2085.000000	11.518068
2084.000000	11.512351
2083.000000	11.484771
2082.000000	11.460107
2081.000000	11.447662
2080.000000	11.417056
2079.000000	11.396091
2078.000000	11.372996
2077.000000	11.333870
2076.000000	11.300573
2075.000000	11.273330
2074.000000	11.227925
2073.000000	11.188798
2072.000000	11.163012
2071.000000	11.119962
2070.000000	11.088122
2069.000000	11.054265
2068.000000	11.011999
2067.000000	10.981841
2066.000000	10.940808
2065.000000	10.889461
2064.000000	10.863003
2063.000000	10.844729
2062.000000	10.811656
2061.000000	10.782732
2060.000000	10.739569
2059.000000	10.713447
2058.000000	10.700778
2057.000000	10.683289
2056.000000	10.694724
2055.000000	10.700891
2054.000000	10.711541
2053.000000	10.715017
2052.000000	10.724770
2051.000000	10.762103
2050.000000	10.784413
2049.000000	10.820401
2048.000000	10.875111
2047.000000	10.935875
2046.000000	10.976908
2045.000000	11.035318
2044.000000	11.092719
2043.000000	11.155725
2042.000000	11.214696
2041.000000	11.280729
2040.000000	11.346426
2039.000000	11.400464
2038.000000	11.445981
2037.000000	11.516611
2036.000000	11.560110
2035.000000	11.616165
2034.000000	11.663028
2033.000000	11.708209
2032.000000	11.735788
2031.000000	11.766170
2030.000000	11.821441
2029.000000	11.845433
2028.000000	11.857765
2027.000000	11.885680
2026.000000	11.916063
2025.000000	11.930861
2024.000000	11.956871
2023.000000	11.970661
2022.000000	11.973800
2021.000000	11.978733
2020.000000	12.009675
2019.000000	12.014160
2018.000000	12.015505
2017.000000	12.027949
2016.000000	12.024586
2015.000000	12.017972
2014.000000	12.009451
2013.000000	11.993083
2012.000000	11.976378
2011.000000	11.976715
2010.000000	11.962364
2009.000000	11.931198
2008.000000	11.924247
2007.000000	11.904964
2006.000000	11.888820
2005.000000	11.855859
2004.000000	11.808548
2003.000000	11.790722
2002.000000	11.739039
2001.000000	11.686908
2000.000000	11.674015
1999.000000	11.639821
1998.000000	11.599461
1997.000000	11.542172
1996.000000	11.488135
1995.000000	11.441496
1994.000000	11.376248
1993.000000	11.346650
1992.000000	11.283644
1991.000000	11.247768
1990.000000	11.187341
1989.000000	11.123325
1988.000000	11.075229
1987.000000	11.006842
1986.000000	10.945068
1985.000000	10.896524
1984.000000	10.831948
1983.000000	10.772530
1982.000000	10.707954
1981.000000	10.661764
1980.000000	10.602233
1979.000000	10.542926
1978.000000	10.478126
1977.000000	10.399200
1976.000000	10.348189
1975.000000	10.323637
1974.000000	10.252895
1973.000000	10.207714
1972.000000	10.161076
1971.000000	10.108832
1970.000000	10.053673
1969.000000	9.997057
1968.000000	9.936517
1967.000000	9.887076
1966.000000	9.847389
1965.000000	9.788755
1964.000000	9.752094
1963.000000	9.682586
1962.000000	9.660163
1961.000000	9.619243
1960.000000	9.567784
1959.000000	9.532581
1958.000000	9.492557
1957.000000	9.445807
1956.000000	9.412286
1955.000000	9.379998
1954.000000	9.306341
1953.000000	9.285712
1952.000000	9.226742
1951.000000	9.195463
1950.000000	9.155776
1949.000000	9.133466
1948.000000	9.101178
1947.000000	9.060145
1946.000000	9.017767
1945.000000	9.002520
1944.000000	8.983685
1943.000000	8.979985
1942.000000	8.962496
1941.000000	8.941643
1940.000000	8.944895
1939.000000	8.908346
1938.000000	8.899153
1937.000000	8.886036
1936.000000	8.902741
1935.000000	8.910589
1934.000000	8.909804
1933.000000	8.917315
1932.000000	8.950500
1931.000000	8.963393
1930.000000	8.988506
1929.000000	9.020682
1928.000000	9.060033
1927.000000	9.085594
1926.000000	9.132457
1925.000000	9.161157
1924.000000	9.232460
1923.000000	9.313516
1922.000000	9.358809
1921.000000	9.417891
1920.000000	9.482579
1919.000000	9.577538
1918.000000	9.659379
1917.000000	9.762297
1916.000000	9.861291
1915.000000	9.951652
1914.000000	10.046722
1913.000000	10.165000
1912.000000	10.289891
1911.000000	10.430254
1910.000000	10.542926
1909.000000	10.677123
1908.000000	10.853025
1907.000000	10.989464
1906.000000	11.163573
1905.000000	11.345529
1904.000000	11.544863
1903.000000	11.705182
1902.000000	11.908663
1901.000000	12.125038
1900.000000	12.348251
1899.000000	12.596465
1898.000000	12.846472
1897.000000	13.131235
1896.000000	13.395144
1895.000000	13.668359
1894.000000	13.934174
1893.000000	14.242592
1892.000000	14.563117
1891.000000	14.938689
1890.000000	15.327379
1889.000000	15.694430
1888.000000	16.076281
1887.000000	16.516989
1886.000000	16.965994
1885.000000	17.448632
1884.000000	17.988671
1883.000000	18.530728
1882.000000	19.081642
1881.000000	19.670562
1880.000000	20.262060
1879.000000	20.805238
1878.000000	21.372184
1877.000000	21.930049
1876.000000	22.496434
1875.000000	22.992413
1874.000000	23.486823
1873.000000	23.981345
1872.000000	24.463535
1871.000000	24.902450
1870.000000	25.327463
1869.000000	25.726354
1868.000000	26.106298
1867.000000	26.451601
1866.000000	26.760242
1865.000000	27.002178
1864.000000	27.241759
1863.000000	27.436945
1862.000000	27.603766
1861.000000	27.801754
1860.000000	27.998061
1859.000000	28.156025
1858.000000	28.298406
1857.000000	28.408387
1856.000000	28.520498
1855.000000	28.597967
1854.000000	28.658956
1853.000000	28.731604
1852.000000	28.752008
1851.000000	28.777569
1850.000000	28.801449
1849.000000	28.815687
1848.000000	28.827122
1847.000000	28.830261
1846.000000	28.797973
1845.000000	28.745169
1844.000000	28.739676
1843.000000	28.717029
1842.000000	28.722410
1841.000000	28.744160
1840.000000	28.718262
1839.000000	28.688889
1838.000000	28.659180
1837.000000	28.606375
1836.000000	28.567249
1835.000000	28.534624
1834.000000	28.479690
1833.000000	28.415787
1832.000000	28.354126
1831.000000	28.301545
1830.000000	28.241005
1829.000000	28.173290
1828.000000	28.107818
1827.000000	28.013196
1826.000000	27.946041
1825.000000	27.889313
1824.000000	27.815992
1823.000000	27.772381
1822.000000	27.748053
1821.000000	27.723725
1820.000000	27.687962
1819.000000	27.636951
1818.000000	27.587846
1817.000000	27.556455
1816.000000	27.545356
1815.000000	27.547823
1814.000000	27.525064
1813.000000	27.505108
1812.000000	27.487283
1811.000000	27.453537
1810.000000	27.417998
1809.000000	27.364297
1808.000000	27.320125
1807.000000	27.290079
1806.000000	27.249944
1805.000000	27.184471
1804.000000	27.116307
1803.000000	27.066530
1802.000000	27.009353
1801.000000	26.946122
1800.000000	26.887040
1799.000000	26.819101
1798.000000	26.754300
1797.000000	26.711586
1796.000000	26.660688
1795.000000	26.591067
1794.000000	26.533105
1793.000000	26.481870
1792.000000	26.419088
1791.000000	26.366508
1790.000000	26.306865
1789.000000	26.235338
1788.000000	26.169753
1787.000000	26.104392
1786.000000	26.058651
1785.000000	25.989254
1784.000000	25.893848
1783.000000	25.822097
1782.000000	25.740592
1781.000000	25.659872
1780.000000	25.583300
1779.000000	25.490360
1778.000000	25.399438
1777.000000	25.313897
1776.000000	25.228357
1775.000000	25.120618
1774.000000	25.007610
1773.000000	24.899535
1772.000000	24.774643
1771.000000	24.664101
1770.000000	24.538313
1769.000000	24.404004
1768.000000	24.289538
1767.000000	24.173279
1766.000000	24.062513
1765.000000	23.966322
1764.000000	23.880669
1763.000000	23.824053
1762.000000	23.801070
1761.000000	23.820914
1760.000000	23.855556
1759.000000	23.896028
1758.000000	23.958923
1757.000000	24.037737
1756.000000	24.097044
1755.000000	24.143233
1754.000000	24.193571
1753.000000	24.235501
1752.000000	24.251757
1751.000000	24.265098
1750.000000	24.253887
1749.000000	24.222832
1748.000000	24.197607
1747.000000	24.140206
1746.000000	24.064868
1745.000000	23.971143
1744.000000	23.856117
1743.000000	23.727750
1742.000000	23.581445
1741.000000	23.394219
1740.000000	23.185805
1739.000000	22.986135
1738.000000	22.777496
1737.000000	22.548565
1736.000000	22.346765
1735.000000	22.202815
1734.000000	22.093282
1733.000000	22.011217
1732.000000	21.983638
1731.000000	22.019737
1730.000000	22.067160
1729.000000	22.146199
1728.000000	22.247996
1727.000000	22.357752
1726.000000	22.468630
1725.000000	22.555068
1724.000000	22.653838
1723.000000	22.727831
1722.000000	22.769536
1721.000000	22.831085
1720.000000	22.878284
1719.000000	22.922680
1718.000000	22.960798
1717.000000	23.047123
1716.000000	23.133785
1715.000000	23.211366
1714.000000	23.306100
1713.000000	23.423704
1712.000000	23.495007
1711.000000	23.559359
1710.000000	23.639406
1709.000000	23.668443
1708.000000	23.693107
1707.000000	23.670573
1706.000000	23.659362
1705.000000	23.638733
1704.000000	23.582902
1703.000000	23.505546
1702.000000	23.415408
1701.000000	23.304867
1700.000000	23.173809
1699.000000	23.023468
1698.000000	22.888710
1697.000000	22.708099
1696.000000	22.586907
1695.000000	22.491389
1694.000000	22.466164
1693.000000	22.519753
1692.000000	22.581526
1691.000000	22.729849
1690.000000	22.874472
1689.000000	23.050711
1688.000000	23.171455
1687.000000	23.304867
1686.000000	23.380766
1685.000000	23.433907
1684.000000	23.546242
1683.000000	23.686156
1682.000000	23.867328
1681.000000	24.186508
1680.000000	24.607485
1679.000000	25.114564
1678.000000	25.664469
1677.000000	26.216055
1676.000000	26.760354
1675.000000	27.255437
1674.000000	27.715541
1673.000000	28.129343
1672.000000	28.487089
1671.000000	28.795058
1670.000000	29.054259
1669.000000	29.294177
1668.000000	29.493623
1667.000000	29.718181
1666.000000	29.857535
1665.000000	30.017293
1664.000000	30.141400
1663.000000	30.247794
1662.000000	30.340173
1661.000000	30.459460
1660.000000	30.509461
1659.000000	30.586594
1658.000000	30.639510
1657.000000	30.668547
1656.000000	30.682000
1655.000000	30.733123
1654.000000	30.736598
1653.000000	30.712606
1652.000000	30.728862
1651.000000	30.718436
1650.000000	30.681103
1649.000000	30.658008
1648.000000	30.599262
1647.000000	30.544440
1646.000000	30.481209
1645.000000	30.428517
1644.000000	30.385242
1643.000000	30.335913
1642.000000	30.261583
1641.000000	30.185236
1640.000000	30.128508
1639.000000	30.063595
1638.000000	29.988032
1637.000000	29.920317
1636.000000	29.847333
1635.000000	29.777376
1634.000000	29.692844
1633.000000	29.595307
1632.000000	29.502816
1631.000000	29.423889
1630.000000	29.339021
1629.000000	29.238682
1628.000000	29.123095
1627.000000	29.029258
1626.000000	28.952799
1625.000000	28.851002
1624.000000	28.765910
1623.000000	28.656938
1622.000000	28.545611
1621.000000	28.452671
1620.000000	28.365112
1619.000000	28.263428
1618.000000	28.184501
1617.000000	28.097615
1616.000000	28.027210
1615.000000	27.927655
1614.000000	27.841890
1613.000000	27.747380
1612.000000	27.665539
1611.000000	27.579102
1610.000000	27.514862
1609.000000	27.414298
1608.000000	27.326403
1607.000000	27.230997
1606.000000	27.155434
1605.000000	27.048928
1604.000000	26.960473
1603.000000	26.871457
1602.000000	26.790400
1601.000000	26.703738
1600.000000	26.609453
1599.000000	26.525818
1598.000000	26.427160
1597.000000	26.329848
1596.000000	26.249352
1595.000000	26.173117
1594.000000	26.092621
1593.000000	26.001811
1592.000000	25.923894
1591.000000	25.847994
1590.000000	25.776580
1589.000000	25.697653
1588.000000	25.638347
1587.000000	25.567380
1586.000000	25.499329
1585.000000	25.455494
1584.000000	25.396972
1583.000000	25.328247
1582.000000	25.274098
1581.000000	25.195396
1580.000000	25.153242
1579.000000	25.101223
1578.000000	25.055930
1577.000000	25.013552
1576.000000	24.996062
1575.000000	24.963886
1574.000000	24.928011
1573.000000	24.917136
1572.000000	24.896732
1571.000000	24.878682
1570.000000	24.859175
1569.000000	24.861865
1568.000000	24.859063
1567.000000	24.851215
1566.000000	24.840901
1565.000000	24.835856
1564.000000	24.819600
1563.000000	24.818927
1562.000000	24.817245
1561.000000	24.805586
1560.000000	24.793478
1559.000000	24.778791
1558.000000	24.775428
1557.000000	24.754015
1556.000000	24.711188
1555.000000	24.687981
1554.000000	24.658720
1553.000000	24.619818
1552.000000	24.584054
1551.000000	24.541676
1550.000000	24.489769
1549.000000	24.443691
1548.000000	24.406358
1547.000000	24.350190
1546.000000	24.304673
1545.000000	24.263865
1544.000000	24.211733
1543.000000	24.177651
1542.000000	24.141103
1541.000000	24.107806
1540.000000	24.073164
1539.000000	24.052984
1538.000000	24.027871
1537.000000	23.990202
1536.000000	23.958026
1535.000000	23.931568
1534.000000	23.889526
1533.000000	23.848269
1532.000000	23.801743
1531.000000	23.753872
1530.000000	23.699386
1529.000000	23.651738
1528.000000	23.605100
1527.000000	23.554650
1526.000000	23.509694
1525.000000	23.457450
1524.000000	23.400722
1523.000000	23.322692
1522.000000	23.255538
1521.000000	23.200828
1520.000000	23.152059
1519.000000	23.097573
1518.000000	23.043760
1517.000000	22.979969
1516.000000	22.896894
1515.000000	22.819986
1514.000000	22.757204
1513.000000	22.690834
1512.000000	22.631303
1511.000000	22.564373
1510.000000	22.479841
1509.000000	22.419638
1508.000000	22.360667
1507.000000	22.276920
1506.000000	22.197658
1505.000000	22.132857
1504.000000	22.057855
1503.000000	21.990140
1502.000000	21.928255
1501.000000	21.856840
1500.000000	21.786995
1499.000000	21.720849
1498.000000	21.662664
1497.000000	21.600442
1496.000000	21.542481
1495.000000	21.499654
1494.000000	21.437432
1493.000000	21.389673
1492.000000	21.359179
1491.000000	21.333842
1490.000000	21.278347
1489.000000	21.223076
1488.000000	21.189891
1487.000000	21.147737
1486.000000	21.108723
1485.000000	21.062757
1484.000000	21.038205
1483.000000	21.017016
1482.000000	20.983270
1481.000000	20.949077
1480.000000	20.934726
1479.000000	20.922955
1478.000000	20.889546
1477.000000	20.884052
1476.000000	20.875083
1475.000000	20.840329
1474.000000	20.823288
1473.000000	20.826988
1472.000000	20.844477
1471.000000	20.847504
1470.000000	20.837190
1469.000000	20.813422
1468.000000	20.813871
1467.000000	20.829790
1466.000000	20.846271
1465.000000	20.854231
1464.000000	20.867123
1463.000000	20.901093
1462.000000	20.910398
1461.000000	20.945937
1460.000000	20.973965
1459.000000	21.028115
1458.000000	21.080807
1457.000000	21.131145
1456.000000	21.200878
1455.000000	21.256149
1454.000000	21.317922
1453.000000	21.393149
1452.000000	21.472075
1451.000000	21.554813
1450.000000	21.639681
1449.000000	21.712553
1448.000000	21.809081
1447.000000	21.886325
1446.000000	22.002024
1445.000000	22.102587
1444.000000	22.183756
1443.000000	22.286450
1442.000000	22.383538
1441.000000	22.505739
1440.000000	22.596100
1439.000000	22.739378
1438.000000	22.853283
1437.000000	22.992077
1436.000000	23.101497
1435.000000	23.208339
1434.000000	23.350608
1433.000000	23.511824
1432.000000	23.663510
1431.000000	23.813963
1430.000000	23.974058
1429.000000	24.135161
1428.000000	24.312409
1427.000000	24.506810
1426.000000	24.692353
1425.000000	24.908504
1424.000000	25.144497
1423.000000	25.397420
1422.000000	25.626911
1421.000000	25.870753
1420.000000	26.132308
1419.000000	26.410904
1418.000000	26.703963
1417.000000	27.004420
1416.000000	27.285931
1415.000000	27.615426
1414.000000	27.960279
1413.000000	28.299303
1412.000000	28.627004
1411.000000	28.959189
1410.000000	29.370637
1409.000000	29.828723
1408.000000	30.268198
1407.000000	30.730208
1406.000000	31.214976
1405.000000	31.693354
1404.000000	32.203908
1403.000000	32.700784
1402.000000	33.219971
1401.000000	33.692407
1400.000000	34.287941
1399.000000	34.827980
1398.000000	35.257814
1397.000000	35.620493
1396.000000	36.065910
1395.000000	36.609649
1394.000000	37.071771
1393.000000	37.466963
1392.000000	37.849486
1391.000000	38.311271
1390.000000	38.785501
1389.000000	39.223407
1388.000000	39.757616
1387.000000	40.362680
1386.000000	40.967855
1385.000000	41.569107
1384.000000	42.190090
1383.000000	42.884282
1382.000000	43.571299
1381.000000	44.170084
1380.000000	44.682208
1379.000000	45.079641
1378.000000	45.401064
1377.000000	45.643000
1376.000000	45.919802
1375.000000	46.190662
1374.000000	46.446163
1373.000000	46.736979
1372.000000	47.117148
1371.000000	47.484648
1370.000000	47.879503
1369.000000	48.245210
1368.000000	48.592530
1367.000000	48.938168
1366.000000	49.221025
1365.000000	49.475180
1364.000000	49.712968
1363.000000	49.951765
1362.000000	50.170718
1361.000000	50.395388
1360.000000	50.572748
1359.000000	50.689456
1358.000000	50.753247
1357.000000	50.890695
1356.000000	51.059086
1355.000000	51.339251
1354.000000	51.687581
1353.000000	52.072009
1352.000000	52.456102
1351.000000	52.974167
1350.000000	53.493578
1349.000000	53.950879
1348.000000	54.356273
1347.000000	54.792945
1346.000000	55.193406
1345.000000	55.549919
1344.000000	55.951950
1343.000000	56.263282
1342.000000	56.626634
1341.000000	56.957586
1340.000000	57.297058
1339.000000	57.624087
1338.000000	57.934074
1337.000000	58.243500
1336.000000	58.549227
1335.000000	58.853833
1334.000000	59.127608
1333.000000	59.416518
1332.000000	59.697581
1331.000000	59.959472
1330.000000	60.226969
1329.000000	60.461618
1328.000000	60.707478
1327.000000	60.950534
1326.000000	61.166909
1325.000000	61.360973
1324.000000	61.571518
1323.000000	61.770403
1322.000000	61.953032
1321.000000	62.132185
1320.000000	62.324792
1319.000000	62.477487
1318.000000	62.635788
1317.000000	62.793080
1316.000000	62.938712
1315.000000	63.101161
1314.000000	63.228295
1313.000000	63.356775
1312.000000	63.475949
1311.000000	63.601849
1310.000000	63.708019
1309.000000	63.825399
1308.000000	63.923048
1307.000000	64.003768
1306.000000	64.095026
1305.000000	64.162405
1304.000000	64.217900
1303.000000	64.281467
1302.000000	64.339092
1301.000000	64.380909
1300.000000	64.408713
1299.000000	64.450194
1298.000000	64.490442
1297.000000	64.507146
1296.000000	64.515891
1295.000000	64.542461
1294.000000	64.555354
1293.000000	64.561296
1292.000000	64.554233
1291.000000	64.566341
1290.000000	64.549861
1289.000000	64.532483
1288.000000	64.510510
1287.000000	64.488760
1286.000000	64.447055
1285.000000	64.405798
1284.000000	64.360729
1283.000000	64.307140
1282.000000	64.260053
1281.000000	64.208034
1280.000000	64.154445
1279.000000	64.095923
1278.000000	64.063186
1277.000000	63.994574
1276.000000	63.941322
1275.000000	63.894123
1274.000000	63.854884
1273.000000	63.818336
1272.000000	63.777079
1271.000000	63.735374
1270.000000	63.704095
1269.000000	63.677636
1268.000000	63.649048
1267.000000	63.618330
1266.000000	63.581333
1265.000000	63.538507
1264.000000	63.489514
1263.000000	63.440409
1262.000000	63.402292
1261.000000	63.357223
1260.000000	63.294889
1259.000000	63.232107
1258.000000	63.192083
1257.000000	63.151163
1256.000000	63.097686
1255.000000	63.016854
1254.000000	62.955865
1253.000000	62.901155
1252.000000	62.802609
1251.000000	62.710118
1250.000000	62.640273
1249.000000	62.529171
1248.000000	62.427149
1247.000000	62.337909
1246.000000	62.213466
1245.000000	62.088350
1244.000000	61.977472
1243.000000	61.851683
1242.000000	61.710423
1241.000000	61.580374
1240.000000	61.455371
1239.000000	61.310859
1238.000000	61.164442
1237.000000	61.032712
1236.000000	60.904569
1235.000000	60.754676
1234.000000	60.595030
1233.000000	60.442783
1232.000000	60.283025
1231.000000	60.118334
1230.000000	59.958463
1229.000000	59.783682
1228.000000	59.602174
1227.000000	59.417640
1226.000000	59.236244
1225.000000	59.053615
1224.000000	58.877264
1223.000000	58.679724
1222.000000	58.471646
1221.000000	58.273546
1220.000000	58.089123
1219.000000	57.910418
1218.000000	57.736085
1217.000000	57.556147
1216.000000	57.363652
1215.000000	57.196046
1214.000000	57.032364
1213.000000	56.847942
1212.000000	56.692219
1211.000000	56.544569
1210.000000	56.387389
1209.000000	56.239739
1208.000000	56.099936
1207.000000	55.960134
1206.000000	55.827170
1205.000000	55.698354
1204.000000	55.592297
1203.000000	55.508214
1202.000000	55.439938
1201.000000	55.384331
1200.000000	55.292176
1199.000000	55.208093
1198.000000	55.117619
1197.000000	54.996763
1196.000000	54.856961
1195.000000	54.655946
1194.000000	54.422194
1193.000000	54.145280
1192.000000	53.817467
1191.000000	53.432029
1190.000000	53.011949
1189.000000	52.603304
1188.000000	52.227171
1187.000000	51.927835
1186.000000	51.739936
1185.000000	51.652266
1184.000000	51.676257
1183.000000	51.827159
1182.000000	52.089162
1181.000000	52.467986
1180.000000	52.885375
1179.000000	53.357139
1178.000000	53.815673
1177.000000	54.238332
1176.000000	54.612783
1175.000000	54.951246
1174.000000	55.238923
1173.000000	55.526152
1172.000000	55.810353
1171.000000	56.102403
1170.000000	56.404654
1169.000000	56.705336
1168.000000	57.032476
1167.000000	57.340333
1166.000000	57.649760
1165.000000	57.986654
1164.000000	58.321530
1163.000000	58.675240
1162.000000	59.030968
1161.000000	59.363714
1160.000000	59.698814
1159.000000	60.038847
1158.000000	60.386055
1157.000000	60.698172
1156.000000	60.987755
1155.000000	61.261867
1154.000000	61.501112
1153.000000	61.690580
1152.000000	61.861773
1151.000000	61.969736
1150.000000	62.066600
1149.000000	62.164810
1148.000000	62.238354
1147.000000	62.327146
1146.000000	62.450469
1145.000000	62.606751
1144.000000	62.801600
1143.000000	63.032773
1142.000000	63.319329
1141.000000	63.627747
1140.000000	63.955223
1139.000000	64.290323
1138.000000	64.631590
1137.000000	65.010077
1136.000000	65.389012
1135.000000	65.809989
1134.000000	66.217513
1133.000000	66.604857
1132.000000	66.897467
1131.000000	67.215189
1130.000000	67.489637
1129.000000	67.749175
1128.000000	67.963082
1127.000000	68.145824
1126.000000	68.277666
1125.000000	68.388768
1124.000000	68.481260
1123.000000	68.548302
1122.000000	68.607385
1121.000000	68.631825
1120.000000	68.661647
1119.000000	68.672073
1118.000000	68.666580
1117.000000	68.678015
1116.000000	68.671737
1115.000000	68.660974
1114.000000	68.632610
1113.000000	68.599537
1112.000000	68.566464
1111.000000	68.545051
1110.000000	68.496843
1109.000000	68.487987
1108.000000	68.435406
1107.000000	68.411303
1106.000000	68.367467
1105.000000	68.341121
1104.000000	68.298855
1103.000000	68.258607
1102.000000	68.243024
1101.000000	68.185623
1100.000000	68.142460
1099.000000	68.114096
1098.000000	68.072167
1097.000000	68.021941
1096.000000	67.944248
1095.000000	67.908597
1094.000000	67.861174
1093.000000	67.811620
1092.000000	67.750968
1091.000000	67.670697
1090.000000	67.596367
1089.000000	67.551186
1088.000000	67.485265
1087.000000	67.394679
1086.000000	67.329094
1085.000000	67.233015
1084.000000	67.175390
1083.000000	67.094446
1082.000000	67.006999
1081.000000	66.933679
1080.000000	66.838945
1079.000000	66.764615
1078.000000	66.680868
1077.000000	66.605642
1076.000000	66.529742
1075.000000	66.426488
1074.000000	66.346216
1073.000000	66.246101
1072.000000	66.193745
1071.000000	66.087016
1070.000000	65.991609
1069.000000	65.894969
1068.000000	65.824788
1067.000000	65.725121
1066.000000	65.643616
1065.000000	65.556394
1064.000000	65.459194
1063.000000	65.373317
1062.000000	65.269838
1061.000000	65.175440
1060.000000	65.067253
1059.000000	64.975995
1058.000000	64.852673
1057.000000	64.762423
1056.000000	64.660739
1055.000000	64.575870
1054.000000	64.469253
1053.000000	64.355012
1052.000000	64.239425
1051.000000	64.151530
1050.000000	64.050742
1049.000000	63.948160
1048.000000	63.841767
1047.000000	63.762617
1046.000000	63.671470
1045.000000	63.575615
1044.000000	63.472137
1043.000000	63.383681
1042.000000	63.284127
1041.000000	63.191074
1040.000000	63.089950
1039.000000	62.994095
1038.000000	62.896222
1037.000000	62.811915
1036.000000	62.722002
1035.000000	62.623792
1034.000000	62.510224
1033.000000	62.395646
1032.000000	62.285217
1031.000000	62.195752
1030.000000	62.064470
1029.000000	61.990589
1028.000000	61.872087
1027.000000	61.744954
1026.000000	61.629703
1025.000000	61.524095
1024.000000	61.406266
1023.000000	61.252450
1022.000000	61.151550
1021.000000	61.029685
1020.000000	60.905354
1019.000000	60.809050
1018.000000	60.686513
1017.000000	60.547944
1016.000000	60.445474
1015.000000	60.352534
1014.000000	60.234593
1013.000000	60.151519
1012.000000	60.060933
1011.000000	59.997030
1010.000000	59.909807
1009.000000	59.802741
1008.000000	59.761484
1007.000000	59.697020
1006.000000	59.605201
1005.000000	59.550491
1004.000000	59.497126
1003.000000	59.417079
1002.000000	59.348019
1001.000000	59.275483
1000.000000	59.207543
999.000000	59.139044
998.000000	59.089939
997.000000	59.011237
996.000000	58.920651
995.000000	58.873901
994.000000	58.815043
993.000000	58.747888
992.000000	58.674231
991.000000	58.627481
990.000000	58.566829
989.000000	58.504831
988.000000	58.429605
987.000000	58.386442
986.000000	58.332180
985.000000	58.274331
984.000000	58.226796
983.000000	58.187220
982.000000	58.133631
981.000000	58.078921
980.000000	58.020623
979.000000	57.979142
978.000000	57.926674
977.000000	57.874318
976.000000	57.838667
975.000000	57.790347
974.000000	57.745839
973.000000	57.703685
972.000000	57.658953
971.000000	57.615342
970.000000	57.542133
969.000000	57.511303
968.000000	57.480136
967.000000	57.424753
966.000000	57.368922
965.000000	57.356814
964.000000	57.327328
963.000000	57.270712
962.000000	57.245375
961.000000	57.218132
960.000000	57.188311
959.000000	57.163758
958.000000	57.122053
957.000000	57.087299
956.000000	57.056804
955.000000	57.023732
954.000000	57.010951
953.000000	56.972273
952.000000	56.920814
951.000000	56.900970
950.000000	56.863637
949.000000	56.824286
948.000000	56.801528
947.000000	56.758253
946.000000	56.690425
945.000000	56.638182
944.000000	56.619011
943.000000	56.583359
942.000000	56.514859
941.000000	56.483468
940.000000	56.445687
939.000000	56.359586
938.000000	56.282453
937.000000	56.251398
936.000000	56.210702
935.000000	56.132112
934.000000	56.064621
933.000000	56.018880
932.000000	55.952959
931.000000	55.913832
930.000000	55.859122
929.000000	55.779411
928.000000	55.734230
927.000000	55.673466
926.000000	55.588934
925.000000	55.506757
924.000000	55.440835
923.000000	55.399354
922.000000	55.316168
921.000000	55.235336
920.000000	55.165603
919.000000	55.083089
918.000000	55.009208
917.000000	54.928039
916.000000	54.834314
915.000000	54.746083
914.000000	54.665699
913.000000	54.584307
912.000000	54.497084
911.000000	54.422194
910.000000	54.352013
909.000000	54.273535
908.000000	54.193039
907.000000	54.133956
906.000000	54.070502
905.000000	54.011531
904.000000	53.964332
903.000000	53.924757
902.000000	53.877783
901.000000	53.807377
900.000000	53.752779
899.000000	53.703786
898.000000	53.666229
897.000000	53.628448
896.000000	53.584276
895.000000	53.517346
894.000000	53.462411
893.000000	53.412297
892.000000	53.337856
891.000000	53.245476
890.000000	53.166886
889.000000	53.106683
888.000000	53.006792
887.000000	52.920130
886.000000	52.835598
885.000000	52.734025
884.000000	52.614851
883.000000	52.493883
882.000000	52.387826
881.000000	52.238607
880.000000	52.133334
879.000000	52.000034
878.000000	51.869201
877.000000	51.709106
876.000000	51.503606
875.000000	51.288353
874.000000	51.136106
873.000000	50.923992
872.000000	50.681384
871.000000	50.484517
870.000000	50.413550
869.000000	50.388998
868.000000	50.402788
867.000000	50.434851
866.000000	50.433730
865.000000	50.435748
864.000000	50.436421
863.000000	50.438887
862.000000	50.465906
861.000000	50.472296
860.000000	50.480817
859.000000	50.494382
858.000000	50.500100
857.000000	49.472200
856.000000	50.829400
855.000000	51.198700
854.000000	50.714100
853.000000	50.755600
852.000000	51.028900
851.000000	50.901000
850.000000	51.017700
849.000000	51.085400
848.000000	51.143800
847.000000	50.993000
846.000000	51.070300
845.000000	50.868800
844.000000	50.751900
843.000000	50.855300
842.000000	50.900800
841.000000	51.222100
840.000000	51.024400
839.000000	51.046300
838.000000	50.757300
837.000000	50.841100
836.000000	50.742700
835.000000	50.752800
834.000000	50.906700
833.000000	50.637800
832.000000	50.720000
831.000000	50.736500
830.000000	50.622900
829.000000	50.719600
828.000000	50.774500
827.000000	50.688800
826.000000	50.684400
825.000000	50.635000
824.000000	50.641500
823.000000	50.531000
822.000000	50.597300
821.000000	50.454900
820.000000	50.413000
819.000000	50.335400
818.000000	50.433700
817.000000	50.143700
816.000000	50.343400
815.000000	50.220900
814.000000	50.192500
813.000000	50.067600
812.000000	50.174100
811.000000	50.178400
810.000000	50.076800
809.000000	49.983900
808.000000	49.913400
807.000000	49.931600
806.000000	49.868000
805.000000	49.793500
804.000000	49.582200
803.000000	49.605800
802.000000	49.504200
801.000000	49.415200
800.000000	49.493900
799.000000	49.270600
798.000000	49.248700
797.000000	49.276200
796.000000	49.177900
795.000000	49.068800
794.000000	49.102700
793.000000	48.956500
792.000000	48.814400
791.000000	48.853100
790.000000	48.727700
789.000000	48.515300
788.000000	48.563500
787.000000	48.434700
786.000000	48.363900
785.000000	48.344900
784.000000	48.208900
783.000000	48.080100
782.000000	48.016400
781.000000	47.935900
780.000000	47.939400
779.000000	47.672100
778.000000	47.529000
777.000000	47.522400
776.000000	47.337600
775.000000	47.250900
774.000000	47.141900
773.000000	47.022400
772.000000	46.823900
771.000000	46.744700
770.000000	46.745300
769.000000	46.545700
768.000000	46.267100
767.000000	46.272100
766.000000	46.175700
765.000000	45.973000
764.000000	45.818600
763.000000	45.691300
762.000000	45.575600
761.000000	45.501800
760.000000	45.241600
759.000000	45.095400
758.000000	44.890600
757.000000	44.799100
756.000000	44.590300
755.000000	44.451000
754.000000	44.323300
753.000000	44.136600
752.000000	44.052400
751.000000	43.707600
750.000000	43.586100
749.000000	43.462900
748.000000	43.261300
747.000000	43.031400
746.000000	42.896100
745.000000	42.696600
744.000000	42.498600
743.000000	42.289900
742.000000	42.112900
741.000000	41.925400
740.000000	41.713400
739.000000	41.550300
738.000000	41.353000
737.000000	41.117300
736.000000	40.901800
735.000000	40.734700
734.000000	40.496300
733.000000	40.274600
732.000000	40.119400
731.000000	39.899500
730.000000	39.665100
729.000000	39.403700
728.000000	39.200800
727.000000	38.929900
726.000000	38.768400
725.000000	38.485600
724.000000	38.252000
723.000000	38.041200
722.000000	37.831000
721.000000	37.565200
720.000000	37.314700
719.000000	37.072900
718.000000	36.841700
717.000000	36.617900
716.000000	36.373600
715.000000	36.076500
714.000000	35.799700
713.000000	35.600600
712.000000	35.309900
711.000000	35.080300
710.000000	34.838000
709.000000	34.603700
708.000000	34.317400
707.000000	34.067700
706.000000	33.787300
705.000000	33.519300
704.000000	33.256000
703.000000	33.004800
702.000000	32.716100
701.000000	32.388000
700.000000	32.136600
699.000000	31.887500
698.000000	31.652600
697.000000	31.388900
696.000000	31.136400
695.000000	30.906800
694.000000	30.632400
693.000000	30.339500
692.000000	30.099500
691.000000	29.867300
690.000000	29.644500
689.000000	29.396700
688.000000	29.134400
687.000000	28.888000
686.000000	28.672400
685.000000	28.431200
684.000000	28.191600
683.000000	28.016200
682.000000	27.791500
681.000000	27.559600
680.000000	27.341900
679.000000	27.127800
678.000000	26.933000
677.000000	26.750500
676.000000	26.563700
675.000000	26.373200
674.000000	26.166800
673.000000	25.965900
672.000000	25.757500
671.000000	25.549700
670.000000	25.382900
669.000000	25.199300
668.000000	24.997300
667.000000	24.791800
666.000000	24.617400
665.000000	24.462100
664.000000	24.298600
663.000000	24.129100
662.000000	23.977400
661.000000	23.837800
660.000000	23.692700
659.000000	23.583500
658.000000	23.452300
657.000000	23.319900
656.000000	23.239600
655.000000	23.184500
654.000000	23.096600
653.000000	23.009200
652.000000	22.973700
651.000000	22.942700
650.000000	22.909500
649.000000	22.880900
648.000000	22.863700
647.000000	22.843600
646.000000	22.806200
645.000000	22.806900
644.000000	22.825600
643.000000	22.818600
642.000000	22.827800
641.000000	22.838300
640.000000	22.808900
639.000000	22.808800
638.000000	22.830000
637.000000	22.823000
636.000000	22.820100
635.000000	22.836500
634.000000	22.845100
633.000000	22.832800
632.000000	22.847200
631.000000	22.862600
630.000000	22.873100
629.000000	22.894200
628.000000	22.933100
627.000000	22.981600
626.000000	23.030500
625.000000	23.078100
624.000000	23.148000
623.000000	23.227100
622.000000	23.319900
621.000000	23.398400
620.000000	23.485200
619.000000	23.590900
618.000000	23.702400
617.000000	23.802600
616.000000	23.938200
615.000000	24.065900
614.000000	24.171700
613.000000	24.290200
612.000000	24.423000
611.000000	24.535900
610.000000	24.649100
609.000000	24.775800
608.000000	24.889300
607.000000	24.968900
606.000000	25.046800
605.000000	25.119300
604.000000	25.193300
603.000000	25.265200
602.000000	25.337800
601.000000	25.403000
600.000000	25.454700
599.000000	25.514400
598.000000	25.575700
597.000000	25.651500
596.000000	25.724900
595.000000	25.750400
594.000000	25.811400
593.000000	25.905800
592.000000	25.976300
591.000000	26.044200
590.000000	26.124800
589.000000	26.202900
588.000000	26.267200
587.000000	26.328900
586.000000	26.410400
585.000000	26.498700
584.000000	26.580100
583.000000	26.643900
582.000000	26.727100
581.000000	26.784200
580.000000	26.844000
579.000000	26.893900
578.000000	26.962400
577.000000	27.020300
576.000000	27.074500
575.000000	27.133000
574.000000	27.178600
573.000000	27.223400
572.000000	27.268600
571.000000	27.290700
570.000000	27.320300
569.000000	27.345900
568.000000	27.359900
567.000000	27.368800
566.000000	27.389000
565.000000	27.398800
564.000000	27.407100
563.000000	27.397500
562.000000	27.385200
561.000000	27.390300
560.000000	27.367400
559.000000	27.391500
558.000000	27.379600
557.000000	27.359500
556.000000	27.329100
555.000000	27.299500
554.000000	27.258800
553.000000	27.223300
552.000000	27.168100
551.000000	27.099500
550.000000	27.032400
549.000000	26.957900
548.000000	26.859400
547.000000	26.770200
546.000000	26.679600
545.000000	26.574600
544.000000	26.467700
543.000000	26.330600
542.000000	26.193800
541.000000	26.055500
540.000000	25.904300
539.000000	25.741400
538.000000	25.557700
537.000000	25.389200
536.000000	25.206200
535.000000	25.012400
534.000000	24.799700
533.000000	24.583700
532.000000	24.365800
531.000000	24.120800
530.000000	23.876100
529.000000	23.624600
528.000000	23.376300
527.000000	23.111800
526.000000	22.855600
525.000000	22.538500
524.000000	22.246400
523.000000	21.931700
522.000000	21.633500
521.000000	21.305400
520.000000	20.971600
519.000000	20.668200
518.000000	20.340200
517.000000	20.000300
516.000000	19.657400
515.000000	19.292200
514.000000	18.958400
513.000000	18.606600
512.000000	18.294500
511.000000	17.943100
510.000000	17.616800
509.000000	17.296600
508.000000	16.970000
507.000000	16.641900
506.000000	16.309400
505.000000	16.018200
504.000000	15.704200
503.000000	15.402600
502.000000	15.112500
501.000000	14.820700
500.000000	14.542700
499.000000	14.263900
498.000000	13.993400
497.000000	13.740900
496.000000	13.500500
495.000000	13.259900
494.000000	13.038700
493.000000	12.811200
492.000000	12.593300
491.000000	12.374500
490.000000	12.175000
489.000000	12.009300
488.000000	11.811300
487.000000	11.620100
486.000000	11.452700
485.000000	11.287600
484.000000	11.141400
483.000000	10.977200
482.000000	10.833500
481.000000	10.669700
480.000000	10.536400
479.000000	10.385800
478.000000	10.255600
477.000000	10.121900
476.000000	10.014500
475.000000	9.901100
474.000000	9.798000
473.000000	9.687100
472.000000	9.578100
471.000000	9.470700
470.000000	9.388700
469.000000	9.304900
468.000000	9.216600
467.000000	9.141000
466.000000	9.052800
465.000000	8.984400
464.000000	8.908200
463.000000	8.858600
462.000000	8.786400
461.000000	8.721000
460.000000	8.664100
459.000000	8.600300
458.000000	8.536700
457.000000	8.487200
456.000000	8.432700
455.000000	8.372800
454.000000	8.321700
453.000000	8.276000
452.000000	8.214900
451.000000	8.125400
450.000000	8.076400
449.000000	8.038900
448.000000	7.980600
447.000000	7.925600
446.000000	7.865600
445.000000	7.807000
444.000000	7.763100
443.000000	7.698100
442.000000	7.619100
441.000000	7.559600
440.000000	7.492300
439.000000	7.434200
438.000000	7.363900
437.000000	7.314700
436.000000	7.234100
435.000000	7.175600
434.000000	7.142500
433.000000	7.080500
432.000000	6.996100
431.000000	6.932900
430.000000	6.879600
429.000000	6.834400
428.000000	6.779000
427.000000	6.734100
426.000000	6.666600
425.000000	6.610600
424.000000	6.572500
423.000000	6.491000
422.000000	6.444800
421.000000	6.412300
420.000000	6.355300
419.000000	6.316200
418.000000	6.264100
417.000000	6.231900
416.000000	6.181600
415.000000	6.126800
414.000000	6.068100
413.000000	6.026000
412.000000	5.973400
411.000000	5.938400
410.000000	5.874400
409.000000	5.834200
408.000000	5.778900
407.000000	5.749000
406.000000	5.687300
405.000000	5.645400
404.000000	5.597300
403.000000	5.564000
402.000000	5.521900
401.000000	5.472000
400.000000	5.413300
399.000000	5.366900
398.000000	5.324600
397.000000	5.281400
396.000000	5.240200
395.000000	5.207500
394.000000	5.168800
393.000000	5.120500
392.000000	5.078900
391.000000	5.055200
390.000000	5.025600
389.000000	4.982400
388.000000	4.930300
387.000000	4.915300
386.000000	4.874600
385.000000	4.838300
384.000000	4.805500
383.000000	4.787600
382.000000	4.779200
381.000000	4.758300
380.000000	4.713800
379.000000	4.681300
378.000000	4.654500
377.000000	4.628400
376.000000	4.617900
375.000000	4.582500
374.000000	4.497700
373.000000	4.475400
372.000000	4.467300
371.000000	4.415200
370.000000	4.446000
369.000000	4.465400
368.000000	4.424300
367.000000	4.427800
366.000000	4.410600
365.000000	4.401900
364.000000	4.392200
363.000000	4.332200
362.000000	4.288500
361.000000	4.343300
360.000000	4.365100
359.000000	4.357100
358.000000	4.342000
357.000000	4.343800
356.000000	4.410800
355.000000	4.371800
354.000000	4.301100
353.000000	4.334300
352.000000	4.291700
351.000000	4.311800
350.000000	4.377600
349.000000	4.314800
348.000000	4.316000
347.000000	4.342500
346.000000	4.278300
345.000000	4.280600
344.000000	4.322800
343.000000	4.284200
342.000000	4.280600
341.000000	4.289200
340.000000	4.269100
339.000000	4.288500
338.000000	4.300200
337.000000	4.298400
336.000000	4.264000
335.000000	4.294400
334.000000	4.307600
333.000000	4.294700
332.000000	4.368200
331.000000	4.389900
330.000000	4.295400
329.000000	4.271700
328.000000	4.233900
327.000000	4.228600
326.000000	4.291400
325.000000	4.304600
324.000000	4.277400
323.000000	4.276000
322.000000	4.322000
321.000000	4.353200
320.000000	4.310700
319.000000	4.269900
318.000000	4.426400
317.000000	4.363600
316.000000	4.273800
315.000000	4.297300
314.000000	4.290900
313.000000	4.310600
312.000000	4.336800
311.000000	4.325700
310.000000	4.316200
309.000000	4.294300
308.000000	4.298100
307.000000	4.318000
306.000000	4.298600
305.000000	4.324600
304.000000	4.336600
303.000000	4.296300
302.000000	4.303200
301.000000	4.321100
300.000000	4.310900
299.000000	4.302200
298.000000	4.301300
297.000000	4.294200
296.000000	4.308800
295.000000	4.317400
294.000000	4.337300
293.000000	4.329800
292.000000	4.336800
291.000000	4.312800
290.000000	4.323000
289.000000	4.355500
288.000000	4.345000
287.000000	4.359600
286.000000	4.354400
285.000000	4.349000
284.000000	4.361300
283.000000	4.345600
282.000000	4.357000
281.000000	4.373100
280.000000	4.390300
279.000000	4.406500
278.000000	4.389000
277.000000	4.391500
276.000000	4.424100
275.000000	4.452300
274.000000	4.475300
273.000000	4.430500
272.000000	4.446800
271.000000	4.479400
270.000000	4.497500
269.000000	4.519800
268.000000	4.558000
267.000000	4.569400
266.000000	4.594700
265.000000	4.605900
264.000000	4.615800
263.000000	4.612900
262.000000	4.667400
261.000000	4.673600
260.000000	4.685400
259.000000	4.736700
258.000000	4.746400
257.000000	4.745900
256.000000	4.771000
255.000000	4.766700
254.000000	4.787500
253.000000	4.801300
252.000000	4.838600
251.000000	4.832300
250.000000	4.841700
