PE UV       SUBTECH     SPECTRUM    ASCII       PEDS        4.00        
   -1
CICIMAUCR0240-3.ASC
24/06/20
16:02:23.00
24/06/20
16:02:23.00
Vinicio Soto Monge
C. resplendens. Sex M. Ventral
250,000000
1
Lambda 1050
1050L1511233
PerkinElmer UV WinLab 6.3.2.0749 / 2.02.05 Lambda 900 UV/VIS/NIR, Aug  7 2015 09:38:08

0
0
3350/servo 860,8/2
0
0
UV/VIS
1
1
1
DoubleDePol,CommonBeamDepol,RBeamAtt,SBeamAtt,60mm sphere, WB InGaAs Detector
0
0
0
0
Program
Program
3350/servo 860,8/2
3350/0,2 860,8/0,2
3350/0,2 860,8/0,2
0
15.00
 
 
 
0
 
860,8
319,2
860,8
Front
100
on
S:100 R:100
0
0
0
0
 
0
 
 
 
0
 
 
0
0
0
0
0
 
 
 
 
0
0


0
0
#HDR
-1
-1
#GR
nm
%R
1.0
0.0
2500,000000
-1,000000
2251
8
61,160800
4,474200
#DATA
2482.000000	6.463678
2481.000000	6.502287
2480.000000	6.465804
2479.000000	6.482703
2478.000000	6.454165
2477.000000	6.362062
2476.000000	6.463901
2475.000000	6.417122
2474.000000	6.386123
2473.000000	6.417346
2472.000000	6.385899
2471.000000	6.395635
2470.000000	6.421375
2469.000000	6.440848
2468.000000	6.408281
2467.000000	6.388137
2466.000000	6.440624
2465.000000	6.406715
2464.000000	6.482479
2463.000000	6.444765
2462.000000	6.479457
2461.000000	6.475652
2460.000000	6.468937
2459.000000	6.510121
2458.000000	6.483262
2457.000000	6.510904
2456.000000	6.551081
2455.000000	6.547611
2454.000000	6.559362
2453.000000	6.607148
2452.000000	6.630762
2451.000000	6.653927
2450.000000	6.681569
2449.000000	6.699140
2448.000000	6.703280
2447.000000	6.759908
2446.000000	6.807022
2445.000000	6.832091
2444.000000	6.830748
2443.000000	6.863426
2442.000000	6.908638
2441.000000	6.939414
2440.000000	6.963027
2439.000000	6.978583
2438.000000	7.009694
2437.000000	7.041925
2436.000000	7.067888
2435.000000	7.105938
2434.000000	7.121158
2433.000000	7.140855
2432.000000	7.158089
2431.000000	7.194013
2430.000000	7.215164
2429.000000	7.233405
2428.000000	7.265188
2427.000000	7.280632
2426.000000	7.308162
2425.000000	7.330657
2424.000000	7.354941
2423.000000	7.373631
2422.000000	7.402392
2421.000000	7.421193
2420.000000	7.441673
2419.000000	7.449171
2418.000000	7.459691
2417.000000	7.497853
2416.000000	7.508820
2415.000000	7.526502
2414.000000	7.545079
2413.000000	7.553025
2412.000000	7.588389
2411.000000	7.592642
2410.000000	7.607414
2409.000000	7.618717
2408.000000	7.644904
2407.000000	7.666951
2406.000000	7.680828
2405.000000	7.690564
2404.000000	7.693474
2403.000000	7.687207
2402.000000	7.704665
2401.000000	7.732867
2400.000000	7.747639
2399.000000	7.770357
2398.000000	7.776289
2397.000000	7.794418
2396.000000	7.837280
2395.000000	7.862572
2394.000000	7.871973
2393.000000	7.887753
2392.000000	7.890215
2391.000000	7.911030
2390.000000	7.919088
2389.000000	7.922781
2388.000000	7.963405
2387.000000	7.961167
2386.000000	7.952773
2385.000000	7.957362
2384.000000	7.981758
2383.000000	7.987801
2382.000000	7.987466
2381.000000	7.996642
2380.000000	7.992614
2379.000000	7.994964
2378.000000	8.009512
2377.000000	8.015220
2376.000000	8.020480
2375.000000	8.012310
2374.000000	7.991383
2373.000000	7.992502
2372.000000	8.004029
2371.000000	7.984892
2370.000000	7.981534
2369.000000	7.980527
2368.000000	7.972246
2367.000000	7.977729
2366.000000	7.971798
2365.000000	7.947625
2364.000000	7.936434
2363.000000	7.927705
2362.000000	7.899839
2361.000000	7.884171
2360.000000	7.878352
2359.000000	7.870630
2358.000000	7.858767
2357.000000	7.839742
2356.000000	7.830566
2355.000000	7.812212
2354.000000	7.792740
2353.000000	7.794866
2352.000000	7.801581
2351.000000	7.808183
2350.000000	7.807064
2349.000000	7.792516
2348.000000	7.809414
2347.000000	7.825530
2346.000000	7.844555
2345.000000	7.853508
2344.000000	7.859551
2343.000000	7.880143
2342.000000	7.898720
2341.000000	7.917409
2340.000000	7.921550
2339.000000	7.938337
2338.000000	7.955347
2337.000000	7.952549
2336.000000	7.955683
2335.000000	7.976498
2334.000000	7.980191
2333.000000	7.981870
2332.000000	7.956466
2331.000000	7.964748
2330.000000	7.959488
2329.000000	7.927257
2328.000000	7.932405
2327.000000	7.931958
2326.000000	7.895474
2325.000000	7.881374
2324.000000	7.883164
2323.000000	7.856977
2322.000000	7.829111
2321.000000	7.793187
2320.000000	7.768902
2319.000000	7.749542
2318.000000	7.727159
2317.000000	7.670756
2316.000000	7.634497
2315.000000	7.602826
2314.000000	7.557166
2313.000000	7.517997
2312.000000	7.494495
2311.000000	7.468867
2310.000000	7.428355
2309.000000	7.399147
2308.000000	7.376876
2307.000000	7.362440
2306.000000	7.344646
2305.000000	7.324278
2304.000000	7.320473
2303.000000	7.323159
2302.000000	7.336812
2301.000000	7.357292
2300.000000	7.360649
2299.000000	7.377212
2298.000000	7.409890
2297.000000	7.430706
2296.000000	7.476142
2295.000000	7.506246
2294.000000	7.535679
2293.000000	7.579100
2292.000000	7.595775
2291.000000	7.624760
2290.000000	7.643785
2289.000000	7.650948
2288.000000	7.679709
2287.000000	7.668294
2286.000000	7.684073
2285.000000	7.691012
2284.000000	7.679597
2283.000000	7.689445
2282.000000	7.678366
2281.000000	7.657886
2280.000000	7.657550
2279.000000	7.661467
2278.000000	7.628901
2277.000000	7.613233
2276.000000	7.602154
2275.000000	7.590068
2274.000000	7.562985
2273.000000	7.544184
2272.000000	7.546310
2271.000000	7.542617
2270.000000	7.528404
2269.000000	7.557949
2268.000000	7.566231
2267.000000	7.588837
2266.000000	7.615136
2265.000000	7.656319
2264.000000	7.702315
2263.000000	7.731188
2262.000000	7.800350
2261.000000	7.878128
2260.000000	7.981646
2259.000000	8.065132
2258.000000	8.160817
2257.000000	8.251018
2256.000000	8.368301
2255.000000	8.473722
2254.000000	8.552843
2253.000000	8.680870
2252.000000	8.772861
2251.000000	8.903910
2250.000000	9.017836
2249.000000	9.120459
2248.000000	9.200364
2247.000000	9.285640
2246.000000	9.395314
2245.000000	9.486074
2244.000000	9.552102
2243.000000	9.640400
2242.000000	9.690760
2241.000000	9.766860
2240.000000	9.842288
2239.000000	9.871385
2238.000000	9.934504
2237.000000	9.988781
2236.000000	10.020340
2235.000000	10.050556
2234.000000	10.097671
2233.000000	10.107855
2232.000000	10.150941
2231.000000	10.172763
2230.000000	10.187200
2229.000000	10.194362
2228.000000	10.186305
2227.000000	10.191564
2226.000000	10.181381
2225.000000	10.210142
2224.000000	10.207568
2223.000000	10.178918
2222.000000	10.195481
2221.000000	10.165825
2220.000000	10.143219
2219.000000	10.143554
2218.000000	10.105840
2217.000000	10.061635
2216.000000	10.044065
2215.000000	10.019892
2214.000000	10.023921
2213.000000	9.987773
2212.000000	9.976470
2211.000000	9.957334
2210.000000	9.945919
2209.000000	9.905518
2208.000000	9.888620
2207.000000	9.873400
2206.000000	9.871385
2205.000000	9.855830
2204.000000	9.836581
2203.000000	9.839267
2202.000000	9.835686
2201.000000	9.830202
2200.000000	9.807484
2199.000000	9.798867
2198.000000	9.786109
2197.000000	9.791145
2196.000000	9.772679
2195.000000	9.768539
2194.000000	9.749849
2193.000000	9.744813
2192.000000	9.759250
2191.000000	9.750297
2190.000000	9.726908
2189.000000	9.724110
2188.000000	9.700049
2187.000000	9.698706
2186.000000	9.692327
2185.000000	9.711576
2184.000000	9.693446
2183.000000	9.688970
2182.000000	9.670280
2181.000000	9.683038
2180.000000	9.648793
2179.000000	9.646443
2178.000000	9.627194
2177.000000	9.630775
2176.000000	9.626971
2175.000000	9.652934
2174.000000	9.637378
2173.000000	9.626747
2172.000000	9.632454
2171.000000	9.633685
2170.000000	9.627978
2169.000000	9.638945
2168.000000	9.653717
2167.000000	9.657187
2166.000000	9.675988
2165.000000	9.670056
2164.000000	9.683822
2163.000000	9.675988
2162.000000	9.690312
2161.000000	9.727019
2160.000000	9.732279
2159.000000	9.747499
2158.000000	9.761376
2157.000000	9.793943
2156.000000	9.808043
2155.000000	9.839714
2154.000000	9.877764
2153.000000	9.898692
2152.000000	9.912009
2151.000000	9.941666
2150.000000	9.972442
2149.000000	10.011499
2148.000000	10.035448
2147.000000	10.057606
2146.000000	10.089501
2145.000000	10.118710
2144.000000	10.158215
2143.000000	10.177911
2142.000000	10.204099
2141.000000	10.237336
2140.000000	10.254123
2139.000000	10.287920
2138.000000	10.324739
2137.000000	10.333245
2136.000000	10.351150
2135.000000	10.368273
2134.000000	10.394236
2133.000000	10.433965
2132.000000	10.440568
2131.000000	10.446163
2130.000000	10.454557
2129.000000	10.477722
2128.000000	10.481863
2127.000000	10.499657
2126.000000	10.498090
2125.000000	10.505365
2124.000000	10.501671
2123.000000	10.521927
2122.000000	10.558746
2121.000000	10.531104
2120.000000	10.513534
2119.000000	10.518346
2118.000000	10.518122
2117.000000	10.508162
2116.000000	10.506707
2115.000000	10.472239
2114.000000	10.471455
2113.000000	10.471903
2112.000000	10.448290
2111.000000	10.432846
2110.000000	10.429377
2109.000000	10.423893
2108.000000	10.413597
2107.000000	10.410240
2106.000000	10.390655
2105.000000	10.363796
2104.000000	10.361670
2103.000000	10.339623
2102.000000	10.334476
2101.000000	10.339847
2100.000000	10.306162
2099.000000	10.293404
2098.000000	10.291166
2097.000000	10.272141
2096.000000	10.260838
2095.000000	10.238791
2094.000000	10.226033
2093.000000	10.228607
2092.000000	10.220550
2091.000000	10.198839
2090.000000	10.200182
2089.000000	10.212828
2088.000000	10.198951
2087.000000	10.186640
2086.000000	10.178359
2085.000000	10.154186
2084.000000	10.131132
2083.000000	10.121732
2082.000000	10.121620
2081.000000	10.102259
2080.000000	10.078981
2079.000000	10.068350
2078.000000	10.036791
2077.000000	10.010380
2076.000000	9.989004
2075.000000	9.969196
2074.000000	9.945919
2073.000000	9.901713
2072.000000	9.860194
2071.000000	9.850794
2070.000000	9.814199
2069.000000	9.769434
2068.000000	9.735189
2067.000000	9.699489
2066.000000	9.668378
2065.000000	9.642302
2064.000000	9.608841
2063.000000	9.570119
2062.000000	9.539120
2061.000000	9.519088
2060.000000	9.477457
2059.000000	9.450038
2058.000000	9.430342
2057.000000	9.422060
2056.000000	9.411988
2055.000000	9.399007
2054.000000	9.399119
2053.000000	9.408519
2052.000000	9.414227
2051.000000	9.435826
2050.000000	9.451829
2049.000000	9.473204
2048.000000	9.498608
2047.000000	9.533189
2046.000000	9.566874
2045.000000	9.618129
2044.000000	9.666811
2043.000000	9.711576
2042.000000	9.751976
2041.000000	9.807708
2040.000000	9.850234
2039.000000	9.892984
2038.000000	9.944911
2037.000000	9.992809
2036.000000	10.004784
2035.000000	10.052794
2034.000000	10.094985
2033.000000	10.115912
2032.000000	10.153067
2031.000000	10.177687
2030.000000	10.191564
2029.000000	10.226593
2028.000000	10.255466
2027.000000	10.285123
2026.000000	10.300566
2025.000000	10.302133
2024.000000	10.325970
2023.000000	10.327985
2022.000000	10.351934
2021.000000	10.360663
2020.000000	10.352046
2019.000000	10.367154
2018.000000	10.369616
2017.000000	10.387634
2016.000000	10.376778
2015.000000	10.374540
2014.000000	10.370847
2013.000000	10.372637
2012.000000	10.367489
2011.000000	10.363573
2010.000000	10.348688
2009.000000	10.331118
2008.000000	10.322389
2007.000000	10.309855
2006.000000	10.269567
2005.000000	10.262516
2004.000000	10.236889
2003.000000	10.214394
2002.000000	10.186193
2001.000000	10.147695
2000.000000	10.121284
1999.000000	10.111436
1998.000000	10.060852
1997.000000	10.037574
1996.000000	9.984416
1995.000000	9.968413
1994.000000	9.945247
1993.000000	9.896230
1992.000000	9.856725
1991.000000	9.821697
1990.000000	9.780513
1989.000000	9.724557
1988.000000	9.697251
1987.000000	9.653382
1986.000000	9.617010
1985.000000	9.560831
1984.000000	9.506777
1983.000000	9.479583
1982.000000	9.435602
1981.000000	9.387144
1980.000000	9.343946
1979.000000	9.296719
1978.000000	9.247478
1977.000000	9.211107
1976.000000	9.185032
1975.000000	9.138588
1974.000000	9.093152
1973.000000	9.059019
1972.000000	9.006980
1971.000000	8.987732
1970.000000	8.937259
1969.000000	8.901000
1968.000000	8.846387
1967.000000	8.825124
1966.000000	8.772190
1965.000000	8.743988
1964.000000	8.717801
1963.000000	8.690718
1962.000000	8.635770
1961.000000	8.594922
1960.000000	8.571868
1959.000000	8.548590
1958.000000	8.494761
1957.000000	8.483346
1956.000000	8.451115
1955.000000	8.417766
1954.000000	8.362593
1953.000000	8.345471
1952.000000	8.307757
1951.000000	8.270826
1950.000000	8.246877
1949.000000	8.241393
1948.000000	8.201105
1947.000000	8.194726
1946.000000	8.156564
1945.000000	8.123326
1944.000000	8.112135
1943.000000	8.095349
1942.000000	8.075093
1941.000000	8.061439
1940.000000	8.039393
1939.000000	8.047338
1938.000000	8.023725
1937.000000	8.039057
1936.000000	7.999105
1935.000000	8.017682
1934.000000	8.008505
1933.000000	8.046779
1932.000000	8.046555
1931.000000	8.049577
1930.000000	8.089529
1929.000000	8.105980
1928.000000	8.119074
1927.000000	8.160481
1926.000000	8.189354
1925.000000	8.210841
1924.000000	8.268140
1923.000000	8.326670
1922.000000	8.342002
1921.000000	8.406798
1920.000000	8.462978
1919.000000	8.536952
1918.000000	8.598839
1917.000000	8.642149
1916.000000	8.731678
1915.000000	8.786291
1914.000000	8.877051
1913.000000	8.949122
1912.000000	9.066070
1911.000000	9.151458
1910.000000	9.274673
1909.000000	9.399678
1908.000000	9.479919
1907.000000	9.589032
1906.000000	9.724222
1905.000000	9.885598
1904.000000	10.026383
1903.000000	10.188319
1902.000000	10.320934
1901.000000	10.512415
1900.000000	10.652416
1899.000000	10.863929
1898.000000	11.083276
1897.000000	11.268378
1896.000000	11.501378
1895.000000	11.714569
1894.000000	11.916458
1893.000000	12.151472
1892.000000	12.416591
1891.000000	12.694579
1890.000000	12.967084
1889.000000	13.257606
1888.000000	13.581590
1887.000000	13.914751
1886.000000	14.246009
1885.000000	14.599762
1884.000000	14.993131
1883.000000	15.371952
1882.000000	15.759054
1881.000000	16.205805
1880.000000	16.606560
1879.000000	17.004070
1878.000000	17.376512
1877.000000	17.784990
1876.000000	18.206672
1875.000000	18.584374
1874.000000	18.946856
1873.000000	19.321759
1872.000000	19.694537
1871.000000	20.049856
1870.000000	20.401147
1869.000000	20.720319
1868.000000	21.021249
1867.000000	21.310540
1866.000000	21.551374
1865.000000	21.753039
1864.000000	21.966006
1863.000000	22.122347
1862.000000	22.289655
1861.000000	22.452710
1860.000000	22.623487
1859.000000	22.782401
1858.000000	22.932027
1857.000000	23.056697
1856.000000	23.146786
1855.000000	23.227698
1854.000000	23.302455
1853.000000	23.402615
1852.000000	23.451633
1851.000000	23.462264
1850.000000	23.499979
1849.000000	23.518556
1848.000000	23.558732
1847.000000	23.595327
1846.000000	23.610771
1845.000000	23.615136
1844.000000	23.591410
1843.000000	23.548660
1842.000000	23.535902
1841.000000	23.575743
1840.000000	23.585031
1839.000000	23.573616
1838.000000	23.545750
1837.000000	23.515422
1836.000000	23.489795
1835.000000	23.495278
1834.000000	23.445701
1833.000000	23.402280
1832.000000	23.353822
1831.000000	23.293054
1830.000000	23.257130
1829.000000	23.227586
1828.000000	23.180471
1827.000000	23.129999
1826.000000	23.089263
1825.000000	23.054235
1824.000000	22.994026
1823.000000	22.929901
1822.000000	22.914009
1821.000000	22.902818
1820.000000	22.892075
1819.000000	22.876295
1818.000000	22.843953
1817.000000	22.799972
1816.000000	22.783185
1815.000000	22.777589
1814.000000	22.761474
1813.000000	22.742225
1812.000000	22.734391
1811.000000	22.716821
1810.000000	22.692872
1809.000000	22.659746
1808.000000	22.603902
1807.000000	22.565293
1806.000000	22.535972
1805.000000	22.505980
1804.000000	22.457074
1803.000000	22.402350
1802.000000	22.366426
1801.000000	22.341694
1800.000000	22.317968
1799.000000	22.257312
1798.000000	22.206952
1797.000000	22.173938
1796.000000	22.134657
1795.000000	22.087095
1794.000000	22.032930
1793.000000	21.988277
1792.000000	21.958285
1791.000000	21.936462
1790.000000	21.886885
1789.000000	21.822760
1788.000000	21.796908
1787.000000	21.764230
1786.000000	21.708274
1785.000000	21.656907
1784.000000	21.623781
1783.000000	21.588752
1782.000000	21.527201
1781.000000	21.455801
1780.000000	21.413387
1779.000000	21.372539
1778.000000	21.315017
1777.000000	21.253353
1776.000000	21.187438
1775.000000	21.117493
1774.000000	21.040721
1773.000000	20.986220
1772.000000	20.919074
1771.000000	20.852934
1770.000000	20.766538
1769.000000	20.670294
1768.000000	20.581660
1767.000000	20.495152
1766.000000	20.441211
1765.000000	20.383017
1764.000000	20.330083
1763.000000	20.303560
1762.000000	20.284423
1761.000000	20.266517
1760.000000	20.273008
1759.000000	20.306693
1758.000000	20.367797
1757.000000	20.404616
1756.000000	20.451843
1755.000000	20.504441
1754.000000	20.542379
1753.000000	20.581996
1752.000000	20.627880
1751.000000	20.633923
1750.000000	20.625194
1749.000000	20.623963
1748.000000	20.614226
1747.000000	20.571924
1746.000000	20.540253
1745.000000	20.483961
1744.000000	20.405735
1743.000000	20.315422
1742.000000	20.227460
1741.000000	20.115436
1740.000000	19.990767
1739.000000	19.835098
1738.000000	19.684353
1737.000000	19.537189
1736.000000	19.415653
1735.000000	19.291543
1734.000000	19.203021
1733.000000	19.150311
1732.000000	19.120542
1731.000000	19.112820
1730.000000	19.130503
1729.000000	19.175379
1728.000000	19.223389
1727.000000	19.289865
1726.000000	19.342799
1725.000000	19.396516
1724.000000	19.448779
1723.000000	19.499251
1722.000000	19.557445
1721.000000	19.612953
1720.000000	19.666783
1719.000000	19.722851
1718.000000	19.803986
1717.000000	19.885010
1716.000000	19.965251
1715.000000	20.039560
1714.000000	20.146548
1713.000000	20.220521
1712.000000	20.309155
1711.000000	20.411778
1710.000000	20.457438
1709.000000	20.526376
1708.000000	20.551220
1707.000000	20.570133
1706.000000	20.580429
1705.000000	20.552675
1704.000000	20.527495
1703.000000	20.496160
1702.000000	20.441099
1701.000000	20.383353
1700.000000	20.301545
1699.000000	20.186500
1698.000000	20.073022
1697.000000	19.968608
1696.000000	19.899335
1695.000000	19.842820
1694.000000	19.782835
1693.000000	19.769182
1692.000000	19.835993
1691.000000	19.884451
1690.000000	19.970623
1689.000000	20.074812
1688.000000	20.172847
1687.000000	20.240330
1686.000000	20.320235
1685.000000	20.382234
1684.000000	20.468629
1683.000000	20.581660
1682.000000	20.741694
1681.000000	20.948171
1680.000000	21.241491
1679.000000	21.567377
1678.000000	21.950898
1677.000000	22.329160
1676.000000	22.739763
1675.000000	23.096537
1674.000000	23.438315
1673.000000	23.739917
1672.000000	23.997649
1671.000000	24.241281
1670.000000	24.460851
1669.000000	24.656809
1668.000000	24.834636
1667.000000	25.002951
1666.000000	25.128292
1665.000000	25.272434
1664.000000	25.364649
1663.000000	25.479695
1662.000000	25.570007
1661.000000	25.661327
1660.000000	25.684381
1659.000000	25.781520
1658.000000	25.818003
1657.000000	25.886717
1656.000000	25.884479
1655.000000	25.922305
1654.000000	25.924319
1653.000000	25.956438
1652.000000	25.958900
1651.000000	25.938420
1650.000000	25.919507
1649.000000	25.900482
1648.000000	25.874966
1647.000000	25.827068
1646.000000	25.816213
1645.000000	25.761376
1644.000000	25.733846
1643.000000	25.682031
1642.000000	25.603469
1641.000000	25.583884
1640.000000	25.504651
1639.000000	25.474994
1638.000000	25.409974
1637.000000	25.378638
1636.000000	25.310932
1635.000000	25.278366
1634.000000	25.210883
1633.000000	25.129747
1632.000000	25.072336
1631.000000	25.004070
1630.000000	24.948450
1629.000000	24.870895
1628.000000	24.780583
1627.000000	24.727872
1626.000000	24.631517
1625.000000	24.577575
1624.000000	24.473609
1623.000000	24.402881
1622.000000	24.322976
1621.000000	24.266237
1620.000000	24.194950
1619.000000	24.135301
1618.000000	24.054500
1617.000000	23.999328
1616.000000	23.945946
1615.000000	23.875778
1614.000000	23.786584
1613.000000	23.719549
1612.000000	23.646359
1611.000000	23.581450
1610.000000	23.532321
1609.000000	23.462936
1608.000000	23.398251
1607.000000	23.340281
1606.000000	23.251982
1605.000000	23.180359
1604.000000	23.105043
1603.000000	23.042260
1602.000000	22.967839
1601.000000	22.881779
1600.000000	22.816646
1599.000000	22.734503
1598.000000	22.663663
1597.000000	22.591816
1596.000000	22.527579
1595.000000	22.461103
1594.000000	22.397649
1593.000000	22.319535
1592.000000	22.257536
1591.000000	22.206393
1590.000000	22.134210
1589.000000	22.096719
1588.000000	22.005064
1587.000000	21.954256
1586.000000	21.910163
1585.000000	21.852416
1584.000000	21.807987
1583.000000	21.750241
1582.000000	21.684549
1581.000000	21.658809
1580.000000	21.608449
1579.000000	21.550703
1578.000000	21.513548
1577.000000	21.490046
1576.000000	21.453787
1575.000000	21.422228
1574.000000	21.380149
1573.000000	21.345569
1572.000000	21.340309
1571.000000	21.326208
1570.000000	21.308973
1569.000000	21.301252
1568.000000	21.284465
1567.000000	21.283122
1566.000000	21.270700
1565.000000	21.266559
1564.000000	21.253577
1563.000000	21.253913
1562.000000	21.252682
1561.000000	21.235448
1560.000000	21.209596
1559.000000	21.198181
1558.000000	21.173225
1557.000000	21.137749
1556.000000	21.106302
1555.000000	21.077205
1554.000000	21.037252
1553.000000	21.005245
1552.000000	20.969769
1551.000000	20.935636
1550.000000	20.885052
1549.000000	20.839169
1548.000000	20.796978
1547.000000	20.737441
1546.000000	20.683388
1545.000000	20.659662
1544.000000	20.623851
1543.000000	20.591844
1542.000000	20.550325
1541.000000	20.498286
1540.000000	20.466951
1539.000000	20.446023
1538.000000	20.424089
1537.000000	20.389172
1536.000000	20.364104
1535.000000	20.327173
1534.000000	20.282408
1533.000000	20.251745
1532.000000	20.220745
1531.000000	20.180793
1530.000000	20.135916
1529.000000	20.097978
1528.000000	20.053325
1527.000000	19.999496
1526.000000	19.938057
1525.000000	19.895418
1524.000000	19.844498
1523.000000	19.780709
1522.000000	19.744002
1521.000000	19.697447
1520.000000	19.645855
1519.000000	19.581842
1518.000000	19.510107
1517.000000	19.458515
1516.000000	19.404798
1515.000000	19.349961
1514.000000	19.292103
1513.000000	19.225068
1512.000000	19.160831
1511.000000	19.106665
1510.000000	19.051045
1509.000000	18.989830
1508.000000	18.936672
1507.000000	18.863705
1506.000000	18.789732
1505.000000	18.728404
1504.000000	18.674239
1503.000000	18.625334
1502.000000	18.561096
1501.000000	18.508498
1500.000000	18.456795
1499.000000	18.387074
1498.000000	18.334699
1497.000000	18.284227
1496.000000	18.239015
1495.000000	18.194138
1494.000000	18.145233
1493.000000	18.117591
1492.000000	18.097447
1491.000000	18.055256
1490.000000	18.011051
1489.000000	17.968972
1488.000000	17.946366
1487.000000	17.938085
1486.000000	17.891529
1485.000000	17.835797
1484.000000	17.817892
1483.000000	17.799762
1482.000000	17.777603
1481.000000	17.745261
1480.000000	17.729258
1479.000000	17.711687
1478.000000	17.691879
1477.000000	17.684269
1476.000000	17.686843
1475.000000	17.675540
1474.000000	17.649241
1473.000000	17.656515
1472.000000	17.672854
1471.000000	17.670056
1470.000000	17.672630
1469.000000	17.659872
1468.000000	17.662334
1467.000000	17.681359
1466.000000	17.683933
1465.000000	17.690648
1464.000000	17.712918
1463.000000	17.733958
1462.000000	17.750521
1461.000000	17.774358
1460.000000	17.797524
1459.000000	17.830985
1458.000000	17.866573
1457.000000	17.900035
1456.000000	17.954983
1455.000000	18.023025
1454.000000	18.059509
1453.000000	18.086367
1452.000000	18.142771
1451.000000	18.214059
1450.000000	18.278520
1449.000000	18.325634
1448.000000	18.378121
1447.000000	18.436315
1446.000000	18.520472
1445.000000	18.596237
1444.000000	18.656333
1443.000000	18.731314
1442.000000	18.806742
1441.000000	18.892355
1440.000000	18.969126
1439.000000	19.064363
1438.000000	19.151430
1437.000000	19.244429
1436.000000	19.349402
1435.000000	19.435797
1434.000000	19.530475
1433.000000	19.650891
1432.000000	19.763586
1431.000000	19.886130
1430.000000	20.000167
1429.000000	20.118346
1428.000000	20.254207
1427.000000	20.409988
1426.000000	20.564314
1425.000000	20.726026
1424.000000	20.898594
1423.000000	21.077093
1422.000000	21.244177
1421.000000	21.446849
1420.000000	21.652318
1419.000000	21.877820
1418.000000	22.118206
1417.000000	22.358816
1416.000000	22.565405
1415.000000	22.817654
1414.000000	23.107505
1413.000000	23.395341
1412.000000	23.703210
1411.000000	23.955235
1410.000000	24.256949
1409.000000	24.639910
1408.000000	25.023207
1407.000000	25.411428
1406.000000	25.786668
1405.000000	26.171756
1404.000000	26.611121
1403.000000	27.015793
1402.000000	27.442848
1401.000000	27.845170
1400.000000	28.341162
1399.000000	28.833125
1398.000000	29.238021
1397.000000	29.567153
1396.000000	29.959403
1395.000000	30.471399
1394.000000	30.966496
1393.000000	31.344309
1392.000000	31.713841
1391.000000	32.183870
1390.000000	32.694299
1389.000000	33.129187
1388.000000	33.632566
1387.000000	34.230733
1386.000000	34.843225
1385.000000	35.449898
1384.000000	36.011023
1383.000000	36.658431
1382.000000	37.293977
1381.000000	37.955598
1380.000000	38.500943
1379.000000	38.827949
1378.000000	39.268769
1377.000000	39.549555
1376.000000	39.823179
1375.000000	40.062334
1374.000000	40.332153
1373.000000	40.645170
1372.000000	40.962775
1371.000000	41.312386
1370.000000	41.729817
1369.000000	42.088829
1368.000000	42.368832
1367.000000	42.709267
1366.000000	43.015009
1365.000000	43.277666
1364.000000	43.530250
1363.000000	43.743666
1362.000000	43.954283
1361.000000	44.175421
1360.000000	44.375854
1359.000000	44.550436
1358.000000	44.642875
1357.000000	44.771574
1356.000000	44.918625
1355.000000	45.143792
1354.000000	45.439686
1353.000000	45.828243
1352.000000	46.175057
1351.000000	46.616212
1350.000000	47.110861
1349.000000	47.536909
1348.000000	47.952660
1347.000000	48.398964
1346.000000	48.799495
1345.000000	49.170147
1344.000000	49.576498
1343.000000	49.926221
1342.000000	50.292956
1341.000000	50.655773
1340.000000	51.005497
1339.000000	51.373798
1338.000000	51.719381
1337.000000	52.077722
1336.000000	52.420954
1335.000000	52.748967
1334.000000	53.058850
1333.000000	53.401412
1332.000000	53.740616
1331.000000	54.045687
1330.000000	54.345834
1329.000000	54.638930
1328.000000	54.936951
1327.000000	55.212589
1326.000000	55.484534
1325.000000	55.757375
1324.000000	56.010742
1323.000000	56.265006
1322.000000	56.499236
1321.000000	56.728991
1320.000000	56.941623
1319.000000	57.179883
1318.000000	57.379757
1317.000000	57.583548
1316.000000	57.792039
1315.000000	57.974231
1314.000000	58.174105
1313.000000	58.363907
1312.000000	58.518122
1311.000000	58.680393
1310.000000	58.833824
1309.000000	58.964201
1308.000000	59.100398
1307.000000	59.231446
1306.000000	59.365964
1305.000000	59.457843
1304.000000	59.560242
1303.000000	59.659284
1302.000000	59.732586
1301.000000	59.800069
1300.000000	59.866656
1299.000000	59.946449
1298.000000	59.996138
1297.000000	60.045603
1296.000000	60.095180
1295.000000	60.142406
1294.000000	60.173742
1293.000000	60.192655
1292.000000	60.196907
1291.000000	60.239434
1290.000000	60.246820
1289.000000	60.248610
1288.000000	60.240553
1287.000000	60.242231
1286.000000	60.225557
1285.000000	60.195564
1284.000000	60.157291
1283.000000	60.119800
1282.000000	60.082086
1281.000000	60.039112
1280.000000	59.992892
1279.000000	59.947232
1278.000000	59.900565
1277.000000	59.849086
1276.000000	59.819765
1275.000000	59.769853
1274.000000	59.725088
1273.000000	59.693641
1272.000000	59.673721
1271.000000	59.656710
1270.000000	59.637573
1269.000000	59.599859
1268.000000	59.564047
1267.000000	59.547260
1266.000000	59.520066
1265.000000	59.491417
1264.000000	59.461089
1263.000000	59.431656
1262.000000	59.393270
1261.000000	59.337762
1260.000000	59.293333
1259.000000	59.253604
1258.000000	59.204475
1257.000000	59.156018
1256.000000	59.084170
1255.000000	59.009749
1254.000000	58.953793
1253.000000	58.886199
1252.000000	58.812673
1251.000000	58.708595
1250.000000	58.617499
1249.000000	58.550240
1248.000000	58.448624
1247.000000	58.332013
1246.000000	58.217191
1245.000000	58.103937
1244.000000	57.988780
1243.000000	57.852136
1242.000000	57.719073
1241.000000	57.600782
1240.000000	57.477120
1239.000000	57.335664
1238.000000	57.194431
1237.000000	57.064166
1236.000000	56.928306
1235.000000	56.780694
1234.000000	56.636216
1233.000000	56.498453
1232.000000	56.350842
1231.000000	56.174805
1230.000000	56.013428
1229.000000	55.850037
1228.000000	55.677470
1227.000000	55.498859
1226.000000	55.308161
1225.000000	55.128431
1224.000000	54.945456
1223.000000	54.754759
1222.000000	54.567083
1221.000000	54.373140
1220.000000	54.170916
1219.000000	53.977085
1218.000000	53.790864
1217.000000	53.606881
1216.000000	53.423570
1215.000000	53.249884
1214.000000	53.074854
1213.000000	52.910008
1212.000000	52.759039
1211.000000	52.590389
1210.000000	52.451954
1209.000000	52.288899
1208.000000	52.123270
1207.000000	51.986737
1206.000000	51.863523
1205.000000	51.734377
1204.000000	51.633544
1203.000000	51.544127
1202.000000	51.455829
1201.000000	51.380400
1200.000000	51.310568
1199.000000	51.231670
1198.000000	51.136657
1197.000000	51.032467
1196.000000	50.902426
1195.000000	50.735230
1194.000000	50.530656
1193.000000	50.286017
1192.000000	50.003552
1191.000000	49.676547
1190.000000	49.308917
1189.000000	48.951583
1188.000000	48.617080
1187.000000	48.338532
1186.000000	48.139553
1185.000000	48.046778
1184.000000	48.051255
1183.000000	48.161711
1182.000000	48.392585
1181.000000	48.731341
1180.000000	49.118220
1179.000000	49.543931
1178.000000	49.992361
1177.000000	50.410239
1176.000000	50.792977
1175.000000	51.156801
1174.000000	51.466237
1173.000000	51.767838
1172.000000	52.071007
1171.000000	52.363991
1170.000000	52.666377
1169.000000	52.999313
1168.000000	53.302818
1167.000000	53.643253
1166.000000	53.978988
1165.000000	54.338671
1164.000000	54.699139
1163.000000	55.056248
1162.000000	55.443574
1161.000000	55.835041
1160.000000	56.209497
1159.000000	56.598502
1158.000000	56.964901
1157.000000	57.330404
1156.000000	57.694005
1155.000000	58.027165
1154.000000	58.338280
1153.000000	58.594109
1152.000000	58.822185
1151.000000	59.031124
1150.000000	59.199551
1149.000000	59.344029
1148.000000	59.507644
1147.000000	59.665999
1146.000000	59.868671
1145.000000	60.090591
1144.000000	60.367013
1143.000000	60.673427
1142.000000	61.018338
1141.000000	61.409581
1140.000000	61.822983
1139.000000	62.269734
1138.000000	62.719954
1137.000000	63.165250
1136.000000	63.651730
1135.000000	64.177826
1134.000000	64.718135
1133.000000	65.249268
1132.000000	65.695124
1131.000000	66.092969
1130.000000	66.499768
1129.000000	66.846470
1128.000000	67.153555
1127.000000	67.402335
1126.000000	67.598740
1125.000000	67.765488
1124.000000	67.927984
1123.000000	68.039224
1122.000000	68.162774
1121.000000	68.243462
1120.000000	68.301768
1119.000000	68.345973
1118.000000	68.371489
1117.000000	68.414799
1116.000000	68.415582
1115.000000	68.446022
1114.000000	68.431026
1113.000000	68.410099
1112.000000	68.417821
1111.000000	68.401034
1110.000000	68.383688
1109.000000	68.354591
1108.000000	68.362536
1107.000000	68.338140
1106.000000	68.328963
1105.000000	68.317212
1104.000000	68.309714
1103.000000	68.275693
1102.000000	68.251856
1101.000000	68.223766
1100.000000	68.219737
1099.000000	68.175308
1098.000000	68.153373
1097.000000	68.139720
1096.000000	68.112414
1095.000000	68.073804
1094.000000	68.006210
1093.000000	67.982261
1092.000000	67.956297
1091.000000	67.895753
1090.000000	67.841588
1089.000000	67.777798
1088.000000	67.749261
1087.000000	67.654360
1086.000000	67.600418
1085.000000	67.530250
1084.000000	67.473063
1083.000000	67.394613
1082.000000	67.323997
1081.000000	67.244875
1080.000000	67.161389
1079.000000	67.119310
1078.000000	67.047687
1077.000000	66.967223
1076.000000	66.878141
1075.000000	66.794207
1074.000000	66.728291
1073.000000	66.648834
1072.000000	66.567474
1071.000000	66.486562
1070.000000	66.402517
1069.000000	66.341861
1068.000000	66.250205
1067.000000	66.143106
1066.000000	66.058500
1065.000000	65.952856
1064.000000	65.861200
1063.000000	65.787003
1062.000000	65.683485
1061.000000	65.571573
1060.000000	65.488087
1059.000000	65.421276
1058.000000	65.302985
1057.000000	65.200586
1056.000000	65.101992
1055.000000	64.982806
1054.000000	64.887458
1053.000000	64.795019
1052.000000	64.699558
1051.000000	64.597271
1050.000000	64.493865
1049.000000	64.408364
1048.000000	64.306301
1047.000000	64.205021
1046.000000	64.132614
1045.000000	64.034803
1044.000000	63.944826
1043.000000	63.842763
1042.000000	63.759277
1041.000000	63.672434
1040.000000	63.566118
1039.000000	63.492704
1038.000000	63.391871
1037.000000	63.292270
1036.000000	63.179015
1035.000000	63.081876
1034.000000	62.983058
1033.000000	62.889724
1032.000000	62.772105
1031.000000	62.662655
1030.000000	62.541791
1029.000000	62.427753
1028.000000	62.308343
1027.000000	62.208294
1026.000000	62.087654
1025.000000	61.971042
1024.000000	61.858011
1023.000000	61.754269
1022.000000	61.596474
1021.000000	61.486464
1020.000000	61.372091
1019.000000	61.245295
1018.000000	61.120290
1017.000000	61.008826
1016.000000	60.918177
1015.000000	60.814883
1014.000000	60.707224
1013.000000	60.612771
1012.000000	60.537790
1011.000000	60.449380
1010.000000	60.360634
1009.000000	60.290353
1008.000000	60.233614
1007.000000	60.186947
1006.000000	60.108721
1005.000000	60.043029
1004.000000	59.968608
1003.000000	59.920933
1002.000000	59.858039
1001.000000	59.788206
1000.000000	59.693529
999.000000	59.639588
998.000000	59.597956
997.000000	59.528907
996.000000	59.455493
995.000000	59.384653
994.000000	59.327578
993.000000	59.263900
992.000000	59.205259
991.000000	59.148855
990.000000	59.092452
989.000000	59.035041
988.000000	59.004489
987.000000	58.942826
986.000000	58.885080
985.000000	58.832817
984.000000	58.771489
983.000000	58.731201
982.000000	58.703671
981.000000	58.656332
980.000000	58.614030
979.000000	58.585380
978.000000	58.550016
977.000000	58.494508
976.000000	58.446610
975.000000	58.402741
974.000000	58.381589
973.000000	58.339623
972.000000	58.301461
971.000000	58.278183
970.000000	58.240581
969.000000	58.177127
968.000000	58.141315
967.000000	58.115016
966.000000	58.078757
965.000000	58.035783
964.000000	57.995606
963.000000	57.973895
962.000000	57.969083
961.000000	57.951625
960.000000	57.921073
959.000000	57.877763
958.000000	57.875637
957.000000	57.874966
956.000000	57.831320
955.000000	57.800321
954.000000	57.777938
953.000000	57.752646
952.000000	57.743581
951.000000	57.730040
950.000000	57.701279
949.000000	57.655507
948.000000	57.614659
947.000000	57.574707
946.000000	57.550758
945.000000	57.512708
944.000000	57.459662
943.000000	57.433363
942.000000	57.371028
941.000000	57.289892
940.000000	57.246134
939.000000	57.202825
938.000000	57.123367
937.000000	57.049506
936.000000	56.981911
935.000000	56.923158
934.000000	56.892382
933.000000	56.825571
932.000000	56.737049
931.000000	56.648750
930.000000	56.579925
929.000000	56.537510
928.000000	56.458613
927.000000	56.351513
926.000000	56.257284
925.000000	56.194389
924.000000	56.101615
923.000000	55.996306
922.000000	55.896145
921.000000	55.809749
920.000000	55.712386
919.000000	55.615918
918.000000	55.551793
917.000000	55.447379
916.000000	55.330432
915.000000	55.210127
914.000000	55.089598
913.000000	55.026368
912.000000	54.928669
911.000000	54.815079
910.000000	54.702384
909.000000	54.578498
908.000000	54.469272
907.000000	54.397985
906.000000	54.367097
905.000000	54.272979
904.000000	54.188374
903.000000	54.102426
902.000000	54.028452
901.000000	53.970147
900.000000	53.911617
899.000000	53.860697
898.000000	53.802951
897.000000	53.706595
896.000000	53.639224
895.000000	53.584387
894.000000	53.539623
893.000000	53.472140
892.000000	53.371196
891.000000	53.288941
890.000000	53.214184
889.000000	53.099251
888.000000	53.010169
887.000000	52.922206
886.000000	52.819248
885.000000	52.721437
884.000000	52.587591
883.000000	52.461578
882.000000	52.325941
881.000000	52.221192
880.000000	52.083429
879.000000	51.957081
878.000000	51.792235
877.000000	51.642385
876.000000	51.447547
875.000000	51.204364
874.000000	50.950548
873.000000	50.718555
872.000000	50.459256
871.000000	50.257368
870.000000	50.185520
869.000000	50.171643
868.000000	50.188094
867.000000	50.210701
866.000000	50.200852
865.000000	50.183506
864.000000	50.166607
863.000000	50.172315
862.000000	50.157207
861.000000	50.154521
860.000000	50.139077
859.000000	50.132027
858.000000	50.123633
857.000000	49.363000
856.000000	50.547400
855.000000	50.460500
854.000000	50.259200
853.000000	50.312500
852.000000	50.189900
851.000000	50.680700
850.000000	50.371400
849.000000	50.286500
848.000000	50.462700
847.000000	50.682900
846.000000	50.432100
845.000000	50.573500
844.000000	50.381500
843.000000	50.511100
842.000000	50.491200
841.000000	50.591100
840.000000	50.437500
839.000000	50.431900
838.000000	50.540500
837.000000	50.284400
836.000000	50.444800
835.000000	50.386400
834.000000	50.415500
833.000000	50.392300
832.000000	50.431200
831.000000	50.292800
830.000000	50.215600
829.000000	50.243900
828.000000	50.348100
827.000000	50.265000
826.000000	50.257700
825.000000	50.147900
824.000000	50.137300
823.000000	50.119100
822.000000	50.006000
821.000000	50.036200
820.000000	49.900600
819.000000	49.971400
818.000000	49.905500
817.000000	49.900000
816.000000	49.917500
815.000000	49.668100
814.000000	49.806700
813.000000	49.704000
812.000000	49.659000
811.000000	49.723100
810.000000	49.503200
809.000000	49.558200
808.000000	49.605600
807.000000	49.586300
806.000000	49.408700
805.000000	49.347900
804.000000	49.338500
803.000000	49.268600
802.000000	49.142900
801.000000	49.132500
800.000000	49.193300
799.000000	49.170700
798.000000	48.987600
797.000000	48.907600
796.000000	48.862400
795.000000	48.745300
794.000000	48.693700
793.000000	48.515500
792.000000	48.589900
791.000000	48.693800
790.000000	48.520100
789.000000	48.496800
788.000000	48.262800
787.000000	48.258800
786.000000	48.205500
785.000000	48.159900
784.000000	48.209300
783.000000	48.045800
782.000000	47.983100
781.000000	47.873000
780.000000	47.814800
779.000000	47.674100
778.000000	47.692500
777.000000	47.699400
776.000000	47.496000
775.000000	47.452800
774.000000	47.441100
773.000000	47.389600
772.000000	47.312400
771.000000	47.143000
770.000000	47.180000
769.000000	47.119000
768.000000	47.140100
767.000000	46.981800
766.000000	46.902600
765.000000	46.877300
764.000000	46.797400
763.000000	46.690200
762.000000	46.594500
761.000000	46.517200
760.000000	46.349000
759.000000	46.370300
758.000000	46.293600
757.000000	46.231400
756.000000	46.096800
755.000000	45.955300
754.000000	45.950100
753.000000	45.817500
752.000000	45.829000
751.000000	45.687900
750.000000	45.639200
749.000000	45.534000
748.000000	45.469400
747.000000	45.369700
746.000000	45.262900
745.000000	45.164000
744.000000	45.016200
743.000000	44.882300
742.000000	44.818500
741.000000	44.692500
740.000000	44.674700
739.000000	44.534600
738.000000	44.406600
737.000000	44.268700
736.000000	44.219300
735.000000	44.043800
734.000000	43.978600
733.000000	43.895000
732.000000	43.794900
731.000000	43.716300
730.000000	43.517600
729.000000	43.408300
728.000000	43.348400
727.000000	43.207800
726.000000	43.073600
725.000000	42.907000
724.000000	42.817800
723.000000	42.712800
722.000000	42.503300
721.000000	42.429200
720.000000	42.329300
719.000000	42.187900
718.000000	42.065600
717.000000	41.939000
716.000000	41.794100
715.000000	41.661900
714.000000	41.529000
713.000000	41.405600
712.000000	41.253800
711.000000	41.098500
710.000000	41.009100
709.000000	40.831700
708.000000	40.693500
707.000000	40.574700
706.000000	40.435700
705.000000	40.305900
704.000000	40.147700
703.000000	39.976500
702.000000	39.845500
701.000000	39.699900
700.000000	39.527600
699.000000	39.400400
698.000000	39.226400
697.000000	39.030100
696.000000	38.898100
695.000000	38.698700
694.000000	38.528000
693.000000	38.366000
692.000000	38.214800
691.000000	38.011200
690.000000	37.789800
689.000000	37.643500
688.000000	37.458700
687.000000	37.263600
686.000000	37.094900
685.000000	36.899600
684.000000	36.701700
683.000000	36.529500
682.000000	36.342800
681.000000	36.124600
680.000000	35.947900
679.000000	35.758400
678.000000	35.576000
677.000000	35.384400
676.000000	35.179400
675.000000	34.959900
674.000000	34.749500
673.000000	34.556300
672.000000	34.356300
671.000000	34.160500
670.000000	33.939400
669.000000	33.726800
668.000000	33.530800
667.000000	33.355100
666.000000	33.145700
665.000000	32.946800
664.000000	32.795600
663.000000	32.588300
662.000000	32.374800
661.000000	32.215300
660.000000	32.013100
659.000000	31.809400
658.000000	31.625000
657.000000	31.455900
656.000000	31.267700
655.000000	31.075300
654.000000	30.924500
653.000000	30.762500
652.000000	30.598500
651.000000	30.442100
650.000000	30.279500
649.000000	30.126200
648.000000	29.988300
647.000000	29.838800
646.000000	29.706100
645.000000	29.569600
644.000000	29.422300
643.000000	29.305400
642.000000	29.169200
641.000000	29.024000
640.000000	28.917300
639.000000	28.801400
638.000000	28.674400
637.000000	28.587300
636.000000	28.501400
635.000000	28.385800
634.000000	28.288500
633.000000	28.209200
632.000000	28.128300
631.000000	28.006900
630.000000	27.917500
629.000000	27.859900
628.000000	27.774200
627.000000	27.719600
626.000000	27.660400
625.000000	27.583300
624.000000	27.525500
623.000000	27.473500
622.000000	27.429700
621.000000	27.369900
620.000000	27.323700
619.000000	27.290200
618.000000	27.267100
617.000000	27.250700
616.000000	27.233600
615.000000	27.219300
614.000000	27.206600
613.000000	27.216900
612.000000	27.220900
611.000000	27.236300
610.000000	27.248900
609.000000	27.274200
608.000000	27.298000
607.000000	27.302600
606.000000	27.362200
605.000000	27.419800
604.000000	27.470500
603.000000	27.528600
602.000000	27.578300
601.000000	27.653400
600.000000	27.731600
599.000000	27.811200
598.000000	27.895600
597.000000	27.979100
596.000000	28.076400
595.000000	28.151200
594.000000	28.243600
593.000000	28.327000
592.000000	28.421200
591.000000	28.514500
590.000000	28.623200
589.000000	28.716000
588.000000	28.811500
587.000000	28.915800
586.000000	29.023600
585.000000	29.104000
584.000000	29.219500
583.000000	29.308100
582.000000	29.374100
581.000000	29.464100
580.000000	29.542000
579.000000	29.603700
578.000000	29.652700
577.000000	29.706000
576.000000	29.767100
575.000000	29.822400
574.000000	29.865800
573.000000	29.897200
572.000000	29.922900
571.000000	29.944100
570.000000	29.965700
569.000000	29.955400
568.000000	29.956200
567.000000	29.958700
566.000000	29.962400
565.000000	29.948200
564.000000	29.919100
563.000000	29.864200
562.000000	29.825200
561.000000	29.776900
560.000000	29.727800
559.000000	29.679600
558.000000	29.592600
557.000000	29.526000
556.000000	29.438500
555.000000	29.370900
554.000000	29.272100
553.000000	29.151600
552.000000	29.037800
551.000000	28.919900
550.000000	28.789200
549.000000	28.643100
548.000000	28.503100
547.000000	28.352000
546.000000	28.167700
545.000000	27.998900
544.000000	27.800100
543.000000	27.600200
542.000000	27.410000
541.000000	27.203700
540.000000	26.990100
539.000000	26.765400
538.000000	26.533600
537.000000	26.307600
536.000000	26.049700
535.000000	25.791900
534.000000	25.527600
533.000000	25.267500
532.000000	24.997200
531.000000	24.693500
530.000000	24.403500
529.000000	24.093600
528.000000	23.795700
527.000000	23.490700
526.000000	23.175900
525.000000	22.833500
524.000000	22.513400
523.000000	22.178700
522.000000	21.814500
521.000000	21.488400
520.000000	21.156800
519.000000	20.825000
518.000000	20.477600
517.000000	20.126000
516.000000	19.785800
515.000000	19.484800
514.000000	19.149300
513.000000	18.826200
512.000000	18.511600
511.000000	18.207900
510.000000	17.916500
509.000000	17.582800
508.000000	17.314000
507.000000	17.036700
506.000000	16.761100
505.000000	16.520000
504.000000	16.262300
503.000000	16.006200
502.000000	15.785800
501.000000	15.537100
500.000000	15.296500
499.000000	15.091600
498.000000	14.898100
497.000000	14.728100
496.000000	14.539600
495.000000	14.352900
494.000000	14.194700
493.000000	14.019900
492.000000	13.860600
491.000000	13.708000
490.000000	13.579900
489.000000	13.454700
488.000000	13.330500
487.000000	13.212800
486.000000	13.085900
485.000000	12.986500
484.000000	12.871300
483.000000	12.752000
482.000000	12.640000
481.000000	12.530100
480.000000	12.407200
479.000000	12.281000
478.000000	12.176400
477.000000	12.080800
476.000000	11.991100
475.000000	11.880500
474.000000	11.778400
473.000000	11.688800
472.000000	11.600300
471.000000	11.504500
470.000000	11.434800
469.000000	11.349300
468.000000	11.267500
467.000000	11.202500
466.000000	11.126000
465.000000	11.048400
464.000000	11.003300
463.000000	10.962800
462.000000	10.880800
461.000000	10.824100
460.000000	10.769100
459.000000	10.708400
458.000000	10.681500
457.000000	10.605800
456.000000	10.551900
455.000000	10.532800
454.000000	10.480700
453.000000	10.440200
452.000000	10.374100
451.000000	10.322100
450.000000	10.286100
449.000000	10.247000
448.000000	10.187100
447.000000	10.144800
446.000000	10.101700
445.000000	10.035800
444.000000	9.999500
443.000000	9.942900
442.000000	9.905800
441.000000	9.855300
440.000000	9.797300
439.000000	9.739300
438.000000	9.685200
437.000000	9.620700
436.000000	9.561400
435.000000	9.502800
434.000000	9.447500
433.000000	9.404400
432.000000	9.321600
431.000000	9.252800
430.000000	9.204300
429.000000	9.154600
428.000000	9.080200
427.000000	9.019400
426.000000	8.957100
425.000000	8.878400
424.000000	8.815200
423.000000	8.737100
422.000000	8.671500
421.000000	8.609500
420.000000	8.547400
419.000000	8.463000
418.000000	8.404500
417.000000	8.338800
416.000000	8.255300
415.000000	8.174000
414.000000	8.097500
413.000000	8.030300
412.000000	7.936600
411.000000	7.842700
410.000000	7.762800
409.000000	7.697200
408.000000	7.610000
407.000000	7.542400
406.000000	7.454600
405.000000	7.375100
404.000000	7.306700
403.000000	7.233800
402.000000	7.118900
401.000000	7.027600
400.000000	6.977400
399.000000	6.915100
398.000000	6.814000
397.000000	6.741600
396.000000	6.648400
395.000000	6.593000
394.000000	6.517900
393.000000	6.430700
392.000000	6.334400
391.000000	6.303800
390.000000	6.214800
389.000000	6.123300
388.000000	6.061200
387.000000	6.001500
386.000000	5.927800
385.000000	5.869300
384.000000	5.785600
383.000000	5.720300
382.000000	5.670400
381.000000	5.598300
380.000000	5.534500
379.000000	5.470000
378.000000	5.437000
377.000000	5.414000
376.000000	5.268700
375.000000	4.963700
374.000000	4.763800
373.000000	4.813300
372.000000	4.850500
371.000000	4.866400
370.000000	4.805100
369.000000	4.772400
368.000000	4.860600
367.000000	4.839200
366.000000	4.698500
365.000000	4.690000
364.000000	4.748900
363.000000	4.684300
362.000000	4.577400
361.000000	4.689600
360.000000	4.672500
359.000000	4.704200
358.000000	4.840000
357.000000	4.851600
356.000000	4.749500
355.000000	4.686200
354.000000	4.640600
353.000000	4.599600
352.000000	4.622400
351.000000	4.630000
350.000000	4.504400
349.000000	4.508600
348.000000	4.599400
347.000000	4.615500
346.000000	4.632200
345.000000	4.594200
344.000000	4.640800
343.000000	4.711700
342.000000	4.642100
341.000000	4.516800
340.000000	4.751200
339.000000	4.915400
338.000000	4.883400
337.000000	4.804600
336.000000	4.822000
335.000000	4.800900
334.000000	4.914600
333.000000	5.000800
332.000000	5.057200
331.000000	4.917600
330.000000	4.633700
329.000000	4.982900
328.000000	4.877400
327.000000	4.679400
326.000000	4.707900
325.000000	4.762800
324.000000	4.930000
323.000000	5.055200
322.000000	5.200400
321.000000	5.037100
320.000000	5.067500
319.000000	5.464500
318.000000	5.253500
317.000000	5.437800
316.000000	5.105400
315.000000	4.546800
314.000000	4.525700
313.000000	4.474200
312.000000	4.484600
311.000000	4.514300
310.000000	4.537900
309.000000	4.520400
308.000000	4.502500
307.000000	4.523800
306.000000	4.527300
305.000000	4.529000
304.000000	4.495100
303.000000	4.512300
302.000000	4.553200
301.000000	4.539600
300.000000	4.513800
299.000000	4.506700
298.000000	4.511800
297.000000	4.522400
296.000000	4.549100
295.000000	4.553600
294.000000	4.550700
293.000000	4.525800
292.000000	4.524800
291.000000	4.549200
290.000000	4.534800
289.000000	4.532100
288.000000	4.547500
287.000000	4.555500
286.000000	4.530000
285.000000	4.510000
284.000000	4.544300
283.000000	4.550100
282.000000	4.577100
281.000000	4.591200
280.000000	4.561800
279.000000	4.592100
278.000000	4.601800
277.000000	4.603000
276.000000	4.624500
275.000000	4.603400
274.000000	4.610200
273.000000	4.662400
272.000000	4.670000
271.000000	4.650000
270.000000	4.655400
269.000000	4.650800
268.000000	4.686700
267.000000	4.698800
266.000000	4.708800
265.000000	4.749300
264.000000	4.742300
263.000000	4.775700
262.000000	4.805400
261.000000	4.813300
260.000000	4.828500
259.000000	4.848400
258.000000	4.868900
257.000000	4.878400
256.000000	4.909400
255.000000	4.890300
254.000000	4.912700
253.000000	4.942500
252.000000	4.942600
251.000000	4.935200
250.000000	4.909800
