PE UV       SUBTECH     SPECTRUM    ASCII       PEDS        4.00        
   -1
CICIMAUCR0098-3.Sample.ASC
24/04/18
13:56:50.00
24/04/18
13:56:50.00
Vinicio Soto Monge
C. cupreomarginata
250,000000
1
Lambda 1050
1050L1511233
PerkinElmer UV WinLab 6.3.2.0749 / 2.02.05 Lambda 900 UV/VIS/NIR, Aug  7 2015 09:38:08

0
0
3350/servo 860,8/2
0
0
UV/VIS
1
1
1
DoubleDePol,CommonBeamDepol,RBeamAtt,SBeamAtt,60mm sphere, WB InGaAs Detector
0
0
0
0
Program
Program
3350/servo 860,8/2
3350/0,2 860,8/0,2
3350/0,2 860,8/0,2
0
15.00
 
 
 
0
 
860,8
319,2
860,8
Front
100
on
S:100 R:100
0
0
0
0
 
0
 
 
 
0
 
 
0
0
0
0
0
 
 
 
 
0
0


0
0
#HDR
-1
-1
#GR
nm
%R
1.0
0.0
2500,000000
-1,000000
2251
8
63,481300
4,596200
#DATA
2482.000000	15.077225
2481.000000	15.065552
2480.000000	15.074383
2479.000000	15.074079
2478.000000	15.074180
2477.000000	15.129399
2476.000000	15.118639
2475.000000	15.168377
2474.000000	15.196290
2473.000000	15.231208
2472.000000	15.195681
2471.000000	15.235268
2470.000000	15.248261
2469.000000	15.296983
2468.000000	15.347025
2467.000000	15.392195
2466.000000	15.454316
2465.000000	15.480707
2464.000000	15.514305
2463.000000	15.565057
2462.000000	15.626468
2461.000000	15.687168
2460.000000	15.721882
2459.000000	15.830594
2458.000000	15.884899
2457.000000	15.956866
2456.000000	16.035228
2455.000000	16.106789
2454.000000	16.171752
2453.000000	16.300866
2452.000000	16.393946
2451.000000	16.468755
2450.000000	16.577974
2449.000000	16.663746
2448.000000	16.754897
2447.000000	16.861985
2446.000000	16.962170
2445.000000	17.072607
2444.000000	17.184770
2443.000000	17.286072
2442.000000	17.385445
2441.000000	17.494868
2440.000000	17.579421
2439.000000	17.669354
2438.000000	17.777863
2437.000000	17.892056
2436.000000	17.980162
2435.000000	18.049592
2434.000000	18.147442
2433.000000	18.227022
2432.000000	18.325076
2431.000000	18.403539
2430.000000	18.487991
2429.000000	18.556202
2428.000000	18.636797
2427.000000	18.716783
2426.000000	18.797987
2425.000000	18.856352
2424.000000	18.928623
2423.000000	19.021703
2422.000000	19.108186
2421.000000	19.186141
2420.000000	19.251409
2419.000000	19.318301
2418.000000	19.368545
2417.000000	19.419095
2416.000000	19.476648
2415.000000	19.535927
2414.000000	19.601601
2413.000000	19.646770
2412.000000	19.677222
2411.000000	19.723203
2410.000000	19.766241
2409.000000	19.801768
2408.000000	19.837295
2407.000000	19.875867
2406.000000	19.902258
2405.000000	19.938698
2404.000000	19.984172
2403.000000	20.007721
2402.000000	20.026195
2401.000000	20.051064
2400.000000	20.061215
2399.000000	20.084155
2398.000000	20.107298
2397.000000	20.119072
2396.000000	20.139779
2395.000000	20.151858
2394.000000	20.173986
2393.000000	20.175611
2392.000000	20.188197
2391.000000	20.200682
2390.000000	20.202306
2389.000000	20.217938
2388.000000	20.211645
2387.000000	20.215400
2386.000000	20.209615
2385.000000	20.196825
2384.000000	20.204336
2383.000000	20.214081
2382.000000	20.196927
2381.000000	20.168404
2380.000000	20.154599
2379.000000	20.140490
2378.000000	20.122929
2377.000000	20.105471
2376.000000	20.069944
2375.000000	20.055226
2374.000000	20.048323
2373.000000	20.009346
2372.000000	19.971789
2371.000000	19.947326
2370.000000	19.940728
2369.000000	19.927431
2368.000000	19.901141
2367.000000	19.867137
2366.000000	19.831712
2365.000000	19.802783
2364.000000	19.780148
2363.000000	19.759644
2362.000000	19.736196
2361.000000	19.710109
2360.000000	19.686763
2359.000000	19.661488
2358.000000	19.621597
2357.000000	19.593074
2356.000000	19.570642
2355.000000	19.546280
2354.000000	19.525573
2353.000000	19.506897
2352.000000	19.495528
2351.000000	19.487103
2350.000000	19.491265
2349.000000	19.484870
2348.000000	19.479389
2347.000000	19.475126
2346.000000	19.476242
2345.000000	19.469137
2344.000000	19.481926
2343.000000	19.481419
2342.000000	19.485276
2341.000000	19.504359
2340.000000	19.503344
2339.000000	19.483347
2338.000000	19.483956
2337.000000	19.479287
2336.000000	19.472283
2335.000000	19.476445
2334.000000	19.460813
2333.000000	19.460610
2332.000000	19.466802
2331.000000	19.456246
2330.000000	19.431681
2329.000000	19.416151
2328.000000	19.404580
2327.000000	19.393719
2326.000000	19.393211
2325.000000	19.376666
2324.000000	19.342966
2323.000000	19.304394
2322.000000	19.280947
2321.000000	19.244304
2320.000000	19.195480
2319.000000	19.156400
2318.000000	19.113870
2317.000000	19.043121
2316.000000	18.970037
2315.000000	18.891777
2314.000000	18.835747
2313.000000	18.758603
2312.000000	18.694858
2311.000000	18.633447
2310.000000	18.547879
2309.000000	18.505856
2308.000000	18.452566
2307.000000	18.391257
2306.000000	18.371565
2305.000000	18.343448
2304.000000	18.320508
2303.000000	18.311880
2302.000000	18.302745
2301.000000	18.309444
2300.000000	18.332283
2299.000000	18.346493
2298.000000	18.374610
2297.000000	18.403234
2296.000000	18.438254
2295.000000	18.475303
2294.000000	18.486265
2293.000000	18.515600
2292.000000	18.560770
2291.000000	18.595586
2290.000000	18.609797
2289.000000	18.630707
2288.000000	18.651109
2287.000000	18.690899
2286.000000	18.715869
2285.000000	18.721554
2284.000000	18.731501
2283.000000	18.751802
2282.000000	18.763881
2281.000000	18.753832
2280.000000	18.776569
2279.000000	18.785908
2278.000000	18.786618
2277.000000	18.787024
2276.000000	18.789562
2275.000000	18.784385
2274.000000	18.804585
2273.000000	18.820013
2272.000000	18.827322
2271.000000	18.854829
2270.000000	18.895330
2269.000000	18.926898
2268.000000	18.979071
2267.000000	19.066061
2266.000000	19.148280
2265.000000	19.223089
2264.000000	19.339820
2263.000000	19.447922
2262.000000	19.587187
2261.000000	19.746448
2260.000000	19.902359
2259.000000	20.068117
2258.000000	20.257017
2257.000000	20.433636
2256.000000	20.646593
2255.000000	20.822095
2254.000000	20.996582
2253.000000	21.197967
2252.000000	21.393060
2251.000000	21.576580
2250.000000	21.738481
2249.000000	21.902817
2248.000000	22.081465
2247.000000	22.228241
2246.000000	22.363852
2245.000000	22.463733
2244.000000	22.583711
2243.000000	22.694453
2242.000000	22.801135
2241.000000	22.890358
2240.000000	22.932584
2239.000000	23.024953
2238.000000	23.057942
2237.000000	23.116206
2236.000000	23.165639
2235.000000	23.188173
2234.000000	23.179443
2233.000000	23.186549
2232.000000	23.192538
2231.000000	23.172440
2230.000000	23.151124
2229.000000	23.130721
2228.000000	23.091845
2227.000000	23.050735
2226.000000	23.003942
2225.000000	22.955625
2224.000000	22.903046
2223.000000	22.859399
2222.000000	22.780935
2221.000000	22.716175
2220.000000	22.625836
2219.000000	22.564426
2218.000000	22.487282
2217.000000	22.403236
2216.000000	22.336243
2215.000000	22.261332
2214.000000	22.197181
2213.000000	22.139831
2212.000000	22.047055
2211.000000	21.975190
2210.000000	21.927280
2209.000000	21.890332
2208.000000	21.830952
2207.000000	21.748834
2206.000000	21.700822
2205.000000	21.676563
2204.000000	21.641746
2203.000000	21.605103
2202.000000	21.574652
2201.000000	21.509790
2200.000000	21.503395
2199.000000	21.470812
2198.000000	21.433763
2197.000000	21.422496
2196.000000	21.407778
2195.000000	21.390217
2194.000000	21.359157
2193.000000	21.343627
2192.000000	21.340988
2191.000000	21.315104
2190.000000	21.312160
2189.000000	21.289017
2188.000000	21.276126
2187.000000	21.256333
2186.000000	21.250141
2185.000000	21.248111
2184.000000	21.229434
2183.000000	21.202231
2182.000000	21.186193
2181.000000	21.182133
2180.000000	21.176753
2179.000000	21.153711
2178.000000	21.129858
2177.000000	21.123564
2176.000000	21.141023
2175.000000	21.128436
2174.000000	21.141328
2173.000000	21.146301
2172.000000	21.160715
2171.000000	21.173606
2170.000000	21.198373
2169.000000	21.213904
2168.000000	21.242426
2167.000000	21.272167
2166.000000	21.302314
2165.000000	21.351849
2164.000000	21.398439
2163.000000	21.445639
2162.000000	21.486546
2161.000000	21.546332
2160.000000	21.600434
2159.000000	21.677882
2158.000000	21.747921
2157.000000	21.824557
2156.000000	21.893479
2155.000000	21.986457
2154.000000	22.062890
2153.000000	22.160538
2152.000000	22.266407
2151.000000	22.365679
2150.000000	22.455409
2149.000000	22.541485
2148.000000	22.659840
2147.000000	22.756067
2146.000000	22.859805
2145.000000	22.959279
2144.000000	23.055810
2143.000000	23.129198
2142.000000	23.232835
2141.000000	23.338400
2140.000000	23.422344
2139.000000	23.525270
2138.000000	23.623933
2137.000000	23.708893
2136.000000	23.795781
2135.000000	23.890688
2134.000000	23.967832
2133.000000	24.037159
2132.000000	24.116739
2131.000000	24.194187
2130.000000	24.248391
2129.000000	24.310106
2128.000000	24.371922
2127.000000	24.425009
2126.000000	24.478502
2125.000000	24.527123
2124.000000	24.563157
2123.000000	24.598989
2122.000000	24.646087
2121.000000	24.683035
2120.000000	24.711355
2119.000000	24.746780
2118.000000	24.765558
2117.000000	24.785047
2116.000000	24.806465
2115.000000	24.802607
2114.000000	24.816108
2113.000000	24.829506
2112.000000	24.843006
2111.000000	24.843818
2110.000000	24.851330
2109.000000	24.865642
2108.000000	24.855085
2107.000000	24.842296
2106.000000	24.848589
2105.000000	24.855288
2104.000000	24.854984
2103.000000	24.850112
2102.000000	24.838439
2101.000000	24.824634
2100.000000	24.819559
2099.000000	24.821183
2098.000000	24.830318
2097.000000	24.819254
2096.000000	24.804231
2095.000000	24.814585
2094.000000	24.806769
2093.000000	24.795096
2092.000000	24.796416
2091.000000	24.799765
2090.000000	24.805957
2089.000000	24.802506
2088.000000	24.788803
2087.000000	24.787382
2086.000000	24.776825
2085.000000	24.750535
2084.000000	24.731148
2083.000000	24.699986
2082.000000	24.660298
2081.000000	24.611677
2080.000000	24.551180
2079.000000	24.491292
2078.000000	24.430186
2077.000000	24.370603
2076.000000	24.287876
2075.000000	24.194086
2074.000000	24.102122
2073.000000	24.013306
2072.000000	23.907538
2071.000000	23.803800
2070.000000	23.706051
2069.000000	23.608910
2068.000000	23.483450
2067.000000	23.372912
2066.000000	23.277396
2065.000000	23.171729
2064.000000	23.061089
2063.000000	22.938166
2062.000000	22.855744
2061.000000	22.795146
2060.000000	22.718104
2059.000000	22.636189
2058.000000	22.590512
2057.000000	22.547576
2056.000000	22.511338
2055.000000	22.521083
2054.000000	22.530624
2053.000000	22.541384
2052.000000	22.598531
2051.000000	22.664509
2050.000000	22.763477
2049.000000	22.868027
2048.000000	22.973693
2047.000000	23.110319
2046.000000	23.258110
2045.000000	23.408743
2044.000000	23.558868
2043.000000	23.713968
2042.000000	23.870184
2041.000000	24.024065
2040.000000	24.195101
2039.000000	24.352738
2038.000000	24.495657
2037.000000	24.622436
2036.000000	24.771344
2035.000000	24.911116
2034.000000	25.027339
2033.000000	25.141025
2032.000000	25.268515
2031.000000	25.369309
2030.000000	25.454776
2029.000000	25.557905
2028.000000	25.642458
2027.000000	25.740512
2026.000000	25.801314
2025.000000	25.883329
2024.000000	25.950627
2023.000000	26.034064
2022.000000	26.090196
2021.000000	26.139020
2020.000000	26.192412
2019.000000	26.231593
2018.000000	26.297875
2017.000000	26.334721
2016.000000	26.347816
2015.000000	26.375831
2014.000000	26.411662
2013.000000	26.432166
2012.000000	26.447493
2011.000000	26.454903
2010.000000	26.473986
2009.000000	26.463937
2008.000000	26.459268
2007.000000	26.445057
2006.000000	26.440591
2005.000000	26.429019
2004.000000	26.404354
2003.000000	26.370045
2002.000000	26.324469
2001.000000	26.297368
2000.000000	26.250472
1999.000000	26.182261
1998.000000	26.137701
1997.000000	26.091922
1996.000000	26.040763
1995.000000	25.964330
1994.000000	25.900484
1993.000000	25.833186
1992.000000	25.770050
1991.000000	25.692805
1990.000000	25.619721
1989.000000	25.546739
1988.000000	25.464622
1987.000000	25.361290
1986.000000	25.282218
1985.000000	25.204161
1984.000000	25.112197
1983.000000	25.027948
1982.000000	24.965523
1981.000000	24.862394
1980.000000	24.794487
1979.000000	24.700189
1978.000000	24.610560
1977.000000	24.542247
1976.000000	24.457795
1975.000000	24.395370
1974.000000	24.306046
1973.000000	24.238646
1972.000000	24.173074
1971.000000	24.107705
1970.000000	24.008738
1969.000000	23.937380
1968.000000	23.853131
1967.000000	23.815168
1966.000000	23.758427
1965.000000	23.654588
1964.000000	23.620482
1963.000000	23.532173
1962.000000	23.459901
1961.000000	23.389254
1960.000000	23.314546
1959.000000	23.222278
1958.000000	23.151428
1957.000000	23.100676
1956.000000	23.009220
1955.000000	22.929437
1954.000000	22.844985
1953.000000	22.767638
1952.000000	22.661363
1951.000000	22.617817
1950.000000	22.550925
1949.000000	22.509613
1948.000000	22.444244
1947.000000	22.381514
1946.000000	22.318276
1945.000000	22.282750
1944.000000	22.240422
1943.000000	22.185711
1942.000000	22.184696
1941.000000	22.175865
1940.000000	22.155158
1939.000000	22.141049
1938.000000	22.125011
1937.000000	22.122575
1936.000000	22.145515
1935.000000	22.149271
1934.000000	22.193730
1933.000000	22.241843
1932.000000	22.317870
1931.000000	22.380803
1930.000000	22.448507
1929.000000	22.536715
1928.000000	22.643904
1927.000000	22.732213
1926.000000	22.826207
1925.000000	22.966689
1924.000000	23.128285
1923.000000	23.263185
1922.000000	23.411686
1921.000000	23.594294
1920.000000	23.784920
1919.000000	23.980317
1918.000000	24.179774
1917.000000	24.387250
1916.000000	24.610459
1915.000000	24.853867
1914.000000	25.129656
1913.000000	25.414377
1912.000000	25.700621
1911.000000	25.965751
1910.000000	26.271585
1909.000000	26.562194
1908.000000	26.875336
1907.000000	27.249686
1906.000000	27.675194
1905.000000	28.104560
1904.000000	28.489872
1903.000000	28.881377
1902.000000	29.332667
1901.000000	29.743559
1900.000000	30.198402
1899.000000	30.700648
1898.000000	31.162089
1897.000000	31.645861
1896.000000	32.076445
1895.000000	32.514641
1894.000000	32.988567
1893.000000	33.493757
1892.000000	34.009807
1891.000000	34.533572
1890.000000	35.016532
1889.000000	35.452293
1888.000000	35.913328
1887.000000	36.346855
1886.000000	36.784036
1885.000000	37.217360
1884.000000	37.655151
1883.000000	38.052948
1882.000000	38.420396
1881.000000	38.760945
1880.000000	39.071752
1879.000000	39.377485
1878.000000	39.671139
1877.000000	39.940837
1876.000000	40.206374
1875.000000	40.467241
1874.000000	40.725368
1873.000000	40.949186
1872.000000	41.161534
1871.000000	41.351856
1870.000000	41.474575
1869.000000	41.600847
1868.000000	41.737879
1867.000000	41.817560
1866.000000	41.866485
1865.000000	41.922211
1864.000000	41.991539
1863.000000	42.059548
1862.000000	42.142376
1861.000000	42.243677
1860.000000	42.328332
1859.000000	42.384160
1858.000000	42.428112
1857.000000	42.461202
1856.000000	42.480793
1855.000000	42.509011
1854.000000	42.548902
1853.000000	42.535301
1852.000000	42.519365
1851.000000	42.566970
1850.000000	42.617317
1849.000000	42.663907
1848.000000	42.676189
1847.000000	42.656904
1846.000000	42.599553
1845.000000	42.539158
1844.000000	42.496830
1843.000000	42.521090
1842.000000	42.567275
1841.000000	42.565549
1840.000000	42.538955
1839.000000	42.504849
1838.000000	42.470033
1837.000000	42.448920
1836.000000	42.394818
1835.000000	42.319603
1834.000000	42.255452
1833.000000	42.206324
1832.000000	42.170391
1831.000000	42.147755
1830.000000	42.123902
1829.000000	42.084010
1828.000000	42.034273
1827.000000	41.993671
1826.000000	41.972152
1825.000000	41.927896
1824.000000	41.905159
1823.000000	41.929317
1822.000000	41.958956
1821.000000	41.986058
1820.000000	41.976415
1819.000000	41.899982
1818.000000	41.860598
1817.000000	41.875215
1816.000000	41.893587
1815.000000	41.870647
1814.000000	41.835222
1813.000000	41.838673
1812.000000	41.841820
1811.000000	41.814616
1810.000000	41.761225
1809.000000	41.729454
1808.000000	41.718187
1807.000000	41.713822
1806.000000	41.696972
1805.000000	41.650788
1804.000000	41.609577
1803.000000	41.599426
1802.000000	41.594757
1801.000000	41.571817
1800.000000	41.522384
1799.000000	41.491323
1798.000000	41.472850
1797.000000	41.449503
1796.000000	41.430319
1795.000000	41.416413
1794.000000	41.399563
1793.000000	41.368604
1792.000000	41.348811
1791.000000	41.335920
1790.000000	41.314096
1789.000000	41.296231
1788.000000	41.284355
1787.000000	41.286487
1786.000000	41.267708
1785.000000	41.252483
1784.000000	41.229441
1783.000000	41.199192
1782.000000	41.182241
1781.000000	41.177166
1780.000000	41.137884
1779.000000	41.100124
1778.000000	41.066932
1777.000000	41.001563
1776.000000	40.945024
1775.000000	40.903204
1774.000000	40.847377
1773.000000	40.784139
1772.000000	40.723338
1771.000000	40.658984
1770.000000	40.588235
1769.000000	40.539919
1768.000000	40.472722
1767.000000	40.416895
1766.000000	40.382383
1765.000000	40.330006
1764.000000	40.285141
1763.000000	40.260679
1762.000000	40.242915
1761.000000	40.219874
1760.000000	40.210129
1759.000000	40.186174
1758.000000	40.169324
1757.000000	40.153896
1756.000000	40.142933
1755.000000	40.127707
1754.000000	40.109335
1753.000000	40.074011
1752.000000	40.052898
1751.000000	40.014732
1750.000000	39.976567
1749.000000	39.911299
1748.000000	39.852528
1747.000000	39.793553
1746.000000	39.704229
1745.000000	39.637033
1744.000000	39.562224
1743.000000	39.465693
1742.000000	39.385301
1741.000000	39.290800
1740.000000	39.190919
1739.000000	39.108396
1738.000000	39.023335
1737.000000	38.964056
1736.000000	38.914420
1735.000000	38.890363
1734.000000	38.866611
1733.000000	38.860825
1732.000000	38.840524
1731.000000	38.841235
1730.000000	38.841235
1729.000000	38.851182
1728.000000	38.847528
1727.000000	38.845600
1726.000000	38.856562
1725.000000	38.855446
1724.000000	38.875036
1723.000000	38.906300
1722.000000	38.974917
1721.000000	39.049117
1720.000000	39.164832
1719.000000	39.310796
1718.000000	39.458790
1717.000000	39.622721
1716.000000	39.772745
1715.000000	39.940735
1714.000000	40.079594
1713.000000	40.213783
1712.000000	40.309909
1711.000000	40.425015
1710.000000	40.494241
1709.000000	40.564483
1708.000000	40.635739
1707.000000	40.675935
1706.000000	40.710548
1705.000000	40.706386
1704.000000	40.713086
1703.000000	40.698977
1702.000000	40.675021
1701.000000	40.612596
1700.000000	40.582855
1699.000000	40.553520
1698.000000	40.524896
1697.000000	40.522358
1696.000000	40.474042
1695.000000	40.469373
1694.000000	40.468256
1693.000000	40.447752
1692.000000	40.459324
1691.000000	40.456786
1690.000000	40.443184
1689.000000	40.484700
1688.000000	40.513223
1687.000000	40.603258
1686.000000	40.722932
1685.000000	40.890212
1684.000000	41.082056
1683.000000	41.274205
1682.000000	41.520557
1681.000000	41.773202
1680.000000	42.021483
1679.000000	42.284990
1678.000000	42.517639
1677.000000	42.766427
1676.000000	42.984561
1675.000000	43.189296
1674.000000	43.375964
1673.000000	43.568011
1672.000000	43.768280
1671.000000	43.947030
1670.000000	44.142427
1669.000000	44.317523
1668.000000	44.482570
1667.000000	44.670557
1666.000000	44.823626
1665.000000	44.959947
1664.000000	45.088351
1663.000000	45.211374
1662.000000	45.331759
1661.000000	45.429508
1660.000000	45.555374
1659.000000	45.634345
1658.000000	45.703064
1657.000000	45.762647
1656.000000	45.830859
1655.000000	45.868923
1654.000000	45.924852
1653.000000	45.937033
1652.000000	45.942412
1651.000000	45.966266
1650.000000	45.970732
1649.000000	45.985755
1648.000000	45.957638
1647.000000	45.941905
1646.000000	45.950736
1645.000000	45.938758
1644.000000	45.914905
1643.000000	45.908307
1642.000000	45.896735
1641.000000	45.878160
1640.000000	45.861716
1639.000000	45.870344
1638.000000	45.847099
1637.000000	45.835122
1636.000000	45.814212
1635.000000	45.803554
1634.000000	45.782035
1633.000000	45.753106
1632.000000	45.715448
1631.000000	45.686113
1630.000000	45.655560
1629.000000	45.618612
1628.000000	45.547863
1627.000000	45.505434
1626.000000	45.483813
1625.000000	45.442501
1624.000000	45.412659
1623.000000	45.367996
1622.000000	45.347594
1621.000000	45.316635
1620.000000	45.293187
1619.000000	45.269537
1618.000000	45.222946
1617.000000	45.198889
1616.000000	45.180213
1615.000000	45.130069
1614.000000	45.111291
1613.000000	45.078200
1612.000000	45.029376
1611.000000	44.986643
1610.000000	44.936499
1609.000000	44.887980
1608.000000	44.834792
1607.000000	44.791550
1606.000000	44.736941
1605.000000	44.665583
1604.000000	44.602954
1603.000000	44.531191
1602.000000	44.468156
1601.000000	44.402685
1600.000000	44.340463
1599.000000	44.276312
1598.000000	44.200386
1597.000000	44.136337
1596.000000	44.089035
1595.000000	44.038385
1594.000000	43.976162
1593.000000	43.924395
1592.000000	43.886026
1591.000000	43.835679
1590.000000	43.790205
1589.000000	43.742396
1588.000000	43.699561
1587.000000	43.670125
1586.000000	43.629929
1585.000000	43.582729
1584.000000	43.551669
1583.000000	43.519796
1582.000000	43.485691
1581.000000	43.442653
1580.000000	43.404385
1579.000000	43.385302
1578.000000	43.368656
1577.000000	43.359825
1576.000000	43.349370
1575.000000	43.346934
1574.000000	43.346426
1573.000000	43.355967
1572.000000	43.374441
1571.000000	43.387434
1570.000000	43.409968
1569.000000	43.436359
1568.000000	43.456356
1567.000000	43.485691
1566.000000	43.517969
1565.000000	43.542330
1564.000000	43.557455
1563.000000	43.578466
1562.000000	43.596331
1561.000000	43.592981
1560.000000	43.585267
1559.000000	43.572274
1558.000000	43.545985
1557.000000	43.517563
1556.000000	43.488533
1555.000000	43.457472
1554.000000	43.398193
1553.000000	43.339219
1552.000000	43.291106
1551.000000	43.213455
1550.000000	43.131946
1549.000000	43.064852
1548.000000	43.001513
1547.000000	42.935737
1546.000000	42.865395
1545.000000	42.806826
1544.000000	42.777187
1543.000000	42.736585
1542.000000	42.691821
1541.000000	42.675682
1540.000000	42.643403
1539.000000	42.611429
1538.000000	42.585140
1537.000000	42.571944
1536.000000	42.557733
1535.000000	42.533372
1534.000000	42.494191
1533.000000	42.464958
1532.000000	42.443946
1531.000000	42.414408
1530.000000	42.373604
1529.000000	42.334423
1528.000000	42.302753
1527.000000	42.267531
1526.000000	42.229670
1525.000000	42.181049
1524.000000	42.145928
1523.000000	42.106138
1522.000000	42.051123
1521.000000	42.010622
1520.000000	41.971238
1519.000000	41.935915
1518.000000	41.896632
1517.000000	41.846692
1516.000000	41.797868
1515.000000	41.763762
1514.000000	41.705499
1513.000000	41.656573
1512.000000	41.619423
1511.000000	41.575674
1510.000000	41.533245
1509.000000	41.501677
1508.000000	41.455289
1507.000000	41.413469
1506.000000	41.362311
1505.000000	41.334600
1504.000000	41.303336
1503.000000	41.262430
1502.000000	41.223858
1501.000000	41.196655
1500.000000	41.156459
1499.000000	41.161534
1498.000000	41.159200
1497.000000	41.149252
1496.000000	41.150978
1495.000000	41.159910
1494.000000	41.175339
1493.000000	41.189550
1492.000000	41.223858
1491.000000	41.256238
1490.000000	41.296333
1489.000000	41.335615
1488.000000	41.376623
1487.000000	41.433669
1486.000000	41.474575
1485.000000	41.502692
1484.000000	41.550805
1483.000000	41.600847
1482.000000	41.659314
1481.000000	41.708848
1480.000000	41.742345
1479.000000	41.791879
1478.000000	41.849230
1477.000000	41.899373
1476.000000	41.934798
1475.000000	41.978750
1474.000000	42.075179
1473.000000	42.153947
1472.000000	42.218301
1471.000000	42.304174
1470.000000	42.348329
1469.000000	42.380912
1468.000000	42.449123
1467.000000	42.545857
1466.000000	42.631933
1465.000000	42.694156
1464.000000	42.756784
1463.000000	42.847022
1462.000000	42.926805
1461.000000	43.021306
1460.000000	43.107484
1459.000000	43.161992
1458.000000	43.264207
1457.000000	43.371193
1456.000000	43.467826
1455.000000	43.564864
1454.000000	43.633786
1453.000000	43.737220
1452.000000	43.863796
1451.000000	43.972305
1450.000000	44.057467
1449.000000	44.094314
1448.000000	44.171559
1447.000000	44.325440
1446.000000	44.449276
1445.000000	44.525202
1444.000000	44.598590
1443.000000	44.693598
1442.000000	44.812968
1441.000000	44.930815
1440.000000	45.007350
1439.000000	45.142250
1438.000000	45.247612
1437.000000	45.357440
1436.000000	45.455900
1435.000000	45.589480
1434.000000	45.752903
1433.000000	45.883032
1432.000000	46.020470
1431.000000	46.133648
1430.000000	46.262457
1429.000000	46.431463
1428.000000	46.634168
1427.000000	46.772621
1426.000000	46.949036
1425.000000	47.144839
1424.000000	47.358303
1423.000000	47.568114
1422.000000	47.745646
1421.000000	47.965201
1420.000000	48.213888
1419.000000	48.496579
1418.000000	48.696543
1417.000000	48.881079
1416.000000	49.150778
1415.000000	49.445243
1414.000000	49.771784
1413.000000	49.992760
1412.000000	50.224293
1411.000000	50.501096
1410.000000	50.858495
1409.000000	51.240559
1408.000000	51.488942
1407.000000	51.796806
1406.000000	52.073813
1405.000000	52.424613
1404.000000	52.639296
1403.000000	52.954367
1402.000000	53.222746
1401.000000	53.629679
1400.000000	53.929626
1399.000000	54.100052
1398.000000	54.246321
1397.000000	54.515613
1396.000000	54.864485
1395.000000	55.142812
1394.000000	55.267459
1393.000000	55.450371
1392.000000	55.704742
1391.000000	55.888872
1390.000000	56.057472
1389.000000	56.309001
1388.000000	56.648027
1387.000000	56.822514
1386.000000	57.029584
1385.000000	57.274109
1384.000000	57.559134
1383.000000	57.718700
1382.000000	57.894100
1381.000000	57.988297
1380.000000	58.001898
1379.000000	58.133449
1378.000000	58.204807
1377.000000	58.296567
1376.000000	58.390865
1375.000000	58.473896
1374.000000	58.578954
1373.000000	58.737809
1372.000000	58.862964
1371.000000	58.993296
1370.000000	59.108910
1369.000000	59.226554
1368.000000	59.353943
1367.000000	59.418500
1366.000000	59.497978
1365.000000	59.620190
1364.000000	59.714488
1363.000000	59.769504
1362.000000	59.897298
1361.000000	59.987739
1360.000000	59.989871
1359.000000	60.013623
1358.000000	60.074424
1357.000000	60.141621
1356.000000	60.219475
1355.000000	60.347472
1354.000000	60.465015
1353.000000	60.549670
1352.000000	60.676247
1351.000000	60.830839
1350.000000	60.977107
1349.000000	61.117387
1348.000000	61.279185
1347.000000	61.396424
1346.000000	61.468593
1345.000000	61.606640
1344.000000	61.764683
1343.000000	61.868726
1342.000000	61.972971
1341.000000	62.096299
1340.000000	62.192018
1339.000000	62.276877
1338.000000	62.373611
1337.000000	62.468010
1336.000000	62.547894
1335.000000	62.630215
1334.000000	62.688783
1333.000000	62.768160
1332.000000	62.848552
1331.000000	62.905090
1330.000000	62.951275
1329.000000	63.004463
1328.000000	63.051156
1327.000000	63.099878
1326.000000	63.150123
1325.000000	63.187578
1324.000000	63.229195
1323.000000	63.275177
1322.000000	63.309587
1321.000000	63.330801
1320.000000	63.370185
1319.000000	63.409671
1318.000000	63.424287
1317.000000	63.459408
1316.000000	63.493717
1315.000000	63.522341
1314.000000	63.548834
1313.000000	63.576545
1312.000000	63.603037
1311.000000	63.627906
1310.000000	63.646887
1309.000000	63.663737
1308.000000	63.678354
1307.000000	63.698249
1306.000000	63.700787
1305.000000	63.701903
1304.000000	63.705862
1303.000000	63.710531
1302.000000	63.712866
1301.000000	63.717636
1300.000000	63.714794
1299.000000	63.713373
1298.000000	63.717738
1297.000000	63.718144
1296.000000	63.717941
1295.000000	63.711242
1294.000000	63.697944
1293.000000	63.683023
1292.000000	63.670538
1291.000000	63.668711
1290.000000	63.666884
1289.000000	63.658357
1288.000000	63.655718
1287.000000	63.636534
1286.000000	63.622425
1285.000000	63.604763
1284.000000	63.568729
1283.000000	63.548123
1282.000000	63.531273
1281.000000	63.511277
1280.000000	63.514525
1279.000000	63.509957
1278.000000	63.486104
1277.000000	63.465701
1276.000000	63.451491
1275.000000	63.455551
1274.000000	63.466615
1273.000000	63.466412
1272.000000	63.478592
1271.000000	63.497878
1270.000000	63.510465
1269.000000	63.526909
1268.000000	63.539901
1267.000000	63.554011
1266.000000	63.560507
1265.000000	63.564466
1264.000000	63.572484
1263.000000	63.580706
1262.000000	63.581011
1261.000000	63.571063
1260.000000	63.567917
1259.000000	63.577458
1258.000000	63.584563
1257.000000	63.563958
1256.000000	63.553807
1255.000000	63.558984
1254.000000	63.539698
1253.000000	63.532187
1252.000000	63.509856
1251.000000	63.477070
1250.000000	63.449968
1249.000000	63.435757
1248.000000	63.419314
1247.000000	63.378204
1246.000000	63.346027
1245.000000	63.305425
1244.000000	63.260966
1243.000000	63.233763
1242.000000	63.204225
1241.000000	63.163521
1240.000000	63.142002
1239.000000	63.100081
1238.000000	63.058667
1237.000000	63.046689
1236.000000	63.012482
1235.000000	62.990253
1234.000000	62.969343
1233.000000	62.944981
1232.000000	62.915139
1231.000000	62.876669
1230.000000	62.842360
1229.000000	62.813634
1228.000000	62.788867
1227.000000	62.757197
1226.000000	62.714565
1225.000000	62.677212
1224.000000	62.640365
1223.000000	62.607579
1222.000000	62.571241
1221.000000	62.526680
1220.000000	62.496939
1219.000000	62.457454
1218.000000	62.409442
1217.000000	62.352295
1216.000000	62.304993
1215.000000	62.250993
1214.000000	62.217801
1213.000000	62.170702
1212.000000	62.094777
1211.000000	62.036716
1210.000000	61.986776
1209.000000	61.914200
1208.000000	61.851470
1207.000000	61.775747
1206.000000	61.709464
1205.000000	61.657189
1204.000000	61.595373
1203.000000	61.540763
1202.000000	61.456007
1201.000000	61.401600
1200.000000	61.336840
1199.000000	61.270253
1198.000000	61.209147
1197.000000	61.118605
1196.000000	61.033138
1195.000000	60.949295
1194.000000	60.861087
1193.000000	60.758060
1192.000000	60.645592
1191.000000	60.553527
1190.000000	60.485621
1189.000000	60.421368
1188.000000	60.359044
1187.000000	60.355491
1186.000000	60.342499
1185.000000	60.344427
1184.000000	60.397007
1183.000000	60.458925
1182.000000	60.526121
1181.000000	60.563982
1180.000000	60.664980
1179.000000	60.751563
1178.000000	60.830839
1177.000000	60.905242
1176.000000	60.968073
1175.000000	61.040852
1174.000000	61.112311
1173.000000	61.200316
1172.000000	61.257768
1171.000000	61.374092
1170.000000	61.462706
1169.000000	61.554467
1168.000000	61.651708
1167.000000	61.750472
1166.000000	61.850150
1165.000000	61.982716
1164.000000	62.087875
1163.000000	62.201864
1162.000000	62.303166
1161.000000	62.423551
1160.000000	62.530334
1159.000000	62.628388
1158.000000	62.717103
1157.000000	62.799423
1156.000000	62.870984
1155.000000	62.920823
1154.000000	62.997967
1153.000000	63.039279
1152.000000	63.064250
1151.000000	63.091554
1150.000000	63.129314
1149.000000	63.176717
1148.000000	63.188593
1147.000000	63.237315
1146.000000	63.266346
1145.000000	63.316286
1144.000000	63.362674
1143.000000	63.389877
1142.000000	63.451694
1141.000000	63.511784
1140.000000	63.566902
1139.000000	63.646380
1138.000000	63.720478
1137.000000	63.806961
1136.000000	63.935161
1135.000000	64.006824
1134.000000	64.075948
1133.000000	64.106298
1132.000000	64.143449
1131.000000	64.216837
1130.000000	64.291037
1129.000000	64.331944
1128.000000	64.350316
1127.000000	64.363715
1126.000000	64.392745
1125.000000	64.429388
1124.000000	64.432027
1123.000000	64.436595
1122.000000	64.422587
1121.000000	64.414061
1120.000000	64.401982
1119.000000	64.367064
1118.000000	64.370617
1117.000000	64.348489
1116.000000	64.333365
1115.000000	64.291443
1114.000000	64.257642
1113.000000	64.243736
1112.000000	64.220085
1111.000000	64.184457
1110.000000	64.169231
1109.000000	64.147408
1108.000000	64.111475
1107.000000	64.076760
1106.000000	64.058388
1105.000000	64.026516
1104.000000	64.013726
1103.000000	63.983274
1102.000000	63.961654
1101.000000	63.927142
1100.000000	63.902984
1099.000000	63.887251
1098.000000	63.853247
1097.000000	63.840863
1096.000000	63.808686
1095.000000	63.746768
1094.000000	63.726163
1093.000000	63.691550
1092.000000	63.668508
1091.000000	63.629327
1090.000000	63.573804
1089.000000	63.539597
1088.000000	63.493818
1087.000000	63.460017
1086.000000	63.418908
1085.000000	63.395967
1084.000000	63.355061
1083.000000	63.308369
1082.000000	63.266244
1081.000000	63.233864
1080.000000	63.193161
1079.000000	63.143017
1078.000000	63.116728
1077.000000	63.070137
1076.000000	63.018065
1075.000000	62.984365
1074.000000	62.941226
1073.000000	62.896868
1072.000000	62.852308
1071.000000	62.804600
1070.000000	62.753137
1069.000000	62.710708
1068.000000	62.679851
1067.000000	62.624226
1066.000000	62.572154
1065.000000	62.531045
1064.000000	62.485063
1063.000000	62.433296
1062.000000	62.395434
1061.000000	62.341434
1060.000000	62.301339
1059.000000	62.260940
1058.000000	62.203083
1057.000000	62.152838
1056.000000	62.123300
1055.000000	62.086453
1054.000000	62.027987
1053.000000	61.977031
1052.000000	61.938459
1051.000000	61.888722
1050.000000	61.848019
1049.000000	61.807620
1048.000000	61.761841
1047.000000	61.715859
1046.000000	61.670182
1045.000000	61.611512
1044.000000	61.560557
1043.000000	61.529598
1042.000000	61.486357
1041.000000	61.432153
1040.000000	61.380792
1039.000000	61.339581
1038.000000	61.295020
1037.000000	61.241832
1036.000000	61.193820
1035.000000	61.154131
1034.000000	61.101755
1033.000000	61.060239
1032.000000	61.021871
1031.000000	60.972844
1030.000000	60.912550
1029.000000	60.858042
1028.000000	60.812365
1027.000000	60.750548
1026.000000	60.694315
1025.000000	60.650160
1024.000000	60.594231
1023.000000	60.532211
1022.000000	60.476587
1021.000000	60.421571
1020.000000	60.371123
1019.000000	60.328999
1018.000000	60.262208
1017.000000	60.217851
1016.000000	60.186993
1015.000000	60.133094
1014.000000	60.083560
1013.000000	60.038187
1012.000000	59.984288
1011.000000	59.943280
1010.000000	59.887148
1009.000000	59.848779
1008.000000	59.820053
1007.000000	59.767474
1006.000000	59.725349
1005.000000	59.681398
1004.000000	59.630747
1003.000000	59.596032
1002.000000	59.552893
1001.000000	59.506200
1000.000000	59.439512
999.000000	59.386526
998.000000	59.350289
997.000000	59.307048
996.000000	59.267359
995.000000	59.211938
994.000000	59.157937
993.000000	59.121700
992.000000	59.080997
991.000000	59.028620
990.000000	58.975533
989.000000	58.907423
988.000000	58.860731
987.000000	58.830686
986.000000	58.771610
985.000000	58.716899
984.000000	58.681270
983.000000	58.648586
982.000000	58.608999
981.000000	58.567483
980.000000	58.513280
979.000000	58.469024
978.000000	58.439486
977.000000	58.399797
976.000000	58.341229
975.000000	58.302962
974.000000	58.287635
973.000000	58.256371
972.000000	58.193946
971.000000	58.151720
970.000000	58.139844
969.000000	58.115279
968.000000	58.072444
967.000000	58.053869
966.000000	58.014587
965.000000	57.995707
964.000000	57.981192
963.000000	57.943026
962.000000	57.921304
961.000000	57.913082
960.000000	57.922725
959.000000	57.916025
958.000000	57.885574
957.000000	57.875322
956.000000	57.850961
955.000000	57.866390
954.000000	57.850961
953.000000	57.856442
952.000000	57.827412
951.000000	57.810460
950.000000	57.832284
949.000000	57.805182
948.000000	57.792596
947.000000	57.812795
946.000000	57.797772
945.000000	57.787622
944.000000	57.805791
943.000000	57.806705
942.000000	57.785998
941.000000	57.761738
940.000000	57.788129
939.000000	57.780212
938.000000	57.791885
937.000000	57.800716
936.000000	57.765392
935.000000	57.732809
934.000000	57.717076
933.000000	57.712102
932.000000	57.714640
931.000000	57.697688
930.000000	57.683376
929.000000	57.704388
928.000000	57.659421
927.000000	57.646632
926.000000	57.637496
925.000000	57.642977
924.000000	57.603898
923.000000	57.594154
922.000000	57.574868
921.000000	57.534266
920.000000	57.560860
919.000000	57.525333
918.000000	57.466968
917.000000	57.440881
916.000000	57.456716
915.000000	57.417637
914.000000	57.384851
913.000000	57.355922
912.000000	57.330342
911.000000	57.315218
910.000000	57.311666
909.000000	57.279692
908.000000	57.267917
907.000000	57.236856
906.000000	57.230563
905.000000	57.223458
904.000000	57.219093
903.000000	57.221529
902.000000	57.221123
901.000000	57.211480
900.000000	57.203157
899.000000	57.212089
898.000000	57.220920
897.000000	57.219296
896.000000	57.231477
895.000000	57.233202
894.000000	57.220514
893.000000	57.206710
892.000000	57.207014
891.000000	57.225082
890.000000	57.237059
889.000000	57.267308
888.000000	57.281011
887.000000	57.292684
886.000000	57.319887
885.000000	57.305169
884.000000	57.323339
883.000000	57.344655
882.000000	57.356125
881.000000	57.355211
880.000000	57.383023
879.000000	57.394798
878.000000	57.420682
877.000000	57.429411
876.000000	57.452757
875.000000	57.462299
874.000000	57.497927
873.000000	57.524217
872.000000	57.537717
871.000000	57.556495
870.000000	57.582176
869.000000	57.614861
868.000000	57.629376
867.000000	57.658203
866.000000	57.668658
865.000000	57.661350
864.000000	57.667542
863.000000	57.627346
862.000000	57.576289
861.000000	57.522694
860.000000	57.403020
859.000000	57.229041
858.000000	57.181333
857.000000	57.041600
856.000000	57.300200
855.000000	57.202200
854.000000	57.027400
853.000000	57.465200
852.000000	57.178900
851.000000	57.388300
850.000000	57.152700
849.000000	57.016600
848.000000	57.173200
847.000000	57.159300
846.000000	57.126700
845.000000	57.074400
844.000000	56.907500
843.000000	57.003400
842.000000	56.966900
841.000000	57.114800
840.000000	57.045200
839.000000	56.842700
838.000000	56.845300
837.000000	56.825600
836.000000	56.960900
835.000000	56.917400
834.000000	56.841000
833.000000	56.922400
832.000000	56.842200
831.000000	56.747400
830.000000	56.697900
829.000000	56.630400
828.000000	56.498900
827.000000	56.527500
826.000000	56.492900
825.000000	56.499500
824.000000	56.390600
823.000000	56.313400
822.000000	56.204300
821.000000	56.181400
820.000000	56.094200
819.000000	56.026600
818.000000	55.883200
817.000000	55.788500
816.000000	55.670200
815.000000	55.644500
814.000000	55.552200
813.000000	55.371600
812.000000	55.281200
811.000000	55.214700
810.000000	55.068800
809.000000	54.813300
808.000000	54.718000
807.000000	54.661100
806.000000	54.680200
805.000000	54.532600
804.000000	54.394500
803.000000	54.297400
802.000000	54.138100
801.000000	54.083400
800.000000	53.934200
799.000000	53.776300
798.000000	53.704100
797.000000	53.515000
796.000000	53.415100
795.000000	53.298000
794.000000	53.234300
793.000000	53.113300
792.000000	52.988300
791.000000	52.802600
790.000000	52.721500
789.000000	52.705100
788.000000	52.543800
787.000000	52.509800
786.000000	52.434500
785.000000	52.326900
784.000000	52.213900
783.000000	52.175500
782.000000	52.112300
781.000000	52.025600
780.000000	51.869400
779.000000	51.788900
778.000000	51.659200
777.000000	51.608200
776.000000	51.601300
775.000000	51.547500
774.000000	51.465300
773.000000	51.393200
772.000000	51.266300
771.000000	51.146800
770.000000	51.084400
769.000000	51.026600
768.000000	50.990200
767.000000	50.910000
766.000000	50.817900
765.000000	50.689800
764.000000	50.619600
763.000000	50.538100
762.000000	50.470900
761.000000	50.372600
760.000000	50.264100
759.000000	50.153700
758.000000	50.065400
757.000000	50.011200
756.000000	49.939400
755.000000	49.836200
754.000000	49.761100
753.000000	49.682400
752.000000	49.557200
751.000000	49.456100
750.000000	49.371700
749.000000	49.274200
748.000000	49.162700
747.000000	49.074700
746.000000	48.976200
745.000000	48.875700
744.000000	48.824500
743.000000	48.721200
742.000000	48.591500
741.000000	48.523100
740.000000	48.475100
739.000000	48.379600
738.000000	48.295000
737.000000	48.195400
736.000000	48.095100
735.000000	47.998800
734.000000	47.920700
733.000000	47.852500
732.000000	47.736800
731.000000	47.613500
730.000000	47.525000
729.000000	47.419000
728.000000	47.300500
727.000000	47.251500
726.000000	47.183700
725.000000	47.135900
724.000000	47.086100
723.000000	47.050000
722.000000	46.964100
721.000000	46.851000
720.000000	46.764900
719.000000	46.700300
718.000000	46.609200
717.000000	46.556600
716.000000	46.499800
715.000000	46.467300
714.000000	46.379500
713.000000	46.312900
712.000000	46.255000
711.000000	46.200300
710.000000	46.163400
709.000000	46.100200
708.000000	46.046800
707.000000	45.980200
706.000000	45.954900
705.000000	45.940100
704.000000	45.831000
703.000000	45.735000
702.000000	45.675700
701.000000	45.639600
700.000000	45.545800
699.000000	45.461900
698.000000	45.347400
697.000000	45.280000
696.000000	45.214000
695.000000	45.117800
694.000000	44.966500
693.000000	44.795100
692.000000	44.697600
691.000000	44.563100
690.000000	44.433200
689.000000	44.260700
688.000000	44.161300
687.000000	43.977800
686.000000	43.812500
685.000000	43.650400
684.000000	43.513300
683.000000	43.338800
682.000000	43.159200
681.000000	43.005200
680.000000	42.766400
679.000000	42.592800
678.000000	42.406700
677.000000	42.257400
676.000000	42.057900
675.000000	41.866700
674.000000	41.640100
673.000000	41.407500
672.000000	41.187700
671.000000	40.986300
670.000000	40.814200
669.000000	40.623300
668.000000	40.471500
667.000000	40.302200
666.000000	40.156300
665.000000	40.060000
664.000000	39.965900
663.000000	39.870500
662.000000	39.866000
661.000000	39.818700
660.000000	39.774600
659.000000	39.734300
658.000000	39.735100
657.000000	39.709300
656.000000	39.691100
655.000000	39.718100
654.000000	39.635700
653.000000	39.614100
652.000000	39.593900
651.000000	39.539100
650.000000	39.530400
649.000000	39.538300
648.000000	39.490500
647.000000	39.499200
646.000000	39.494000
645.000000	39.486500
644.000000	39.472300
643.000000	39.442900
642.000000	39.419500
641.000000	39.433800
640.000000	39.390300
639.000000	39.348800
638.000000	39.266400
637.000000	39.183200
636.000000	39.026300
635.000000	38.900500
634.000000	38.677500
633.000000	38.481400
632.000000	38.223300
631.000000	37.970400
630.000000	37.753500
629.000000	37.479500
628.000000	37.255900
627.000000	37.032600
626.000000	36.850000
625.000000	36.689200
624.000000	36.561300
623.000000	36.474300
622.000000	36.381900
621.000000	36.350200
620.000000	36.313900
619.000000	36.354100
618.000000	36.342100
617.000000	36.413900
616.000000	36.483700
615.000000	36.581200
614.000000	36.685000
613.000000	36.818600
612.000000	36.979000
611.000000	37.200800
610.000000	37.417500
609.000000	37.682000
608.000000	38.010500
607.000000	38.382700
606.000000	38.792400
605.000000	39.261400
604.000000	39.774300
603.000000	40.322000
602.000000	40.887500
601.000000	41.471800
600.000000	42.044800
599.000000	42.641100
598.000000	43.259300
597.000000	43.821000
596.000000	44.329800
595.000000	44.791200
594.000000	45.242900
593.000000	45.655700
592.000000	45.974300
591.000000	46.269000
590.000000	46.560100
589.000000	46.826800
588.000000	47.064700
587.000000	47.305700
586.000000	47.537600
585.000000	47.746400
584.000000	47.984400
583.000000	48.202800
582.000000	48.437700
581.000000	48.676700
580.000000	48.953200
579.000000	49.137600
578.000000	49.361700
577.000000	49.577400
576.000000	49.785500
575.000000	49.934100
574.000000	50.076300
573.000000	50.219600
572.000000	50.315300
571.000000	50.351000
570.000000	50.368900
569.000000	50.399700
568.000000	50.363300
567.000000	50.296500
566.000000	50.251800
565.000000	50.215000
564.000000	50.144400
563.000000	50.107600
562.000000	50.084400
561.000000	50.048300
560.000000	50.046100
559.000000	49.999400
558.000000	50.001900
557.000000	49.946900
556.000000	49.919400
555.000000	49.826700
554.000000	49.745900
553.000000	49.653000
552.000000	49.495300
551.000000	49.322500
550.000000	49.104400
549.000000	48.851500
548.000000	48.574000
547.000000	48.269900
546.000000	47.912600
545.000000	47.564300
544.000000	47.187400
543.000000	46.807900
542.000000	46.418600
541.000000	45.994900
540.000000	45.544600
539.000000	45.119900
538.000000	44.671500
537.000000	44.191200
536.000000	43.700100
535.000000	43.165500
534.000000	42.570900
533.000000	41.960400
532.000000	41.336800
531.000000	40.697400
530.000000	40.036600
529.000000	39.360300
528.000000	38.680300
527.000000	38.032000
526.000000	37.384500
525.000000	36.740600
524.000000	36.094200
523.000000	35.420200
522.000000	34.777200
521.000000	34.107100
520.000000	33.420500
519.000000	32.742000
518.000000	32.046400
517.000000	31.324400
516.000000	30.597800
515.000000	29.888400
514.000000	29.156100
513.000000	28.427500
512.000000	27.722800
511.000000	27.044200
510.000000	26.356500
509.000000	25.715700
508.000000	25.123400
507.000000	24.558100
506.000000	24.007300
505.000000	23.494700
504.000000	23.006400
503.000000	22.542200
502.000000	22.104000
501.000000	21.674700
500.000000	21.291800
499.000000	20.915600
498.000000	20.514800
497.000000	20.157800
496.000000	19.796200
495.000000	19.433000
494.000000	19.086100
493.000000	18.752100
492.000000	18.421800
491.000000	18.122200
490.000000	17.851400
489.000000	17.600100
488.000000	17.380100
487.000000	17.184000
486.000000	17.015900
485.000000	16.877200
484.000000	16.764600
483.000000	16.670600
482.000000	16.604900
481.000000	16.592200
480.000000	16.569100
479.000000	16.528400
478.000000	16.474200
477.000000	16.433800
476.000000	16.392300
475.000000	16.348900
474.000000	16.299700
473.000000	16.232400
472.000000	16.150200
471.000000	16.072700
470.000000	16.008600
469.000000	15.935100
468.000000	15.853700
467.000000	15.768900
466.000000	15.675200
465.000000	15.590500
464.000000	15.506500
463.000000	15.411100
462.000000	15.316400
461.000000	15.223700
460.000000	15.120000
459.000000	14.995900
458.000000	14.871900
457.000000	14.750700
456.000000	14.621900
455.000000	14.480100
454.000000	14.327900
453.000000	14.178300
452.000000	14.028800
451.000000	13.858700
450.000000	13.692000
449.000000	13.535900
448.000000	13.355300
447.000000	13.179200
446.000000	13.003300
445.000000	12.819300
444.000000	12.648300
443.000000	12.469300
442.000000	12.285500
441.000000	12.102300
440.000000	11.908000
439.000000	11.718300
438.000000	11.515100
437.000000	11.287900
436.000000	11.077900
435.000000	10.866300
434.000000	10.632500
433.000000	10.409000
432.000000	10.208800
431.000000	10.002700
430.000000	9.790500
429.000000	9.589900
428.000000	9.387700
427.000000	9.175600
426.000000	8.977600
425.000000	8.785700
424.000000	8.582700
423.000000	8.377100
422.000000	8.185500
421.000000	7.989700
420.000000	7.786700
419.000000	7.595100
418.000000	7.410000
417.000000	7.229800
416.000000	7.055100
415.000000	6.890200
414.000000	6.733600
413.000000	6.584100
412.000000	6.446500
411.000000	6.317300
410.000000	6.195700
409.000000	6.071800
408.000000	5.958000
407.000000	5.843300
406.000000	5.742200
405.000000	5.652400
404.000000	5.564600
403.000000	5.487400
402.000000	5.404100
401.000000	5.343900
400.000000	5.291200
399.000000	5.230700
398.000000	5.187700
397.000000	5.142300
396.000000	5.115300
395.000000	5.067100
394.000000	5.043000
393.000000	5.022900
392.000000	4.985400
391.000000	4.954900
390.000000	4.928300
389.000000	4.903500
388.000000	4.898500
387.000000	4.883400
386.000000	4.849700
385.000000	4.839300
384.000000	4.832900
383.000000	4.821800
382.000000	4.806900
381.000000	4.779100
380.000000	4.777700
379.000000	4.780900
378.000000	4.757600
377.000000	4.736600
376.000000	4.781400
375.000000	4.725500
374.000000	4.694200
373.000000	4.666300
372.000000	4.734000
371.000000	4.695700
370.000000	4.775500
369.000000	4.745200
368.000000	4.698200
367.000000	4.713700
366.000000	4.687700
365.000000	4.741300
364.000000	4.704500
363.000000	4.788400
362.000000	4.779100
361.000000	4.788200
360.000000	4.741300
359.000000	4.786400
358.000000	4.749900
357.000000	4.684300
356.000000	4.647400
355.000000	4.681200
354.000000	4.703800
353.000000	4.681100
352.000000	4.649700
351.000000	4.633700
350.000000	4.643300
349.000000	4.746800
348.000000	4.722100
347.000000	4.661000
346.000000	4.799400
345.000000	4.767800
344.000000	4.724500
343.000000	4.719700
342.000000	4.747300
341.000000	4.709400
340.000000	4.787500
339.000000	4.718600
338.000000	4.851100
337.000000	4.790600
336.000000	4.810800
335.000000	4.717100
334.000000	4.880100
333.000000	4.878400
332.000000	4.811100
331.000000	5.011700
330.000000	4.902400
329.000000	4.776400
328.000000	4.785000
327.000000	4.966300
326.000000	5.113700
325.000000	5.078400
324.000000	4.860100
323.000000	4.938200
322.000000	5.038300
321.000000	5.011300
320.000000	4.963600
319.000000	4.818300
318.000000	4.902000
317.000000	4.889700
316.000000	4.651100
315.000000	4.643000
314.000000	4.721600
313.000000	4.616700
312.000000	4.634300
311.000000	4.620000
310.000000	4.636700
309.000000	4.712600
308.000000	4.657200
307.000000	4.616000
306.000000	4.637000
305.000000	4.635000
304.000000	4.596200
303.000000	4.695400
302.000000	4.655800
301.000000	4.675300
300.000000	4.607800
299.000000	4.596200
298.000000	4.696400
297.000000	4.680100
296.000000	4.654600
295.000000	4.646600
294.000000	4.677000
293.000000	4.645500
292.000000	4.683400
291.000000	4.648500
290.000000	4.676700
289.000000	4.717900
288.000000	4.702300
287.000000	4.705200
286.000000	4.675800
285.000000	4.745500
284.000000	4.735400
283.000000	4.670300
282.000000	4.753500
281.000000	4.659700
280.000000	4.751500
279.000000	4.763400
278.000000	4.760900
277.000000	4.749500
276.000000	4.704800
275.000000	4.785400
274.000000	4.801100
273.000000	4.824900
272.000000	4.783900
271.000000	4.842100
270.000000	4.848200
269.000000	4.839200
268.000000	4.861200
267.000000	4.863500
266.000000	4.879100
265.000000	4.927300
264.000000	4.933200
263.000000	5.029000
262.000000	5.021200
261.000000	5.017600
260.000000	5.059400
259.000000	5.101700
258.000000	5.064800
257.000000	5.094100
256.000000	5.102400
255.000000	5.086900
254.000000	5.080200
253.000000	5.140700
252.000000	5.150000
251.000000	5.135200
250.000000	5.153700
