PE UV       SUBTECH     SPECTRUM    ASCII       PEDS        4.00        
   -1
CICIMAUCR0235-1.Sample.ASC
24/06/19
13:47:31.00
24/06/19
13:47:31.00
Vinicio Soto Monge
C. resplendens. Sex M. Ventral 
250,000000
1
Lambda 1050
1050L1511233
PerkinElmer UV WinLab 6.3.2.0749 / 2.02.05 Lambda 900 UV/VIS/NIR, Aug  7 2015 09:38:08

0
0
3350/servo 860,8/2
0
0
UV/VIS
1
1
1
DoubleDePol,CommonBeamDepol,RBeamAtt,SBeamAtt,60mm sphere, WB InGaAs Detector
0
0
0
0
Program
Program
3350/servo 860,8/2
3350/0,2 860,8/0,2
3350/0,2 860,8/0,2
0
15.00
 
 
 
0
 
860,8
319,2
860,8
Front
100
on
S:100 R:100
0
0
0
0
 
0
 
 
 
0
 
 
0
0
0
0
0
 
 
 
 
0
0


0
0
#HDR
-1
-1
#GR
nm
%R
1.0
0.0
2500,000000
-1,000000
2251
8
61,878600
4,474600
#DATA
2482.000000	5.964538
2481.000000	6.056988
2480.000000	6.047543
2479.000000	6.014803
2478.000000	5.987099
2477.000000	5.994025
2476.000000	6.013753
2475.000000	5.970309
2474.000000	5.941242
2473.000000	6.029704
2472.000000	6.012494
2471.000000	5.956667
2470.000000	6.001266
2469.000000	5.976920
2468.000000	5.991087
2467.000000	6.004309
2466.000000	5.999167
2465.000000	6.003784
2464.000000	6.006408
2463.000000	6.016797
2462.000000	6.058457
2461.000000	6.045969
2460.000000	6.082592
2459.000000	6.076926
2458.000000	6.091092
2457.000000	6.135166
2456.000000	6.165808
2455.000000	6.204320
2454.000000	6.210616
2453.000000	6.244826
2452.000000	6.273264
2451.000000	6.304745
2450.000000	6.328566
2449.000000	6.349448
2448.000000	6.379775
2447.000000	6.429306
2446.000000	6.445151
2445.000000	6.484188
2444.000000	6.495101
2443.000000	6.550193
2442.000000	6.572965
2441.000000	6.597100
2440.000000	6.640440
2439.000000	6.683779
2438.000000	6.717883
2437.000000	6.728797
2436.000000	6.764581
2435.000000	6.800049
2434.000000	6.823241
2433.000000	6.837932
2432.000000	6.862697
2431.000000	6.901944
2430.000000	6.943919
2429.000000	6.958505
2428.000000	6.964906
2427.000000	6.992819
2426.000000	7.039831
2425.000000	7.043399
2424.000000	7.062288
2423.000000	7.074566
2422.000000	7.096603
2421.000000	7.129028
2420.000000	7.148337
2419.000000	7.160929
2418.000000	7.189577
2417.000000	7.207836
2416.000000	7.212873
2415.000000	7.218750
2414.000000	7.250021
2413.000000	7.263033
2412.000000	7.274367
2411.000000	7.304903
2410.000000	7.305218
2409.000000	7.308366
2408.000000	7.325366
2407.000000	7.343310
2406.000000	7.350971
2405.000000	7.370384
2404.000000	7.395779
2403.000000	7.418236
2402.000000	7.424007
2401.000000	7.438489
2400.000000	7.461260
2399.000000	7.461890
2398.000000	7.480464
2397.000000	7.483402
2396.000000	7.493581
2395.000000	7.515198
2394.000000	7.533982
2393.000000	7.546994
2392.000000	7.537864
2391.000000	7.545840
2390.000000	7.576901
2389.000000	7.595685
2388.000000	7.589074
2387.000000	7.586975
2386.000000	7.587080
2385.000000	7.607648
2384.000000	7.605339
2383.000000	7.593166
2382.000000	7.601666
2381.000000	7.598833
2380.000000	7.589389
2379.000000	7.584457
2378.000000	7.591802
2377.000000	7.591697
2376.000000	7.580049
2375.000000	7.564833
2374.000000	7.551926
2373.000000	7.534926
2372.000000	7.513939
2371.000000	7.512365
2370.000000	7.511630
2369.000000	7.502920
2368.000000	7.471229
2367.000000	7.454754
2366.000000	7.448458
2365.000000	7.412149
2364.000000	7.396094
2363.000000	7.372063
2362.000000	7.339323
2361.000000	7.317916
2360.000000	7.286015
2359.000000	7.266706
2358.000000	7.241836
2357.000000	7.209515
2356.000000	7.198917
2355.000000	7.185589
2354.000000	7.169114
2353.000000	7.158411
2352.000000	7.146553
2351.000000	7.134065
2350.000000	7.140152
2349.000000	7.157151
2348.000000	7.165442
2347.000000	7.179083
2346.000000	7.197447
2345.000000	7.202379
2344.000000	7.219274
2343.000000	7.248657
2342.000000	7.258416
2341.000000	7.264607
2340.000000	7.284650
2339.000000	7.304903
2338.000000	7.313193
2337.000000	7.320749
2336.000000	7.316446
2335.000000	7.313193
2334.000000	7.306687
2333.000000	7.291366
2332.000000	7.290422
2331.000000	7.298607
2330.000000	7.268700
2329.000000	7.236274
2328.000000	7.210879
2327.000000	7.192515
2326.000000	7.174781
2325.000000	7.138263
2324.000000	7.093035
2323.000000	7.058930
2322.000000	7.027029
2321.000000	6.999850
2320.000000	6.962178
2319.000000	6.917160
2318.000000	6.870148
2317.000000	6.823241
2316.000000	6.765945
2315.000000	6.732470
2314.000000	6.686612
2313.000000	6.658804
2312.000000	6.623335
2311.000000	6.578841
2310.000000	6.544842
2309.000000	6.515459
2308.000000	6.481564
2307.000000	6.459947
2306.000000	6.463935
2305.000000	6.448509
2304.000000	6.465929
2303.000000	6.467083
2302.000000	6.474114
2301.000000	6.500768
2300.000000	6.527632
2299.000000	6.548305
2298.000000	6.579891
2297.000000	6.609063
2296.000000	6.649359
2295.000000	6.681680
2294.000000	6.714630
2293.000000	6.750309
2292.000000	6.775389
2291.000000	6.801728
2290.000000	6.818309
2289.000000	6.837197
2288.000000	6.832895
2287.000000	6.841815
2286.000000	6.832580
2285.000000	6.828907
2284.000000	6.816944
2283.000000	6.800364
2282.000000	6.790185
2281.000000	6.780951
2280.000000	6.745692
2279.000000	6.722081
2278.000000	6.716939
2277.000000	6.701618
2276.000000	6.680001
2275.000000	6.649569
2274.000000	6.650409
2273.000000	6.638551
2272.000000	6.641489
2271.000000	6.637606
2270.000000	6.638551
2269.000000	6.640649
2268.000000	6.652717
2267.000000	6.681365
2266.000000	6.723025
2265.000000	6.757970
2264.000000	6.831426
2263.000000	6.890715
2262.000000	6.937413
2261.000000	7.057776
2260.000000	7.146553
2259.000000	7.220639
2258.000000	7.323162
2257.000000	7.453914
2256.000000	7.563259
2255.000000	7.682573
2254.000000	7.799054
2253.000000	7.914275
2252.000000	8.048175
2251.000000	8.164026
2250.000000	8.273895
2249.000000	8.386703
2248.000000	8.500770
2247.000000	8.606232
2246.000000	8.679374
2245.000000	8.789033
2244.000000	8.857977
2243.000000	8.920310
2242.000000	9.026192
2241.000000	9.076352
2240.000000	9.155160
2239.000000	9.216024
2238.000000	9.274893
2237.000000	9.325893
2236.000000	9.382035
2235.000000	9.408689
2234.000000	9.470602
2233.000000	9.505651
2232.000000	9.533459
2231.000000	9.543848
2230.000000	9.591490
2229.000000	9.599990
2228.000000	9.613212
2227.000000	9.643434
2226.000000	9.643539
2225.000000	9.653508
2224.000000	9.650674
2223.000000	9.625489
2222.000000	9.611847
2221.000000	9.600829
2220.000000	9.613946
2219.000000	9.594218
2218.000000	9.569348
2217.000000	9.573126
2216.000000	9.543533
2215.000000	9.517719
2214.000000	9.523700
2213.000000	9.496101
2212.000000	9.485293
2211.000000	9.471336
2210.000000	9.432195
2209.000000	9.427682
2208.000000	9.418133
2207.000000	9.393997
2206.000000	9.387072
2205.000000	9.376263
2204.000000	9.362936
2203.000000	9.378781
2202.000000	9.378467
2201.000000	9.353072
2200.000000	9.341948
2199.000000	9.335337
2198.000000	9.318128
2197.000000	9.300393
2196.000000	9.320961
2195.000000	9.315714
2194.000000	9.299344
2193.000000	9.291998
2192.000000	9.289165
2191.000000	9.287906
2190.000000	9.279091
2189.000000	9.270486
2188.000000	9.259048
2187.000000	9.247085
2186.000000	9.230925
2185.000000	9.228826
2184.000000	9.236906
2183.000000	9.231239
2182.000000	9.208258
2181.000000	9.185697
2180.000000	9.206999
2179.000000	9.196715
2178.000000	9.170376
2177.000000	9.175832
2176.000000	9.179400
2175.000000	9.182968
2174.000000	9.197240
2173.000000	9.186956
2172.000000	9.186011
2171.000000	9.180660
2170.000000	9.183913
2169.000000	9.208573
2168.000000	9.202382
2167.000000	9.202067
2166.000000	9.213085
2165.000000	9.215709
2164.000000	9.230505
2163.000000	9.246665
2162.000000	9.261776
2161.000000	9.290634
2160.000000	9.295566
2159.000000	9.299134
2158.000000	9.325054
2157.000000	9.326942
2156.000000	9.364615
2155.000000	9.404071
2154.000000	9.424534
2153.000000	9.438701
2152.000000	9.454966
2151.000000	9.480361
2150.000000	9.506910
2149.000000	9.534718
2148.000000	9.550144
2147.000000	9.585823
2146.000000	9.610273
2145.000000	9.631681
2144.000000	9.643539
2143.000000	9.659804
2142.000000	9.675125
2141.000000	9.692439
2140.000000	9.712482
2139.000000	9.726124
2138.000000	9.742285
2137.000000	9.769359
2136.000000	9.776179
2135.000000	9.797797
2134.000000	9.812488
2133.000000	9.809864
2132.000000	9.824661
2131.000000	9.830432
2130.000000	9.832216
2129.000000	9.828333
2128.000000	9.851105
2127.000000	9.848796
2126.000000	9.834839
2125.000000	9.827599
2124.000000	9.821512
2123.000000	9.835364
2122.000000	9.817630
2121.000000	9.804408
2120.000000	9.799476
2119.000000	9.776389
2118.000000	9.755717
2117.000000	9.732001
2116.000000	9.731686
2115.000000	9.725809
2114.000000	9.696847
2113.000000	9.666940
2112.000000	9.662112
2111.000000	9.647106
2110.000000	9.625175
2109.000000	9.605866
2108.000000	9.580051
2107.000000	9.566829
2106.000000	9.539965
2105.000000	9.508169
2104.000000	9.503867
2103.000000	9.480256
2102.000000	9.457170
2101.000000	9.446781
2100.000000	9.431355
2099.000000	9.411207
2098.000000	9.386967
2097.000000	9.358109
2096.000000	9.330300
2095.000000	9.323794
2094.000000	9.312356
2093.000000	9.281924
2092.000000	9.258418
2091.000000	9.248764
2090.000000	9.236172
2089.000000	9.213295
2088.000000	9.198709
2087.000000	9.177407
2086.000000	9.156734
2085.000000	9.137740
2084.000000	9.122839
2083.000000	9.109932
2082.000000	9.082963
2081.000000	9.069321
2080.000000	9.037525
2079.000000	9.014439
2078.000000	9.000692
2077.000000	8.967322
2076.000000	8.937100
2075.000000	8.917372
2074.000000	8.891137
2073.000000	8.865218
2072.000000	8.836150
2071.000000	8.813484
2070.000000	8.790292
2069.000000	8.748842
2068.000000	8.706028
2067.000000	8.673077
2066.000000	8.656182
2065.000000	8.628689
2064.000000	8.598782
2063.000000	8.572547
2062.000000	8.557436
2061.000000	8.540227
2060.000000	8.510739
2059.000000	8.498252
2058.000000	8.493005
2057.000000	8.479888
2056.000000	8.496782
2055.000000	8.490801
2054.000000	8.491431
2053.000000	8.503498
2052.000000	8.528054
2051.000000	8.540961
2050.000000	8.555233
2049.000000	8.583146
2048.000000	8.615257
2047.000000	8.654398
2046.000000	8.700256
2045.000000	8.738978
2044.000000	8.784626
2043.000000	8.834681
2042.000000	8.875921
2041.000000	8.912964
2040.000000	8.948958
2039.000000	8.991353
2038.000000	9.038889
2037.000000	9.062290
2036.000000	9.103321
2035.000000	9.148864
2034.000000	9.186746
2033.000000	9.202487
2032.000000	9.226307
2031.000000	9.244357
2030.000000	9.269017
2029.000000	9.301652
2028.000000	9.303331
2027.000000	9.325158
2026.000000	9.341004
2025.000000	9.346146
2024.000000	9.365349
2023.000000	9.374584
2022.000000	9.372590
2021.000000	9.380985
2020.000000	9.389170
2019.000000	9.378362
2018.000000	9.367553
2017.000000	9.386967
2016.000000	9.397985
2015.000000	9.380880
2014.000000	9.382979
2013.000000	9.349084
2012.000000	9.351393
2011.000000	9.326628
2010.000000	9.306585
2009.000000	9.304486
2008.000000	9.294412
2007.000000	9.277832
2006.000000	9.257894
2005.000000	9.214240
2004.000000	9.207943
2003.000000	9.172684
2002.000000	9.150648
2001.000000	9.132179
2000.000000	9.090833
1999.000000	9.072364
1998.000000	9.032383
1997.000000	8.991248
1996.000000	8.947489
1995.000000	8.918421
1994.000000	8.885995
1993.000000	8.836675
1992.000000	8.782317
1991.000000	8.747583
1990.000000	8.706343
1989.000000	8.658911
1988.000000	8.627744
1987.000000	8.576325
1986.000000	8.522282
1985.000000	8.491011
1984.000000	8.477264
1983.000000	8.406746
1982.000000	8.369074
1981.000000	8.316080
1980.000000	8.274840
1979.000000	8.234019
1978.000000	8.178297
1977.000000	8.135483
1976.000000	8.111977
1975.000000	8.067379
1974.000000	8.003577
1973.000000	7.987206
1972.000000	7.942188
1971.000000	7.888565
1970.000000	7.846380
1969.000000	7.805035
1968.000000	7.794436
1967.000000	7.765369
1966.000000	7.739239
1965.000000	7.677956
1964.000000	7.641018
1963.000000	7.613629
1962.000000	7.574173
1961.000000	7.555809
1960.000000	7.523383
1959.000000	7.502710
1958.000000	7.454544
1957.000000	7.410470
1956.000000	7.388224
1955.000000	7.356637
1954.000000	7.328409
1953.000000	7.308261
1952.000000	7.283601
1951.000000	7.235330
1950.000000	7.216021
1949.000000	7.199126
1948.000000	7.189052
1947.000000	7.153584
1946.000000	7.154528
1945.000000	7.121683
1944.000000	7.105522
1943.000000	7.105732
1942.000000	7.086843
1941.000000	7.077924
1940.000000	7.101535
1939.000000	7.051584
1938.000000	7.082436
1937.000000	7.077399
1936.000000	7.049171
1935.000000	7.072677
1934.000000	7.064387
1933.000000	7.082226
1932.000000	7.101744
1931.000000	7.140361
1930.000000	7.152954
1929.000000	7.176880
1928.000000	7.225046
1927.000000	7.238583
1926.000000	7.280768
1925.000000	7.332922
1924.000000	7.358316
1923.000000	7.417396
1922.000000	7.471439
1921.000000	7.537759
1920.000000	7.602611
1919.000000	7.635036
1918.000000	7.720875
1917.000000	7.786566
1916.000000	7.853096
1915.000000	7.934108
1914.000000	8.004311
1913.000000	8.104631
1912.000000	8.189001
1911.000000	8.280297
1910.000000	8.381666
1909.000000	8.474011
1908.000000	8.592066
1907.000000	8.715787
1906.000000	8.836360
1905.000000	8.987995
1904.000000	9.142882
1903.000000	9.280350
1902.000000	9.406905
1901.000000	9.542274
1900.000000	9.736093
1899.000000	9.915641
1898.000000	10.084381
1897.000000	10.258262
1896.000000	10.438335
1895.000000	10.635512
1894.000000	10.831325
1893.000000	11.050330
1892.000000	11.299766
1891.000000	11.565887
1890.000000	11.869366
1889.000000	12.116494
1888.000000	12.420183
1887.000000	12.723871
1886.000000	13.060930
1885.000000	13.448674
1884.000000	13.880492
1883.000000	14.317871
1882.000000	14.760917
1881.000000	15.231561
1880.000000	15.706298
1879.000000	16.175053
1878.000000	16.628173
1877.000000	17.095879
1876.000000	17.557499
1875.000000	18.002118
1874.000000	18.449467
1873.000000	18.887790
1872.000000	19.301349
1871.000000	19.678808
1870.000000	20.019225
1869.000000	20.337920
1868.000000	20.648535
1867.000000	20.892620
1866.000000	21.104698
1865.000000	21.292431
1864.000000	21.480794
1863.000000	21.668737
1862.000000	21.828242
1861.000000	22.006006
1860.000000	22.183350
1859.000000	22.327219
1858.000000	22.432156
1857.000000	22.509390
1856.000000	22.617056
1855.000000	22.670154
1854.000000	22.713179
1853.000000	22.752111
1852.000000	22.768796
1851.000000	22.790937
1850.000000	22.829554
1849.000000	22.862295
1848.000000	22.878245
1847.000000	22.852536
1846.000000	22.793036
1845.000000	22.743506
1844.000000	22.742456
1843.000000	22.745290
1842.000000	22.760610
1841.000000	22.754314
1840.000000	22.733432
1839.000000	22.718216
1838.000000	22.681907
1837.000000	22.648852
1836.000000	22.618525
1835.000000	22.550946
1834.000000	22.480847
1833.000000	22.426595
1832.000000	22.369824
1831.000000	22.335404
1830.000000	22.273176
1829.000000	22.207905
1828.000000	22.153757
1827.000000	22.084289
1826.000000	21.995827
1825.000000	21.916494
1824.000000	21.863815
1823.000000	21.821001
1822.000000	21.809143
1821.000000	21.795081
1820.000000	21.747964
1819.000000	21.704101
1818.000000	21.657089
1817.000000	21.629910
1816.000000	21.621830
1815.000000	21.620465
1814.000000	21.599688
1813.000000	21.581534
1812.000000	21.562960
1811.000000	21.538090
1810.000000	21.497164
1809.000000	21.455819
1808.000000	21.422973
1807.000000	21.382362
1806.000000	21.335980
1805.000000	21.283511
1804.000000	21.216142
1803.000000	21.173957
1802.000000	21.148982
1801.000000	21.098087
1800.000000	21.041211
1799.000000	20.978878
1798.000000	20.922946
1797.000000	20.878138
1796.000000	20.831756
1795.000000	20.785793
1794.000000	20.727028
1793.000000	20.680016
1792.000000	20.635733
1791.000000	20.578017
1790.000000	20.522295
1789.000000	20.465105
1788.000000	20.414000
1787.000000	20.368142
1786.000000	20.306229
1785.000000	20.241693
1784.000000	20.164669
1783.000000	20.089638
1782.000000	20.018176
1781.000000	19.951436
1780.000000	19.875776
1779.000000	19.801166
1778.000000	19.729074
1777.000000	19.656142
1776.000000	19.577124
1775.000000	19.477539
1774.000000	19.373336
1773.000000	19.271861
1772.000000	19.170806
1771.000000	19.060832
1770.000000	18.954635
1769.000000	18.844136
1768.000000	18.740458
1767.000000	18.632792
1766.000000	18.543176
1765.000000	18.465102
1764.000000	18.392591
1763.000000	18.352924
1762.000000	18.357856
1761.000000	18.369819
1760.000000	18.405603
1759.000000	18.459855
1758.000000	18.516522
1757.000000	18.580848
1756.000000	18.645700
1755.000000	18.718841
1754.000000	18.756304
1753.000000	18.781594
1752.000000	18.795235
1751.000000	18.809192
1750.000000	18.802161
1749.000000	18.768162
1748.000000	18.737205
1747.000000	18.677076
1746.000000	18.623978
1745.000000	18.558182
1744.000000	18.437084
1743.000000	18.313992
1742.000000	18.177049
1741.000000	18.003063
1740.000000	17.819003
1739.000000	17.632844
1738.000000	17.431993
1737.000000	17.254334
1736.000000	17.110675
1735.000000	16.984540
1734.000000	16.894084
1733.000000	16.859245
1732.000000	16.851060
1731.000000	16.899751
1730.000000	16.969849
1729.000000	17.053169
1728.000000	17.153804
1727.000000	17.247409
1726.000000	17.359377
1725.000000	17.447419
1724.000000	17.518987
1723.000000	17.580795
1722.000000	17.640504
1721.000000	17.683004
1720.000000	17.716374
1719.000000	17.745022
1718.000000	17.764750
1717.000000	17.806410
1716.000000	17.868323
1715.000000	17.918693
1714.000000	17.967594
1713.000000	18.034649
1712.000000	18.112198
1711.000000	18.163197
1710.000000	18.182821
1709.000000	18.214722
1708.000000	18.217450
1707.000000	18.196358
1706.000000	18.158895
1705.000000	18.130037
1704.000000	18.074525
1703.000000	18.000439
1702.000000	17.926354
1701.000000	17.815330
1700.000000	17.694757
1699.000000	17.551097
1698.000000	17.419401
1697.000000	17.277106
1696.000000	17.189903
1695.000000	17.123163
1694.000000	17.115607
1693.000000	17.188224
1692.000000	17.285606
1691.000000	17.421395
1690.000000	17.568832
1689.000000	17.725399
1688.000000	17.837157
1687.000000	17.926459
1686.000000	17.978717
1685.000000	18.044408
1684.000000	18.098556
1683.000000	18.204962
1682.000000	18.421973
1681.000000	18.740773
1680.000000	19.155695
1679.000000	19.589717
1678.000000	20.107793
1677.000000	20.604671
1676.000000	21.101130
1675.000000	21.534417
1674.000000	21.942623
1673.000000	22.272022
1672.000000	22.592291
1671.000000	22.860511
1670.000000	23.100503
1669.000000	23.293063
1668.000000	23.463481
1667.000000	23.641140
1666.000000	23.775460
1665.000000	23.889317
1664.000000	23.984286
1663.000000	24.063408
1662.000000	24.142636
1661.000000	24.188599
1660.000000	24.246944
1659.000000	24.299518
1658.000000	24.334672
1657.000000	24.359227
1656.000000	24.380005
1655.000000	24.388085
1654.000000	24.381894
1653.000000	24.376227
1652.000000	24.358807
1651.000000	24.347579
1650.000000	24.282203
1649.000000	24.278320
1648.000000	24.235506
1647.000000	24.203290
1646.000000	24.145155
1645.000000	24.090482
1644.000000	24.035180
1643.000000	23.969070
1642.000000	23.935280
1641.000000	23.840312
1640.000000	23.791201
1639.000000	23.712183
1638.000000	23.650690
1637.000000	23.595912
1636.000000	23.533370
1635.000000	23.441969
1634.000000	23.385933
1633.000000	23.295267
1632.000000	23.235767
1631.000000	23.131354
1630.000000	23.068812
1629.000000	22.986016
1628.000000	22.887900
1627.000000	22.807937
1626.000000	22.730493
1625.000000	22.639513
1624.000000	22.563748
1623.000000	22.485989
1622.000000	22.393015
1621.000000	22.319349
1620.000000	22.232775
1619.000000	22.157850
1618.000000	22.070857
1617.000000	22.006320
1616.000000	21.914080
1615.000000	21.867383
1614.000000	21.787946
1613.000000	21.697175
1612.000000	21.624138
1611.000000	21.566633
1610.000000	21.499578
1609.000000	21.423288
1608.000000	21.324962
1607.000000	21.269660
1606.000000	21.213833
1605.000000	21.118550
1604.000000	21.055377
1603.000000	20.978039
1602.000000	20.893774
1601.000000	20.829447
1600.000000	20.758195
1599.000000	20.687572
1598.000000	20.608974
1597.000000	20.533314
1596.000000	20.479376
1595.000000	20.400883
1594.000000	20.347155
1593.000000	20.270760
1592.000000	20.211366
1591.000000	20.154385
1590.000000	20.090163
1589.000000	20.034966
1588.000000	19.981238
1587.000000	19.918695
1586.000000	19.877350
1585.000000	19.843036
1584.000000	19.787629
1583.000000	19.724981
1582.000000	19.690876
1581.000000	19.653728
1580.000000	19.606612
1579.000000	19.576599
1578.000000	19.546692
1577.000000	19.515211
1576.000000	19.494224
1575.000000	19.473131
1574.000000	19.444168
1573.000000	19.416570
1572.000000	19.408595
1571.000000	19.414156
1570.000000	19.408805
1569.000000	19.407650
1568.000000	19.392015
1567.000000	19.386873
1566.000000	19.398626
1565.000000	19.397052
1564.000000	19.386138
1563.000000	19.405027
1562.000000	19.398311
1561.000000	19.384354
1560.000000	19.380157
1559.000000	19.368613
1558.000000	19.359799
1557.000000	19.342169
1556.000000	19.336083
1555.000000	19.319608
1554.000000	19.299145
1553.000000	19.275429
1552.000000	19.246152
1551.000000	19.214670
1550.000000	19.186442
1549.000000	19.155276
1548.000000	19.141424
1547.000000	19.104171
1546.000000	19.059468
1545.000000	19.032814
1544.000000	19.013925
1543.000000	18.978981
1542.000000	18.973314
1541.000000	18.973104
1540.000000	18.950228
1539.000000	18.922734
1538.000000	18.890728
1537.000000	18.864599
1536.000000	18.842772
1535.000000	18.819476
1534.000000	18.798803
1533.000000	18.775717
1532.000000	18.747384
1531.000000	18.707928
1530.000000	18.672249
1529.000000	18.643706
1528.000000	18.603305
1527.000000	18.559126
1526.000000	18.524077
1525.000000	18.490497
1524.000000	18.459436
1523.000000	18.418090
1522.000000	18.365622
1521.000000	18.327005
1520.000000	18.283666
1519.000000	18.225215
1518.000000	18.179568
1517.000000	18.136228
1516.000000	18.094673
1515.000000	18.050809
1514.000000	17.991205
1513.000000	17.931705
1512.000000	17.874305
1511.000000	17.821836
1510.000000	17.780176
1509.000000	17.740929
1508.000000	17.689510
1507.000000	17.635782
1506.000000	17.577542
1505.000000	17.513530
1504.000000	17.462845
1503.000000	17.419191
1502.000000	17.374278
1501.000000	17.318136
1500.000000	17.275112
1499.000000	17.230094
1498.000000	17.180668
1497.000000	17.143206
1496.000000	17.091262
1495.000000	17.052435
1494.000000	17.022213
1493.000000	16.998707
1492.000000	16.963763
1491.000000	16.926405
1490.000000	16.912448
1489.000000	16.876560
1488.000000	16.840042
1487.000000	16.808036
1486.000000	16.786314
1485.000000	16.764592
1484.000000	16.737728
1483.000000	16.700580
1482.000000	16.688512
1481.000000	16.673716
1480.000000	16.678333
1479.000000	16.644543
1478.000000	16.628383
1477.000000	16.624710
1476.000000	16.600155
1475.000000	16.598790
1474.000000	16.605087
1473.000000	16.616105
1472.000000	16.620198
1471.000000	16.619778
1470.000000	16.618519
1469.000000	16.609179
1468.000000	16.612852
1467.000000	16.619253
1466.000000	16.627124
1465.000000	16.643389
1464.000000	16.647481
1463.000000	16.672142
1462.000000	16.703623
1461.000000	16.742869
1460.000000	16.755987
1459.000000	16.790616
1458.000000	16.832696
1457.000000	16.864177
1456.000000	16.923991
1455.000000	16.996818
1454.000000	17.051700
1453.000000	17.115502
1452.000000	17.187384
1451.000000	17.260736
1450.000000	17.331988
1449.000000	17.398938
1448.000000	17.468092
1447.000000	17.562326
1446.000000	17.649109
1445.000000	17.724559
1444.000000	17.818688
1443.000000	17.897076
1442.000000	17.997501
1441.000000	18.098346
1440.000000	18.192685
1439.000000	18.285030
1438.000000	18.405183
1437.000000	18.502565
1436.000000	18.603200
1435.000000	18.714748
1434.000000	18.854945
1433.000000	18.965969
1432.000000	19.099659
1431.000000	19.229676
1430.000000	19.354027
1429.000000	19.499890
1428.000000	19.657716
1427.000000	19.826455
1426.000000	19.986695
1425.000000	20.173483
1424.000000	20.391334
1423.000000	20.615795
1422.000000	20.805941
1421.000000	20.995248
1420.000000	21.246888
1419.000000	21.483627
1418.000000	21.723514
1417.000000	21.983339
1416.000000	22.216300
1415.000000	22.498057
1414.000000	22.808777
1413.000000	23.092528
1412.000000	23.355606
1411.000000	23.647542
1410.000000	24.004014
1409.000000	24.395850
1408.000000	24.800909
1407.000000	25.216041
1406.000000	25.621204
1405.000000	26.060577
1404.000000	26.475290
1403.000000	26.946354
1402.000000	27.362536
1401.000000	27.829507
1400.000000	28.334151
1399.000000	28.768487
1398.000000	29.123596
1397.000000	29.482377
1396.000000	29.898244
1395.000000	30.353882
1394.000000	30.748447
1393.000000	31.074592
1392.000000	31.445126
1391.000000	31.873795
1390.000000	32.287564
1389.000000	32.679610
1388.000000	33.220982
1387.000000	33.762669
1386.000000	34.330695
1385.000000	34.917505
1384.000000	35.565074
1383.000000	36.233945
1382.000000	36.881619
1381.000000	37.427713
1380.000000	37.880413
1379.000000	38.253256
1378.000000	38.569642
1377.000000	38.805017
1376.000000	39.079533
1375.000000	39.312809
1374.000000	39.567492
1373.000000	39.917773
1372.000000	40.279387
1371.000000	40.708791
1370.000000	41.104930
1369.000000	41.479661
1368.000000	41.827949
1367.000000	42.175921
1366.000000	42.451697
1365.000000	42.705016
1364.000000	42.952458
1363.000000	43.159080
1362.000000	43.406522
1361.000000	43.601706
1360.000000	43.743371
1359.000000	43.797834
1358.000000	43.964160
1357.000000	44.100998
1356.000000	44.292509
1355.000000	44.571852
1354.000000	44.962534
1353.000000	45.392463
1352.000000	45.861323
1351.000000	46.363868
1350.000000	46.861901
1349.000000	47.325095
1348.000000	47.774122
1347.000000	48.218427
1346.000000	48.588856
1345.000000	48.950576
1344.000000	49.374418
1343.000000	49.740440
1342.000000	50.067425
1341.000000	50.420959
1340.000000	50.783098
1339.000000	51.098120
1338.000000	51.433080
1337.000000	51.782837
1336.000000	52.084846
1335.000000	52.401548
1334.000000	52.709644
1333.000000	53.007351
1332.000000	53.319015
1331.000000	53.617143
1330.000000	53.897745
1329.000000	54.165126
1328.000000	54.425371
1327.000000	54.684566
1326.000000	54.928336
1325.000000	55.175148
1324.000000	55.408949
1323.000000	55.607176
1322.000000	55.816946
1321.000000	56.024302
1320.000000	56.227146
1319.000000	56.406904
1318.000000	56.598939
1317.000000	56.772191
1316.000000	56.948171
1315.000000	57.097077
1314.000000	57.258471
1313.000000	57.420074
1312.000000	57.557018
1311.000000	57.693961
1310.000000	57.827337
1309.000000	57.943187
1308.000000	58.050329
1307.000000	58.152957
1306.000000	58.244148
1305.000000	58.331876
1304.000000	58.401344
1303.000000	58.473331
1302.000000	58.537133
1301.000000	58.585614
1300.000000	58.627799
1299.000000	58.664422
1298.000000	58.709021
1297.000000	58.754144
1296.000000	58.787199
1295.000000	58.816582
1294.000000	58.824242
1293.000000	58.836310
1292.000000	58.851211
1291.000000	58.857192
1290.000000	58.843655
1289.000000	58.843236
1288.000000	58.825921
1287.000000	58.788039
1286.000000	58.748897
1285.000000	58.717521
1284.000000	58.689502
1283.000000	58.644589
1282.000000	58.584460
1281.000000	58.548781
1280.000000	58.494529
1279.000000	58.432301
1278.000000	58.387702
1277.000000	58.342264
1276.000000	58.296197
1275.000000	58.237852
1274.000000	58.197871
1273.000000	58.168278
1272.000000	58.144143
1271.000000	58.099334
1270.000000	58.060507
1269.000000	58.022520
1268.000000	57.985267
1267.000000	57.943187
1266.000000	57.906249
1265.000000	57.873509
1264.000000	57.829225
1263.000000	57.781374
1262.000000	57.728590
1261.000000	57.670665
1260.000000	57.631523
1259.000000	57.588604
1258.000000	57.524802
1257.000000	57.458272
1256.000000	57.400346
1255.000000	57.330878
1254.000000	57.257631
1253.000000	57.182076
1252.000000	57.096447
1251.000000	57.011553
1250.000000	56.922251
1249.000000	56.815845
1248.000000	56.725494
1247.000000	56.636822
1246.000000	56.508903
1245.000000	56.377311
1244.000000	56.266707
1243.000000	56.144350
1242.000000	56.019475
1241.000000	55.888618
1240.000000	55.755347
1239.000000	55.609379
1238.000000	55.460578
1237.000000	55.319332
1236.000000	55.174729
1235.000000	55.032329
1234.000000	54.871774
1233.000000	54.703245
1232.000000	54.543635
1231.000000	54.376575
1230.000000	54.188527
1229.000000	53.999849
1228.000000	53.819462
1227.000000	53.633408
1226.000000	53.448823
1225.000000	53.251226
1224.000000	53.050271
1223.000000	52.854877
1222.000000	52.656126
1221.000000	52.459893
1220.000000	52.260617
1219.000000	52.065538
1218.000000	51.882317
1217.000000	51.685979
1216.000000	51.487123
1215.000000	51.325309
1214.000000	51.171576
1213.000000	51.014800
1212.000000	50.838820
1211.000000	50.683722
1210.000000	50.545310
1209.000000	50.380348
1208.000000	50.242355
1207.000000	50.126714
1206.000000	50.015166
1205.000000	49.915685
1204.000000	49.838976
1203.000000	49.771816
1202.000000	49.711582
1201.000000	49.653866
1200.000000	49.591009
1199.000000	49.524269
1198.000000	49.442207
1197.000000	49.327406
1196.000000	49.169475
1195.000000	48.986569
1194.000000	48.760114
1193.000000	48.448135
1192.000000	48.087256
1191.000000	47.686290
1190.000000	47.261503
1189.000000	46.847000
1188.000000	46.489688
1187.000000	46.225771
1186.000000	46.053778
1185.000000	45.987353
1184.000000	46.071618
1183.000000	46.275931
1182.000000	46.601762
1181.000000	47.026443
1180.000000	47.507162
1179.000000	47.999423
1178.000000	48.489271
1177.000000	48.944279
1176.000000	49.330449
1175.000000	49.670236
1174.000000	49.997956
1173.000000	50.315916
1172.000000	50.626111
1171.000000	50.950893
1170.000000	51.269693
1169.000000	51.603813
1168.000000	51.936045
1167.000000	52.288950
1166.000000	52.632515
1165.000000	52.984580
1164.000000	53.362459
1163.000000	53.717253
1162.000000	54.097021
1161.000000	54.480882
1160.000000	54.845750
1159.000000	55.217018
1158.000000	55.570343
1157.000000	55.905198
1156.000000	56.219066
1155.000000	56.508483
1154.000000	56.755506
1153.000000	56.952473
1152.000000	57.123731
1151.000000	57.253854
1150.000000	57.336125
1149.000000	57.432982
1148.000000	57.536135
1147.000000	57.658597
1146.000000	57.781899
1145.000000	57.976138
1144.000000	58.221062
1143.000000	58.497677
1142.000000	58.830223
1141.000000	59.195511
1140.000000	59.555026
1139.000000	59.948541
1138.000000	60.353390
1137.000000	60.770831
1136.000000	61.202229
1135.000000	61.664268
1134.000000	62.118647
1133.000000	62.505447
1132.000000	62.876715
1131.000000	63.231194
1130.000000	63.556500
1129.000000	63.829127
1128.000000	64.040471
1127.000000	64.250556
1126.000000	64.397258
1125.000000	64.531998
1124.000000	64.635676
1123.000000	64.707663
1122.000000	64.793502
1121.000000	64.835057
1120.000000	64.869162
1119.000000	64.908408
1118.000000	64.926772
1117.000000	64.928242
1116.000000	64.932229
1115.000000	64.933803
1114.000000	64.912186
1113.000000	64.884693
1112.000000	64.866538
1111.000000	64.829391
1110.000000	64.829705
1109.000000	64.820366
1108.000000	64.782169
1107.000000	64.756879
1106.000000	64.726552
1105.000000	64.721620
1104.000000	64.685836
1103.000000	64.656664
1102.000000	64.630534
1101.000000	64.607973
1100.000000	64.575442
1099.000000	64.561590
1098.000000	64.503245
1097.000000	64.478690
1096.000000	64.430838
1095.000000	64.406178
1094.000000	64.341746
1093.000000	64.319605
1092.000000	64.283821
1091.000000	64.232402
1090.000000	64.166921
1089.000000	64.128094
1088.000000	64.077829
1087.000000	64.012243
1086.000000	63.944978
1085.000000	63.863966
1084.000000	63.813177
1083.000000	63.768788
1082.000000	63.669202
1081.000000	63.616104
1080.000000	63.551043
1079.000000	63.499519
1078.000000	63.440754
1077.000000	63.369816
1076.000000	63.302446
1075.000000	63.225947
1074.000000	63.157528
1073.000000	63.095090
1072.000000	63.037164
1071.000000	62.963498
1070.000000	62.866116
1069.000000	62.793290
1068.000000	62.739772
1067.000000	62.661069
1066.000000	62.592440
1065.000000	62.533675
1064.000000	62.444373
1063.000000	62.381725
1062.000000	62.307639
1061.000000	62.222325
1060.000000	62.147925
1059.000000	62.071635
1058.000000	61.994716
1057.000000	61.929025
1056.000000	61.848223
1055.000000	61.749792
1054.000000	61.668256
1053.000000	61.617256
1052.000000	61.515257
1051.000000	61.431517
1050.000000	61.375061
1049.000000	61.326160
1048.000000	61.238747
1047.000000	61.159414
1046.000000	61.091205
1045.000000	61.033175
1044.000000	60.974095
1043.000000	60.899484
1042.000000	60.855516
1041.000000	60.777862
1040.000000	60.727807
1039.000000	60.647739
1038.000000	60.584462
1037.000000	60.529475
1036.000000	60.475012
1035.000000	60.380359
1034.000000	60.305643
1033.000000	60.237539
1032.000000	60.160095
1031.000000	60.082232
1030.000000	60.017380
1029.000000	59.942350
1028.000000	59.861968
1027.000000	59.775080
1026.000000	59.702883
1025.000000	59.605921
1024.000000	59.521761
1023.000000	59.452292
1022.000000	59.349664
1021.000000	59.265714
1020.000000	59.187325
1019.000000	59.110511
1018.000000	59.025722
1017.000000	58.966117
1016.000000	58.905568
1015.000000	58.835575
1014.000000	58.771249
1013.000000	58.724971
1012.000000	58.686879
1011.000000	58.628219
1010.000000	58.580997
1009.000000	58.562423
1008.000000	58.567880
1007.000000	58.535349
1006.000000	58.508275
1005.000000	58.477949
1004.000000	58.469763
1003.000000	58.457905
1002.000000	58.429992
1001.000000	58.402289
1000.000000	58.378153
999.000000	58.361888
998.000000	58.351814
997.000000	58.331351
996.000000	58.306481
995.000000	58.283604
994.000000	58.274265
993.000000	58.271012
992.000000	58.246771
991.000000	58.223790
990.000000	58.230191
989.000000	58.227568
988.000000	58.221272
987.000000	58.217809
986.000000	58.195877
985.000000	58.197451
984.000000	58.197241
983.000000	58.200179
982.000000	58.217179
981.000000	58.222216
980.000000	58.215395
979.000000	58.221062
978.000000	58.236592
977.000000	58.242364
976.000000	58.244987
975.000000	58.251913
974.000000	58.274160
973.000000	58.283604
972.000000	58.276784
971.000000	58.281296
970.000000	58.306481
969.000000	58.330511
968.000000	58.323900
967.000000	58.326314
966.000000	58.344258
965.000000	58.364511
964.000000	58.389591
963.000000	58.405647
962.000000	58.420128
961.000000	58.447202
960.000000	58.480782
959.000000	58.508800
958.000000	58.520763
957.000000	58.526430
956.000000	58.544689
955.000000	58.575016
954.000000	58.595164
953.000000	58.601145
952.000000	58.638923
951.000000	58.664842
950.000000	58.674391
949.000000	58.697373
948.000000	58.718150
947.000000	58.726021
946.000000	58.742915
945.000000	58.769465
944.000000	58.766736
943.000000	58.766107
942.000000	58.780378
941.000000	58.806613
940.000000	58.825501
939.000000	58.822143
938.000000	58.815217
937.000000	58.832742
936.000000	58.836205
935.000000	58.813119
934.000000	58.811440
933.000000	58.826551
932.000000	58.832427
931.000000	58.820044
930.000000	58.811335
929.000000	58.817736
928.000000	58.828754
927.000000	58.827180
926.000000	58.816896
925.000000	58.806822
924.000000	58.810600
923.000000	58.827705
922.000000	58.819940
921.000000	58.805143
920.000000	58.802625
919.000000	58.800316
918.000000	58.800421
917.000000	58.779539
916.000000	58.757712
915.000000	58.745434
914.000000	58.718360
913.000000	58.696533
912.000000	58.688453
911.000000	58.666416
910.000000	58.640916
909.000000	58.605343
908.000000	58.599781
907.000000	58.598522
906.000000	58.606812
905.000000	58.613423
904.000000	58.608071
903.000000	58.609960
902.000000	58.617935
901.000000	58.624861
900.000000	58.630528
899.000000	58.649416
898.000000	58.652984
897.000000	58.662219
896.000000	58.665262
895.000000	58.639237
894.000000	58.614997
893.000000	58.621293
892.000000	58.584355
891.000000	58.564942
890.000000	58.543639
889.000000	58.508380
888.000000	58.453288
887.000000	58.397566
886.000000	58.338487
885.000000	58.274265
884.000000	58.195142
883.000000	58.131340
882.000000	58.059668
881.000000	57.998489
880.000000	57.916428
879.000000	57.839824
878.000000	57.745590
877.000000	57.624702
876.000000	57.501191
875.000000	57.383241
874.000000	57.214082
873.000000	57.040621
872.000000	56.863381
871.000000	56.784993
870.000000	56.754456
869.000000	56.772820
868.000000	56.774919
867.000000	56.762746
866.000000	56.731790
865.000000	56.722031
864.000000	56.720247
863.000000	56.685198
862.000000	56.672815
861.000000	56.636402
860.000000	56.632414
859.000000	56.584248
858.000000	56.558433
857.000000	56.098800
856.000000	56.554200
855.000000	57.022300
854.000000	57.101000
853.000000	56.688500
852.000000	56.594000
851.000000	57.151900
850.000000	57.134200
849.000000	56.720800
848.000000	57.020800
847.000000	56.838400
846.000000	56.485700
845.000000	56.514000
844.000000	56.352300
843.000000	56.366400
842.000000	56.428600
841.000000	56.401700
840.000000	56.194200
839.000000	56.174600
838.000000	55.957500
837.000000	56.083200
836.000000	56.128200
835.000000	55.893100
834.000000	55.836400
833.000000	55.813000
832.000000	55.749700
831.000000	55.670900
830.000000	55.563400
829.000000	55.616700
828.000000	55.294900
827.000000	55.411500
826.000000	55.213800
825.000000	55.109300
824.000000	55.215400
823.000000	55.093200
822.000000	54.957300
821.000000	54.654500
820.000000	54.608300
819.000000	54.668900
818.000000	54.445400
817.000000	54.480100
816.000000	54.115100
815.000000	54.342700
814.000000	54.038400
813.000000	53.978800
812.000000	53.779200
811.000000	53.710000
810.000000	53.516800
809.000000	53.519800
808.000000	53.245800
807.000000	53.332300
806.000000	53.211300
805.000000	53.187300
804.000000	53.179600
803.000000	52.747500
802.000000	52.649700
801.000000	52.607000
800.000000	52.397900
799.000000	52.331900
798.000000	52.206400
797.000000	51.970500
796.000000	51.868500
795.000000	51.812700
794.000000	51.644000
793.000000	51.547100
792.000000	51.407400
791.000000	51.310200
790.000000	51.196800
789.000000	51.006900
788.000000	50.958300
787.000000	50.763600
786.000000	50.695500
785.000000	50.256900
784.000000	50.250300
783.000000	50.088700
782.000000	49.987300
781.000000	49.863100
780.000000	49.695200
779.000000	49.479200
778.000000	49.374900
777.000000	49.139200
776.000000	48.984800
775.000000	48.909300
774.000000	48.699800
773.000000	48.676600
772.000000	48.392000
771.000000	48.277500
770.000000	48.039200
769.000000	47.944300
768.000000	47.729400
767.000000	47.515800
766.000000	47.377000
765.000000	47.276600
764.000000	47.093000
763.000000	46.955400
762.000000	46.818400
761.000000	46.546000
760.000000	46.437600
759.000000	46.139700
758.000000	45.923200
757.000000	45.805500
756.000000	45.535900
755.000000	45.401100
754.000000	45.170100
753.000000	45.072000
752.000000	44.819600
751.000000	44.590600
750.000000	44.464600
749.000000	44.262400
748.000000	44.044800
747.000000	43.834500
746.000000	43.575600
745.000000	43.373300
744.000000	43.152700
743.000000	42.941100
742.000000	42.749700
741.000000	42.548300
740.000000	42.267000
739.000000	42.059300
738.000000	41.815100
737.000000	41.585700
736.000000	41.363000
735.000000	41.208100
734.000000	41.049400
733.000000	40.784500
732.000000	40.530700
731.000000	40.301900
730.000000	40.067000
729.000000	39.892800
728.000000	39.609400
727.000000	39.361300
726.000000	39.183800
725.000000	39.014500
724.000000	38.726100
723.000000	38.435500
722.000000	38.133700
721.000000	37.894100
720.000000	37.696700
719.000000	37.440000
718.000000	37.211300
717.000000	36.975100
716.000000	36.720200
715.000000	36.451000
714.000000	36.214700
713.000000	35.973400
712.000000	35.714500
711.000000	35.445200
710.000000	35.213500
709.000000	34.924500
708.000000	34.689900
707.000000	34.468200
706.000000	34.228000
705.000000	33.963900
704.000000	33.721000
703.000000	33.456700
702.000000	33.217800
701.000000	32.962400
700.000000	32.681200
699.000000	32.479900
698.000000	32.270800
697.000000	32.025000
696.000000	31.822300
695.000000	31.575600
694.000000	31.326400
693.000000	31.125100
692.000000	30.884500
691.000000	30.652400
690.000000	30.440500
689.000000	30.224800
688.000000	30.001800
687.000000	29.780800
686.000000	29.557300
685.000000	29.353700
684.000000	29.127900
683.000000	28.929200
682.000000	28.705600
681.000000	28.530500
680.000000	28.357600
679.000000	28.147200
678.000000	27.960500
677.000000	27.797500
676.000000	27.613900
675.000000	27.425200
674.000000	27.207100
673.000000	27.030300
672.000000	26.853400
671.000000	26.697700
670.000000	26.537700
669.000000	26.373900
668.000000	26.232800
667.000000	26.063700
666.000000	25.917000
665.000000	25.779400
664.000000	25.638100
663.000000	25.511800
662.000000	25.368400
661.000000	25.238200
660.000000	25.118300
659.000000	24.983800
658.000000	24.843700
657.000000	24.751300
656.000000	24.653800
655.000000	24.523500
654.000000	24.401600
653.000000	24.278300
652.000000	24.177000
651.000000	24.093800
650.000000	24.005300
649.000000	23.927800
648.000000	23.862700
647.000000	23.764600
646.000000	23.673600
645.000000	23.601600
644.000000	23.544500
643.000000	23.486000
642.000000	23.416200
641.000000	23.363100
640.000000	23.322900
639.000000	23.274500
638.000000	23.237100
637.000000	23.201400
636.000000	23.165900
635.000000	23.147300
634.000000	23.139800
633.000000	23.104300
632.000000	23.085100
631.000000	23.091600
630.000000	23.079900
629.000000	23.074700
628.000000	23.103000
627.000000	23.128600
626.000000	23.132400
625.000000	23.151400
624.000000	23.184600
623.000000	23.200700
622.000000	23.234400
621.000000	23.275600
620.000000	23.304100
619.000000	23.335600
618.000000	23.377000
617.000000	23.422400
616.000000	23.465900
615.000000	23.514800
614.000000	23.575100
613.000000	23.638300
612.000000	23.700900
611.000000	23.748500
610.000000	23.818400
609.000000	23.894700
608.000000	23.964500
607.000000	24.010900
606.000000	24.064500
605.000000	24.140400
604.000000	24.216700
603.000000	24.293700
602.000000	24.347500
601.000000	24.435900
600.000000	24.519500
599.000000	24.575200
598.000000	24.644200
597.000000	24.696100
596.000000	24.749500
595.000000	24.846700
594.000000	24.907100
593.000000	24.965500
592.000000	25.012600
591.000000	25.056200
590.000000	25.125500
589.000000	25.172300
588.000000	25.225500
587.000000	25.274700
586.000000	25.320900
585.000000	25.343400
584.000000	25.366700
583.000000	25.405500
582.000000	25.411800
581.000000	25.428500
580.000000	25.443900
579.000000	25.436900
578.000000	25.427000
577.000000	25.425200
576.000000	25.420800
575.000000	25.408300
574.000000	25.384600
573.000000	25.355300
572.000000	25.323200
571.000000	25.283100
570.000000	25.244300
569.000000	25.181900
568.000000	25.139300
567.000000	25.073200
566.000000	25.003400
565.000000	24.939900
564.000000	24.871100
563.000000	24.795100
562.000000	24.695500
561.000000	24.592200
560.000000	24.492300
559.000000	24.316400
558.000000	24.176900
557.000000	24.064500
556.000000	23.944500
555.000000	23.823300
554.000000	23.669400
553.000000	23.513000
552.000000	23.382700
551.000000	23.234900
550.000000	23.071700
549.000000	22.889000
548.000000	22.737000
547.000000	22.573600
546.000000	22.373800
545.000000	22.173500
544.000000	21.983000
543.000000	21.793800
542.000000	21.584200
541.000000	21.380900
540.000000	21.176500
539.000000	20.970600
538.000000	20.742500
537.000000	20.523800
536.000000	20.287600
535.000000	20.068700
534.000000	19.852200
533.000000	19.593700
532.000000	19.349700
531.000000	19.110600
530.000000	18.869200
529.000000	18.629900
528.000000	18.382000
527.000000	18.140400
526.000000	17.897400
525.000000	17.648000
524.000000	17.406800
523.000000	17.144400
522.000000	16.909400
521.000000	16.664900
520.000000	16.416000
519.000000	16.178500
518.000000	15.937000
517.000000	15.706400
516.000000	15.478600
515.000000	15.240400
514.000000	15.033400
513.000000	14.799600
512.000000	14.601400
511.000000	14.397400
510.000000	14.189800
509.000000	14.022000
508.000000	13.819000
507.000000	13.648500
506.000000	13.465900
505.000000	13.290700
504.000000	13.130100
503.000000	13.005500
502.000000	12.841200
501.000000	12.704600
500.000000	12.573000
499.000000	12.450700
498.000000	12.326600
497.000000	12.209600
496.000000	12.083900
495.000000	11.991900
494.000000	11.920200
493.000000	11.785000
492.000000	11.713900
491.000000	11.607500
490.000000	11.532700
489.000000	11.477300
488.000000	11.394600
487.000000	11.311600
486.000000	11.231900
485.000000	11.177600
484.000000	11.120000
483.000000	11.042900
482.000000	10.994400
481.000000	10.897800
480.000000	10.851800
479.000000	10.776100
478.000000	10.713000
477.000000	10.672600
476.000000	10.583600
475.000000	10.538900
474.000000	10.488500
473.000000	10.429000
472.000000	10.361400
471.000000	10.315700
470.000000	10.262800
469.000000	10.226100
468.000000	10.178400
467.000000	10.123100
466.000000	10.094300
465.000000	10.068300
464.000000	10.038100
463.000000	10.010800
462.000000	9.967100
461.000000	9.929100
460.000000	9.902600
459.000000	9.856000
458.000000	9.844700
457.000000	9.823500
456.000000	9.802000
455.000000	9.769800
454.000000	9.747000
453.000000	9.740800
452.000000	9.721300
451.000000	9.677000
450.000000	9.648000
449.000000	9.630700
448.000000	9.621600
447.000000	9.590100
446.000000	9.537700
445.000000	9.544300
444.000000	9.510400
443.000000	9.484400
442.000000	9.476700
441.000000	9.442300
440.000000	9.416800
439.000000	9.404900
438.000000	9.376600
437.000000	9.345300
436.000000	9.323800
435.000000	9.285700
434.000000	9.257300
433.000000	9.252800
432.000000	9.243900
431.000000	9.209300
430.000000	9.200600
429.000000	9.177100
428.000000	9.137200
427.000000	9.128900
426.000000	9.122100
425.000000	9.089400
424.000000	9.060500
423.000000	9.015100
422.000000	9.005900
421.000000	8.999000
420.000000	8.946000
419.000000	8.929100
418.000000	8.911100
417.000000	8.869700
416.000000	8.849300
415.000000	8.816300
414.000000	8.790700
413.000000	8.769400
412.000000	8.701900
411.000000	8.654100
410.000000	8.628900
409.000000	8.591700
408.000000	8.554900
407.000000	8.507300
406.000000	8.460700
405.000000	8.401400
404.000000	8.348000
403.000000	8.321300
402.000000	8.262200
401.000000	8.202000
400.000000	8.160300
399.000000	8.099200
398.000000	8.034900
397.000000	7.968400
396.000000	7.913900
395.000000	7.827100
394.000000	7.730200
393.000000	7.691900
392.000000	7.607800
391.000000	7.528800
390.000000	7.456500
389.000000	7.382900
388.000000	7.315700
387.000000	7.237400
386.000000	7.152300
385.000000	7.079800
384.000000	6.993800
383.000000	6.901300
382.000000	6.822400
381.000000	6.745200
380.000000	6.651600
379.000000	6.574700
378.000000	6.499800
377.000000	6.416500
376.000000	6.385000
375.000000	6.146500
374.000000	5.703500
373.000000	5.777900
372.000000	5.817300
371.000000	5.698300
370.000000	5.579700
369.000000	5.606900
368.000000	5.703200
367.000000	5.663800
366.000000	5.549500
365.000000	5.453700
364.000000	5.404700
363.000000	5.398800
362.000000	5.430700
361.000000	5.357100
360.000000	5.250000
359.000000	5.161900
358.000000	5.146500
357.000000	5.214100
356.000000	5.198000
355.000000	5.140900
354.000000	5.102200
353.000000	5.022300
352.000000	5.087600
351.000000	5.053300
350.000000	4.897400
349.000000	4.976800
348.000000	4.979700
347.000000	4.891400
346.000000	4.828900
345.000000	4.812600
344.000000	4.886700
343.000000	4.820500
342.000000	4.893300
341.000000	4.876400
340.000000	4.675700
339.000000	4.685100
338.000000	4.761400
337.000000	4.701500
336.000000	4.673300
335.000000	4.570000
334.000000	4.584000
333.000000	4.707900
332.000000	4.841400
331.000000	4.700300
330.000000	4.780300
329.000000	5.080700
328.000000	4.856100
327.000000	4.544600
326.000000	4.794300
325.000000	4.791300
324.000000	4.474600
323.000000	4.548900
322.000000	4.725400
321.000000	5.057400
320.000000	5.119100
319.000000	5.028500
318.000000	4.751000
317.000000	4.699600
316.000000	4.670000
315.000000	4.518000
314.000000	4.525300
313.000000	4.542900
312.000000	4.495400
311.000000	4.499200
310.000000	4.543100
309.000000	4.519700
308.000000	4.507000
307.000000	4.529600
306.000000	4.568600
305.000000	4.568800
304.000000	4.545500
303.000000	4.511800
302.000000	4.529500
301.000000	4.505300
300.000000	4.518700
299.000000	4.532200
298.000000	4.545500
297.000000	4.540200
296.000000	4.540400
295.000000	4.548900
294.000000	4.559800
293.000000	4.564200
292.000000	4.506000
291.000000	4.513100
290.000000	4.509600
289.000000	4.535300
288.000000	4.531500
287.000000	4.533200
286.000000	4.546200
285.000000	4.517700
284.000000	4.543700
283.000000	4.512500
282.000000	4.517600
281.000000	4.582300
280.000000	4.576500
279.000000	4.567900
278.000000	4.552100
277.000000	4.565500
276.000000	4.594700
275.000000	4.601400
274.000000	4.601100
273.000000	4.597900
272.000000	4.620400
271.000000	4.642200
270.000000	4.632200
269.000000	4.647700
268.000000	4.657100
267.000000	4.672600
266.000000	4.725000
265.000000	4.766800
264.000000	4.792300
263.000000	4.782600
262.000000	4.803600
261.000000	4.792500
260.000000	4.832500
259.000000	4.833100
258.000000	4.850700
257.000000	4.858300
256.000000	4.919300
255.000000	4.899900
254.000000	4.919200
253.000000	4.910300
252.000000	4.906600
251.000000	4.909900
250.000000	4.915700
