PE UV       SUBTECH     SPECTRUM    ASCII       PEDS        4.00        
   -1
CICIMAUCR0012-2.Sample.ASC
24/04/11
16:25:16.00
24/04/11
16:25:16.00
Vinicio Soto Monge
C. cupreomarginata
250,000000
1
Lambda 1050
1050L1511233
PerkinElmer UV WinLab 6.3.2.0749 / 2.02.05 Lambda 900 UV/VIS/NIR, Aug  7 2015 09:38:08

0
0
3350/2 860,8/2
0
0
UV/VIS
1
1
1
DoubleDePol,CommonBeamDepol,RBeamAtt,SBeamAtt,60mm sphere, WB InGaAs Detector
0
0
0
0
Program
Program
3350/2 860,8/2
3350/0,2 860,8/0,2
3350/0,2 860,8/0,2
0
15.00
 
 
 
0
 
860,8
319,2
860,8
Front
100
on
S:100 R:100
0
0
0
0
 
0
 
 
 
0
 
 
0
0
0
0
0
 
 
 
 
0
0


0
0
#HDR
-1
-1
#GR
nm
%R
1.0
0.0
2400,000000
-1,000000
2151
8
58,508600
4,497300
#DATA
2382.000000	13.719666
2381.000000	14.046734
2380.000000	13.472107
2379.000000	13.447093
2378.000000	13.091240
2377.000000	12.581630
2376.000000	13.393988
2375.000000	14.000081
2374.000000	13.324703
2373.000000	13.249661
2372.000000	13.250257
2371.000000	12.995651
2370.000000	12.984533
2369.000000	13.193082
2368.000000	13.186233
2367.000000	13.047267
2366.000000	12.837030
2365.000000	13.234375
2364.000000	11.695123
2363.000000	12.580240
2362.000000	12.027947
2361.000000	12.471151
2360.000000	13.532657
2359.000000	13.229611
2358.000000	12.399286
2357.000000	11.470195
2356.000000	11.867640
2355.000000	12.615676
2354.000000	11.726886
2353.000000	11.991121
2352.000000	12.448023
2351.000000	12.517109
2350.000000	12.159767
2349.000000	12.428568
2348.000000	12.303399
2347.000000	11.646782
2346.000000	12.825020
2345.000000	12.440579
2344.000000	12.509367
2343.000000	12.501128
2342.000000	12.088795
2341.000000	12.090681
2340.000000	11.983577
2339.000000	12.295954
2338.000000	11.897914
2337.000000	12.522172
2336.000000	12.420131
2335.000000	12.916142
2334.000000	12.201358
2333.000000	11.242886
2332.000000	11.724405
2331.000000	11.966604
2330.000000	12.257044
2329.000000	12.809932
2328.000000	12.341416
2327.000000	11.948836
2326.000000	11.901389
2325.000000	11.897418
2324.000000	11.497095
2323.000000	11.943674
2322.000000	11.854041
2321.000000	11.563303
2320.000000	11.483596
2319.000000	11.595861
2318.000000	11.541366
2317.000000	11.050120
2316.000000	10.862614
2315.000000	11.149183
2314.000000	11.445876
2313.000000	10.945200
2312.000000	10.638282
2311.000000	10.636099
2310.000000	10.175226
2309.000000	10.122816
2308.000000	10.576442
2307.000000	10.482739
2306.000000	10.388540
2305.000000	10.483633
2304.000000	10.432116
2303.000000	10.543487
2302.000000	9.999533
2301.000000	10.063855
2300.000000	10.594905
2299.000000	10.564332
2298.000000	10.731489
2297.000000	11.093298
2296.000000	10.993937
2295.000000	10.594508
2294.000000	10.494353
2293.000000	10.988875
2292.000000	11.197821
2291.000000	10.905297
2290.000000	10.890904
2289.000000	10.929616
2288.000000	10.948972
2287.000000	10.950461
2286.000000	10.850802
2285.000000	10.746279
2284.000000	10.768514
2283.000000	10.708262
2282.000000	10.523635
2281.000000	10.680965
2280.000000	10.849114
2279.000000	10.465368
2278.000000	10.373651
2277.000000	10.760474
2276.000000	10.514404
2275.000000	10.114379
2274.000000	10.064649
2273.000000	9.955361
2272.000000	9.723684
2271.000000	9.913473
2270.000000	10.245107
2269.000000	10.338611
2268.000000	10.356478
2267.000000	10.421495
2266.000000	10.391518
2265.000000	10.377125
2264.000000	10.562248
2263.000000	10.663296
2262.000000	10.582001
2261.000000	10.785488
2260.000000	11.229982
2259.000000	11.481809
2258.000000	11.535907
2257.000000	11.992809
2256.000000	12.185972
2255.000000	12.126217
2254.000000	12.512246
2253.000000	12.652800
2252.000000	12.608927
2251.000000	12.592846
2250.000000	13.006272
2249.000000	13.248173
2248.000000	13.660506
2247.000000	14.050307
2246.000000	13.891984
2245.000000	13.906576
2244.000000	13.897345
2243.000000	13.844537
2242.000000	14.226993
2241.000000	14.406558
2240.000000	14.498573
2239.000000	14.530734
2238.000000	14.630294
2237.000000	14.541157
2236.000000	14.815119
2235.000000	15.085806
2234.000000	14.949023
2233.000000	15.113996
2232.000000	14.885793
2231.000000	15.005999
2230.000000	14.739283
2229.000000	14.844898
2228.000000	15.044215
2227.000000	14.860085
2226.000000	15.264775
2225.000000	15.315795
2224.000000	15.102184
2223.000000	15.228644
2222.000000	15.123029
2221.000000	14.867926
2220.000000	14.985452
2219.000000	14.933042
2218.000000	14.876066
2217.000000	14.560513
2216.000000	14.659477
2215.000000	14.817998
2214.000000	14.702060
2213.000000	15.044315
2212.000000	14.697692
2211.000000	14.868423
2210.000000	15.015529
2209.000000	14.756654
2208.000000	14.677641
2207.000000	14.792190
2206.000000	14.649054
2205.000000	14.749408
2204.000000	14.319505
2203.000000	14.000081
2202.000000	14.408344
2201.000000	14.459166
2200.000000	14.485272
2199.000000	14.327049
2198.000000	14.350673
2197.000000	14.567461
2196.000000	14.720820
2195.000000	14.359309
2194.000000	14.289826
2193.000000	14.486364
2192.000000	14.581159
2191.000000	14.398617
2190.000000	14.308983
2189.000000	14.419362
2188.000000	14.523587
2187.000000	14.570042
2186.000000	14.515150
2185.000000	14.344122
2184.000000	14.385713
2183.000000	14.400999
2182.000000	14.345313
2181.000000	14.099938
2180.000000	14.175476
2179.000000	14.355239
2178.000000	14.533216
2177.000000	14.362188
2176.000000	14.400800
2175.000000	14.235132
2174.000000	14.046535
2173.000000	14.350078
2172.000000	14.149470
2171.000000	14.189770
2170.000000	13.988467
2169.000000	14.046436
2168.000000	13.978640
2167.000000	13.789249
2166.000000	13.576233
2165.000000	14.159098
2164.000000	14.024995
2163.000000	14.373106
2162.000000	14.452019
2161.000000	14.246250
2160.000000	14.166245
2159.000000	14.183119
2158.000000	14.045443
2157.000000	14.369136
2156.000000	14.743154
2155.000000	14.294590
2154.000000	14.128625
2153.000000	14.491823
2152.000000	14.243173
2151.000000	14.529444
2150.000000	14.279800
2149.000000	14.295087
2148.000000	15.166605
2147.000000	14.580365
2146.000000	15.005106
2145.000000	14.973342
2144.000000	14.804101
2143.000000	14.539767
2142.000000	14.946939
2141.000000	15.214052
2140.000000	14.769856
2139.000000	14.887779
2138.000000	14.978702
2137.000000	15.013246
2136.000000	14.934829
2135.000000	15.153105
2134.000000	15.142385
2133.000000	15.210777
2132.000000	14.903065
2131.000000	14.878944
2130.000000	14.849662
2129.000000	15.107941
2128.000000	14.987636
2127.000000	14.847677
2126.000000	14.956964
2125.000000	14.973640
2124.000000	14.867430
2123.000000	15.070619
2122.000000	14.739779
2121.000000	14.963515
2120.000000	15.140400
2119.000000	14.667715
2118.000000	14.920237
2117.000000	14.875470
2116.000000	14.695112
2115.000000	15.049972
2114.000000	14.793679
2113.000000	14.275036
2112.000000	14.650047
2111.000000	14.467901
2110.000000	14.668807
2109.000000	14.508698
2108.000000	14.319703
2107.000000	14.320200
2106.000000	14.462541
2105.000000	14.373404
2104.000000	14.234140
2103.000000	14.591582
2102.000000	14.325262
2101.000000	14.112147
2100.000000	14.326850
2099.000000	14.312358
2098.000000	14.092295
2097.000000	14.292903
2096.000000	14.214685
2095.000000	13.965438
2094.000000	14.084056
2093.000000	13.780712
2092.000000	14.115423
2091.000000	13.864588
2090.000000	13.962262
2089.000000	13.990849
2088.000000	13.929902
2087.000000	13.983305
2086.000000	14.101625
2085.000000	13.817240
2084.000000	13.879875
2083.000000	13.874316
2082.000000	13.994026
2081.000000	14.006334
2080.000000	13.773466
2079.000000	13.481041
2078.000000	13.656933
2077.000000	13.691972
2076.000000	13.635194
2075.000000	13.662988
2074.000000	13.454538
2073.000000	13.515485
2072.000000	13.407686
2071.000000	13.410069
2070.000000	13.397264
2069.000000	13.430616
2068.000000	13.413344
2067.000000	13.297605
2066.000000	13.154569
2065.000000	13.300483
2064.000000	13.182759
2063.000000	13.184744
2062.000000	13.111688
2061.000000	13.095607
2060.000000	13.139878
2059.000000	13.213927
2058.000000	13.188814
2057.000000	13.180873
2056.000000	13.148911
2055.000000	13.001308
2054.000000	13.063049
2053.000000	12.918524
2052.000000	13.189807
2051.000000	13.262565
2050.000000	13.329964
2049.000000	13.601544
2048.000000	13.423667
2047.000000	13.529083
2046.000000	13.645815
2045.000000	13.530076
2044.000000	13.690979
2043.000000	13.871636
2042.000000	13.856846
2041.000000	13.950946
2040.000000	14.155723
2039.000000	14.203865
2038.000000	14.317520
2037.000000	14.472368
2036.000000	14.470383
2035.000000	14.603394
2034.000000	14.750698
2033.000000	14.786234
2032.000000	14.773131
2031.000000	14.729655
2030.000000	14.793083
2029.000000	14.862368
2028.000000	15.013543
2027.000000	15.123128
2026.000000	15.101787
2025.000000	15.146356
2024.000000	15.128489
2023.000000	15.175340
2022.000000	15.194001
2021.000000	15.209387
2020.000000	15.274602
2019.000000	15.431733
2018.000000	15.394907
2017.000000	15.247007
2016.000000	15.241746
2015.000000	15.308946
2014.000000	15.472629
2013.000000	15.505088
2012.000000	15.444141
2011.000000	15.405131
2010.000000	15.379125
2009.000000	15.449005
2008.000000	15.412973
2007.000000	15.325523
2006.000000	15.416745
2005.000000	15.432130
2004.000000	15.408605
2003.000000	15.474217
2002.000000	15.411186
2001.000000	15.212861
2000.000000	15.207997
1999.000000	15.242044
1998.000000	15.161543
1997.000000	15.134941
1996.000000	15.122831
1995.000000	15.060990
1994.000000	14.935524
1993.000000	14.885694
1992.000000	14.910510
1991.000000	14.875967
1990.000000	14.756058
1989.000000	14.712284
1988.000000	14.614412
1987.000000	14.589299
1986.000000	14.615801
1985.000000	14.475346
1984.000000	14.456784
1983.000000	14.383827
1982.000000	14.287543
1981.000000	14.216471
1980.000000	14.109467
1979.000000	13.970997
1978.000000	13.997698
1977.000000	14.037403
1976.000000	13.923649
1975.000000	13.828755
1974.000000	13.755797
1973.000000	13.653855
1972.000000	13.607302
1971.000000	13.648098
1970.000000	13.602438
1969.000000	13.449773
1968.000000	13.346839
1967.000000	13.281028
1966.000000	13.246882
1965.000000	13.275767
1964.000000	13.229908
1963.000000	13.128661
1962.000000	13.170451
1961.000000	13.089751
1960.000000	13.048160
1959.000000	13.004286
1958.000000	12.904330
1957.000000	12.813009
1956.000000	12.773503
1955.000000	12.765860
1954.000000	12.773006
1953.000000	12.712457
1952.000000	12.601978
1951.000000	12.567137
1950.000000	12.459041
1949.000000	12.437303
1948.000000	12.472243
1947.000000	12.340324
1946.000000	12.320670
1945.000000	12.327023
1944.000000	12.299925
1943.000000	12.290892
1942.000000	12.345585
1941.000000	12.314715
1940.000000	12.260220
1939.000000	12.267764
1938.000000	12.266374
1937.000000	12.253867
1936.000000	12.348464
1935.000000	12.400278
1934.000000	12.430454
1933.000000	12.313821
1932.000000	12.341714
1931.000000	12.510161
1930.000000	12.501922
1929.000000	12.583019
1928.000000	12.734890
1927.000000	12.785910
1926.000000	12.887852
1925.000000	12.914752
1924.000000	12.965376
1923.000000	13.166083
1922.000000	13.234177
1921.000000	13.392896
1920.000000	13.566207
1919.000000	13.481636
1918.000000	13.637080
1917.000000	13.762349
1916.000000	13.959383
1915.000000	14.087034
1914.000000	14.350475
1913.000000	14.415293
1912.000000	14.684193
1911.000000	14.851548
1910.000000	14.849960
1909.000000	15.110621
1908.000000	15.227353
1907.000000	15.624301
1906.000000	15.790267
1905.000000	15.990279
1904.000000	16.255209
1903.000000	16.393084
1902.000000	16.720052
1901.000000	16.851475
1900.000000	17.165043
1899.000000	17.595640
1898.000000	17.766668
1897.000000	17.926976
1896.000000	18.194486
1895.000000	18.442542
1894.000000	18.733180
1893.000000	19.076626
1892.000000	19.471489
1891.000000	19.778208
1890.000000	20.084034
1889.000000	20.361173
1888.000000	20.702534
1887.000000	21.140378
1886.000000	21.554696
1885.000000	21.966732
1884.000000	22.584637
1883.000000	23.067347
1882.000000	23.430943
1881.000000	24.080115
1880.000000	24.585556
1879.000000	25.074916
1878.000000	25.579563
1877.000000	26.151708
1876.000000	26.629654
1875.000000	27.001290
1874.000000	27.381065
1873.000000	27.927899
1872.000000	28.062597
1871.000000	28.492103
1870.000000	28.713357
1869.000000	28.837633
1868.000000	29.025535
1867.000000	29.296123
1866.000000	29.225746
1865.000000	29.339302
1864.000000	29.623091
1863.000000	29.636095
1862.000000	29.732180
1861.000000	29.958795
1860.000000	30.243279
1859.000000	30.146499
1858.000000	30.057163
1857.000000	30.202582
1856.000000	30.277028
1855.000000	30.221640
1854.000000	30.268888
1853.000000	30.231367
1852.000000	30.099151
1851.000000	30.054086
1850.000000	30.018550
1849.000000	30.137962
1848.000000	30.282884
1847.000000	30.224816
1846.000000	29.825883
1845.000000	29.699225
1844.000000	29.730790
1843.000000	29.855761
1842.000000	29.873429
1841.000000	29.846728
1840.000000	29.725926
1839.000000	29.610287
1838.000000	29.656642
1837.000000	29.730890
1836.000000	29.714511
1835.000000	29.453552
1834.000000	29.286594
1833.000000	29.234084
1832.000000	29.231801
1831.000000	29.137999
1830.000000	29.026627
1829.000000	28.958633
1828.000000	28.930641
1827.000000	28.879323
1826.000000	28.862448
1825.000000	28.671667
1824.000000	28.566747
1823.000000	28.606452
1822.000000	28.596625
1821.000000	28.631863
1820.000000	28.627595
1819.000000	28.443365
1818.000000	28.407730
1817.000000	28.453390
1816.000000	28.442968
1815.000000	28.459048
1814.000000	28.379738
1813.000000	28.368422
1812.000000	28.363459
1811.000000	28.327129
1810.000000	28.278690
1809.000000	28.235014
1808.000000	28.190049
1807.000000	28.153322
1806.000000	28.076493
1805.000000	28.027954
1804.000000	27.962045
1803.000000	27.942887
1802.000000	27.865959
1801.000000	27.815733
1800.000000	27.786947
1799.000000	27.723419
1798.000000	27.604007
1797.000000	27.584453
1796.000000	27.548321
1795.000000	27.520627
1794.000000	27.474669
1793.000000	27.390495
1792.000000	27.313270
1791.000000	27.274955
1790.000000	27.219169
1789.000000	27.131223
1788.000000	27.085364
1787.000000	27.011315
1786.000000	26.917215
1785.000000	26.879793
1784.000000	26.820137
1783.000000	26.733382
1782.000000	26.624294
1781.000000	26.546572
1780.000000	26.496047
1779.000000	26.438575
1778.000000	26.304075
1777.000000	26.181884
1776.000000	26.066542
1775.000000	25.931248
1774.000000	25.821266
1773.000000	25.684582
1772.000000	25.534697
1771.000000	25.430174
1770.000000	25.314336
1769.000000	25.159984
1768.000000	25.039083
1767.000000	24.928307
1766.000000	24.827457
1765.000000	24.712214
1764.000000	24.642234
1763.000000	24.627146
1762.000000	24.612158
1761.000000	24.667546
1760.000000	24.757279
1759.000000	24.820409
1758.000000	24.868650
1757.000000	24.962254
1756.000000	25.038388
1755.000000	25.055362
1754.000000	25.087721
1753.000000	25.089806
1752.000000	25.096853
1751.000000	25.089011
1750.000000	25.039976
1749.000000	24.976349
1748.000000	24.899223
1747.000000	24.817828
1746.000000	24.714795
1745.000000	24.572155
1744.000000	24.425943
1743.000000	24.253029
1742.000000	24.033462
1741.000000	23.802976
1740.000000	23.544002
1739.000000	23.285028
1738.000000	23.079457
1737.000000	22.897907
1736.000000	22.726680
1735.000000	22.589302
1734.000000	22.507411
1733.000000	22.518925
1732.000000	22.567067
1731.000000	22.606971
1730.000000	22.702560
1729.000000	22.851055
1728.000000	22.971460
1727.000000	23.084023
1726.000000	23.175939
1725.000000	23.255448
1724.000000	23.331582
1723.000000	23.420421
1722.000000	23.501319
1721.000000	23.516705
1720.000000	23.510253
1719.000000	23.540230
1718.000000	23.562564
1717.000000	23.632643
1716.000000	23.745404
1715.000000	23.808137
1714.000000	23.855188
1713.000000	23.920800
1712.000000	24.034554
1711.000000	24.095004
1710.000000	24.130937
1709.000000	24.130043
1708.000000	24.141061
1707.000000	24.128455
1706.000000	24.080611
1705.000000	24.010532
1704.000000	23.959115
1703.000000	23.893403
1702.000000	23.790171
1701.000000	23.647433
1700.000000	23.503602
1699.000000	23.314012
1698.000000	23.122139
1697.000000	22.994489
1696.000000	22.883911
1695.000000	22.861180
1694.000000	22.900587
1693.000000	22.976423
1692.000000	23.137525
1691.000000	23.321258
1690.000000	23.531594
1689.000000	23.676616
1688.000000	23.749970
1687.000000	23.758804
1686.000000	23.813498
1685.000000	23.847445
1684.000000	23.940056
1683.000000	24.087361
1682.000000	24.416414
1681.000000	24.843239
1680.000000	25.395730
1679.000000	25.991698
1678.000000	26.549053
1677.000000	27.101346
1676.000000	27.638550
1675.000000	28.074607
1674.000000	28.420435
1673.000000	28.771524
1672.000000	29.044395
1671.000000	29.301979
1670.000000	29.552218
1669.000000	29.777642
1668.000000	29.954030
1667.000000	30.068975
1666.000000	30.199107
1665.000000	30.294399
1664.000000	30.383337
1663.000000	30.490441
1662.000000	30.560420
1661.000000	30.590794
1660.000000	30.684994
1659.000000	30.735121
1658.000000	30.784256
1657.000000	30.793983
1656.000000	30.821578
1655.000000	30.788822
1654.000000	30.802123
1653.000000	30.778498
1652.000000	30.759242
1651.000000	30.751301
1650.000000	30.709412
1649.000000	30.680229
1648.000000	30.663752
1647.000000	30.616602
1646.000000	30.554068
1645.000000	30.509698
1644.000000	30.468107
1643.000000	30.401800
1642.000000	30.315541
1641.000000	30.297873
1640.000000	30.207842
1639.000000	30.115033
1638.000000	30.082872
1637.000000	30.000385
1636.000000	29.943310
1635.000000	29.864893
1634.000000	29.777840
1633.000000	29.709449
1632.000000	29.578622
1631.000000	29.516980
1630.000000	29.429829
1629.000000	29.336026
1628.000000	29.262374
1627.000000	29.166487
1626.000000	29.101768
1625.000000	28.998834
1624.000000	28.892525
1623.000000	28.794255
1622.000000	28.703530
1621.000000	28.614889
1620.000000	28.531311
1619.000000	28.436714
1618.000000	28.373485
1617.000000	28.308468
1616.000000	28.217743
1615.000000	28.130889
1614.000000	28.027756
1613.000000	27.961648
1612.000000	27.874893
1611.000000	27.810472
1610.000000	27.676369
1609.000000	27.580284
1608.000000	27.570258
1607.000000	27.484695
1606.000000	27.386624
1605.000000	27.298777
1604.000000	27.223835
1603.000000	27.139958
1602.000000	27.010422
1601.000000	26.943222
1600.000000	26.864110
1599.000000	26.811600
1598.000000	26.740628
1597.000000	26.645536
1596.000000	26.566523
1595.000000	26.500316
1594.000000	26.424082
1593.000000	26.364228
1592.000000	26.279359
1591.000000	26.256032
1590.000000	26.199155
1589.000000	26.103864
1588.000000	26.042421
1587.000000	26.042818
1586.000000	26.015918
1585.000000	25.970952
1584.000000	25.911892
1583.000000	25.869110
1582.000000	25.813523
1581.000000	25.790693
1580.000000	25.738184
1579.000000	25.719125
1578.000000	25.690538
1577.000000	25.673366
1576.000000	25.675748
1575.000000	25.652421
1574.000000	25.617878
1573.000000	25.644381
1572.000000	25.633264
1571.000000	25.642098
1570.000000	25.650138
1569.000000	25.643786
1568.000000	25.681604
1567.000000	25.662248
1566.000000	25.688553
1565.000000	25.706221
1564.000000	25.751286
1563.000000	25.761411
1562.000000	25.751882
1561.000000	25.764587
1560.000000	25.743941
1559.000000	25.748308
1558.000000	25.764686
1557.000000	25.777789
1556.000000	25.758631
1555.000000	25.760021
1554.000000	25.765481
1553.000000	25.749301
1552.000000	25.716247
1551.000000	25.646962
1550.000000	25.655002
1549.000000	25.641701
1548.000000	25.608151
1547.000000	25.593162
1546.000000	25.580854
1545.000000	25.549288
1544.000000	25.505216
1543.000000	25.473055
1542.000000	25.471666
1541.000000	25.469482
1540.000000	25.455089
1539.000000	25.442979
1538.000000	25.436527
1537.000000	25.438115
1536.000000	25.388484
1535.000000	25.362974
1534.000000	25.346596
1533.000000	25.305303
1532.000000	25.303715
1531.000000	25.272348
1530.000000	25.224603
1529.000000	25.205743
1528.000000	25.185692
1527.000000	25.142414
1526.000000	25.099533
1525.000000	25.023697
1524.000000	25.014863
1523.000000	24.996301
1522.000000	24.953122
1521.000000	24.919075
1520.000000	24.856143
1519.000000	24.808696
1518.000000	24.766212
1517.000000	24.719857
1516.000000	24.685711
1515.000000	24.659605
1514.000000	24.624764
1513.000000	24.570766
1512.000000	24.527587
1511.000000	24.453736
1510.000000	24.403708
1509.000000	24.355268
1508.000000	24.308020
1507.000000	24.264642
1506.000000	24.220074
1505.000000	24.184935
1504.000000	24.147315
1503.000000	24.086269
1502.000000	24.051924
1501.000000	24.008249
1500.000000	23.963184
1499.000000	23.923480
1498.000000	23.888043
1497.000000	23.873551
1496.000000	23.836526
1495.000000	23.815781
1494.000000	23.821339
1493.000000	23.813101
1492.000000	23.779451
1491.000000	23.754834
1490.000000	23.767341
1489.000000	23.776374
1488.000000	23.764462
1487.000000	23.759102
1486.000000	23.746893
1485.000000	23.729224
1484.000000	23.737265
1483.000000	23.726941
1482.000000	23.741731
1481.000000	23.762080
1480.000000	23.768929
1479.000000	23.790767
1478.000000	23.791859
1477.000000	23.802976
1476.000000	23.840993
1475.000000	23.845063
1474.000000	23.851416
1473.000000	23.852110
1472.000000	23.878415
1471.000000	23.932115
1470.000000	23.961993
1469.000000	23.988695
1468.000000	24.010731
1467.000000	24.030186
1466.000000	24.062248
1465.000000	24.097585
1464.000000	24.132227
1463.000000	24.172726
1462.000000	24.235459
1461.000000	24.296108
1460.000000	24.350603
1459.000000	24.414230
1458.000000	24.483217
1457.000000	24.546149
1456.000000	24.622680
1455.000000	24.719460
1454.000000	24.813560
1453.000000	24.901903
1452.000000	25.015756
1451.000000	25.122562
1450.000000	25.214478
1449.000000	25.303913
1448.000000	25.394539
1447.000000	25.526855
1446.000000	25.661851
1445.000000	25.760418
1444.000000	25.862261
1443.000000	25.979886
1442.000000	26.115577
1441.000000	26.248786
1440.000000	26.346063
1439.000000	26.473515
1438.000000	26.628661
1437.000000	26.751448
1436.000000	26.862720
1435.000000	27.003771
1434.000000	27.138470
1433.000000	27.287660
1432.000000	27.440821
1431.000000	27.586140
1430.000000	27.739797
1429.000000	27.903282
1428.000000	28.096147
1427.000000	28.285539
1426.000000	28.471258
1425.000000	28.691619
1424.000000	28.939376
1423.000000	29.172443
1422.000000	29.387444
1421.000000	29.625871
1420.000000	29.887922
1419.000000	30.155631
1418.000000	30.367455
1417.000000	30.584640
1416.000000	30.846791
1415.000000	31.142293
1414.000000	31.429259
1413.000000	31.661829
1412.000000	31.901348
1411.000000	32.200821
1410.000000	32.574541
1409.000000	32.937144
1408.000000	33.245650
1407.000000	33.647859
1406.000000	34.036072
1405.000000	34.485430
1404.000000	34.910270
1403.000000	35.234062
1402.000000	35.633392
1401.000000	36.147965
1400.000000	36.499451
1399.000000	36.735794
1398.000000	37.009657
1397.000000	37.370871
1396.000000	37.787969
1395.000000	38.054983
1394.000000	38.213107
1393.000000	38.393863
1392.000000	38.706339
1391.000000	38.956181
1390.000000	39.197585
1389.000000	39.543016
1388.000000	39.945920
1387.000000	40.268719
1386.000000	40.575934
1385.000000	41.074228
1384.000000	41.481500
1383.000000	41.905050
1382.000000	42.333662
1381.000000	42.600974
1380.000000	42.820839
1379.000000	42.941243
1378.000000	43.067107
1377.000000	43.215603
1376.000000	43.387524
1375.000000	43.525697
1374.000000	43.758763
1373.000000	44.028160
1372.000000	44.395031
1371.000000	44.726864
1370.000000	44.970948
1369.000000	45.182574
1368.000000	45.502892
1367.000000	45.703500
1366.000000	45.842566
1365.000000	46.127844
1364.000000	46.290733
1363.000000	46.352077
1362.000000	46.647083
1361.000000	46.766395
1360.000000	46.711404
1359.000000	46.742473
1358.000000	46.873102
1357.000000	46.996981
1356.000000	47.170292
1355.000000	47.469665
1354.000000	47.856389
1353.000000	48.180280
1352.000000	48.575144
1351.000000	48.960776
1350.000000	49.363779
1349.000000	49.679034
1348.000000	50.068339
1347.000000	50.353121
1346.000000	50.598694
1345.000000	50.872657
1344.000000	51.147314
1343.000000	51.397156
1342.000000	51.584960
1341.000000	51.821401
1340.000000	52.042556
1339.000000	52.233834
1338.000000	52.422431
1337.000000	52.619267
1336.000000	52.826724
1335.000000	52.990209
1334.000000	53.179898
1333.000000	53.321445
1332.000000	53.487510
1331.000000	53.654866
1330.000000	53.760877
1329.000000	53.886344
1328.000000	54.022134
1327.000000	54.109385
1326.000000	54.246962
1325.000000	54.385730
1324.000000	54.467323
1323.000000	54.557254
1322.000000	54.630510
1321.000000	54.712202
1320.000000	54.836974
1319.000000	54.882635
1318.000000	54.965320
1317.000000	55.024976
1316.000000	55.090588
1315.000000	55.194813
1314.000000	55.257546
1313.000000	55.294075
1312.000000	55.359290
1311.000000	55.405645
1310.000000	55.453787
1309.000000	55.475624
1308.000000	55.519498
1307.000000	55.553743
1306.000000	55.601786
1305.000000	55.620249
1304.000000	55.613499
1303.000000	55.633550
1302.000000	55.650127
1301.000000	55.654990
1300.000000	55.664619
1299.000000	55.690427
1298.000000	55.689236
1297.000000	55.684074
1296.000000	55.685861
1295.000000	55.675736
1294.000000	55.676232
1293.000000	55.658663
1292.000000	55.647844
1291.000000	55.642384
1290.000000	55.596922
1289.000000	55.565853
1288.000000	55.550071
1287.000000	55.516123
1286.000000	55.496966
1285.000000	55.461728
1284.000000	55.422122
1283.000000	55.369216
1282.000000	55.321967
1281.000000	55.272833
1280.000000	55.251789
1279.000000	55.222805
1278.000000	55.165034
1277.000000	55.124933
1276.000000	55.081357
1275.000000	55.029542
1274.000000	54.996984
1273.000000	54.970680
1272.000000	54.954302
1271.000000	54.939809
1270.000000	54.904671
1269.000000	54.875984
1268.000000	54.868837
1267.000000	54.810471
1266.000000	54.776027
1265.000000	54.764017
1264.000000	54.742675
1263.000000	54.704261
1262.000000	54.664556
1261.000000	54.652149
1260.000000	54.605595
1259.000000	54.569761
1258.000000	54.539189
1257.000000	54.500477
1256.000000	54.450349
1255.000000	54.403101
1254.000000	54.373719
1253.000000	54.320416
1252.000000	54.288652
1251.000000	54.236639
1250.000000	54.181151
1249.000000	54.112065
1248.000000	54.042979
1247.000000	53.971808
1246.000000	53.888131
1245.000000	53.809218
1244.000000	53.720378
1243.000000	53.620223
1242.000000	53.524336
1241.000000	53.426067
1240.000000	53.314298
1239.000000	53.211959
1238.000000	53.113690
1237.000000	53.011451
1236.000000	52.888366
1235.000000	52.780369
1234.000000	52.662645
1233.000000	52.536284
1232.000000	52.424317
1231.000000	52.314236
1230.000000	52.188570
1229.000000	52.071342
1228.000000	51.951930
1227.000000	51.798670
1226.000000	51.664071
1225.000000	51.564512
1224.000000	51.441228
1223.000000	51.314868
1222.000000	51.185530
1221.000000	51.060460
1220.000000	50.940453
1219.000000	50.825805
1218.000000	50.704607
1217.000000	50.585195
1216.000000	50.463103
1215.000000	50.371286
1214.000000	50.283439
1213.000000	50.188346
1212.000000	50.098614
1211.000000	50.006896
1210.000000	49.911108
1209.000000	49.827927
1208.000000	49.755763
1207.000000	49.690151
1206.000000	49.629205
1205.000000	49.611834
1204.000000	49.584040
1203.000000	49.536891
1202.000000	49.530737
1201.000000	49.504234
1200.000000	49.436736
1199.000000	49.366657
1198.000000	49.285461
1197.000000	49.181534
1196.000000	49.064504
1195.000000	48.919384
1194.000000	48.712919
1193.000000	48.443126
1192.000000	48.132833
1191.000000	47.792465
1190.000000	47.462915
1189.000000	47.156296
1188.000000	46.921045
1187.000000	46.787240
1186.000000	46.701180
1185.000000	46.728974
1184.000000	46.888785
1183.000000	47.126219
1182.000000	47.428968
1181.000000	47.772314
1180.000000	48.151494
1179.000000	48.504866
1178.000000	48.838287
1177.000000	49.155726
1176.000000	49.391076
1175.000000	49.602503
1174.000000	49.831798
1173.000000	50.019403
1172.000000	50.253958
1171.000000	50.507274
1170.000000	50.745006
1169.000000	50.989190
1168.000000	51.225235
1167.000000	51.460485
1166.000000	51.693552
1165.000000	51.931085
1164.000000	52.198794
1163.000000	52.470573
1162.000000	52.724088
1161.000000	52.977106
1160.000000	53.212853
1159.000000	53.424975
1158.000000	53.643450
1157.000000	53.835125
1156.000000	53.995929
1155.000000	54.148296
1154.000000	54.260660
1153.000000	54.361113
1152.000000	54.418983
1151.000000	54.441416
1150.000000	54.487275
1149.000000	54.484297
1148.000000	54.502561
1147.000000	54.539089
1146.000000	54.611054
1145.000000	54.694236
1144.000000	54.837073
1143.000000	54.997778
1142.000000	55.185879
1141.000000	55.400384
1140.000000	55.608040
1139.000000	55.825721
1138.000000	56.037545
1137.000000	56.272994
1136.000000	56.504771
1135.000000	56.779924
1134.000000	56.970308
1133.000000	57.114139
1132.000000	57.279211
1131.000000	57.433762
1130.000000	57.559427
1129.000000	57.705342
1128.000000	57.801924
1127.000000	57.825151
1126.000000	57.881631
1125.000000	57.932949
1124.000000	57.998363
1123.000000	58.074000
1122.000000	58.076680
1121.000000	58.055736
1120.000000	58.060203
1119.000000	58.070030
1118.000000	58.054049
1117.000000	58.025858
1116.000000	58.025163
1115.000000	58.002929
1114.000000	58.030027
1113.000000	57.977220
1112.000000	57.997271
1111.000000	57.966897
1110.000000	57.928879
1109.000000	57.890961
1108.000000	57.878951
1107.000000	57.881929
1106.000000	57.864359
1105.000000	57.841628
1104.000000	57.816217
1103.000000	57.817805
1102.000000	57.777505
1101.000000	57.739488
1100.000000	57.708717
1099.000000	57.716459
1098.000000	57.654520
1097.000000	57.631094
1096.000000	57.583250
1095.000000	57.556052
1094.000000	57.514461
1093.000000	57.463937
1092.000000	57.455996
1091.000000	57.436243
1090.000000	57.385620
1089.000000	57.342739
1088.000000	57.285365
1087.000000	57.247944
1086.000000	57.199603
1085.000000	57.155432
1084.000000	57.142428
1083.000000	57.091805
1082.000000	57.009318
1081.000000	56.989565
1080.000000	56.907575
1079.000000	56.858837
1078.000000	56.875116
1077.000000	56.827173
1076.000000	56.783200
1075.000000	56.691383
1074.000000	56.693368
1073.000000	56.627160
1072.000000	56.580210
1071.000000	56.591228
1070.000000	56.456926
1069.000000	56.427247
1068.000000	56.373646
1067.000000	56.282623
1066.000000	56.241628
1065.000000	56.140381
1064.000000	56.129263
1063.000000	56.042111
1062.000000	56.017197
1061.000000	55.980768
1060.000000	55.910788
1059.000000	55.910887
1058.000000	55.795148
1057.000000	55.813512
1056.000000	55.787604
1055.000000	55.667795
1054.000000	55.606749
1053.000000	55.530119
1052.000000	55.465202
1051.000000	55.406439
1050.000000	55.357304
1049.000000	55.310850
1048.000000	55.280873
1047.000000	55.220819
1046.000000	55.160170
1045.000000	55.172479
1044.000000	55.116793
1043.000000	55.043538
1042.000000	54.982393
1041.000000	54.940405
1040.000000	54.882833
1039.000000	54.822581
1038.000000	54.762627
1037.000000	54.711408
1036.000000	54.621477
1035.000000	54.594974
1034.000000	54.595669
1033.000000	54.451044
1032.000000	54.436453
1031.000000	54.354165
1030.000000	54.274160
1029.000000	54.231080
1028.000000	54.221849
1027.000000	54.174600
1026.000000	54.078614
1025.000000	53.975680
1024.000000	53.951460
1023.000000	53.886344
1022.000000	53.821824
1021.000000	53.705092
1020.000000	53.687423
1019.000000	53.646428
1018.000000	53.609503
1017.000000	53.513120
1016.000000	53.408796
1015.000000	53.364227
1014.000000	53.366312
1013.000000	53.263079
1012.000000	53.239852
1011.000000	53.220992
1010.000000	53.114286
1009.000000	53.043016
1008.000000	53.099297
1007.000000	53.118157
1006.000000	53.040435
1005.000000	52.975518
1004.000000	52.951099
1003.000000	52.924299
1002.000000	52.874767
1001.000000	52.875065
1000.000000	52.840720
999.000000	52.750392
998.000000	52.664134
997.000000	52.681107
996.000000	52.605768
995.000000	52.555541
994.000000	52.566758
993.000000	52.452905
992.000000	52.464419
991.000000	52.407443
990.000000	52.332202
989.000000	52.299148
988.000000	52.291604
987.000000	52.236514
986.000000	52.193335
985.000000	52.168123
984.000000	52.113628
983.000000	52.057843
982.000000	51.982304
981.000000	51.917586
980.000000	51.894656
979.000000	51.828250
978.000000	51.811773
977.000000	51.739609
976.000000	51.722139
975.000000	51.661788
974.000000	51.637270
973.000000	51.499594
972.000000	51.445596
971.000000	51.369859
970.000000	51.380182
969.000000	51.358047
968.000000	51.325092
967.000000	51.271590
966.000000	51.234665
965.000000	51.145726
964.000000	51.012418
963.000000	51.049144
962.000000	51.046266
961.000000	50.988793
960.000000	51.004080
959.000000	50.900351
958.000000	50.860646
957.000000	50.825011
956.000000	50.820048
955.000000	50.726941
954.000000	50.635024
953.000000	50.670163
952.000000	50.571100
951.000000	50.433721
950.000000	50.397789
949.000000	50.451191
948.000000	50.403645
947.000000	50.302497
946.000000	50.306766
945.000000	50.373866
944.000000	50.324434
943.000000	50.260212
942.000000	50.162240
941.000000	50.096926
940.000000	50.075188
939.000000	49.959151
938.000000	49.889469
937.000000	49.918652
936.000000	49.908428
935.000000	49.895226
934.000000	49.864554
933.000000	49.895226
932.000000	49.866937
931.000000	49.711493
930.000000	49.601312
929.000000	49.642704
928.000000	49.713379
927.000000	49.736507
926.000000	49.739881
925.000000	49.580566
924.000000	49.414005
923.000000	49.489543
922.000000	49.411821
921.000000	49.412615
920.000000	49.494209
919.000000	49.292906
918.000000	49.214886
917.000000	49.148480
916.000000	49.280002
915.000000	49.230073
914.000000	49.243374
913.000000	49.289531
912.000000	49.215581
911.000000	49.054380
910.000000	49.006932
909.000000	48.971695
908.000000	49.015965
907.000000	48.969809
906.000000	49.063412
905.000000	49.180641
904.000000	48.900325
903.000000	48.916604
902.000000	49.016462
901.000000	49.141035
900.000000	49.321195
899.000000	49.233051
898.000000	49.057655
897.000000	49.180938
896.000000	49.283873
895.000000	49.277222
894.000000	49.208632
893.000000	49.464132
892.000000	49.247245
891.000000	49.534906
890.000000	49.451526
889.000000	49.522994
888.000000	50.216437
887.000000	49.985852
886.000000	49.946545
885.000000	49.911803
884.000000	49.910711
883.000000	49.677942
882.000000	49.964015
881.000000	50.426872
880.000000	50.510947
879.000000	49.667917
878.000000	50.252172
877.000000	50.824515
876.000000	50.936879
875.000000	50.831463
874.000000	50.949585
873.000000	51.493837
872.000000	51.542178
871.000000	51.221463
870.000000	51.494135
869.000000	51.982205
868.000000	51.593298
867.000000	52.128021
866.000000	51.974959
865.000000	51.416810
864.000000	51.814155
863.000000	52.192144
862.000000	52.420148
861.000000	52.446055
860.000000	52.720217
859.000000	53.416141
858.000000	50.467967
857.000000	49.984500
856.000000	50.567200
855.000000	50.852200
854.000000	50.675200
853.000000	50.683200
852.000000	50.608700
851.000000	50.889600
850.000000	50.849600
849.000000	50.992200
848.000000	51.037400
847.000000	51.106200
846.000000	51.166000
845.000000	51.261600
844.000000	51.665000
843.000000	51.497600
842.000000	51.746600
841.000000	51.717400
840.000000	52.085100
839.000000	52.020600
838.000000	52.106300
837.000000	52.260200
836.000000	52.501000
835.000000	52.240300
834.000000	52.241500
833.000000	52.409300
832.000000	52.506800
831.000000	52.590900
830.000000	52.674400
829.000000	52.764100
828.000000	52.627500
827.000000	52.811300
826.000000	52.820200
825.000000	52.929700
824.000000	52.807800
823.000000	52.931800
822.000000	52.906300
821.000000	53.056800
820.000000	53.148900
819.000000	53.083300
818.000000	53.222500
817.000000	53.108500
816.000000	53.351400
815.000000	53.373100
814.000000	53.331000
813.000000	53.323200
812.000000	53.323400
811.000000	53.297700
810.000000	53.332100
809.000000	53.254200
808.000000	53.276400
807.000000	53.372600
806.000000	53.462500
805.000000	53.476300
804.000000	53.467000
803.000000	53.362400
802.000000	53.351300
801.000000	53.457900
800.000000	53.395400
799.000000	53.410400
798.000000	53.402900
797.000000	53.488100
796.000000	53.451800
795.000000	53.372100
794.000000	53.342900
793.000000	53.290100
792.000000	53.234000
791.000000	53.245000
790.000000	53.243400
789.000000	53.146600
788.000000	53.016600
787.000000	53.126600
786.000000	53.027900
785.000000	53.042100
784.000000	53.008800
783.000000	52.839000
782.000000	52.740400
781.000000	52.745800
780.000000	52.661500
779.000000	52.535800
778.000000	52.521400
777.000000	52.451900
776.000000	52.487200
775.000000	52.370600
774.000000	52.254900
773.000000	52.206700
772.000000	52.189000
771.000000	52.171900
770.000000	52.066400
769.000000	51.950700
768.000000	51.871000
767.000000	51.878200
766.000000	51.716800
765.000000	51.685900
764.000000	51.583400
763.000000	51.592900
762.000000	51.563500
761.000000	51.403400
760.000000	51.475700
759.000000	51.299300
758.000000	51.301700
757.000000	51.214900
756.000000	51.169900
755.000000	51.115700
754.000000	50.989800
753.000000	51.044500
752.000000	50.913700
751.000000	50.942700
750.000000	50.826000
749.000000	50.748300
748.000000	50.691800
747.000000	50.606900
746.000000	50.613800
745.000000	50.489600
744.000000	50.463000
743.000000	50.371700
742.000000	50.335600
741.000000	50.182500
740.000000	50.131800
739.000000	50.063700
738.000000	50.016100
737.000000	49.966800
736.000000	49.941400
735.000000	49.860200
734.000000	49.811600
733.000000	49.731200
732.000000	49.722200
731.000000	49.560500
730.000000	49.510100
729.000000	49.459800
728.000000	49.394500
727.000000	49.307900
726.000000	49.238600
725.000000	49.139600
724.000000	49.100300
723.000000	49.035900
722.000000	48.992700
721.000000	48.858700
720.000000	48.828400
719.000000	48.775500
718.000000	48.730000
717.000000	48.641200
716.000000	48.572000
715.000000	48.558500
714.000000	48.559700
713.000000	48.464800
712.000000	48.431900
711.000000	48.406400
710.000000	48.342100
709.000000	48.245700
708.000000	48.192200
707.000000	48.126200
706.000000	48.022700
705.000000	47.994600
704.000000	47.963800
703.000000	47.900300
702.000000	47.802800
701.000000	47.697900
700.000000	47.614700
699.000000	47.558300
698.000000	47.497200
697.000000	47.429200
696.000000	47.356900
695.000000	47.237500
694.000000	47.164900
693.000000	47.091800
692.000000	47.008400
691.000000	46.922900
690.000000	46.848500
689.000000	46.733800
688.000000	46.658200
687.000000	46.638300
686.000000	46.539400
685.000000	46.401100
684.000000	46.353300
683.000000	46.279900
682.000000	46.162900
681.000000	46.051800
680.000000	45.976400
679.000000	45.886900
678.000000	45.766400
677.000000	45.692800
676.000000	45.650500
675.000000	45.618600
674.000000	45.520300
673.000000	45.416200
672.000000	45.312000
671.000000	45.256700
670.000000	45.218200
669.000000	45.124600
668.000000	45.055200
667.000000	44.969400
666.000000	44.897400
665.000000	44.837400
664.000000	44.734300
663.000000	44.645900
662.000000	44.556400
661.000000	44.438400
660.000000	44.337100
659.000000	44.246700
658.000000	44.123900
657.000000	44.021900
656.000000	43.939200
655.000000	43.830800
654.000000	43.705900
653.000000	43.603100
652.000000	43.494600
651.000000	43.370100
650.000000	43.249600
649.000000	43.103800
648.000000	42.957400
647.000000	42.806000
646.000000	42.657300
645.000000	42.525800
644.000000	42.336400
643.000000	42.141700
642.000000	41.972500
641.000000	41.782100
640.000000	41.600500
639.000000	41.445500
638.000000	41.225400
637.000000	40.988000
636.000000	40.766900
635.000000	40.562200
634.000000	40.378100
633.000000	40.179900
632.000000	39.981100
631.000000	39.801700
630.000000	39.638100
629.000000	39.489300
628.000000	39.344600
627.000000	39.221400
626.000000	39.107600
625.000000	39.006300
624.000000	38.919500
623.000000	38.850100
622.000000	38.799100
621.000000	38.763200
620.000000	38.769000
619.000000	38.760000
618.000000	38.750900
617.000000	38.769000
616.000000	38.796100
615.000000	38.811100
614.000000	38.827800
613.000000	38.897300
612.000000	38.999600
611.000000	39.110900
610.000000	39.223400
609.000000	39.349300
608.000000	39.507500
607.000000	39.696400
606.000000	39.875500
605.000000	40.068300
604.000000	40.295700
603.000000	40.528400
602.000000	40.742400
601.000000	40.944800
600.000000	41.178000
599.000000	41.402800
598.000000	41.598900
597.000000	41.766300
596.000000	41.973000
595.000000	42.201800
594.000000	42.398300
593.000000	42.639900
592.000000	42.909000
591.000000	43.126500
590.000000	43.314900
589.000000	43.500400
588.000000	43.702000
587.000000	43.950900
586.000000	44.225000
585.000000	44.440900
584.000000	44.700900
583.000000	44.979900
582.000000	45.234300
581.000000	45.511500
580.000000	45.777600
579.000000	46.061500
578.000000	46.349900
577.000000	46.629600
576.000000	46.864600
575.000000	47.127100
574.000000	47.414800
573.000000	47.666000
572.000000	47.903600
571.000000	48.116300
570.000000	48.340000
569.000000	48.553100
568.000000	48.759100
567.000000	48.969000
566.000000	49.171800
565.000000	49.329600
564.000000	49.514000
563.000000	49.716300
562.000000	49.883100
561.000000	50.048300
560.000000	50.223300
559.000000	50.541800
558.000000	50.763000
557.000000	50.938500
556.000000	51.067600
555.000000	51.169800
554.000000	51.277700
553.000000	51.387400
552.000000	51.481300
551.000000	51.509400
550.000000	51.607700
549.000000	51.611800
548.000000	51.583800
547.000000	51.571800
546.000000	51.573500
545.000000	51.566900
544.000000	51.497600
543.000000	51.397200
542.000000	51.288400
541.000000	51.166600
540.000000	51.022200
539.000000	50.864400
538.000000	50.668400
537.000000	50.441200
536.000000	50.219200
535.000000	49.967700
534.000000	49.642500
533.000000	49.292800
532.000000	48.876900
531.000000	48.439000
530.000000	48.018400
529.000000	47.557200
528.000000	47.057200
527.000000	46.504800
526.000000	45.982300
525.000000	45.380100
524.000000	44.767000
523.000000	44.163600
522.000000	43.546300
521.000000	42.850500
520.000000	42.186700
519.000000	41.517600
518.000000	40.839500
517.000000	40.171700
516.000000	39.463600
515.000000	38.743500
514.000000	38.087200
513.000000	37.396300
512.000000	36.712500
511.000000	36.021000
510.000000	35.335600
509.000000	34.646500
508.000000	33.962900
507.000000	33.296300
506.000000	32.694600
505.000000	32.069700
504.000000	31.487700
503.000000	30.891000
502.000000	30.277200
501.000000	29.734700
500.000000	29.205600
499.000000	28.678200
498.000000	28.135000
497.000000	27.652400
496.000000	27.177000
495.000000	26.702700
494.000000	26.221400
493.000000	25.782400
492.000000	25.365000
491.000000	24.945700
490.000000	24.516400
489.000000	24.081200
488.000000	23.714900
487.000000	23.295800
486.000000	22.908300
485.000000	22.522600
484.000000	22.137200
483.000000	21.764500
482.000000	21.347800
481.000000	20.917500
480.000000	20.460600
479.000000	20.032400
478.000000	19.683200
477.000000	19.312800
476.000000	18.966200
475.000000	18.590800
474.000000	18.263100
473.000000	17.924500
472.000000	17.604600
471.000000	17.321300
470.000000	17.049500
469.000000	16.787900
468.000000	16.541100
467.000000	16.325300
466.000000	16.109100
465.000000	15.911900
464.000000	15.711400
463.000000	15.531500
462.000000	15.367800
461.000000	15.212400
460.000000	15.072100
459.000000	14.936200
458.000000	14.819600
457.000000	14.700000
456.000000	14.572700
455.000000	14.458800
454.000000	14.345300
453.000000	14.227700
452.000000	14.128200
451.000000	14.044500
450.000000	13.954200
449.000000	13.871900
448.000000	13.783600
447.000000	13.695500
446.000000	13.601600
445.000000	13.558100
444.000000	13.484300
443.000000	13.372900
442.000000	13.285400
441.000000	13.205900
440.000000	13.114500
439.000000	13.033100
438.000000	12.936200
437.000000	12.813000
436.000000	12.740700
435.000000	12.632900
434.000000	12.533300
433.000000	12.451300
432.000000	12.357100
431.000000	12.262000
430.000000	12.182200
429.000000	12.102500
428.000000	12.014200
427.000000	11.911300
426.000000	11.832900
425.000000	11.741900
424.000000	11.639500
423.000000	11.544300
422.000000	11.446400
421.000000	11.343300
420.000000	11.220400
419.000000	11.108500
418.000000	11.006500
417.000000	10.870900
416.000000	10.756700
415.000000	10.619100
414.000000	10.474000
413.000000	10.326600
412.000000	10.181900
411.000000	10.068200
410.000000	9.921400
409.000000	9.756600
408.000000	9.600500
407.000000	9.444300
406.000000	9.290100
405.000000	9.125500
404.000000	8.969700
403.000000	8.804000
402.000000	8.637200
401.000000	8.495400
400.000000	8.318700
399.000000	8.142700
398.000000	7.967200
397.000000	7.820100
396.000000	7.658900
395.000000	7.484300
394.000000	7.331400
393.000000	7.201100
392.000000	7.042000
391.000000	6.889300
390.000000	6.745800
389.000000	6.612500
388.000000	6.484700
387.000000	6.359400
386.000000	6.232900
385.000000	6.099000
384.000000	5.996000
383.000000	5.894300
382.000000	5.791300
381.000000	5.706200
380.000000	5.616200
379.000000	5.514400
378.000000	5.438900
377.000000	5.371900
376.000000	5.375600
375.000000	5.348400
374.000000	5.067200
373.000000	5.032600
372.000000	5.039400
371.000000	5.032400
370.000000	4.972100
369.000000	4.882100
368.000000	4.859300
367.000000	4.931000
366.000000	4.891700
365.000000	4.808900
364.000000	4.833800
363.000000	4.791100
362.000000	4.855500
361.000000	4.770700
360.000000	4.710300
359.000000	4.696200
358.000000	4.700300
357.000000	4.727200
356.000000	4.707100
355.000000	4.632100
354.000000	4.591600
353.000000	4.593800
352.000000	4.632300
351.000000	4.601900
350.000000	4.540900
349.000000	4.509500
348.000000	4.497300
347.000000	4.546500
346.000000	4.614800
345.000000	4.540300
344.000000	4.551000
343.000000	4.567600
342.000000	4.588500
341.000000	4.610500
340.000000	4.586900
339.000000	4.594500
338.000000	4.638700
337.000000	4.675700
336.000000	4.618900
335.000000	4.627600
334.000000	4.646800
333.000000	4.711800
332.000000	4.660400
331.000000	4.627200
330.000000	4.702100
329.000000	4.738000
328.000000	4.742900
327.000000	4.794300
326.000000	4.959900
325.000000	4.964000
324.000000	4.896800
323.000000	4.956100
322.000000	4.969700
321.000000	4.929400
320.000000	4.856900
319.000000	4.781000
318.000000	4.928200
317.000000	5.065200
316.000000	4.823100
315.000000	4.609400
314.000000	4.608700
313.000000	4.568100
312.000000	4.579100
311.000000	4.595700
310.000000	4.572400
309.000000	4.570300
308.000000	4.553200
307.000000	4.546700
306.000000	4.582000
305.000000	4.599000
304.000000	4.596700
303.000000	4.584200
302.000000	4.610300
301.000000	4.634300
300.000000	4.613500
299.000000	4.586900
298.000000	4.573100
297.000000	4.596600
296.000000	4.588100
295.000000	4.606100
294.000000	4.630300
293.000000	4.633100
292.000000	4.635700
291.000000	4.651700
290.000000	4.633100
289.000000	4.639900
288.000000	4.685200
287.000000	4.689700
286.000000	4.656100
285.000000	4.638100
284.000000	4.616200
283.000000	4.666300
282.000000	4.676300
281.000000	4.642100
280.000000	4.655400
279.000000	4.659600
278.000000	4.654600
277.000000	4.660300
276.000000	4.685700
275.000000	4.684200
274.000000	4.755200
273.000000	4.762800
272.000000	4.743200
271.000000	4.784400
270.000000	4.790300
269.000000	4.785300
268.000000	4.808700
267.000000	4.807700
266.000000	4.803100
265.000000	4.814800
264.000000	4.836600
263.000000	4.845000
262.000000	4.895500
261.000000	4.955900
260.000000	4.975200
259.000000	4.990700
258.000000	5.023100
257.000000	5.034100
256.000000	5.012100
255.000000	4.992900
254.000000	5.026900
253.000000	4.980800
252.000000	5.016300
251.000000	5.056300
250.000000	5.023800
