PE UV       SUBTECH     SPECTRUM    ASCII       PEDS        4.00        
   -1
CICIMAUCR0104-1.ASC
24/04/03
17:14:03.00
24/04/03
17:14:03.00
Vinicio Soto Monge
C. resplendens
250,000000
1
Lambda 1050
1050L1511233
PerkinElmer UV WinLab 6.3.2.0749 / 2.02.05 Lambda 900 UV/VIS/NIR, Aug  7 2015 09:38:08

0
0
3350/servo 860,8/2
0
0
UV/VIS
1
1
1
DoubleDePol,CommonBeamDepol,RBeamAtt,SBeamAtt,60mm sphere, WB InGaAs Detector
0
0
0
0
Program
Program
3350/servo 860,8/2
3350/0,2 860,8/0,2
3350/0,2 860,8/0,2
0
15.00
 
 
 
0
 
860,8
319,2
860,8
Front
100
on
S:100 R:100
0
0
0
0
 
0
 
 
 
0
 
 
0
0
0
0
0
 
 
 
 
0
0


0
0
#HDR
-1
-1
#GR
nm
%R
1.0
0.0
2500,000000
-1,000000
2251
8
71,310100
3,418100
#DATA
2482.000000	3.578775
2481.000000	3.598424
2480.000000	3.558722
2479.000000	3.588751
2478.000000	3.626438
2477.000000	3.555094
2476.000000	3.558722
2475.000000	3.532119
2474.000000	3.574442
2473.000000	3.616865
2472.000000	3.565171
2471.000000	3.589255
2470.000000	3.612028
2469.000000	3.629562
2468.000000	3.587441
2467.000000	3.582100
2466.000000	3.595200
2465.000000	3.593588
2464.000000	3.604269
2463.000000	3.592882
2462.000000	3.605680
2461.000000	3.601548
2460.000000	3.635709
2459.000000	3.640142
2458.000000	3.645685
2457.000000	3.672590
2456.000000	3.692844
2455.000000	3.673194
2454.000000	3.693952
2453.000000	3.719245
2452.000000	3.734159
2451.000000	3.731438
2450.000000	3.737182
2449.000000	3.787465
2448.000000	3.786558
2447.000000	3.774567
2446.000000	3.801472
2445.000000	3.817595
2444.000000	3.844298
2443.000000	3.877048
2442.000000	3.878862
2441.000000	3.892566
2440.000000	3.914937
2439.000000	3.906573
2438.000000	3.925215
2437.000000	3.953329
2436.000000	3.977413
2435.000000	3.970863
2434.000000	3.997969
2433.000000	4.004922
2432.000000	4.013387
2431.000000	4.042307
2430.000000	4.052384
2429.000000	4.067399
2428.000000	4.077475
2427.000000	4.093195
2426.000000	4.108512
2425.000000	4.130782
2424.000000	4.146905
2423.000000	4.144184
2422.000000	4.161717
2421.000000	4.162120
2420.000000	4.171996
2419.000000	4.191847
2418.000000	4.205955
2417.000000	4.220868
2416.000000	4.230743
2415.000000	4.233162
2414.000000	4.240014
2413.000000	4.252812
2412.000000	4.270950
2411.000000	4.285964
2410.000000	4.283445
2409.000000	4.294933
2408.000000	4.310350
2407.000000	4.312265
2406.000000	4.333124
2405.000000	4.342193
2404.000000	4.336751
2403.000000	4.352068
2402.000000	4.353076
2401.000000	4.367385
2400.000000	4.363253
2399.000000	4.364664
2398.000000	4.383004
2397.000000	4.403460
2396.000000	4.407390
2395.000000	4.410211
2394.000000	4.416157
2393.000000	4.429861
2392.000000	4.436109
2391.000000	4.439434
2390.000000	4.448805
2389.000000	4.461603
2388.000000	4.458479
2387.000000	4.460494
2386.000000	4.482764
2385.000000	4.477827
2384.000000	4.478834
2383.000000	4.480245
2382.000000	4.492841
2381.000000	4.495058
2380.000000	4.484780
2379.000000	4.483066
2378.000000	4.484578
2377.000000	4.483167
2376.000000	4.493546
2375.000000	4.498484
2374.000000	4.482361
2373.000000	4.469664
2372.000000	4.468354
2371.000000	4.467145
2370.000000	4.458278
2369.000000	4.457471
2368.000000	4.454650
2367.000000	4.434194
2366.000000	4.420691
2365.000000	4.431977
2364.000000	4.419683
2363.000000	4.392577
2362.000000	4.379880
2361.000000	4.381895
2360.000000	4.376756
2359.000000	4.368292
2358.000000	4.364261
2357.000000	4.352270
2356.000000	4.333728
2355.000000	4.322241
2354.000000	4.309645
2353.000000	4.301785
2352.000000	4.294026
2351.000000	4.299770
2350.000000	4.299467
2349.000000	4.305009
2348.000000	4.299971
2347.000000	4.295940
2346.000000	4.302893
2345.000000	4.306521
2344.000000	4.312970
2343.000000	4.305715
2342.000000	4.316598
2341.000000	4.329597
2340.000000	4.321233
2339.000000	4.332116
2338.000000	4.319822
2337.000000	4.304002
2336.000000	4.299064
2335.000000	4.297049
2334.000000	4.294933
2333.000000	4.284856
2332.000000	4.286871
2331.000000	4.274981
2330.000000	4.252106
2329.000000	4.235278
2328.000000	4.248378
2327.000000	4.215528
2326.000000	4.195878
2325.000000	4.176228
2324.000000	4.147509
2323.000000	4.135115
2322.000000	4.115364
2321.000000	4.103977
2320.000000	4.092893
2319.000000	4.065081
2318.000000	4.037672
2317.000000	4.049966
2316.000000	4.024068
2315.000000	3.987490
2314.000000	3.964817
2313.000000	3.961693
2312.000000	3.953329
2311.000000	3.931160
2310.000000	3.912014
2309.000000	3.878862
2308.000000	3.863041
2307.000000	3.865460
2306.000000	3.852057
2305.000000	3.838353
2304.000000	3.826059
2303.000000	3.831400
2302.000000	3.839865
2301.000000	3.838756
2300.000000	3.805603
2299.000000	3.798953
2298.000000	3.809231
2297.000000	3.807518
2296.000000	3.812556
2295.000000	3.826160
2294.000000	3.842988
2293.000000	3.819106
2292.000000	3.808828
2291.000000	3.802681
2290.000000	3.801673
2289.000000	3.780210
2288.000000	3.781822
2287.000000	3.765800
2286.000000	3.746050
2285.000000	3.732244
2284.000000	3.700905
2283.000000	3.692743
2282.000000	3.683775
2281.000000	3.655963
2280.000000	3.642964
2279.000000	3.638832
2278.000000	3.599734
2277.000000	3.579782
2276.000000	3.588851
2275.000000	3.548645
2274.000000	3.539677
2273.000000	3.529499
2272.000000	3.502594
2271.000000	3.496750
2270.000000	3.505416
2269.000000	3.470852
2268.000000	3.481634
2267.000000	3.470046
2266.000000	3.460977
2265.000000	3.448280
2264.000000	3.444350
2263.000000	3.464605
2262.000000	3.463295
2261.000000	3.468535
2260.000000	3.468031
2259.000000	3.501586
2258.000000	3.508942
2257.000000	3.522647
2256.000000	3.560435
2255.000000	3.573333
2254.000000	3.582705
2253.000000	3.590766
2252.000000	3.629562
2251.000000	3.641755
2250.000000	3.659792
2249.000000	3.691836
2248.000000	3.721059
2247.000000	3.726501
2246.000000	3.738290
2245.000000	3.761366
2244.000000	3.799557
2243.000000	3.789077
2242.000000	3.825052
2241.000000	3.860320
2240.000000	3.846414
2239.000000	3.865963
2238.000000	3.909394
2237.000000	3.907883
2236.000000	3.911611
2235.000000	3.937811
2234.000000	3.940129
2233.000000	3.974894
2232.000000	3.948392
2231.000000	3.972475
2230.000000	3.961794
2229.000000	3.959275
2228.000000	3.937609
2227.000000	3.922595
2226.000000	3.938516
2225.000000	3.910704
2224.000000	3.902844
2223.000000	3.882590
2222.000000	3.880575
2221.000000	3.855181
2220.000000	3.849135
2219.000000	3.854476
2218.000000	3.816688
2217.000000	3.772753
2216.000000	3.753708
2215.000000	3.754716
2214.000000	3.730430
2213.000000	3.746654
2212.000000	3.755018
2211.000000	3.729826
2210.000000	3.754514
2209.000000	3.764490
2208.000000	3.779202
2207.000000	3.804999
2206.000000	3.834423
2205.000000	3.885815
2204.000000	3.921890
2203.000000	3.985373
2202.000000	4.034750
2201.000000	4.081103
2200.000000	4.141765
2199.000000	4.209784
2198.000000	4.281631
2197.000000	4.357913
2196.000000	4.412126
2195.000000	4.488911
2194.000000	4.550480
2193.000000	4.608422
2192.000000	4.658302
2191.000000	4.721484
2190.000000	4.760380
2189.000000	4.815702
2188.000000	4.876062
2187.000000	4.892487
2186.000000	4.924027
2185.000000	4.957784
2184.000000	4.989123
2183.000000	5.026710
2182.000000	5.050289
2181.000000	5.052809
2180.000000	5.097348
2179.000000	5.097247
2178.000000	5.128888
2177.000000	5.146221
2176.000000	5.156700
2175.000000	5.169901
2174.000000	5.192473
2173.000000	5.201240
2172.000000	5.218471
2171.000000	5.242152
2170.000000	5.248500
2169.000000	5.267444
2168.000000	5.283366
2167.000000	5.291125
2166.000000	5.294853
2165.000000	5.319642
2164.000000	5.326293
2163.000000	5.348260
2162.000000	5.360352
2161.000000	5.368313
2160.000000	5.377685
2159.000000	5.382622
2158.000000	5.434316
2157.000000	5.447013
2156.000000	5.446610
2155.000000	5.460012
2154.000000	5.462430
2153.000000	5.475329
2152.000000	5.474825
2151.000000	5.497901
2150.000000	5.516946
2149.000000	5.529844
2148.000000	5.531557
2147.000000	5.540727
2146.000000	5.565113
2145.000000	5.568539
2144.000000	5.571764
2143.000000	5.591716
2142.000000	5.603506
2141.000000	5.614288
2140.000000	5.618923
2139.000000	5.619528
2138.000000	5.610358
2137.000000	5.631519
2136.000000	5.637364
2135.000000	5.628093
2134.000000	5.642805
2133.000000	5.641999
2132.000000	5.649053
2131.000000	5.641596
2130.000000	5.642906
2129.000000	5.634643
2128.000000	5.629907
2127.000000	5.630814
2126.000000	5.633232
2125.000000	5.636255
2124.000000	5.625272
2123.000000	5.609955
2122.000000	5.588693
2121.000000	5.591111
2120.000000	5.598266
2119.000000	5.589398
2118.000000	5.587786
2117.000000	5.579321
2116.000000	5.558563
2115.000000	5.555339
2114.000000	5.552517
2113.000000	5.540123
2112.000000	5.524201
2111.000000	5.510598
2110.000000	5.505458
2109.000000	5.503947
2108.000000	5.491452
2107.000000	5.474019
2106.000000	5.465756
2105.000000	5.454571
2104.000000	5.442982
2103.000000	5.439858
2102.000000	5.434417
2101.000000	5.418798
2100.000000	5.412450
2099.000000	5.400760
2098.000000	5.390482
2097.000000	5.394211
2096.000000	5.393807
2095.000000	5.381615
2094.000000	5.372142
2093.000000	5.368716
2092.000000	5.358539
2091.000000	5.336269
2090.000000	5.328107
2089.000000	5.331130
2088.000000	5.331533
2087.000000	5.328510
2086.000000	5.311178
2085.000000	5.305333
2084.000000	5.305938
2083.000000	5.292536
2082.000000	5.284373
2081.000000	5.288203
2080.000000	5.278831
2079.000000	5.246182
2078.000000	5.241648
2077.000000	5.246082
2076.000000	5.225424
2075.000000	5.228145
2074.000000	5.231168
2073.000000	5.214440
2072.000000	5.206581
2071.000000	5.213231
2070.000000	5.201945
2069.000000	5.180482
2068.000000	5.173629
2067.000000	5.174133
2066.000000	5.175141
2065.000000	5.156499
2064.000000	5.161033
2063.000000	5.168490
2062.000000	5.169095
2061.000000	5.173226
2060.000000	5.162343
2059.000000	5.167886
2058.000000	5.173226
2057.000000	5.168994
2056.000000	5.165770
2055.000000	5.180986
2054.000000	5.184311
2053.000000	5.204666
2052.000000	5.212627
2051.000000	5.229959
2050.000000	5.249004
2049.000000	5.273087
2048.000000	5.305232
2047.000000	5.316922
2046.000000	5.332541
2045.000000	5.362368
2044.000000	5.385847
2043.000000	5.404388
2042.000000	5.447013
2041.000000	5.489839
2040.000000	5.497800
2039.000000	5.509187
2038.000000	5.561082
2037.000000	5.590809
2036.000000	5.623861
2035.000000	5.657013
2034.000000	5.691476
2033.000000	5.718079
2032.000000	5.730373
2031.000000	5.754154
2030.000000	5.768060
2029.000000	5.773501
2028.000000	5.803530
2027.000000	5.849984
2026.000000	5.869533
2025.000000	5.866812
2024.000000	5.903190
2023.000000	5.932009
2022.000000	5.927575
2021.000000	5.971309
2020.000000	5.986726
2019.000000	5.992268
2018.000000	6.024212
2017.000000	6.035397
2016.000000	6.070263
2015.000000	6.065325
2014.000000	6.068550
2013.000000	6.064519
2012.000000	6.106136
2011.000000	6.123065
2010.000000	6.113291
2009.000000	6.116515
2008.000000	6.144126
2007.000000	6.134150
2006.000000	6.128608
2005.000000	6.152389
2004.000000	6.135460
2003.000000	6.149870
2002.000000	6.162163
2001.000000	6.151280
2000.000000	6.165791
1999.000000	6.130824
1998.000000	6.131127
1997.000000	6.116515
1996.000000	6.128104
1995.000000	6.098377
1994.000000	6.089207
1993.000000	6.115306
1992.000000	6.090719
1991.000000	6.084270
1990.000000	6.093742
1989.000000	6.057264
1988.000000	6.050412
1987.000000	6.026026
1986.000000	6.001237
1985.000000	6.005872
1984.000000	5.985416
1983.000000	5.959015
1982.000000	5.938660
1981.000000	5.956294
1980.000000	5.915987
1979.000000	5.910042
1978.000000	5.885454
1977.000000	5.857239
1976.000000	5.838396
1975.000000	5.833962
1974.000000	5.835776
1973.000000	5.799600
1972.000000	5.789019
1971.000000	5.785493
1970.000000	5.761409
1969.000000	5.754960
1968.000000	5.734907
1967.000000	5.721404
1966.000000	5.718986
1965.000000	5.692081
1964.000000	5.673942
1963.000000	5.652983
1962.000000	5.660440
1961.000000	5.646937
1960.000000	5.631922
1959.000000	5.643208
1958.000000	5.585468
1957.000000	5.590103
1956.000000	5.578817
1955.000000	5.562997
1954.000000	5.533976
1953.000000	5.533270
1952.000000	5.534177
1951.000000	5.513318
1950.000000	5.498707
1949.000000	5.519767
1948.000000	5.491552
1947.000000	5.479259
1946.000000	5.473011
1945.000000	5.435828
1944.000000	5.440463
1943.000000	5.434215
1942.000000	5.445501
1941.000000	5.446811
1940.000000	5.430285
1939.000000	5.416682
1938.000000	5.418193
1937.000000	5.409225
1936.000000	5.420007
1935.000000	5.405295
1934.000000	5.415170
1933.000000	5.423433
1932.000000	5.431293
1931.000000	5.451144
1930.000000	5.452253
1929.000000	5.470895
1928.000000	5.462430
1927.000000	5.486615
1926.000000	5.507675
1925.000000	5.522287
1924.000000	5.533976
1923.000000	5.576298
1922.000000	5.608846
1921.000000	5.640286
1920.000000	5.637364
1919.000000	5.682105
1918.000000	5.702762
1917.000000	5.755161
1916.000000	5.797182
1915.000000	5.843535
1914.000000	5.893314
1913.000000	5.923545
1912.000000	5.978463
1911.000000	6.020786
1910.000000	6.077417
1909.000000	6.123670
1908.000000	6.193401
1907.000000	6.257893
1906.000000	6.323594
1905.000000	6.412874
1904.000000	6.477769
1903.000000	6.539842
1902.000000	6.627409
1901.000000	6.718604
1900.000000	6.798312
1899.000000	6.879228
1898.000000	6.974353
1897.000000	7.067362
1896.000000	7.135179
1895.000000	7.237458
1894.000000	7.343265
1893.000000	7.462171
1892.000000	7.582488
1891.000000	7.720339
1890.000000	7.840857
1889.000000	7.967522
1888.000000	8.106784
1887.000000	8.284639
1886.000000	8.472773
1885.000000	8.673906
1884.000000	8.944569
1883.000000	9.239214
1882.000000	9.548874
1881.000000	9.863270
1880.000000	10.184216
1879.000000	10.526324
1878.000000	10.834271
1877.000000	11.147457
1876.000000	11.460846
1875.000000	11.751360
1874.000000	12.025146
1873.000000	12.289058
1872.000000	12.516793
1871.000000	12.720748
1870.000000	12.890038
1869.000000	13.055701
1868.000000	13.205543
1867.000000	13.313767
1866.000000	13.394281
1865.000000	13.488297
1864.000000	13.572842
1863.000000	13.636124
1862.000000	13.695779
1861.000000	13.739210
1860.000000	13.759867
1859.000000	13.776998
1858.000000	13.770145
1857.000000	13.769742
1856.000000	13.752612
1855.000000	13.730644
1854.000000	13.679454
1853.000000	13.619195
1852.000000	13.575865
1851.000000	13.546239
1850.000000	13.524876
1849.000000	13.493034
1848.000000	13.409396
1847.000000	13.307721
1846.000000	13.215418
1845.000000	13.163119
1844.000000	13.144981
1843.000000	13.153748
1842.000000	13.133896
1841.000000	13.072831
1840.000000	13.026982
1839.000000	12.990302
1838.000000	12.956847
1837.000000	12.914323
1836.000000	12.845599
1835.000000	12.773349
1834.000000	12.699284
1833.000000	12.645373
1832.000000	12.606981
1831.000000	12.540474
1830.000000	12.454116
1829.000000	12.382067
1828.000000	12.320800
1827.000000	12.252378
1826.000000	12.182848
1825.000000	12.121481
1824.000000	12.085506
1823.000000	12.087119
1822.000000	12.066461
1821.000000	12.026053
1820.000000	11.988064
1819.000000	11.939292
1818.000000	11.922968
1817.000000	11.935765
1816.000000	11.943323
1815.000000	11.933347
1814.000000	11.925386
1813.000000	11.919239
1812.000000	11.909969
1811.000000	11.902512
1810.000000	11.861701
1809.000000	11.835098
1808.000000	11.809100
1807.000000	11.778668
1806.000000	11.737152
1805.000000	11.696643
1804.000000	11.662684
1803.000000	11.638298
1802.000000	11.605750
1801.000000	11.558087
1800.000000	11.503370
1799.000000	11.455908
1798.000000	11.417012
1797.000000	11.389804
1796.000000	11.356349
1795.000000	11.323801
1794.000000	11.274929
1793.000000	11.238552
1792.000000	11.174564
1791.000000	11.111584
1790.000000	11.063518
1789.000000	11.024621
1788.000000	10.969199
1787.000000	10.916396
1786.000000	10.851603
1785.000000	10.761113
1784.000000	10.694908
1783.000000	10.636060
1782.000000	10.563104
1781.000000	10.500225
1780.000000	10.436035
1779.000000	10.354917
1778.000000	10.276419
1777.000000	10.192278
1776.000000	10.108943
1775.000000	10.011298
1774.000000	9.920809
1773.000000	9.833443
1772.000000	9.711312
1771.000000	9.619513
1770.000000	9.521465
1769.000000	9.415155
1768.000000	9.322045
1767.000000	9.230850
1766.000000	9.167971
1765.000000	9.093907
1764.000000	9.052290
1763.000000	9.056824
1762.000000	9.056119
1761.000000	9.083628
1760.000000	9.114363
1759.000000	9.156383
1758.000000	9.188729
1757.000000	9.207271
1756.000000	9.243346
1755.000000	9.273979
1754.000000	9.295140
1753.000000	9.305217
1752.000000	9.264507
1751.000000	9.241733
1750.000000	9.224704
1749.000000	9.158600
1748.000000	9.102271
1747.000000	9.027501
1746.000000	8.963009
1745.000000	8.884309
1744.000000	8.769837
1743.000000	8.642970
1742.000000	8.523560
1741.000000	8.379663
1740.000000	8.221760
1739.000000	8.099931
1738.000000	7.973165
1737.000000	7.866553
1736.000000	7.773141
1735.000000	7.719432
1734.000000	7.700185
1733.000000	7.684767
1732.000000	7.713083
1731.000000	7.750166
1730.000000	7.825137
1729.000000	7.891946
1728.000000	7.969941
1727.000000	8.031913
1726.000000	8.096707
1725.000000	8.198684
1724.000000	8.218938
1723.000000	8.205234
1722.000000	8.233449
1721.000000	8.233852
1720.000000	8.223775
1719.000000	8.210272
1718.000000	8.239697
1717.000000	8.256323
1716.000000	8.280306
1715.000000	8.278089
1714.000000	8.305297
1713.000000	8.331597
1712.000000	8.336837
1711.000000	8.368680
1710.000000	8.388934
1709.000000	8.363843
1708.000000	8.347619
1707.000000	8.326861
1706.000000	8.315071
1705.000000	8.295321
1704.000000	8.267710
1703.000000	8.218636
1702.000000	8.165834
1701.000000	8.084413
1700.000000	8.030704
1699.000000	7.925804
1698.000000	7.856275
1697.000000	7.793194
1696.000000	7.743414
1695.000000	7.743515
1694.000000	7.783722
1693.000000	7.843376
1692.000000	7.940517
1691.000000	8.058012
1690.000000	8.149207
1689.000000	8.230930
1688.000000	8.269625
1687.000000	8.280911
1686.000000	8.300661
1685.000000	8.310537
1684.000000	8.343992
1683.000000	8.433171
1682.000000	8.612639
1681.000000	8.926430
1680.000000	9.234982
1679.000000	9.618505
1678.000000	9.998199
1677.000000	10.412960
1676.000000	10.741262
1675.000000	11.077827
1674.000000	11.343653
1673.000000	11.589426
1672.000000	11.786024
1671.000000	11.970933
1670.000000	12.141231
1669.000000	12.267393
1668.000000	12.373300
1667.000000	12.464898
1666.000000	12.559217
1665.000000	12.617360
1664.000000	12.671271
1663.000000	12.712888
1662.000000	12.749971
1661.000000	12.791285
1660.000000	12.825043
1659.000000	12.835623
1658.000000	12.848723
1657.000000	12.857792
1656.000000	12.850033
1655.000000	12.836631
1654.000000	12.818090
1653.000000	12.815067
1652.000000	12.785239
1651.000000	12.752994
1650.000000	12.711578
1649.000000	12.669658
1648.000000	12.633684
1647.000000	12.591866
1646.000000	12.547225
1645.000000	12.487671
1644.000000	12.441520
1643.000000	12.386702
1642.000000	12.323722
1641.000000	12.261246
1640.000000	12.205118
1639.000000	12.143851
1638.000000	12.095180
1637.000000	12.044796
1636.000000	11.952291
1635.000000	11.875708
1634.000000	11.814239
1633.000000	11.756902
1632.000000	11.685961
1631.000000	11.636182
1630.000000	11.563025
1629.000000	11.508408
1628.000000	11.445529
1627.000000	11.363302
1626.000000	11.288734
1625.000000	11.214065
1624.000000	11.161162
1623.000000	11.093043
1622.000000	11.022001
1621.000000	10.962044
1620.000000	10.895941
1619.000000	10.843037
1618.000000	10.777639
1617.000000	10.713349
1616.000000	10.679289
1615.000000	10.702869
1614.000000	10.696621
1613.000000	10.667399
1612.000000	10.634951
1611.000000	10.587691
1610.000000	10.538617
1609.000000	10.499519
1608.000000	10.454577
1607.000000	10.409836
1606.000000	10.361467
1605.000000	10.314610
1604.000000	10.277729
1603.000000	10.240143
1602.000000	10.188549
1601.000000	10.140281
1600.000000	10.113981
1599.000000	10.071860
1598.000000	10.034576
1597.000000	10.010795
1596.000000	9.979859
1595.000000	9.952450
1594.000000	9.928467
1593.000000	9.903577
1592.000000	9.878083
1591.000000	9.852690
1590.000000	9.824978
1589.000000	9.809158
1588.000000	9.815204
1587.000000	9.806840
1586.000000	9.790113
1585.000000	9.773889
1584.000000	9.770665
1583.000000	9.772277
1582.000000	9.754441
1581.000000	9.751619
1580.000000	9.748496
1579.000000	9.748395
1578.000000	9.742449
1577.000000	9.754038
1576.000000	9.773889
1575.000000	9.785880
1574.000000	9.809259
1573.000000	9.816111
1572.000000	9.827901
1571.000000	9.847550
1570.000000	9.847147
1569.000000	9.874456
1568.000000	9.901562
1567.000000	9.928870
1566.000000	9.949326
1565.000000	9.963434
1564.000000	9.986409
1563.000000	9.998904
1562.000000	10.023391
1561.000000	10.044451
1560.000000	10.056745
1559.000000	10.075790
1558.000000	10.096548
1557.000000	10.109648
1556.000000	10.120732
1555.000000	10.127786
1554.000000	10.138266
1553.000000	10.151971
1552.000000	10.155195
1551.000000	10.158722
1550.000000	10.155094
1549.000000	10.151265
1548.000000	10.157412
1547.000000	10.149552
1546.000000	10.150257
1545.000000	10.161644
1544.000000	10.156707
1543.000000	10.152676
1542.000000	10.159830
1541.000000	10.152877
1540.000000	10.151668
1539.000000	10.161342
1538.000000	10.163055
1537.000000	10.157916
1536.000000	10.149552
1535.000000	10.152172
1534.000000	10.146831
1533.000000	10.145924
1532.000000	10.147537
1531.000000	10.134336
1530.000000	10.124662
1529.000000	10.108640
1528.000000	10.091006
1527.000000	10.071356
1526.000000	10.065008
1525.000000	10.047575
1524.000000	10.033165
1523.000000	10.023088
1522.000000	10.015128
1521.000000	9.998803
1520.000000	9.973914
1519.000000	9.963635
1518.000000	9.949931
1517.000000	9.934715
1516.000000	9.917987
1515.000000	9.895214
1514.000000	9.891284
1513.000000	9.873246
1512.000000	9.874153
1511.000000	9.854503
1510.000000	9.820142
1509.000000	9.815002
1508.000000	9.813491
1507.000000	9.790617
1506.000000	9.793942
1505.000000	9.773083
1504.000000	9.777819
1503.000000	9.755247
1502.000000	9.741140
1501.000000	9.741140
1500.000000	9.724916
1499.000000	9.719877
1498.000000	9.722296
1497.000000	9.717257
1496.000000	9.726730
1495.000000	9.712219
1494.000000	9.707281
1493.000000	9.721288
1492.000000	9.735799
1491.000000	9.726427
1490.000000	9.755146
1489.000000	9.753735
1488.000000	9.771773
1487.000000	9.780137
1486.000000	9.782152
1485.000000	9.770665
1484.000000	9.788097
1483.000000	9.807143
1482.000000	9.828102
1481.000000	9.821250
1480.000000	9.868208
1479.000000	9.877882
1478.000000	9.894408
1477.000000	9.905593
1476.000000	9.923630
1475.000000	9.955574
1474.000000	9.975627
1473.000000	9.976634
1472.000000	10.040622
1471.000000	10.045156
1470.000000	10.073170
1469.000000	10.086874
1468.000000	10.114485
1467.000000	10.151769
1466.000000	10.172426
1465.000000	10.176558
1464.000000	10.205277
1463.000000	10.237321
1462.000000	10.282364
1461.000000	10.336981
1460.000000	10.353406
1459.000000	10.405604
1458.000000	10.473017
1457.000000	10.512518
1456.000000	10.570057
1455.000000	10.631021
1454.000000	10.690072
1453.000000	10.759299
1452.000000	10.841425
1451.000000	10.897654
1450.000000	10.961843
1449.000000	11.022304
1448.000000	11.109972
1447.000000	11.205600
1446.000000	11.293067
1445.000000	11.334684
1444.000000	11.444320
1443.000000	11.524430
1442.000000	11.605851
1441.000000	11.710146
1440.000000	11.793582
1439.000000	11.867646
1438.000000	11.943222
1437.000000	12.033510
1436.000000	12.104552
1435.000000	12.195142
1434.000000	12.300041
1433.000000	12.396577
1432.000000	12.490392
1431.000000	12.590354
1430.000000	12.691021
1429.000000	12.823229
1428.000000	12.930748
1427.000000	13.069607
1426.000000	13.208666
1425.000000	13.367174
1424.000000	13.529713
1423.000000	13.718452
1422.000000	13.852775
1421.000000	14.041211
1420.000000	14.230051
1419.000000	14.395814
1418.000000	14.540517
1417.000000	14.687940
1416.000000	14.866098
1415.000000	15.044961
1414.000000	15.237932
1413.000000	15.347567
1412.000000	15.492371
1411.000000	15.706503
1410.000000	15.899171
1409.000000	16.154517
1408.000000	16.422359
1407.000000	16.721236
1406.000000	16.986962
1405.000000	17.328565
1404.000000	17.626939
1403.000000	17.932971
1402.000000	18.212300
1401.000000	18.544935
1400.000000	18.789298
1399.000000	18.976021
1398.000000	19.137854
1397.000000	19.335561
1396.000000	19.486814
1395.000000	19.550499
1394.000000	19.606828
1393.000000	19.685629
1392.000000	19.754353
1391.000000	19.804636
1390.000000	19.918302
1389.000000	20.059478
1388.000000	20.275525
1387.000000	20.437156
1386.000000	20.705300
1385.000000	21.033300
1384.000000	21.427806
1383.000000	21.828258
1382.000000	22.207750
1381.000000	22.530611
1380.000000	22.760060
1379.000000	23.060852
1378.000000	23.303703
1377.000000	23.609937
1376.000000	23.956377
1375.000000	24.389780
1374.000000	24.879009
1373.000000	25.448751
1372.000000	26.038445
1371.000000	26.607683
1370.000000	27.113740
1369.000000	27.567901
1368.000000	27.996266
1367.000000	28.356411
1366.000000	28.630197
1365.000000	28.924944
1364.000000	29.178980
1363.000000	29.388577
1362.000000	29.606538
1361.000000	29.753861
1360.000000	29.828429
1359.000000	29.922748
1358.000000	30.044476
1357.000000	30.260825
1356.000000	30.610490
1355.000000	31.126119
1354.000000	31.791188
1353.000000	32.495758
1352.000000	33.246983
1351.000000	33.998208
1350.000000	34.683632
1349.000000	35.324416
1348.000000	35.897080
1347.000000	36.427422
1346.000000	36.919270
1345.000000	37.383508
1344.000000	37.878279
1343.000000	38.295056
1342.000000	38.676160
1341.000000	39.095456
1340.000000	39.503062
1339.000000	39.856758
1338.000000	40.225972
1337.000000	40.590953
1336.000000	40.909682
1335.000000	41.212490
1334.000000	41.517515
1333.000000	41.815284
1332.000000	42.077986
1331.000000	42.328697
1330.000000	42.578098
1329.000000	42.825281
1328.000000	43.047979
1327.000000	43.264630
1326.000000	43.463848
1325.000000	43.656416
1324.000000	43.844852
1323.000000	44.008499
1322.000000	44.168519
1321.000000	44.338615
1320.000000	44.483015
1319.000000	44.626308
1318.000000	44.762546
1317.000000	44.882964
1316.000000	45.019907
1315.000000	45.152417
1314.000000	45.263564
1313.000000	45.362015
1312.000000	45.455023
1311.000000	45.547428
1310.000000	45.638522
1309.000000	45.713997
1308.000000	45.778186
1307.000000	45.839755
1306.000000	45.902635
1305.000000	45.939818
1304.000000	45.968839
1303.000000	45.997760
1302.000000	46.008542
1301.000000	46.018619
1300.000000	46.032625
1299.000000	46.024161
1298.000000	46.015193
1297.000000	46.011565
1296.000000	45.991008
1295.000000	45.975792
1294.000000	45.956646
1293.000000	45.925711
1292.000000	45.890240
1291.000000	45.858498
1290.000000	45.813052
1289.000000	45.753901
1288.000000	45.677519
1287.000000	45.602447
1286.000000	45.522135
1285.000000	45.420762
1284.000000	45.326544
1283.000000	45.230613
1282.000000	45.140224
1281.000000	45.030891
1280.000000	44.924883
1279.000000	44.832781
1278.000000	44.743400
1277.000000	44.645050
1276.000000	44.549018
1275.000000	44.462257
1274.000000	44.371365
1273.000000	44.300424
1272.000000	44.222833
1271.000000	44.150380
1270.000000	44.077928
1269.000000	43.991973
1268.000000	43.916699
1267.000000	43.842937
1266.000000	43.756277
1265.000000	43.666795
1264.000000	43.570965
1263.000000	43.491862
1262.000000	43.406108
1261.000000	43.325091
1260.000000	43.258987
1259.000000	43.161947
1258.000000	43.066016
1257.000000	42.976131
1256.000000	42.869116
1255.000000	42.777114
1254.000000	42.681687
1253.000000	42.592004
1252.000000	42.470377
1251.000000	42.357113
1250.000000	42.243850
1249.000000	42.108317
1248.000000	41.980846
1247.000000	41.850956
1246.000000	41.688518
1245.000000	41.549357
1244.000000	41.392260
1243.000000	41.208459
1242.000000	41.032015
1241.000000	40.829169
1240.000000	40.639423
1239.000000	40.429523
1238.000000	40.231514
1237.000000	40.023730
1236.000000	39.803149
1235.000000	39.579545
1234.000000	39.340826
1233.000000	39.105129
1232.000000	38.868224
1231.000000	38.622652
1230.000000	38.369523
1229.000000	38.124556
1228.000000	37.842910
1227.000000	37.595827
1226.000000	37.341488
1225.000000	37.079895
1224.000000	36.833517
1223.000000	36.579783
1222.000000	36.335118
1221.000000	36.103856
1220.000000	35.882771
1219.000000	35.663399
1218.000000	35.457228
1217.000000	35.264862
1216.000000	35.083580
1215.000000	34.894439
1214.000000	34.713661
1213.000000	34.567749
1212.000000	34.410148
1211.000000	34.254965
1210.000000	34.120037
1209.000000	33.991457
1208.000000	33.863582
1207.000000	33.787402
1206.000000	33.710516
1205.000000	33.658923
1204.000000	33.613678
1203.000000	33.595036
1202.000000	33.578006
1201.000000	33.546969
1200.000000	33.480765
1199.000000	33.425342
1198.000000	33.313087
1197.000000	33.140774
1196.000000	32.887141
1195.000000	32.576171
1194.000000	32.171386
1193.000000	31.665027
1192.000000	31.083898
1191.000000	30.496219
1190.000000	29.904408
1189.000000	29.409436
1188.000000	29.010193
1187.000000	28.783566
1186.000000	28.733686
1185.000000	28.848058
1184.000000	29.125069
1183.000000	29.549604
1182.000000	30.166304
1181.000000	30.850015
1180.000000	31.533726
1179.000000	32.229126
1178.000000	32.850461
1177.000000	33.399949
1176.000000	33.877387
1175.000000	34.296280
1174.000000	34.733512
1173.000000	35.191100
1172.000000	35.623697
1171.000000	36.089144
1170.000000	36.628353
1169.000000	37.093498
1168.000000	37.602578
1167.000000	38.086768
1166.000000	38.593026
1165.000000	39.123872
1164.000000	39.651393
1163.000000	40.173572
1162.000000	40.705929
1161.000000	41.209467
1160.000000	41.704540
1159.000000	42.210496
1158.000000	42.676447
1157.000000	43.075791
1156.000000	43.443392
1155.000000	43.726853
1154.000000	43.940884
1153.000000	44.059790
1152.000000	44.098586
1151.000000	44.111685
1150.000000	44.088509
1149.000000	44.064929
1148.000000	44.083067
1147.000000	44.140908
1146.000000	44.299315
1145.000000	44.586101
1144.000000	44.966903
1143.000000	45.398996
1142.000000	45.905557
1141.000000	46.405870
1140.000000	46.936615
1139.000000	47.472096
1138.000000	48.012716
1137.000000	48.614603
1136.000000	49.193818
1135.000000	49.756103
1134.000000	50.279290
1133.000000	50.715011
1132.000000	51.175420
1131.000000	51.620512
1130.000000	51.997787
1129.000000	52.314299
1128.000000	52.573576
1127.000000	52.763926
1126.000000	52.940572
1125.000000	53.075198
1124.000000	53.187051
1123.000000	53.307771
1122.000000	53.409446
1121.000000	53.492076
1120.000000	53.570876
1119.000000	53.620555
1118.000000	53.669931
1117.000000	53.707820
1116.000000	53.725051
1115.000000	53.713161
1114.000000	53.714471
1113.000000	53.710440
1112.000000	53.732508
1111.000000	53.731601
1110.000000	53.730795
1109.000000	53.730493
1108.000000	53.742786
1107.000000	53.735229
1106.000000	53.737748
1105.000000	53.739159
1104.000000	53.721222
1103.000000	53.708424
1102.000000	53.688775
1101.000000	53.672148
1100.000000	53.649677
1099.000000	53.631438
1098.000000	53.591836
1097.000000	53.551629
1096.000000	53.531375
1095.000000	53.493990
1094.000000	53.442296
1093.000000	53.388889
1092.000000	53.338304
1091.000000	53.285804
1090.000000	53.234513
1089.000000	53.178586
1088.000000	53.103615
1087.000000	53.053332
1086.000000	52.977655
1085.000000	52.914171
1084.000000	52.850385
1083.000000	52.770476
1082.000000	52.708907
1081.000000	52.641191
1080.000000	52.561282
1079.000000	52.502836
1078.000000	52.441872
1077.000000	52.386752
1076.000000	52.329717
1075.000000	52.270365
1074.000000	52.195897
1073.000000	52.154885
1072.000000	52.100168
1071.000000	52.038598
1070.000000	51.983176
1069.000000	51.945690
1068.000000	51.885935
1067.000000	51.819428
1066.000000	51.766626
1065.000000	51.709591
1064.000000	51.657192
1063.000000	51.591491
1062.000000	51.545843
1061.000000	51.486088
1060.000000	51.416759
1059.000000	51.363050
1058.000000	51.315689
1057.000000	51.260065
1056.000000	51.188822
1055.000000	51.130780
1054.000000	51.087852
1053.000000	51.040895
1052.000000	50.997363
1051.000000	50.966326
1050.000000	50.936197
1049.000000	50.909292
1048.000000	50.874728
1047.000000	50.846715
1046.000000	50.818903
1045.000000	50.796835
1044.000000	50.778192
1043.000000	50.753303
1042.000000	50.729925
1041.000000	50.699493
1040.000000	50.666844
1039.000000	50.633691
1038.000000	50.600135
1037.000000	50.577866
1036.000000	50.540682
1035.000000	50.506320
1034.000000	50.482237
1033.000000	50.451402
1032.000000	50.418148
1031.000000	50.372400
1030.000000	50.331790
1029.000000	50.276872
1028.000000	50.208753
1027.000000	50.151315
1026.000000	50.092466
1025.000000	50.038656
1024.000000	49.967413
1023.000000	49.896876
1022.000000	49.840647
1021.000000	49.790465
1020.000000	49.736151
1019.000000	49.682643
1018.000000	49.634274
1017.000000	49.584293
1016.000000	49.563435
1015.000000	49.543583
1014.000000	49.532196
1013.000000	49.536429
1012.000000	49.544591
1011.000000	49.574922
1010.000000	49.621880
1009.000000	49.669039
1008.000000	49.726779
1007.000000	49.791069
1006.000000	49.857072
1005.000000	49.917835
1004.000000	49.979002
1003.000000	50.044702
1002.000000	50.096598
1001.000000	50.152927
1000.000000	50.208450
999.000000	50.264780
998.000000	50.329170
997.000000	50.391344
996.000000	50.447674
995.000000	50.514583
994.000000	50.580788
993.000000	50.656969
992.000000	50.731134
991.000000	50.807717
990.000000	50.884603
989.000000	50.974287
988.000000	51.069210
987.000000	51.140856
986.000000	51.223083
985.000000	51.319518
984.000000	51.417968
983.000000	51.512589
982.000000	51.588770
981.000000	51.676640
980.000000	51.779423
979.000000	51.863967
978.000000	51.953046
977.000000	52.045451
976.000000	52.133925
975.000000	52.218771
974.000000	52.301200
973.000000	52.392193
972.000000	52.478652
971.000000	52.579420
970.000000	52.659128
969.000000	52.748509
968.000000	52.831038
967.000000	52.915884
966.000000	53.010304
965.000000	53.087492
964.000000	53.166696
963.000000	53.237536
962.000000	53.349086
961.000000	53.458822
960.000000	53.540847
959.000000	53.610075
958.000000	53.682829
957.000000	53.760018
956.000000	53.825819
955.000000	53.886683
954.000000	53.928199
953.000000	53.982513
952.000000	54.019898
951.000000	54.049121
950.000000	54.074212
949.000000	54.104644
948.000000	54.114922
947.000000	54.133262
946.000000	54.152005
945.000000	54.201684
944.000000	54.188987
943.000000	54.209745
942.000000	54.247835
941.000000	54.263152
940.000000	54.310110
939.000000	54.347898
938.000000	54.405235
937.000000	54.456123
936.000000	54.526660
935.000000	54.591152
934.000000	54.668441
933.000000	54.729909
932.000000	54.789866
931.000000	54.885898
930.000000	54.939809
929.000000	55.049142
928.000000	55.117564
927.000000	55.199387
926.000000	55.285343
925.000000	55.388529
924.000000	55.475895
923.000000	55.540487
922.000000	55.620497
921.000000	55.710382
920.000000	55.766711
919.000000	55.847829
918.000000	55.920382
917.000000	56.010368
916.000000	56.032134
915.000000	56.085743
914.000000	56.154869
913.000000	56.184797
912.000000	56.219361
911.000000	56.281232
910.000000	56.341391
909.000000	56.437826
908.000000	56.475009
907.000000	56.541516
906.000000	56.634223
905.000000	56.718565
904.000000	56.838076
903.000000	56.898436
902.000000	56.979756
901.000000	57.026009
900.000000	57.103096
899.000000	57.188749
898.000000	57.281959
897.000000	57.371945
896.000000	57.463946
895.000000	57.562598
894.000000	57.658025
893.000000	57.712541
892.000000	57.798496
891.000000	57.869436
890.000000	57.944106
889.000000	57.990660
888.000000	58.073089
887.000000	58.126093
886.000000	58.194111
885.000000	58.252355
884.000000	58.307576
883.000000	58.380028
882.000000	58.462456
881.000000	58.547303
880.000000	58.585595
879.000000	58.676286
878.000000	58.755792
877.000000	58.856660
876.000000	58.943422
875.000000	59.030485
874.000000	59.129439
873.000000	59.210860
872.000000	59.302659
871.000000	59.377530
870.000000	59.467516
869.000000	59.535837
868.000000	59.588236
867.000000	59.647689
866.000000	59.707847
865.000000	59.739992
864.000000	59.705328
863.000000	59.657463
862.000000	59.597204
861.000000	59.563749
860.000000	59.464493
859.000000	59.397784
858.000000	59.482933
857.000000	59.663900
856.000000	59.305700
855.000000	59.479200
854.000000	59.525300
853.000000	59.912200
852.000000	59.357800
851.000000	59.315000
850.000000	59.870300
849.000000	59.739200
848.000000	59.756500
847.000000	59.598400
846.000000	59.646300
845.000000	59.888100
844.000000	59.749500
843.000000	59.906300
842.000000	59.833400
841.000000	59.867300
840.000000	59.955400
839.000000	60.181600
838.000000	60.203900
837.000000	60.262900
836.000000	60.262800
835.000000	60.536100
834.000000	60.641600
833.000000	60.745700
832.000000	60.971700
831.000000	61.169200
830.000000	61.421900
829.000000	61.464500
828.000000	61.680900
827.000000	61.895400
826.000000	62.136800
825.000000	62.404400
824.000000	62.739000
823.000000	62.956700
822.000000	63.122200
821.000000	63.258100
820.000000	63.660600
819.000000	63.922700
818.000000	64.210700
817.000000	64.493800
816.000000	64.576000
815.000000	64.862900
814.000000	65.238700
813.000000	65.414400
812.000000	65.524500
811.000000	65.801600
810.000000	65.883900
809.000000	66.338100
808.000000	66.500400
807.000000	66.659700
806.000000	66.876400
805.000000	67.051900
804.000000	67.292000
803.000000	67.362800
802.000000	67.470800
801.000000	67.530800
800.000000	67.749400
799.000000	67.918000
798.000000	67.995800
797.000000	68.071500
796.000000	68.181100
795.000000	68.321400
794.000000	68.322900
793.000000	68.382000
792.000000	68.551100
791.000000	68.613000
790.000000	68.664100
789.000000	68.733400
788.000000	68.712000
787.000000	68.765600
786.000000	68.828900
785.000000	68.818900
784.000000	68.836600
783.000000	68.818600
782.000000	68.839600
781.000000	68.817900
780.000000	68.876600
779.000000	68.956100
778.000000	68.973400
777.000000	68.996600
776.000000	69.044100
775.000000	69.157700
774.000000	69.208800
773.000000	69.299200
772.000000	69.367600
771.000000	69.261200
770.000000	69.281000
769.000000	69.440100
768.000000	69.574400
767.000000	69.554300
766.000000	69.630000
765.000000	69.674300
764.000000	69.623100
763.000000	69.631500
762.000000	69.704700
761.000000	69.741200
760.000000	69.714200
759.000000	69.697400
758.000000	69.725600
757.000000	69.669200
756.000000	69.678900
755.000000	69.671900
754.000000	69.642800
753.000000	69.604900
752.000000	69.644200
751.000000	69.547200
750.000000	69.376300
749.000000	69.420500
748.000000	69.423300
747.000000	69.363200
746.000000	69.315700
745.000000	69.211400
744.000000	69.103000
743.000000	69.004200
742.000000	68.874300
741.000000	68.801100
740.000000	68.739800
739.000000	68.619500
738.000000	68.558300
737.000000	68.513300
736.000000	68.365000
735.000000	68.234100
734.000000	68.087900
733.000000	67.941000
732.000000	67.850100
731.000000	67.677900
730.000000	67.492400
729.000000	67.317900
728.000000	67.142600
727.000000	66.960700
726.000000	66.716900
725.000000	66.445900
724.000000	66.180800
723.000000	65.949200
722.000000	65.693000
721.000000	65.403200
720.000000	65.136700
719.000000	64.818400
718.000000	64.455800
717.000000	64.182000
716.000000	63.899600
715.000000	63.598000
714.000000	63.283400
713.000000	62.929700
712.000000	62.575300
711.000000	62.243300
710.000000	61.910500
709.000000	61.613100
708.000000	61.354600
707.000000	61.106900
706.000000	60.864100
705.000000	60.595600
704.000000	60.367100
703.000000	60.169400
702.000000	59.928500
701.000000	59.774000
700.000000	59.604700
699.000000	59.459500
698.000000	59.388700
697.000000	59.222200
696.000000	59.090400
695.000000	59.005000
694.000000	58.924300
693.000000	58.838500
692.000000	58.726000
691.000000	58.645600
690.000000	58.649900
689.000000	58.584700
688.000000	58.510800
687.000000	58.461900
686.000000	58.420100
685.000000	58.330200
684.000000	58.277600
683.000000	58.227400
682.000000	58.150900
681.000000	58.009500
680.000000	57.927200
679.000000	57.843400
678.000000	57.707100
677.000000	57.603000
676.000000	57.475800
675.000000	57.299200
674.000000	57.128700
673.000000	56.932500
672.000000	56.744900
671.000000	56.561500
670.000000	56.305400
669.000000	56.095000
668.000000	55.874700
667.000000	55.618100
666.000000	55.379200
665.000000	55.086300
664.000000	54.809300
663.000000	54.452400
662.000000	54.097900
661.000000	53.723700
660.000000	53.334900
659.000000	52.947800
658.000000	52.535500
657.000000	52.082000
656.000000	51.622700
655.000000	51.171700
654.000000	50.657400
653.000000	50.126300
652.000000	49.707400
651.000000	49.186700
650.000000	48.726100
649.000000	48.330500
648.000000	47.891100
647.000000	47.555900
646.000000	47.271500
645.000000	47.054700
644.000000	46.843800
643.000000	46.694300
642.000000	46.629200
641.000000	46.603800
640.000000	46.721300
639.000000	46.923100
638.000000	47.186700
637.000000	47.523500
636.000000	47.956500
635.000000	48.533000
634.000000	49.134500
633.000000	49.865600
632.000000	50.656400
631.000000	51.505000
630.000000	52.366800
629.000000	53.268100
628.000000	54.193300
627.000000	55.083000
626.000000	55.995000
625.000000	56.827600
624.000000	57.668500
623.000000	58.516200
622.000000	59.302300
621.000000	60.036500
620.000000	60.718900
619.000000	61.479900
618.000000	62.124000
617.000000	62.705000
616.000000	63.336300
615.000000	63.905400
614.000000	64.511300
613.000000	65.014100
612.000000	65.525200
611.000000	66.029800
610.000000	66.510300
609.000000	66.971100
608.000000	67.407100
607.000000	67.834500
606.000000	68.228900
605.000000	68.516500
604.000000	68.862700
603.000000	69.209600
602.000000	69.493800
601.000000	69.767100
600.000000	69.937300
599.000000	70.186000
598.000000	70.318300
597.000000	70.540100
596.000000	70.674700
595.000000	70.780700
594.000000	70.903300
593.000000	70.996100
592.000000	71.068400
591.000000	71.166900
590.000000	71.188100
589.000000	71.255500
588.000000	71.285900
587.000000	71.293000
586.000000	71.288500
585.000000	71.310100
584.000000	71.260200
583.000000	71.248200
582.000000	71.211700
581.000000	71.139700
580.000000	71.091500
579.000000	71.016400
578.000000	70.932300
577.000000	70.836100
576.000000	70.713700
575.000000	70.589100
574.000000	70.397000
573.000000	70.291800
572.000000	70.127800
571.000000	69.938000
570.000000	69.746400
569.000000	69.575000
568.000000	69.357200
567.000000	69.119000
566.000000	68.903500
565.000000	68.652500
564.000000	68.401000
563.000000	68.158100
562.000000	67.888800
561.000000	67.580300
560.000000	67.269600
559.000000	66.820100
558.000000	66.519800
557.000000	66.172800
556.000000	65.790000
555.000000	65.419300
554.000000	64.956200
553.000000	64.550500
552.000000	64.077600
551.000000	63.580700
550.000000	63.096400
549.000000	62.562800
548.000000	61.982000
547.000000	61.427200
546.000000	60.819400
545.000000	60.161800
544.000000	59.506200
543.000000	58.838600
542.000000	58.124400
541.000000	57.341400
540.000000	56.567500
539.000000	55.756700
538.000000	54.942400
537.000000	54.069600
536.000000	53.185700
535.000000	52.249400
534.000000	51.297800
533.000000	50.319000
532.000000	49.279200
531.000000	48.271000
530.000000	47.228100
529.000000	46.174400
528.000000	45.098300
527.000000	44.035000
526.000000	42.974000
525.000000	41.891500
524.000000	40.840200
523.000000	39.811000
522.000000	38.760900
521.000000	37.753900
520.000000	36.772600
519.000000	35.836200
518.000000	34.945500
517.000000	34.112300
516.000000	33.321500
515.000000	32.572300
514.000000	31.892200
513.000000	31.250600
512.000000	30.680000
511.000000	30.148300
510.000000	29.703000
509.000000	29.308400
508.000000	28.987500
507.000000	28.729800
506.000000	28.497900
505.000000	28.334700
504.000000	28.189400
503.000000	28.094500
502.000000	28.022700
501.000000	27.969900
500.000000	27.962500
499.000000	27.947000
498.000000	27.938100
497.000000	27.930000
496.000000	27.911800
495.000000	27.898600
494.000000	27.842300
493.000000	27.789800
492.000000	27.716400
491.000000	27.622400
490.000000	27.508000
489.000000	27.348500
488.000000	27.168400
487.000000	26.960300
486.000000	26.721700
485.000000	26.455300
484.000000	26.153100
483.000000	25.836800
482.000000	25.496600
481.000000	25.140100
480.000000	24.757900
479.000000	24.372500
478.000000	23.985300
477.000000	23.585300
476.000000	23.192900
475.000000	22.803300
474.000000	22.447100
473.000000	22.113800
472.000000	21.803200
471.000000	21.517500
470.000000	21.278100
469.000000	21.082600
468.000000	20.938500
467.000000	20.838300
466.000000	20.751000
465.000000	20.718600
464.000000	20.721300
463.000000	20.761300
462.000000	20.832500
461.000000	20.931400
460.000000	21.032300
459.000000	21.143300
458.000000	21.273400
457.000000	21.423300
456.000000	21.564800
455.000000	21.692400
454.000000	21.813900
453.000000	21.920900
452.000000	22.020000
451.000000	22.102400
450.000000	22.183100
449.000000	22.235300
448.000000	22.272900
447.000000	22.318100
446.000000	22.312700
445.000000	22.300800
444.000000	22.274100
443.000000	22.204600
442.000000	22.127600
441.000000	22.038300
440.000000	21.932200
439.000000	21.820100
438.000000	21.682700
437.000000	21.535000
436.000000	21.376000
435.000000	21.208500
434.000000	21.035300
433.000000	20.823800
432.000000	20.613300
431.000000	20.400400
430.000000	20.160000
429.000000	19.900600
428.000000	19.624500
427.000000	19.349400
426.000000	19.075900
425.000000	18.790200
424.000000	18.480200
423.000000	18.164100
422.000000	17.837000
421.000000	17.492100
420.000000	17.138000
419.000000	16.776500
418.000000	16.398500
417.000000	16.021800
416.000000	15.622800
415.000000	15.228300
414.000000	14.837900
413.000000	14.425300
412.000000	14.018100
411.000000	13.615100
410.000000	13.198500
409.000000	12.789500
408.000000	12.394600
407.000000	11.983300
406.000000	11.582700
405.000000	11.216600
404.000000	10.846300
403.000000	10.465400
402.000000	10.111500
401.000000	9.756800
400.000000	9.424200
399.000000	9.136100
398.000000	8.849200
397.000000	8.565100
396.000000	8.301200
395.000000	8.047500
394.000000	7.807300
393.000000	7.594100
392.000000	7.398600
391.000000	7.208200
390.000000	7.022900
389.000000	6.866400
388.000000	6.728600
387.000000	6.587700
386.000000	6.469900
385.000000	6.346700
384.000000	6.259800
383.000000	6.156200
382.000000	6.032900
381.000000	5.961800
380.000000	5.897300
379.000000	5.828400
378.000000	5.769200
377.000000	5.710600
376.000000	5.706300
375.000000	5.640100
374.000000	5.651600
373.000000	5.559100
372.000000	5.492000
371.000000	5.464400
370.000000	5.464800
369.000000	5.464900
368.000000	5.441500
367.000000	5.385600
366.000000	5.367500
365.000000	5.364200
364.000000	5.318900
363.000000	5.264100
362.000000	5.330700
361.000000	5.339500
360.000000	5.249900
359.000000	5.221900
358.000000	5.200000
357.000000	5.201200
356.000000	5.210900
355.000000	5.178600
354.000000	5.121600
353.000000	5.102000
352.000000	5.122400
351.000000	5.071400
350.000000	5.029000
349.000000	5.047000
348.000000	5.022100
347.000000	5.063100
346.000000	5.029900
345.000000	4.996600
344.000000	4.938300
343.000000	5.005200
342.000000	5.036600
341.000000	4.777600
340.000000	4.864600
339.000000	4.973000
338.000000	4.933400
337.000000	4.999100
336.000000	5.037500
335.000000	4.919400
334.000000	5.016400
333.000000	5.001300
332.000000	4.936800
331.000000	5.012900
330.000000	4.964900
329.000000	5.018700
328.000000	5.065600
327.000000	4.923900
326.000000	5.065700
325.000000	4.974700
324.000000	5.136100
323.000000	4.922600
322.000000	5.033300
321.000000	5.085100
320.000000	5.091800
319.000000	5.004300
318.000000	5.108600
317.000000	5.205700
316.000000	4.926400
315.000000	4.884900
314.000000	4.929200
313.000000	4.889500
312.000000	4.901100
311.000000	4.902200
310.000000	4.939300
309.000000	4.929000
308.000000	5.008900
307.000000	5.002300
306.000000	4.948900
305.000000	4.969800
304.000000	4.983500
303.000000	4.992800
302.000000	4.983100
301.000000	4.991400
300.000000	4.932200
299.000000	4.962000
298.000000	4.988900
297.000000	4.994100
296.000000	5.039300
295.000000	5.016000
294.000000	4.997700
293.000000	5.046100
292.000000	5.075400
291.000000	5.077300
290.000000	5.012400
289.000000	5.098000
288.000000	5.091600
287.000000	5.064400
286.000000	5.069300
285.000000	5.099600
284.000000	5.128300
283.000000	5.088300
282.000000	5.086600
281.000000	5.100000
280.000000	5.107700
279.000000	5.122300
278.000000	5.114300
277.000000	5.134500
276.000000	5.138900
275.000000	5.159700
274.000000	5.162400
273.000000	5.166400
272.000000	5.163000
271.000000	5.171200
270.000000	5.165000
269.000000	5.181500
268.000000	5.183600
267.000000	5.197600
266.000000	5.160600
265.000000	5.228500
264.000000	5.255500
263.000000	5.265500
262.000000	5.262800
261.000000	5.274500
260.000000	5.304000
259.000000	5.346300
258.000000	5.365000
257.000000	5.332600
256.000000	5.313200
255.000000	5.348100
254.000000	5.346100
253.000000	5.365800
252.000000	5.355000
251.000000	5.404400
250.000000	5.367000
