PE UV       SUBTECH     SPECTRUM    ASCII       PEDS        4.00        
   -1
INBUCR0433-4.Sample.ASC
24/02/09
15:21:29.00
24/02/09
15:21:29.00
Vinicio Soto Monge
Chrysina cupreomarginata. Det: A. Solís. COSTA RICA. Prov San José. Pérez Zeledón. Estación Santa Elena. 1600 m. 21-29 JUL 1999. J. Rodríguez. de Luz L_S_373000_507500 #57317. INB00031565546 . Falta élitro izquierdo. 
250,000000
1
Lambda 1050
1050L1511233
PerkinElmer UV WinLab 6.3.2.0749 / 2.02.05 Lambda 900 UV/VIS/NIR, Aug  7 2015 09:38:08

0
0
3350/servo 860,8/2
0
0
UV/VIS
1
1
1
DoubleDePol,CommonBeamDepol,RBeamAtt,SBeamAtt,60mm sphere, WB InGaAs Detector
0
0
0
0
Program
Program
3350/servo 860,8/2
3350/0,2 860,8/0,2
3350/0,2 860,8/0,2
0
15.00
 
 
 
0
 
860,8
319,2
860,8
Front
100
on
S:100 R:100
0
0
0
0
 
0
 
 
 
0
 
 
0
0
0
0
0
 
 
 
 
0
0


0
0
#HDR
-1
-1
#GR
nm
%R
1.0
0.0
2500,000000
-1,000000
2251
8
15,493100
1,521000
#DATA

250.000000	4.353964
251.000000	4.358675
252.000000	4.359011
253.000000	4.360365
254.000000	4.366240
255.000000	4.371427
256.000000	4.369153
257.000000	4.367880
258.000000	4.373047
259.000000	4.357261
260.000000	4.368950
261.000000	4.386113
262.000000	4.382422
263.000000	4.375335
264.000000	4.377011
265.000000	4.377775
266.000000	4.386747
267.000000	4.382476
268.000000	4.387426
269.000000	4.397161
270.000000	4.393826
271.000000	4.396745
272.000000	4.394065
273.000000	4.381758
274.000000	4.398788
275.000000	4.390070
276.000000	4.394535
277.000000	4.391417
278.000000	4.393911
279.000000	4.378733
280.000000	4.390241
281.000000	4.393895
282.000000	4.396942
283.000000	4.390547
284.000000	4.396764
285.000000	4.392975
286.000000	4.384536
287.000000	4.961527
288.000000	4.380654
289.000000	4.960327
290.000000	4.959939
291.000000	4.953114
292.000000	4.378325
293.000000	4.954704
294.000000	4.950488
295.000000	4.959376
296.000000	4.956785
297.000000	4.976451
298.000000	4.949689
299.000000	4.949052
300.000000	4.938965
301.000000	4.940339
302.000000	4.930886
303.000000	4.940272
304.000000	4.941311
305.000000	4.936587
306.000000	4.938845
307.000000	4.932218
308.000000	4.921113
309.000000	4.940032
310.000000	4.942374
311.000000	4.932774
312.000000	4.935154
313.000000	4.920493
314.000000	4.927526
315.000000	4.921508
316.000000	4.921981
317.000000	4.720635
318.000000	4.743671
319.000000	4.789652
320.000000	4.804534
321.000000	4.741112
322.000000	4.726789
323.000000	4.801423
324.000000	4.754337
325.000000	4.817790
326.000000	4.819983
327.000000	4.847028
328.000000	4.836334
329.000000	4.823484
330.000000	4.842236
331.000000	4.822398
332.000000	4.881037
333.000000	4.849980
334.000000	4.858341
335.000000	4.849227
336.000000	4.880462
337.000000	4.819951
338.000000	4.868646
339.000000	4.867266
340.000000	4.865290
341.000000	4.858481
342.000000	4.878831
343.000000	4.886703
344.000000	4.854397
345.000000	4.873751
346.000000	4.833507
347.000000	4.849056
348.000000	4.891019
349.000000	4.841014
350.000000	4.863962
351.000000	4.885401
352.000000	4.862174
353.000000	4.861503
354.000000	4.891644
355.000000	4.879513
356.000000	4.865149
357.000000	4.870234
358.000000	4.868576
359.000000	4.894242
360.000000	4.881111
361.000000	4.871377
362.000000	4.876236
363.000000	4.884942
364.000000	4.888948
365.000000	4.904470
366.000000	4.886968
367.000000	4.897208
368.000000	4.899762
369.000000	4.912591
370.000000	4.919408
371.000000	4.919473
372.000000	4.950959
373.000000	4.941740
374.000000	4.961669
375.000000	4.963489
376.000000	4.895290
377.000000	4.962148
378.000000	4.963354
379.000000	4.958720
380.000000	4.958515
381.000000	4.957896
382.000000	4.956631
383.000000	4.951746
384.000000	4.951593
385.000000	4.951135
386.000000	5.519098
387.000000	5.517788
388.000000	5.514719
389.000000	5.508587
390.000000	5.505541
391.000000	5.503112
392.000000	5.503774
393.000000	5.500561
394.000000	5.495961
395.000000	5.494011
396.000000	5.491173
397.000000	5.486218
398.000000	5.483827
399.000000	5.480151
400.000000	5.473516
401.000000	5.471024
402.000000	5.465738
403.000000	5.461598
404.000000	5.457694
405.000000	5.452202
406.000000	5.445593
407.000000	5.437199
408.000000	5.430906
409.000000	5.422315
410.000000	5.413769
411.000000	5.402938
412.000000	5.392532
413.000000	5.382121
414.000000	5.369784
415.000000	5.929592
416.000000	5.913894
417.000000	5.896811
418.000000	5.882191
419.000000	5.865329
420.000000	5.847128
421.000000	5.829506
422.000000	5.806867
423.000000	5.784853
424.000000	5.765307
425.000000	5.742728
426.000000	5.719740
427.000000	5.697529
428.000000	6.248439
429.000000	6.223843
430.000000	6.197616
431.000000	6.172583
432.000000	6.145580
433.000000	6.119922
434.000000	6.095492
435.000000	6.068732
436.000000	6.040527
437.000000	6.013884
438.000000	5.989193
439.000000	5.965462
440.000000	6.512772
441.000000	6.488545
442.000000	6.466949
443.000000	6.443140
444.000000	6.418092
445.000000	6.391960
446.000000	6.366224
447.000000	6.341006
448.000000	6.317030
449.000000	6.294498
450.000000	6.273710
451.000000	6.252801
452.000000	6.230966
453.000000	6.780809
454.000000	6.760538
455.000000	6.741887
456.000000	6.722997
457.000000	6.701690
458.000000	6.680652
459.000000	6.661795
460.000000	6.641762
461.000000	6.620745
462.000000	6.602812
463.000000	6.585952
464.000000	6.566334
465.000000	6.546901
466.000000	6.530569
467.000000	6.514322
468.000000	6.496631
469.000000	7.051681
470.000000	7.035249
471.000000	7.020304
472.000000	7.006920
473.000000	6.996281
474.000000	6.982067
475.000000	6.971167
476.000000	6.962692
477.000000	6.951853
478.000000	6.941022
479.000000	6.931991
480.000000	6.932099
481.000000	6.935994
482.000000	6.936834
483.000000	6.930036
484.000000	6.920233
485.000000	6.910484
486.000000	6.900255
487.000000	6.891375
488.000000	7.453878
489.000000	7.442057
490.000000	7.430031
491.000000	7.414871
492.000000	7.399352
493.000000	7.379079
494.000000	7.352375
495.000000	7.893426
496.000000	7.858793
497.000000	7.819297
498.000000	7.773074
499.000000	7.720506
500.000000	8.236370
501.000000	8.174360
502.000000	8.112580
503.000000	8.047332
504.000000	7.982299
505.000000	8.496297
506.000000	8.435773
507.000000	8.378752
508.000000	8.322400
509.000000	8.270889
510.000000	8.224632
511.000000	8.749332
512.000000	8.707517
513.000000	8.668103
514.000000	8.630928
515.000000	8.600883
516.000000	9.141973
517.000000	9.108511
518.000000	9.076227
519.000000	9.042449
520.000000	9.008897
521.000000	9.548640
522.000000	9.512622
523.000000	9.472160
524.000000	10.003901
525.000000	9.961416
526.000000	9.917455
527.000000	9.873570
528.000000	10.397180
529.000000	10.343561
530.000000	10.288461
531.000000	10.802733
532.000000	10.738526
533.000000	10.674604
534.000000	11.178700
535.000000	11.106916
536.000000	11.033929
537.000000	10.962526
538.000000	11.458570
539.000000	11.379726
540.000000	11.301470
541.000000	11.789520
542.000000	11.702628
543.000000	11.616971
544.000000	11.529334
545.000000	12.013980
546.000000	11.931244
547.000000	11.848546
548.000000	11.773297
549.000000	11.700855
550.000000	11.631929
551.000000	12.130991
552.000000	12.067539
553.000000	12.013368
554.000000	11.956729
555.000000	11.910479
556.000000	11.867559
557.000000	11.829229
558.000000	11.792936
559.000000	11.761288
560.000000	11.874135
561.000000	12.445744
562.000000	12.424146
563.000000	12.409952
564.000000	12.397044
565.000000	12.380706
566.000000	12.369884
567.000000	12.361871
568.000000	12.353049
569.000000	12.344737
570.000000	12.341145
571.000000	12.337832
572.000000	12.336713
573.000000	12.335655
574.000000	12.328676
575.000000	12.325343
576.000000	12.322023
577.000000	12.320129
578.000000	12.310735
579.000000	12.312085
580.000000	11.740486
581.000000	11.738084
582.000000	11.742303
583.000000	11.747022
584.000000	11.756979
585.000000	11.762719
586.000000	11.773215
587.000000	11.783421
588.000000	11.797381
589.000000	11.799751
590.000000	11.812027
591.000000	11.820130
592.000000	11.824004
593.000000	11.828585
594.000000	11.831538
595.000000	11.831436
596.000000	11.836399
597.000000	11.838928
598.000000	11.839753
599.000000	11.837969
600.000000	11.842289
601.000000	11.847749
602.000000	11.845891
603.000000	11.850907
604.000000	11.868470
605.000000	11.307918
606.000000	11.322497
607.000000	11.333240
608.000000	11.353456
609.000000	11.367980
610.000000	11.388006
611.000000	11.401354
612.000000	11.415679
613.000000	11.419887
614.000000	11.431972
615.000000	11.447220
616.000000	11.460290
617.000000	11.471479
618.000000	10.918661
619.000000	10.938041
620.000000	10.960871
621.000000	10.995315
622.000000	11.034303
623.000000	11.073342
624.000000	11.119594
625.000000	10.592289
626.000000	10.644666
627.000000	10.701392
628.000000	10.755956
629.000000	10.810912
630.000000	10.871454
631.000000	10.929764
632.000000	10.985671
633.000000	11.032917
634.000000	11.084526
635.000000	11.128588
636.000000	11.160292
637.000000	11.187507
638.000000	11.202942
639.000000	11.215666
640.000000	11.219969
641.000000	11.216075
642.000000	11.211993
643.000000	11.776025
644.000000	11.761730
645.000000	11.742220
646.000000	11.722551
647.000000	11.712824
648.000000	11.692735
649.000000	11.673885
650.000000	11.656919
651.000000	11.637958
652.000000	11.622260
653.000000	12.171732
654.000000	12.151425
655.000000	12.126510
656.000000	12.101234
657.000000	12.075523
658.000000	12.045312
659.000000	12.013586
660.000000	11.980480
661.000000	11.948361
662.000000	11.909592
663.000000	12.453758
664.000000	12.418930
665.000000	12.390792
666.000000	12.356290
667.000000	12.330637
668.000000	12.306609
669.000000	12.283606
670.000000	12.256308
671.000000	12.231709
672.000000	12.212504
673.000000	12.200701
674.000000	12.179644
675.000000	12.164673
676.000000	12.156170
677.000000	12.141480
678.000000	12.129425
679.000000	12.118800
680.000000	12.103507
681.000000	12.094776
682.000000	12.084534
683.000000	12.066847
684.000000	12.050887
685.000000	12.038896
686.000000	12.031849
687.000000	12.021629
688.000000	12.584267
689.000000	12.583210
690.000000	12.584128
691.000000	12.580171
692.000000	12.584429
693.000000	12.577193
694.000000	12.583871
695.000000	12.586113
696.000000	12.582158
697.000000	12.579743
698.000000	12.582441
699.000000	12.581212
700.000000	12.579017
701.000000	12.586230
702.000000	12.586866
703.000000	12.584057
704.000000	12.584374
705.000000	12.575636
706.000000	12.565504
707.000000	12.562318
708.000000	12.555598
709.000000	12.544322
710.000000	12.533332
711.000000	12.521026
712.000000	12.510050
713.000000	12.502472
714.000000	12.491180
715.000000	12.476969
716.000000	13.047470
717.000000	13.040546
718.000000	13.023924
719.000000	13.015991
720.000000	13.005266
721.000000	12.997159
722.000000	12.984741
723.000000	12.968013
724.000000	12.956163
725.000000	12.952433
726.000000	12.944293
727.000000	12.926863
728.000000	12.915673
729.000000	12.896136
730.000000	12.881770
731.000000	12.871115
732.000000	12.857274
733.000000	12.852652
734.000000	12.837876
735.000000	12.824596
736.000000	12.820048
737.000000	12.809987
738.000000	12.808544
739.000000	12.807874
740.000000	12.802431
741.000000	12.804321
742.000000	13.376835
743.000000	12.801464
744.000000	13.375301
745.000000	13.378272
746.000000	13.367306
747.000000	13.360620
748.000000	13.365328
749.000000	13.363132
750.000000	13.357291
751.000000	13.358164
752.000000	13.355566
753.000000	13.347680
754.000000	13.343861
755.000000	13.350362
756.000000	13.358259
757.000000	13.354848
758.000000	13.361377
759.000000	13.365634
760.000000	13.360177
761.000000	13.361306
762.000000	13.364376
763.000000	13.367773
764.000000	13.366163
765.000000	13.364588
766.000000	13.362134
767.000000	13.365572
768.000000	13.364867
769.000000	13.354348
770.000000	13.346849
771.000000	13.349722
772.000000	13.910211
773.000000	13.895582
774.000000	13.885994
775.000000	13.875149
776.000000	13.876890
777.000000	13.874678
778.000000	13.865552
779.000000	13.852729
780.000000	13.852715
781.000000	13.857179
782.000000	13.847344
783.000000	13.832064
784.000000	13.827601
785.000000	13.823776
786.000000	13.805302
787.000000	14.363935
788.000000	14.341458
789.000000	14.328894
790.000000	14.303282
791.000000	14.272716
792.000000	14.266525
793.000000	14.259498
794.000000	14.235938
795.000000	14.224860
796.000000	14.207944
797.000000	14.196960
798.000000	14.197010
799.000000	14.191819
800.000000	14.177719
801.000000	14.730611
802.000000	14.709456
803.000000	14.691715
804.000000	14.678233
805.000000	14.657732
806.000000	14.643556
807.000000	14.629470
808.000000	14.583195
809.000000	14.563087
810.000000	14.542924
811.000000	14.535840
812.000000	14.536538
813.000000	14.526340
814.000000	14.506103
815.000000	14.510085
816.000000	14.499110
817.000000	14.492720
818.000000	14.474637
819.000000	15.036416
820.000000	15.036093
821.000000	15.014857
822.000000	15.013412
823.000000	14.988856
824.000000	14.981086
825.000000	14.959672
826.000000	14.948056
827.000000	14.964360
828.000000	14.949952
829.000000	14.943227
830.000000	14.930628
831.000000	14.926994
832.000000	14.925664
833.000000	14.927026
834.000000	14.931866
835.000000	14.956391
836.000000	14.931228
837.000000	14.909989
838.000000	14.894014
839.000000	14.888615
840.000000	14.894246
841.000000	14.909710
842.000000	14.917396
843.000000	14.918230
844.000000	14.900383
845.000000	14.887961
846.000000	14.872490
847.000000	14.878052
848.000000	14.924810
849.000000	14.924036
850.000000	14.882142
851.000000	14.886637
852.000000	14.952328
853.000000	14.973736
854.000000	14.986623
855.000000	14.951633
856.000000	14.991860
857.000000	14.804335
858.000000	18.440076
859.000000	15.401067
860.000000	14.886938
861.000000	15.357992
862.000000	15.342822
863.000000	14.812389
864.000000	14.795178
865.000000	14.777009
866.000000	14.768328
867.000000	14.764295
868.000000	14.751356
869.000000	14.245336
870.000000	14.242167
871.000000	14.231979
872.000000	14.221743
873.000000	14.223306
874.000000	14.213598
875.000000	13.712169
876.000000	14.203477
877.000000	14.196303
878.000000	14.685928
879.000000	14.184686
880.000000	14.174244
881.000000	13.675937
882.000000	13.674517
883.000000	13.670544
884.000000	13.664268
885.000000	13.665331
886.000000	13.665900
887.000000	13.666263
888.000000	13.168961
889.000000	13.163503
890.000000	13.165811
891.000000	13.166249
892.000000	13.162109
893.000000	13.162217
894.000000	13.162644
895.000000	13.155602
896.000000	13.160707
897.000000	13.158760
898.000000	13.161274
899.000000	12.660784
900.000000	13.169857
901.000000	13.159572
902.000000	12.661210
903.000000	12.666808
904.000000	12.676273
905.000000	12.676576
906.000000	12.684543
907.000000	12.683110
908.000000	12.685859
909.000000	12.694279
910.000000	12.698339
911.000000	12.700542
912.000000	12.203255
913.000000	12.702144
914.000000	12.707922
915.000000	12.206642
916.000000	12.202354
917.000000	12.205300
918.000000	12.215104
919.000000	12.219676
920.000000	12.223212
921.000000	12.228524
922.000000	12.239550
923.000000	12.237930
924.000000	12.246376
925.000000	12.264794
926.000000	12.274143
927.000000	12.281678
928.000000	12.300036
929.000000	11.807905
930.000000	11.814456
931.000000	11.821462
932.000000	11.829869
933.000000	11.825726
934.000000	11.820971
935.000000	11.817127
936.000000	11.822721
937.000000	11.821952
938.000000	11.826766
939.000000	11.831945
940.000000	11.845807
941.000000	11.847023
942.000000	11.844945
943.000000	11.852004
944.000000	11.859074
945.000000	11.864342
946.000000	11.871454
947.000000	11.886150
948.000000	11.888242
949.000000	11.896455
950.000000	11.896329
951.000000	11.899731
952.000000	11.906230
953.000000	11.405209
954.000000	11.914577
955.000000	11.921839
956.000000	11.931777
957.000000	11.436873
958.000000	11.444072
959.000000	11.446215
960.000000	11.449541
961.000000	11.457224
962.000000	11.463072
963.000000	11.472635
964.000000	11.478305
965.000000	11.487629
966.000000	11.497871
967.000000	11.509433
968.000000	11.516251
969.000000	11.524467
970.000000	11.533032
971.000000	11.539624
972.000000	11.547161
973.000000	11.559870
974.000000	11.568256
975.000000	11.568993
976.000000	11.579478
977.000000	11.587870
978.000000	11.590883
979.000000	11.593586
980.000000	11.597118
981.000000	11.602072
982.000000	11.605897
983.000000	11.612223
984.000000	11.612018
985.000000	11.619439
986.000000	11.624853
987.000000	11.624602
988.000000	11.631630
989.000000	11.633744
990.000000	11.638078
991.000000	11.634435
992.000000	11.633994
993.000000	11.637980
994.000000	11.646865
995.000000	11.651331
996.000000	11.647384
997.000000	11.650513
998.000000	11.650400
999.000000	11.655448
1000.000000	11.660510
1001.000000	11.658229
1002.000000	11.656830
1003.000000	11.658453
1004.000000	11.663230
1005.000000	11.664500
1006.000000	11.665462
1007.000000	11.664104
1008.000000	11.663121
1009.000000	11.672638
1010.000000	11.677741
1011.000000	11.675656
1012.000000	11.678570
1013.000000	11.686026
1014.000000	11.690781
1015.000000	11.686607
1016.000000	11.685938
1017.000000	11.693768
1018.000000	11.696427
1019.000000	11.696611
1020.000000	11.704410
1021.000000	11.710384
1022.000000	11.711179
1023.000000	11.711367
1024.000000	11.715164
1025.000000	11.717897
1026.000000	11.721472
1027.000000	11.725133
1028.000000	11.727257
1029.000000	11.729457
1030.000000	11.734846
1031.000000	11.741059
1032.000000	11.743519
1033.000000	11.744939
1034.000000	11.750050
1035.000000	11.753035
1036.000000	11.755541
1037.000000	11.755706
1038.000000	11.758280
1039.000000	11.761908
1040.000000	11.765020
1041.000000	11.770135
1042.000000	11.769392
1043.000000	11.770208
1044.000000	11.771737
1045.000000	11.769923
1046.000000	11.770121
1047.000000	11.772978
1048.000000	11.772417
1049.000000	11.768910
1050.000000	11.763669
1051.000000	11.761178
1052.000000	11.763828
1053.000000	11.760365
1054.000000	11.760116
1055.000000	11.763767
1056.000000	11.758541
1057.000000	11.756938
1058.000000	11.754212
1059.000000	11.750247
1060.000000	11.746972
1061.000000	11.743794
1062.000000	11.742478
1063.000000	11.743370
1064.000000	11.744472
1065.000000	11.741575
1066.000000	11.737518
1067.000000	11.732609
1068.000000	11.727054
1069.000000	11.726463
1070.000000	11.720855
1071.000000	11.718407
1072.000000	11.716125
1073.000000	11.714216
1074.000000	11.707480
1075.000000	11.702901
1076.000000	11.703632
1077.000000	11.699277
1078.000000	11.699410
1079.000000	11.696259
1080.000000	11.691882
1081.000000	11.692455
1082.000000	11.692780
1083.000000	11.698095
1084.000000	11.698379
1085.000000	11.693801
1086.000000	11.688663
1087.000000	11.691880
1088.000000	11.688821
1089.000000	11.684538
1090.000000	11.683397
1091.000000	11.685114
1092.000000	11.690186
1093.000000	11.686395
1094.000000	11.685379
1095.000000	11.682358
1096.000000	11.682313
1097.000000	11.681217
1098.000000	11.684156
1099.000000	11.684272
1100.000000	11.684980
1101.000000	11.686087
1102.000000	11.682310
1103.000000	11.675059
1104.000000	11.680669
1105.000000	11.683593
1106.000000	11.687540
1107.000000	11.687360
1108.000000	11.687130
1109.000000	11.684418
1110.000000	11.690180
1111.000000	11.688507
1112.000000	11.686063
1113.000000	11.689408
1114.000000	11.685025
1115.000000	11.681661
1116.000000	11.678655
1117.000000	11.677846
1118.000000	11.681448
1119.000000	11.684899
1120.000000	11.680218
1121.000000	11.675940
1122.000000	11.671130
1123.000000	11.672531
1124.000000	11.668644
1125.000000	11.665243
1126.000000	11.668665
1127.000000	11.674158
1128.000000	11.672502
1129.000000	11.673716
1130.000000	11.677404
1131.000000	11.684883
1132.000000	11.699736
1133.000000	11.699667
1134.000000	11.681775
1135.000000	11.675129
1136.000000	11.682541
1137.000000	11.694806
1138.000000	11.692086
1139.000000	11.695087
1140.000000	11.700509
1141.000000	11.700881
1142.000000	11.707229
1143.000000	11.702680
1144.000000	11.692733
1145.000000	11.695500
1146.000000	11.698335
1147.000000	11.699142
1148.000000	11.703886
1149.000000	11.701854
1150.000000	11.705202
1151.000000	11.705253
1152.000000	11.700572
1153.000000	11.698519
1154.000000	11.709204
1155.000000	11.710527
1156.000000	11.713073
1157.000000	11.715469
1158.000000	11.727326
1159.000000	11.727534
1160.000000	11.735854
1161.000000	11.746681
1162.000000	11.748395
1163.000000	11.751824
1164.000000	11.761613
1165.000000	11.772319
1166.000000	11.769018
1167.000000	11.779249
1168.000000	11.783912
1169.000000	11.786771
1170.000000	11.786212
1171.000000	11.790488
1172.000000	11.796689
1173.000000	11.800003
1174.000000	11.801620
1175.000000	11.800806
1176.000000	11.803727
1177.000000	11.803916
1178.000000	11.799263
1179.000000	11.800966
1180.000000	11.803951
1181.000000	11.805564
1182.000000	11.812682
1183.000000	11.807367
1184.000000	11.811614
1185.000000	11.809182
1186.000000	11.807594
1187.000000	11.807785
1188.000000	11.818321
1189.000000	11.812898
1190.000000	11.812778
1191.000000	11.810916
1192.000000	11.796316
1193.000000	11.799526
1194.000000	11.798116
1195.000000	11.787010
1196.000000	11.790568
1197.000000	11.788603
1198.000000	11.783682
1199.000000	11.784803
1200.000000	11.779216
1201.000000	11.775857
1202.000000	11.778490
1203.000000	11.771302
1204.000000	11.771718
1205.000000	11.762668
1206.000000	11.758189
1207.000000	11.749005
1208.000000	11.745584
1209.000000	11.740850
1210.000000	11.741886
1211.000000	11.734939
1212.000000	11.733945
1213.000000	11.728144
1214.000000	11.715104
1215.000000	11.711622
1216.000000	11.711187
1217.000000	11.705954
1218.000000	11.703004
1219.000000	11.699262
1220.000000	11.691685
1221.000000	12.187608
1222.000000	12.184140
1223.000000	12.173320
1224.000000	12.170869
1225.000000	12.175122
1226.000000	12.170906
1227.000000	12.161539
1228.000000	12.159214
1229.000000	12.155489
1230.000000	12.153142
1231.000000	12.158445
1232.000000	12.155870
1233.000000	12.154018
1234.000000	12.156473
1235.000000	12.154181
1236.000000	12.152853
1237.000000	12.151466
1238.000000	12.151594
1239.000000	12.148309
1240.000000	12.148999
1241.000000	12.145414
1242.000000	12.144720
1243.000000	12.141362
1244.000000	12.135257
1245.000000	12.127203
1246.000000	12.122082
1247.000000	12.120082
1248.000000	12.112782
1249.000000	12.108007
1250.000000	12.105303
1251.000000	12.096762
1252.000000	12.086467
1253.000000	12.081346
1254.000000	12.078010
1255.000000	12.075981
1256.000000	12.072408
1257.000000	12.066107
1258.000000	12.054893
1259.000000	12.051820
1260.000000	12.052042
1261.000000	12.048097
1262.000000	12.040371
1263.000000	12.039409
1264.000000	12.038729
1265.000000	12.033637
1266.000000	12.027143
1267.000000	12.022598
1268.000000	12.023937
1269.000000	12.028868
1270.000000	12.024966
1271.000000	12.018495
1272.000000	12.019545
1273.000000	12.019822
1274.000000	12.013222
1275.000000	12.005404
1276.000000	12.002035
1277.000000	12.005710
1278.000000	12.007055
1279.000000	12.003682
1280.000000	12.006170
1281.000000	12.502903
1282.000000	12.493015
1283.000000	12.492986
1284.000000	12.490934
1285.000000	12.485448
1286.000000	12.480634
1287.000000	12.479241
1288.000000	12.478015
1289.000000	12.476078
1290.000000	12.470107
1291.000000	12.466752
1292.000000	12.462038
1293.000000	12.460284
1294.000000	12.461914
1295.000000	12.458618
1296.000000	12.457677
1297.000000	12.447605
1298.000000	12.440200
1299.000000	12.441689
1300.000000	12.441224
1301.000000	12.441113
1302.000000	12.441071
1303.000000	12.435145
1304.000000	12.433872
1305.000000	12.431201
1306.000000	12.424462
1307.000000	12.425127
1308.000000	12.429339
1309.000000	12.428229
1310.000000	12.427808
1311.000000	12.432655
1312.000000	12.438442
1313.000000	12.438994
1314.000000	12.438416
1315.000000	12.442775
1316.000000	12.440703
1317.000000	12.437720
1318.000000	12.446058
1319.000000	12.453937
1320.000000	12.454988
1321.000000	12.456833
1322.000000	12.459150
1323.000000	12.460027
1324.000000	12.468114
1325.000000	12.478041
1326.000000	12.479916
1327.000000	12.478704
1328.000000	12.480479
1329.000000	12.484700
1330.000000	12.493359
1331.000000	12.001328
1332.000000	12.006075
1333.000000	12.016724
1334.000000	12.018854
1335.000000	12.025617
1336.000000	12.033535
1337.000000	12.038396
1338.000000	12.041475
1339.000000	12.046174
1340.000000	12.054209
1341.000000	12.070143
1342.000000	12.082599
1343.000000	12.094208
1344.000000	12.103206
1345.000000	12.116641
1346.000000	12.125083
1347.000000	12.126346
1348.000000	12.139949
1349.000000	12.155305
1350.000000	12.177243
1351.000000	12.184379
1352.000000	12.203190
1353.000000	12.214684
1354.000000	12.198648
1355.000000	12.192369
1356.000000	12.203630
1357.000000	12.219803
1358.000000	11.735005
1359.000000	11.762690
1360.000000	11.751221
1361.000000	11.713547
1362.000000	11.720266
1363.000000	11.753011
1364.000000	11.752000
1365.000000	11.773321
1366.000000	11.811007
1367.000000	11.809507
1368.000000	11.328681
1369.000000	11.385753
1370.000000	11.402220
1371.000000	11.420982
1372.000000	11.471763
1373.000000	11.545913
1374.000000	11.115654
1375.000000	11.171379
1376.000000	11.243819
1377.000000	11.310909
1378.000000	11.398140
1379.000000	11.452238
1380.000000	10.988619
1381.000000	10.967043
1382.000000	10.964848
1383.000000	10.958063
1384.000000	10.980880
1385.000000	11.001553
1386.000000	11.016697
1387.000000	11.000913
1388.000000	10.976454
1389.000000	10.997713
1390.000000	11.021802
1391.000000	10.994036
1392.000000	10.977286
1393.000000	10.991700
1394.000000	10.981676
1395.000000	10.912310
1396.000000	10.894566
1397.000000	10.946424
1398.000000	10.997089
1399.000000	10.966077
1400.000000	10.898130
1401.000000	10.912362
1402.000000	10.978115
1403.000000	11.005736
1404.000000	10.990817
1405.000000	10.490637
1406.000000	10.523138
1407.000000	10.534781
1408.000000	10.537615
1409.000000	10.539198
1410.000000	10.573331
1411.000000	10.623628
1412.000000	10.646790
1413.000000	10.643422
1414.000000	10.637870
1415.000000	10.674317
1416.000000	10.716667
1417.000000	10.732262
1418.000000	10.730182
1419.000000	10.732505
1420.000000	10.259402
1421.000000	10.292709
1422.000000	10.306366
1423.000000	10.303225
1424.000000	10.322260
1425.000000	10.350436
1426.000000	10.360812
1427.000000	10.376656
1428.000000	10.379888
1429.000000	10.401029
1430.000000	10.422372
1431.000000	10.417374
1432.000000	10.426510
1433.000000	10.442018
1434.000000	10.448739
1435.000000	10.462198
1436.000000	10.473376
1437.000000	10.476336
1438.000000	9.977634
1439.000000	9.993200
1440.000000	9.993721
1441.000000	10.005157
1442.000000	10.008637
1443.000000	10.026747
1444.000000	10.033411
1445.000000	10.027477
1446.000000	10.026021
1447.000000	10.052994
1448.000000	10.059512
1449.000000	10.057030
1450.000000	10.055751
1451.000000	10.053218
1452.000000	10.068909
1453.000000	10.081886
1454.000000	10.085233
1455.000000	10.090265
1456.000000	10.102058
1457.000000	10.111883
1458.000000	10.120956
1459.000000	10.121445
1460.000000	10.127286
1461.000000	10.137175
1462.000000	10.141936
1463.000000	10.151331
1464.000000	10.157843
1465.000000	10.162339
1466.000000	10.171738
1467.000000	10.186572
1468.000000	10.194166
1469.000000	9.699675
1470.000000	9.691381
1471.000000	9.697033
1472.000000	9.703902
1473.000000	9.711432
1474.000000	9.721720
1475.000000	9.720580
1476.000000	9.726283
1477.000000	9.732150
1478.000000	9.736520
1479.000000	9.742213
1480.000000	9.744996
1481.000000	9.748367
1482.000000	9.749359
1483.000000	9.758400
1484.000000	9.761080
1485.000000	9.764659
1486.000000	9.766953
1487.000000	9.766649
1488.000000	9.780514
1489.000000	9.781986
1490.000000	9.780879
1491.000000	9.784665
1492.000000	9.785458
1493.000000	9.790456
1494.000000	9.790878
1495.000000	9.788428
1496.000000	9.790410
1497.000000	9.786054
1498.000000	9.785083
1499.000000	9.786476
1500.000000	9.780998
1501.000000	9.775121
1502.000000	9.771107
1503.000000	9.764525
1504.000000	9.760475
1505.000000	9.758281
1506.000000	9.751014
1507.000000	9.743867
1508.000000	9.741758
1509.000000	9.734350
1510.000000	9.722476
1511.000000	9.718708
1512.000000	9.708529
1513.000000	10.202026
1514.000000	10.199808
1515.000000	10.192371
1516.000000	10.183877
1517.000000	10.176887
1518.000000	10.168717
1519.000000	10.162555
1520.000000	10.156541
1521.000000	10.151650
1522.000000	10.148221
1523.000000	10.143825
1524.000000	10.142646
1525.000000	10.135251
1526.000000	10.127596
1527.000000	10.120794
1528.000000	10.114208
1529.000000	10.107937
1530.000000	10.102704
1531.000000	10.094608
1532.000000	10.095884
1533.000000	10.092767
1534.000000	10.083638
1535.000000	10.078715
1536.000000	10.078556
1537.000000	10.077096
1538.000000	10.074619
1539.000000	10.068166
1540.000000	10.062215
1541.000000	10.057444
1542.000000	10.055106
1543.000000	10.050041
1544.000000	10.037781
1545.000000	10.033032
1546.000000	10.027960
1547.000000	10.016333
1548.000000	10.005024
1549.000000	10.001409
1550.000000	9.996244
1551.000000	10.484151
1552.000000	10.477716
1553.000000	10.473038
1554.000000	10.464977
1555.000000	10.461058
1556.000000	10.460278
1557.000000	10.459326
1558.000000	10.460909
1559.000000	10.460677
1560.000000	10.459715
1561.000000	10.461454
1562.000000	10.463239
1563.000000	10.461142
1564.000000	10.460187
1565.000000	10.465616
1566.000000	10.470591
1567.000000	10.469678
1568.000000	10.467135
1569.000000	10.470048
1570.000000	10.473974
1571.000000	10.474823
1572.000000	10.475003
1573.000000	10.469554
1574.000000	10.464800
1575.000000	10.465606
1576.000000	10.464352
1577.000000	10.458819
1578.000000	10.457519
1579.000000	10.453503
1580.000000	10.449858
1581.000000	10.447648
1582.000000	10.442035
1583.000000	10.440582
1584.000000	10.436051
1585.000000	10.431104
1586.000000	10.426212
1587.000000	10.426016
1588.000000	10.422181
1589.000000	10.413217
1590.000000	10.406157
1591.000000	10.404063
1592.000000	10.403007
1593.000000	10.398395
1594.000000	10.391858
1595.000000	10.386107
1596.000000	10.379353
1597.000000	10.376895
1598.000000	10.374253
1599.000000	10.371412
1600.000000	10.359502
1601.000000	10.352808
1602.000000	10.346388
1603.000000	10.343880
1604.000000	10.340062
1605.000000	10.329467
1606.000000	10.325984
1607.000000	10.322309
1608.000000	10.311516
1609.000000	10.309242
1610.000000	10.302294
1611.000000	10.796971
1612.000000	10.797414
1613.000000	10.793257
1614.000000	10.795053
1615.000000	10.790037
1616.000000	10.782150
1617.000000	10.779877
1618.000000	10.780800
1619.000000	10.779261
1620.000000	10.773637
1621.000000	10.769558
1622.000000	10.769584
1623.000000	10.763628
1624.000000	10.763172
1625.000000	10.760886
1626.000000	10.757416
1627.000000	10.754410
1628.000000	10.751086
1629.000000	10.749913
1630.000000	10.744723
1631.000000	10.739269
1632.000000	10.741219
1633.000000	10.737955
1634.000000	10.735547
1635.000000	10.732491
1636.000000	10.730317
1637.000000	10.731971
1638.000000	10.728135
1639.000000	10.730233
1640.000000	10.727733
1641.000000	10.730168
1642.000000	10.730183
1643.000000	10.728857
1644.000000	10.729423
1645.000000	10.718861
1646.000000	10.722181
1647.000000	10.721885
1648.000000	10.725681
1649.000000	10.726554
1650.000000	10.728506
1651.000000	10.735233
1652.000000	10.737918
1653.000000	10.741475
1654.000000	10.745121
1655.000000	10.745720
1656.000000	10.751318
1657.000000	10.762023
1658.000000	10.772390
1659.000000	10.775535
1660.000000	10.783092
1661.000000	10.790509
1662.000000	10.803643
1663.000000	10.318451
1664.000000	10.326902
1665.000000	10.337406
1666.000000	10.357340
1667.000000	10.364999
1668.000000	10.407877
1669.000000	10.423499
1670.000000	10.437558
1671.000000	10.452815
1672.000000	10.474725
1673.000000	10.488617
1674.000000	10.504802
1675.000000	10.524303
1676.000000	10.537841
1677.000000	10.560301
1678.000000	10.081052
1679.000000	10.099291
1680.000000	10.123540
1681.000000	10.141554
1682.000000	10.158562
1683.000000	10.179115
1684.000000	10.192775
1685.000000	10.218983
1686.000000	10.226099
1687.000000	10.231717
1688.000000	10.240242
1689.000000	10.239215
1690.000000	10.243949
1691.000000	10.237382
1692.000000	10.236255
1693.000000	10.235870
1694.000000	10.241236
1695.000000	10.228400
1696.000000	10.237319
1697.000000	10.242716
1698.000000	10.243664
1699.000000	10.256087
1700.000000	10.253461
1701.000000	10.266236
1702.000000	10.269204
1703.000000	10.279135
1704.000000	10.293123
1705.000000	9.797656
1706.000000	9.819426
1707.000000	9.825440
1708.000000	9.838320
1709.000000	9.852789
1710.000000	9.870087
1711.000000	9.883582
1712.000000	9.901398
1713.000000	9.917069
1714.000000	9.943761
1715.000000	9.966030
1716.000000	9.981838
1717.000000	10.018240
1718.000000	10.038487
1719.000000	10.058497
1720.000000	10.075854
1721.000000	10.089254
1722.000000	10.094903
1723.000000	10.103061
1724.000000	10.107602
1725.000000	9.610029
1726.000000	9.606138
1727.000000	9.608061
1728.000000	9.607697
1729.000000	9.602271
1730.000000	10.093526
1731.000000	9.582669
1732.000000	10.076152
1733.000000	10.062244
1734.000000	10.043185
1735.000000	10.028944
1736.000000	10.016474
1737.000000	10.001362
1738.000000	9.997030
1739.000000	9.981825
1740.000000	9.968167
1741.000000	9.957818
1742.000000	9.950546
1743.000000	9.943041
1744.000000	9.931178
1745.000000	9.923584
1746.000000	9.912171
1747.000000	9.914818
1748.000000	9.901349
1749.000000	9.908067
1750.000000	9.911604
1751.000000	9.906986
1752.000000	9.912027
1753.000000	9.911760
1754.000000	9.912668
1755.000000	9.912031
1756.000000	9.912419
1757.000000	9.912675
1758.000000	9.916581
1759.000000	9.918017
1760.000000	9.913765
1761.000000	9.912743
1762.000000	9.911122
1763.000000	9.905731
1764.000000	9.905179
1765.000000	9.895516
1766.000000	9.883806
1767.000000	9.873453
1768.000000	9.866652
1769.000000	9.859006
1770.000000	9.849292
1771.000000	9.843541
1772.000000	9.841815
1773.000000	9.834461
1774.000000	9.826217
1775.000000	9.818748
1776.000000	9.811435
1777.000000	9.801717
1778.000000	9.794819
1779.000000	9.790030
1780.000000	9.781041
1781.000000	9.778513
1782.000000	9.779543
1783.000000	10.273151
1784.000000	10.271213
1785.000000	10.267710
1786.000000	10.268607
1787.000000	10.273812
1788.000000	10.277133
1789.000000	10.273545
1790.000000	10.277346
1791.000000	10.276240
1792.000000	10.274520
1793.000000	10.272136
1794.000000	10.268318
1795.000000	10.270184
1796.000000	10.272586
1797.000000	10.273994
1798.000000	10.278304
1799.000000	10.278418
1800.000000	10.267118
1801.000000	10.249035
1802.000000	10.250567
1803.000000	10.265721
1804.000000	10.270597
1805.000000	10.257712
1806.000000	10.240901
1807.000000	10.245933
1808.000000	10.264743
1809.000000	10.272314
1810.000000	10.260265
1811.000000	10.242319
1812.000000	10.240921
1813.000000	10.255485
1814.000000	10.254404
1815.000000	10.241589
1816.000000	10.250937
1817.000000	10.287509
1818.000000	10.311323
1819.000000	10.289750
1820.000000	10.229834
1821.000000	10.186404
1822.000000	10.204063
1823.000000	10.260092
1824.000000	10.293837
1825.000000	10.292292
1826.000000	10.274632
1827.000000	10.260841
1828.000000	10.259365
1829.000000	10.250693
1830.000000	10.226874
1831.000000	10.228062
1832.000000	10.258250
1833.000000	10.297852
1834.000000	10.311812
1835.000000	10.290367
1836.000000	10.251031
1837.000000	10.234454
1838.000000	10.243877
1839.000000	10.236813
1840.000000	10.200214
1841.000000	10.142873
1842.000000	10.132970
1843.000000	10.195774
1844.000000	10.287620
1845.000000	10.341101
1846.000000	10.300896
1847.000000	10.195036
1848.000000	10.124331
1849.000000	10.141616
1850.000000	10.205624
1851.000000	10.254849
1852.000000	10.262259
1853.000000	10.249030
1854.000000	10.232505
1855.000000	10.235897
1856.000000	10.266175
1857.000000	10.283318
1858.000000	10.259343
1859.000000	10.232889
1860.000000	10.228355
1861.000000	10.229543
1862.000000	10.260703
1863.000000	10.315498
1864.000000	10.364273
1865.000000	10.406891
1866.000000	10.440940
1867.000000	10.460201
1868.000000	10.474790
1869.000000	10.449084
1870.000000	9.913315
1871.000000	10.400568
1872.000000	9.884119
1873.000000	9.880917
1874.000000	9.899846
1875.000000	9.907044
1876.000000	9.942547
1877.000000	9.976947
1878.000000	10.016256
1879.000000	10.069200
1880.000000	9.635326
1881.000000	9.684937
1882.000000	9.718873
1883.000000	9.744471
1884.000000	9.272904
1885.000000	9.309567
1886.000000	9.369584
1887.000000	9.447296
1888.000000	9.509547
1889.000000	9.562761
1890.000000	9.107518
1891.000000	9.129944
1892.000000	9.162258
1893.000000	9.225920
1894.000000	8.814041
1895.000000	8.907268
1896.000000	8.984917
1897.000000	9.051399
1898.000000	9.093130
1899.000000	8.621207
1900.000000	8.662460
1901.000000	8.720404
1902.000000	8.791558
1903.000000	8.353318
1904.000000	8.376952
1905.000000	8.386750
1906.000000	8.415936
1907.000000	8.464864
1908.000000	8.520002
1909.000000	8.094578
1910.000000	8.151925
1911.000000	8.187909
1912.000000	8.188033
1913.000000	8.190307
1914.000000	7.718025
1915.000000	7.753702
1916.000000	7.802644
1917.000000	7.850500
1918.000000	7.876516
1919.000000	7.882243
1920.000000	7.884311
1921.000000	7.892694
1922.000000	7.897704
1923.000000	7.427314
1924.000000	7.456832
1925.000000	7.467510
1926.000000	7.472196
1927.000000	7.473315
1928.000000	7.479550
1929.000000	7.474619
1930.000000	7.472285
1931.000000	7.481871
1932.000000	7.497074
1933.000000	7.506896
1934.000000	7.508667
1935.000000	7.515803
1936.000000	7.510903
1937.000000	7.507087
1938.000000	7.492330
1939.000000	7.480423
1940.000000	7.474828
1941.000000	7.479385
1942.000000	7.479567
1943.000000	7.478135
1944.000000	7.465736
1945.000000	7.458735
1946.000000	7.447478
1947.000000	7.432318
1948.000000	7.437030
1949.000000	7.423528
1950.000000	7.418178
1951.000000	7.415453
1952.000000	7.400107
1953.000000	7.387261
1954.000000	7.381911
1955.000000	7.371835
1956.000000	7.358507
1957.000000	7.353936
1958.000000	7.836408
1959.000000	7.834308
1960.000000	7.820181
1961.000000	7.814739
1962.000000	7.803070
1963.000000	7.790640
1964.000000	7.779945
1965.000000	7.775629
1966.000000	7.763265
1967.000000	7.757962
1968.000000	7.754051
1969.000000	7.742535
1970.000000	7.729636
1971.000000	7.723557
1972.000000	7.716807
1973.000000	7.708099
1974.000000	7.693732
1975.000000	7.691706
1976.000000	7.682209
1977.000000	7.670493
1978.000000	7.656971
1979.000000	7.654444
1980.000000	8.138906
1981.000000	8.127248
1982.000000	8.117821
1983.000000	8.114563
1984.000000	8.105979
1985.000000	8.093704
1986.000000	8.089738
1987.000000	8.078159
1988.000000	8.074348
1989.000000	8.064300
1990.000000	8.058067
1991.000000	8.050274
1992.000000	8.034754
1993.000000	8.036105
1994.000000	8.029776
1995.000000	8.020131
1996.000000	8.013041
1997.000000	8.507418
1998.000000	8.502194
1999.000000	8.002019
2000.000000	7.996256
2001.000000	7.997036
2002.000000	7.990650
2003.000000	7.988259
2004.000000	7.984538
2005.000000	7.983709
2006.000000	8.480648
2007.000000	8.488628
2008.000000	8.488291
2009.000000	8.489713
2010.000000	8.490819
2011.000000	8.495125
2012.000000	8.492860
2013.000000	8.495615
2014.000000	8.501342
2015.000000	8.503497
2016.000000	8.507432
2017.000000	8.517641
2018.000000	8.523027
2019.000000	8.526058
2020.000000	8.536688
2021.000000	8.543648
2022.000000	8.551116
2023.000000	8.563034
2024.000000	8.573072
2025.000000	8.085300
2026.000000	8.098956
2027.000000	8.110396
2028.000000	8.119170
2029.000000	8.127734
2030.000000	8.148615
2031.000000	8.163461
2032.000000	8.176744
2033.000000	8.187926
2034.000000	8.210407
2035.000000	8.227159
2036.000000	8.246863
2037.000000	8.262072
2038.000000	8.282880
2039.000000	8.301068
2040.000000	8.320011
2041.000000	8.345926
2042.000000	8.363901
2043.000000	8.382450
2044.000000	8.402891
2045.000000	8.420469
2046.000000	8.433065
2047.000000	8.446040
2048.000000	7.954823
2049.000000	7.963035
2050.000000	7.973310
2051.000000	8.471527
2052.000000	8.471314
2053.000000	8.472104
2054.000000	7.970293
2055.000000	7.964397
2056.000000	8.461026
2057.000000	8.456107
2058.000000	8.438425
2059.000000	8.427923
2060.000000	8.418219
2061.000000	8.411140
2062.000000	8.395893
2063.000000	8.377937
2064.000000	8.366769
2065.000000	8.359650
2066.000000	8.345798
2067.000000	8.334339
2068.000000	8.326607
2069.000000	8.312352
2070.000000	8.304427
2071.000000	8.300024
2072.000000	8.289955
2073.000000	8.284086
2074.000000	8.278512
2075.000000	8.270039
2076.000000	8.765995
2077.000000	8.761614
2078.000000	8.756197
2079.000000	8.754035
2080.000000	8.752471
2081.000000	8.753728
2082.000000	8.754978
2083.000000	8.753487
2084.000000	8.757200
2085.000000	8.760505
2086.000000	8.757709
2087.000000	8.759977
2088.000000	8.769571
2089.000000	8.777642
2090.000000	8.776531
2091.000000	8.776017
2092.000000	8.779480
2093.000000	8.784422
2094.000000	8.790428
2095.000000	8.798539
2096.000000	8.800169
2097.000000	8.804015
2098.000000	8.808817
2099.000000	8.807925
2100.000000	8.811205
2101.000000	8.818789
2102.000000	8.822374
2103.000000	8.826804
2104.000000	8.828979
2105.000000	8.829811
2106.000000	8.834735
2107.000000	8.840652
2108.000000	8.846782
2109.000000	8.853975
2110.000000	8.857340
2111.000000	8.860109
2112.000000	8.869342
2113.000000	8.874147
2114.000000	8.880397
2115.000000	8.887028
2116.000000	8.889334
2117.000000	8.894813
2118.000000	8.907529
2119.000000	8.914325
2120.000000	8.917101
2121.000000	8.927588
2122.000000	8.936040
2123.000000	8.939122
2124.000000	8.947909
2125.000000	8.957914
2126.000000	8.963086
2127.000000	8.975654
2128.000000	8.984239
2129.000000	8.990956
2130.000000	8.998458
2131.000000	9.015360
2132.000000	9.028094
2133.000000	9.035610
2134.000000	9.043305
2135.000000	9.055220
2136.000000	9.074108
2137.000000	9.085080
2138.000000	9.097046
2139.000000	9.109715
2140.000000	9.119403
2141.000000	9.133414
2142.000000	9.146209
2143.000000	9.157042
2144.000000	8.671176
2145.000000	9.184159
2146.000000	9.196660
2147.000000	9.212745
2148.000000	8.726827
2149.000000	8.735641
2150.000000	8.748306
2151.000000	8.765796
2152.000000	8.779836
2153.000000	8.289307
2154.000000	8.794974
2155.000000	8.806964
2156.000000	8.818792
2157.000000	8.832278
2158.000000	8.838894
2159.000000	8.341366
2160.000000	8.349146
2161.000000	8.356281
2162.000000	8.366801
2163.000000	8.373932
2164.000000	8.378887
2165.000000	8.382082
2166.000000	8.389200
2167.000000	8.399245
2168.000000	8.404561
2169.000000	8.410214
2170.000000	8.420460
2171.000000	8.426388
2172.000000	8.430803
2173.000000	8.431719
2174.000000	7.938191
2175.000000	8.446171
2176.000000	8.455845
2177.000000	7.961503
2178.000000	7.959266
2179.000000	7.468300
2180.000000	7.975363
2181.000000	7.988119
2182.000000	7.999709
2183.000000	8.002992
2184.000000	8.019380
2185.000000	8.035414
2186.000000	7.553041
2187.000000	7.565872
2188.000000	7.587811
2189.000000	7.608894
2190.000000	7.634987
2191.000000	7.655158
2192.000000	7.189943
2193.000000	7.219497
2194.000000	7.252869
2195.000000	7.281643
2196.000000	6.814756
2197.000000	7.341777
2198.000000	7.373809
2199.000000	7.403788
2200.000000	6.931320
2201.000000	6.954329
2202.000000	6.973537
2203.000000	6.996776
2204.000000	7.017141
2205.000000	6.531654
2206.000000	7.040536
2207.000000	6.547218
2208.000000	6.547149
2209.000000	6.539357
2210.000000	6.544964
2211.000000	6.530031
2212.000000	6.527315
2213.000000	7.010442
2214.000000	7.000942
2215.000000	6.987715
2216.000000	6.965221
2217.000000	6.948397
2218.000000	6.440383
2219.000000	6.427185
2220.000000	6.409789
2221.000000	6.894801
2222.000000	6.885615
2223.000000	6.864692
2224.000000	6.852499
2225.000000	6.839044
2226.000000	6.833270
2227.000000	6.816229
2228.000000	7.312128
2229.000000	6.814737
2230.000000	7.308493
2231.000000	7.298914
2232.000000	7.301731
2233.000000	7.291889
2234.000000	6.801756
2235.000000	7.305782
2236.000000	7.307283
2237.000000	7.306661
2238.000000	7.309194
2239.000000	7.316660
2240.000000	7.314676
2241.000000	7.323087
2242.000000	7.339058
2243.000000	7.341534
2244.000000	7.346279
2245.000000	7.356287
2246.000000	7.363310
2247.000000	7.372183
2248.000000	6.887120
2249.000000	7.390894
2250.000000	6.904969
2251.000000	7.414790
2252.000000	7.420450
2253.000000	7.428450
2254.000000	7.438047
2255.000000	7.448786
2256.000000	6.950470
2257.000000	7.453438
2258.000000	7.460810
2259.000000	7.465887
2260.000000	7.473748
2261.000000	7.467737
2262.000000	7.466681
2263.000000	7.471337
2264.000000	7.474094
2265.000000	7.472359
2266.000000	7.469202
2267.000000	7.466886
2268.000000	7.468346
2269.000000	7.468303
2270.000000	7.467267
2271.000000	7.965969
2272.000000	7.452606
2273.000000	7.960787
2274.000000	7.455940
2275.000000	7.950713
2276.000000	7.952843
2277.000000	7.955958
2278.000000	7.953717
2279.000000	7.452712
2280.000000	7.949360
2281.000000	7.954042
2282.000000	7.949234
2283.000000	7.945957
2284.000000	7.960570
2285.000000	7.952808
2286.000000	7.950379
2287.000000	7.950439
2288.000000	7.949582
2289.000000	8.445994
2290.000000	7.943479
2291.000000	8.444767
2292.000000	8.446933
2293.000000	7.950334
2294.000000	8.446505
2295.000000	8.445852
2296.000000	8.442540
2297.000000	8.441657
2298.000000	8.435461
2299.000000	8.442061
2300.000000	8.435793
2301.000000	8.425915
2302.000000	8.423263
2303.000000	8.416495
2304.000000	8.415481
2305.000000	8.415309
2306.000000	8.409857
2307.000000	8.396284
2308.000000	8.391066
2309.000000	8.386808
2310.000000	8.878045
2311.000000	8.874651
2312.000000	8.869858
2313.000000	8.864840
2314.000000	8.857204
2315.000000	8.852443
2316.000000	8.846704
2317.000000	8.841924
2318.000000	8.845137
2319.000000	8.843803
2320.000000	8.837516
2321.000000	8.839438
2322.000000	8.839513
2323.000000	9.337538
2324.000000	9.344733
2325.000000	9.351501
2326.000000	9.353585
2327.000000	9.349945
2328.000000	8.855179
2329.000000	8.855509
2330.000000	8.853946
2331.000000	9.358644
2332.000000	9.361570
2333.000000	9.361369
2334.000000	9.361645
2335.000000	9.364211
2336.000000	9.365353
2337.000000	9.367306
2338.000000	9.366318
2339.000000	9.362950
2340.000000	9.362463
2341.000000	9.361586
2342.000000	9.360230
2343.000000	9.363693
2344.000000	9.861359
2345.000000	9.858907
2346.000000	9.857229
2347.000000	9.859285
2348.000000	9.855209
2349.000000	9.847994
2350.000000	9.849070
2351.000000	9.348572
2352.000000	9.844877
2353.000000	9.843947
2354.000000	9.340767
2355.000000	9.339193
2356.000000	9.839427
2357.000000	9.841872
2358.000000	9.341731
2359.000000	9.337724
2360.000000	9.832980
2361.000000	9.833678
2362.000000	9.834438
2363.000000	9.834950
2364.000000	9.838504
2365.000000	10.336767
2366.000000	9.834022
2367.000000	9.834395
2368.000000	10.333466
2369.000000	10.329040
2370.000000	10.327319
2371.000000	10.329153
2372.000000	9.830405
2373.000000	9.831310
2374.000000	9.832628
2375.000000	10.332530
2376.000000	10.332832
2377.000000	9.832469
2378.000000	9.833745
2379.000000	9.837376
2380.000000	9.837208
2381.000000	10.334948
2382.000000	10.336765
2383.000000	9.840022
2384.000000	10.341367
2385.000000	10.343462
2386.000000	10.843861
2387.000000	10.348323
2388.000000	10.851637
2389.000000	10.352244
2390.000000	10.359838
2391.000000	9.863690
2392.000000	10.361948
2393.000000	10.865509
2394.000000	10.873529
2395.000000	10.380900
2396.000000	10.386626
2397.000000	10.389405
2398.000000	9.891941
2399.000000	9.896453
2400.000000	10.403474
2401.000000	9.907575
2402.000000	10.414563
2403.000000	10.923532
2404.000000	10.924007
2405.000000	10.431283
2406.000000	9.937913
2407.000000	9.947864
2408.000000	10.457142
2409.000000	10.464881
2410.000000	10.472177
2411.000000	10.981109
2412.000000	10.990499
2413.000000	10.493929
2414.000000	11.003823
2415.000000	10.517299
2416.000000	11.027754
2417.000000	11.041786
2418.000000	10.550008
2419.000000	10.559709
2420.000000	10.571118
2421.000000	10.582266
2422.000000	11.095590
2423.000000	10.614102
2424.000000	11.123804
2425.000000	11.633937
2426.000000	11.146443
2427.000000	10.162773
2428.000000	10.672209
2429.000000	11.187870
2430.000000	11.199620
2431.000000	10.712234
2432.000000	10.724760
2433.000000	10.732587
2434.000000	10.749433
2435.000000	11.254926
2436.000000	11.269188
2437.000000	11.775847
2438.000000	11.291301
2439.000000	10.798944
2440.000000	11.311342
2441.000000	11.329808
2442.000000	11.342526
2443.000000	11.357500
2444.000000	10.863462
2445.000000	11.375523
2446.000000	11.886120
2447.000000	11.900982
2448.000000	11.410186
2449.000000	11.425580
2450.000000	12.429211
2451.000000	11.942614
2452.000000	11.954452
2453.000000	11.460246
2454.000000	12.470053
2455.000000	11.982070
2456.000000	11.982599
2457.000000	12.491148
2458.000000	12.999480
2459.000000	13.513023
2460.000000	12.532927
2461.000000	12.533845
2462.000000	12.542239
2463.000000	12.547525
2464.000000	12.552504
2465.000000	13.558056
2466.000000	13.066811
2467.000000	14.056446
2468.000000	14.572484
2469.000000	14.578001
2470.000000	14.590465
2471.000000	14.582478
2472.000000	15.078523
2473.000000	15.090373
2474.000000	14.101863
2475.000000	15.596164
2476.000000	15.604107
2477.000000	15.601610
2478.000000	16.609801
2479.000000	15.608340
2480.000000	16.615482
2481.000000	16.109134
2482.000000	17.108219
2483.000000	17.620229
2484.000000	18.132779
2485.000000	18.101227
2486.000000	18.099950
2487.000000	19.098424
2488.000000	18.598661
2489.000000	20.126683
2490.000000	19.596764
2491.000000	19.098005
2492.000000	19.080753
2493.000000	20.584357
2494.000000	20.604308
2495.000000	19.594202
2496.000000	21.573007
2497.000000	21.562567
2498.000000	23.572870
2499.000000	23.564902
2500.000000	21.051859
2501.000000	nan
2502.000000	nan
2503.000000	nan
2504.000000	nan
2505.000000	nan
2506.000000	nan
2507.000000	nan
2508.000000	nan
2509.000000	nan
2510.000000	nan
2511.000000	nan
2512.000000	nan
2513.000000	nan
2514.000000	nan
2515.000000	nan
2516.000000	nan
2517.000000	nan
2518.000000	nan
2519.000000	nan
2520.000000	nan
2521.000000	nan
2522.000000	nan
2523.000000	nan
2524.000000	nan
2525.000000	nan
2526.000000	nan
2527.000000	nan
2528.000000	nan
2529.000000	nan
2530.000000	nan
2531.000000	nan
2532.000000	nan
2533.000000	nan
2534.000000	nan
2535.000000	nan
2536.000000	nan
2537.000000	nan
2538.000000	nan
2539.000000	nan
2540.000000	nan
2541.000000	nan
2542.000000	nan
2543.000000	nan
2544.000000	nan
2545.000000	nan
2546.000000	nan
2547.000000	nan
2548.000000	nan
2549.000000	nan
2550.000000	nan
2551.000000	nan
2552.000000	nan
2553.000000	nan
2554.000000	nan
2555.000000	nan
2556.000000	nan
2557.000000	nan
2558.000000	nan
2559.000000	nan
2560.000000	nan
2561.000000	nan
2562.000000	nan
2563.000000	nan
2564.000000	nan
2565.000000	nan
2566.000000	nan
2567.000000	nan
2568.000000	nan
2569.000000	nan
2570.000000	nan
2571.000000	nan
2572.000000	nan
2573.000000	nan
2574.000000	nan
2575.000000	nan
2576.000000	nan
2577.000000	nan
2578.000000	nan
2579.000000	nan
2580.000000	nan
2581.000000	nan
2582.000000	nan
2583.000000	nan
2584.000000	nan
2585.000000	nan
2586.000000	nan
2587.000000	nan
2588.000000	nan
2589.000000	nan
2590.000000	nan
2591.000000	nan
2592.000000	nan
2593.000000	nan
2594.000000	nan
2595.000000	nan
2596.000000	nan
2597.000000	nan
2598.000000	nan
2599.000000	nan
2600.000000	nan
2601.000000	nan
2602.000000	nan
2603.000000	nan
2604.000000	nan
2605.000000	nan
2606.000000	nan
2607.000000	nan
2608.000000	nan
2609.000000	nan
2610.000000	nan
2611.000000	nan
2612.000000	nan
2613.000000	nan
2614.000000	nan
2615.000000	nan
2616.000000	nan
2617.000000	nan
2618.000000	nan
2619.000000	nan
2620.000000	nan
2621.000000	nan
2622.000000	nan
2623.000000	nan
2624.000000	nan
2625.000000	nan
2626.000000	nan
2627.000000	nan
2628.000000	nan
2629.000000	nan
2630.000000	nan
2631.000000	nan
2632.000000	nan
2633.000000	nan
2634.000000	nan
2635.000000	nan
2636.000000	nan
2637.000000	nan
2638.000000	nan
2639.000000	nan
2640.000000	nan
2641.000000	nan
2642.000000	nan
2643.000000	nan
2644.000000	nan
2645.000000	nan
2646.000000	nan
2647.000000	nan
2648.000000	nan
2649.000000	nan
2650.000000	nan
2651.000000	nan
2652.000000	nan
2653.000000	nan
2654.000000	nan
2655.000000	nan
2656.000000	nan
2657.000000	nan
2658.000000	nan
2659.000000	nan
2660.000000	nan
2661.000000	nan
2662.000000	nan
2663.000000	nan
2664.000000	nan
2665.000000	nan
2666.000000	nan
2667.000000	nan
2668.000000	nan
2669.000000	nan
2670.000000	nan
2671.000000	nan
2672.000000	nan
2673.000000	nan
2674.000000	nan
2675.000000	nan
2676.000000	nan
2677.000000	nan
2678.000000	nan
2679.000000	nan
2680.000000	nan
2681.000000	nan
2682.000000	nan
2683.000000	nan
2684.000000	nan
2685.000000	nan
2686.000000	nan
2687.000000	nan
2688.000000	nan
2689.000000	nan
2690.000000	nan
2691.000000	nan
2692.000000	nan
2693.000000	nan
2694.000000	nan
2695.000000	nan
2696.000000	nan
2697.000000	nan
2698.000000	nan
2699.000000	nan
2700.000000	nan
2701.000000	nan
2702.000000	nan
2703.000000	nan
2704.000000	nan
2705.000000	nan
2706.000000	nan
2707.000000	nan
2708.000000	nan
2709.000000	nan
2710.000000	nan
2711.000000	nan
2712.000000	nan
2713.000000	nan
2714.000000	nan
2715.000000	nan
2716.000000	nan
2717.000000	nan
2718.000000	nan
2719.000000	nan
2720.000000	nan
2721.000000	nan
2722.000000	nan
2723.000000	nan
2724.000000	nan
2725.000000	nan
2726.000000	nan
2727.000000	nan
2728.000000	nan
2729.000000	nan
2730.000000	nan
2731.000000	nan
2732.000000	nan
2733.000000	nan
2734.000000	nan
2735.000000	nan
2736.000000	nan
2737.000000	nan
2738.000000	nan
2739.000000	nan
2740.000000	nan
2741.000000	nan
2742.000000	nan
2743.000000	nan
2744.000000	nan
2745.000000	nan
2746.000000	nan
2747.000000	nan
2748.000000	nan
2749.000000	nan
2750.000000	nan
2751.000000	nan
2752.000000	nan
2753.000000	nan
2754.000000	nan
2755.000000	nan
2756.000000	nan
2757.000000	nan
2758.000000	nan
2759.000000	nan
2760.000000	nan
2761.000000	nan
2762.000000	nan
2763.000000	nan
2764.000000	nan
2765.000000	nan
2766.000000	nan
2767.000000	nan
2768.000000	nan
2769.000000	nan
2770.000000	nan
2771.000000	nan
2772.000000	nan
2773.000000	nan
2774.000000	nan
2775.000000	nan
2776.000000	nan
2777.000000	nan
2778.000000	nan
2779.000000	nan
2780.000000	nan
2781.000000	nan
2782.000000	nan
2783.000000	nan
2784.000000	nan
2785.000000	nan
2786.000000	nan
2787.000000	nan
2788.000000	nan
2789.000000	nan
2790.000000	nan
2791.000000	nan
2792.000000	nan
2793.000000	nan
2794.000000	nan
2795.000000	nan
2796.000000	nan
2797.000000	nan
2798.000000	nan
2799.000000	nan
2800.000000	nan
2801.000000	nan
2802.000000	nan
2803.000000	nan
2804.000000	nan
2805.000000	nan
2806.000000	nan
2807.000000	nan
2808.000000	nan
2809.000000	nan
2810.000000	nan
2811.000000	nan
2812.000000	nan
2813.000000	nan
2814.000000	nan
2815.000000	nan
2816.000000	nan
2817.000000	nan
2818.000000	nan
2819.000000	nan
2820.000000	nan
2821.000000	nan
2822.000000	nan
2823.000000	nan
2824.000000	nan
2825.000000	nan
2826.000000	nan
2827.000000	nan
2828.000000	nan
2829.000000	nan
2830.000000	nan
2831.000000	nan
2832.000000	nan
2833.000000	nan
2834.000000	nan
2835.000000	nan
2836.000000	nan
2837.000000	nan
2838.000000	nan
2839.000000	nan
2840.000000	nan
2841.000000	nan
2842.000000	nan
2843.000000	nan
2844.000000	nan
2845.000000	nan
2846.000000	nan
2847.000000	nan
2848.000000	nan
2849.000000	nan
2850.000000	nan
2851.000000	nan
2852.000000	nan
2853.000000	nan
2854.000000	nan
2855.000000	nan
2856.000000	nan
2857.000000	nan
2858.000000	nan
2859.000000	nan
2860.000000	nan
2861.000000	nan
2862.000000	nan
2863.000000	nan
2864.000000	nan
2865.000000	nan
2866.000000	nan
2867.000000	nan
2868.000000	nan
2869.000000	nan
2870.000000	nan
2871.000000	nan
2872.000000	nan
2873.000000	nan
2874.000000	nan
2875.000000	nan
2876.000000	nan
2877.000000	nan
2878.000000	nan
2879.000000	nan
2880.000000	nan
2881.000000	nan
2882.000000	nan
2883.000000	nan
2884.000000	nan
2885.000000	nan
2886.000000	nan
2887.000000	nan
2888.000000	nan
2889.000000	nan
2890.000000	nan
2891.000000	nan
2892.000000	nan
2893.000000	nan
2894.000000	nan
2895.000000	nan
2896.000000	nan
2897.000000	nan
2898.000000	nan
2899.000000	nan
2900.000000	nan
2901.000000	nan
2902.000000	nan
2903.000000	nan
2904.000000	nan
2905.000000	nan
2906.000000	nan
2907.000000	nan
2908.000000	nan
2909.000000	nan
2910.000000	nan
2911.000000	nan
2912.000000	nan
2913.000000	nan
2914.000000	nan
2915.000000	nan
2916.000000	nan
2917.000000	nan
2918.000000	nan
2919.000000	nan
2920.000000	nan
2921.000000	nan
2922.000000	nan
2923.000000	nan
2924.000000	nan
2925.000000	nan
2926.000000	nan
2927.000000	nan
2928.000000	nan
2929.000000	nan
2930.000000	nan
2931.000000	nan
2932.000000	nan
2933.000000	nan
2934.000000	nan
2935.000000	nan
2936.000000	nan
2937.000000	nan
2938.000000	nan
2939.000000	nan
2940.000000	nan
2941.000000	nan
2942.000000	nan
2943.000000	nan
2944.000000	nan
2945.000000	nan
2946.000000	nan
2947.000000	nan
2948.000000	nan
2949.000000	nan
2950.000000	nan
2951.000000	nan
2952.000000	nan
2953.000000	nan
2954.000000	nan
2955.000000	nan
2956.000000	nan
2957.000000	nan
2958.000000	nan
2959.000000	nan
2960.000000	nan
2961.000000	nan
2962.000000	nan
2963.000000	nan
2964.000000	nan
2965.000000	nan
2966.000000	nan
2967.000000	nan
2968.000000	nan
2969.000000	nan
2970.000000	nan
2971.000000	nan
2972.000000	nan
2973.000000	nan
2974.000000	nan
2975.000000	nan
2976.000000	nan
2977.000000	nan
2978.000000	nan
2979.000000	nan
2980.000000	nan
2981.000000	nan
2982.000000	nan
2983.000000	nan
2984.000000	nan
2985.000000	nan
2986.000000	nan
2987.000000	nan
2988.000000	nan
2989.000000	nan
2990.000000	nan
2991.000000	nan
2992.000000	nan
2993.000000	nan
2994.000000	nan
2995.000000	nan
2996.000000	nan
2997.000000	nan
2998.000000	nan
2999.000000	nan
3000.000000	nan
